"success","ttype","start_time","trial_type","trial_index","time_elapsed","internal_node_id","warning","missed_checkup","PID","view_history","rt","responses","repeat_instructions","key_press","index","keypress_isi","keypress_S2","block","trial_num","phase","group_type","pair_type","S1_stim","S2_stim","S1_img","S2_img","S1_chosen","S1_higher","accuracy","keypress_iti","total_bonus_tally"
"true","full_screen","d03072023hr2234","fullscreen","0","13791","0.0-0.0","0","0","56233","","","","","","","","","","","","","","","","","","","","","",""
"","instructions","","instructions","1","52164","0.0-1.0-0.0-0.0","0","0","56233","[{""page_index"":0,""viewing_time"":7764},{""page_index"":1,""viewing_time"":18471},{""page_index"":2,""viewing_time"":9355},{""page_index"":3,""viewing_time"":2779}]","38370","","","","","","","","","","","","","","","","","","","",""
"","comprehension_check","","survey-multi-choice","2","87986","0.0-1.0-0.0-1.0","0","0","56233","","35813","{""Q0"":""True"",""Q1"":""D"",""Q2"":""Once the second image appears and while the screen 'MAKE A CHOICE' is shown"",""Q3"":""Green mark"",""Q4"":""either D or K""}","1","","","","","","","","","","","","","","","","","",""
"","missed_instruction_checkup","","html-keyboard-response","3","90266","0.0-1.0-0.0-2.0-0.0","0","1","56233","","2275","","","32","","","","","","","","","","","","","","","","",""
"","instructions","","instructions","4","114453","0.0-1.0-0.1-0.1","0","0","56233","[{""page_index"":0,""viewing_time"":2708},{""page_index"":1,""viewing_time"":14868},{""page_index"":2,""viewing_time"":5500},{""page_index"":3,""viewing_time"":1108}]","24184","","","","","","","","","","","","","","","","","","","",""
"","comprehension_check","","survey-multi-choice","5","134871","0.0-1.0-0.1-1.1","0","0","56233","","20412","{""Q0"":""True"",""Q1"":""K"",""Q2"":""Once the second image appears and while the screen 'MAKE A CHOICE' is shown"",""Q3"":""Green mark"",""Q4"":""either D or K""}","0","","","","","","","","","","","","","","","","","",""
"","start_exp","","html-keyboard-response","6","136397","0.0-1.0-1.0","0","0","56233","","1523","","","32","","","","","","","","","","","","","","","","",""
"","S1","","html-keyboard-response","7","136655","0.0-1.0-2.0","0","0","56233","","null","","","null","0","","","","","","","","","","","","","","","",""
"","ISI","","html-keyboard-response","8","137663","0.0-1.0-3.0","0","0","56233","","null","","","null","0","NaN","","","","","","","","","","","","","","",""
"","S2","","html-keyboard-response","9","137919","0.0-1.0-4.0","0","0","56233","","null","","","null","0","","NaN","","","","","","","","","","","","","",""
"","response","","html-keyboard-response","10","139439","0.0-1.0-5.0-0.0","0","0","56233","","1517","","","75","0","","","1","0","training","adjacent","DE","4","5","M.jpg","N.jpg","1","1","1","",""
"","feedback","","html-keyboard-response","11","140447","0.0-1.0-6.0-0.0","0","0","56233","","null","","","null","0","","","","","","","","","","","","","","","",""
"","ITI","","html-keyboard-response","12","141455","0.0-1.0-9.0","0","0","56233","","null","","","null","0","","","","","","","","","","","","","","","NaN",""
"","S1","","html-keyboard-response","13","141711","0.0-1.0-11.0","0","0","56233","","null","","","null","1","","","","","","","","","","","","","","","",""
"","ISI","","html-keyboard-response","14","142719","0.0-1.0-12.0","0","0","56233","","null","","","null","1","NaN","","","","","","","","","","","","","","",""
"","S2","","html-keyboard-response","15","142975","0.0-1.0-13.0","0","0","56233","","null","","","null","1","","NaN","","","","","","","","","","","","","",""
"","response","","html-keyboard-response","16","143785","0.0-1.0-14.0-0.0","0","0","56233","","807","","","75","1","","","1","1","training","adjacent","ED","5","4","N.jpg","M.jpg","1","0","0","",""
"","feedback","","html-keyboard-response","17","144791","0.0-1.0-15.0-0.0","0","0","56233","","null","","","null","1","","","","","","","","","","","","","","","",""
"","time_out","","html-keyboard-response","18","146798","0.0-1.0-17.0-0.0","0","0","56233","","null","","","null","1","","","","","","","","","","","","","","","",""
"","ITI","","html-keyboard-response","19","147807","0.0-1.0-18.0","0","0","56233","","null","","","null","1","","","","","","","","","","","","","","","NaN",""
"","S1","","html-keyboard-response","20","148063","0.0-1.0-20.0","0","0","56233","","null","","","null","2","","","","","","","","","","","","","","","",""
"","ISI","","html-keyboard-response","21","149071","0.0-1.0-21.0","0","0","56233","","null","","","null","2","NaN","","","","","","","","","","","","","","",""
"","S2","","html-keyboard-response","22","149327","0.0-1.0-22.0","0","0","56233","","null","","","null","2","","NaN","","","","","","","","","","","","","",""
"","response","","html-keyboard-response","23","150686","0.0-1.0-23.0-0.0","0","0","56233","","1356","","","68","2","","","1","2","training","adjacent","EF","5","6","N.jpg","R.jpg","0","1","0","",""
"","feedback","","html-keyboard-response","24","151694","0.0-1.0-24.0-0.0","0","0","56233","","null","","","null","2","","","","","","","","","","","","","","","",""
"","time_out","","html-keyboard-response","25","153703","0.0-1.0-26.0-0.0","0","0","56233","","null","","","null","2","","","","","","","","","","","","","","","",""
"","ITI","","html-keyboard-response","26","154711","0.0-1.0-27.0","0","0","56233","","null","","","null","2","","","","","","","","","","","","","","","NaN",""
"","S1","","html-keyboard-response","27","154967","0.0-1.0-29.0","0","0","56233","","null","","","null","3","","","","","","","","","","","","","","","",""
"","ISI","","html-keyboard-response","28","155974","0.0-1.0-30.0","0","0","56233","","null","","","null","3","NaN","","","","","","","","","","","","","","",""
"","S2","","html-keyboard-response","29","156231","0.0-1.0-31.0","0","0","56233","","null","","","null","3","","NaN","","","","","","","","","","","","","",""
"","response","","html-keyboard-response","30","156547","0.0-1.0-32.0-0.0","0","0","56233","","314","","","75","3","","","1","3","training","adjacent","BA","2","1","Q.jpg","L.jpg","1","0","0","",""
"","feedback","","html-keyboard-response","31","157551","0.0-1.0-33.0-0.0","0","0","56233","","null","","","null","3","","","","","","","","","","","","","","","",""
"","time_out","","html-keyboard-response","32","159559","0.0-1.0-35.0-0.0","0","0","56233","","null","","","null","3","","","","","","","","","","","","","","","",""
"","ITI","","html-keyboard-response","33","160567","0.0-1.0-36.0","0","0","56233","","null","","","null","3","","","","","","","","","","","","","","","NaN",""
"","S1","","html-keyboard-response","34","160823","0.0-1.0-38.0","0","0","56233","","null","","","null","4","","","","","","","","","","","","","","","",""
"","ISI","","html-keyboard-response","35","161831","0.0-1.0-39.0","0","0","56233","","null","","","null","4","NaN","","","","","","","","","","","","","","",""
"","S2","","html-keyboard-response","36","162087","0.0-1.0-40.0","0","0","56233","","null","","","null","4","","NaN","","","","","","","","","","","","","",""
"","response","","html-keyboard-response","37","162991","0.0-1.0-41.0-0.0","0","0","56233","","902","","","68","4","","","1","4","training","adjacent","DC","4","3","M.jpg","O.jpg","0","0","1","",""
"","feedback","","html-keyboard-response","38","163999","0.0-1.0-42.0-0.0","0","0","56233","","null","","","null","4","","","","","","","","","","","","","","","",""
"","ITI","","html-keyboard-response","39","165007","0.0-1.0-45.0","0","0","56233","","null","","","null","4","","","","","","","","","","","","","","","NaN",""
"","S1","","html-keyboard-response","40","165263","0.0-1.0-47.0","0","0","56233","","null","","","null","5","","","","","","","","","","","","","","","",""
"","ISI","","html-keyboard-response","41","166271","0.0-1.0-48.0","0","0","56233","","null","","","null","5","NaN","","","","","","","","","","","","","","",""
"","S2","","html-keyboard-response","42","166527","0.0-1.0-49.0","0","0","56233","","null","","","null","5","","NaN","","","","","","","","","","","","","",""
"","response","","html-keyboard-response","43","167673","0.0-1.0-50.0-0.0","0","0","56233","","1143","","","75","5","","","1","5","training","adjacent","AB","1","2","L.jpg","Q.jpg","1","1","1","",""
"","feedback","","html-keyboard-response","44","168682","0.0-1.0-51.0-0.0","0","0","56233","","null","","","null","5","","","","","","","","","","","","","","","",""
"","ITI","","html-keyboard-response","45","169688","0.0-1.0-54.0","0","0","56233","","null","","","null","5","","","","","","","","","","","","","","","NaN",""
"","S1","","html-keyboard-response","46","169942","0.0-1.0-56.0","0","0","56233","","null","","","null","6","","","","","","","","","","","","","","","",""
"","ISI","","html-keyboard-response","47","170951","0.0-1.0-57.0","0","0","56233","","null","","","null","6","NaN","","","","","","","","","","","","","","",""
"","S2","","html-keyboard-response","48","171207","0.0-1.0-58.0","0","0","56233","","null","","","null","6","","NaN","","","","","","","","","","","","","",""
"","response","","html-keyboard-response","49","172474","0.0-1.0-59.0-0.0","0","0","56233","","1264","","","75","6","","","1","6","training","adjacent","DC","4","3","M.jpg","O.jpg","1","0","0","",""
"","feedback","","html-keyboard-response","50","173479","0.0-1.0-60.0-0.0","0","0","56233","","null","","","null","6","","","","","","","","","","","","","","","",""
"","time_out","","html-keyboard-response","51","175486","0.0-1.0-62.0-0.0","0","0","56233","","null","","","null","6","","","","","","","","","","","","","","","",""
"","ITI","","html-keyboard-response","52","176495","0.0-1.0-63.0","0","0","56233","","null","","","null","6","","","","","","","","","","","","","","","NaN",""
"","S1","","html-keyboard-response","53","176751","0.0-1.0-65.0","0","0","56233","","null","","","null","7","","","","","","","","","","","","","","","",""
"","ISI","","html-keyboard-response","54","177759","0.0-1.0-66.0","0","0","56233","","null","","","null","7","NaN","","","","","","","","","","","","","","",""
"","S2","","html-keyboard-response","55","178015","0.0-1.0-67.0","0","0","56233","","null","","","null","7","","NaN","","","","","","","","","","","","","",""
"","response","","html-keyboard-response","56","178637","0.0-1.0-68.0-0.0","0","0","56233","","620","","","75","7","","","1","7","training","adjacent","CB","3","2","O.jpg","Q.jpg","1","0","0","",""
"","feedback","","html-keyboard-response","57","179647","0.0-1.0-69.0-0.0","0","0","56233","","null","","","null","7","","","","","","","","","","","","","","","",""
"","time_out","","html-keyboard-response","58","181655","0.0-1.0-71.0-0.0","0","0","56233","","null","","","null","7","","","","","","","","","","","","","","","",""
"","ITI","","html-keyboard-response","59","182662","0.0-1.0-72.0","0","0","56233","","null","","","null","7","","","","","","","","","","","","","","","NaN",""
"","S1","","html-keyboard-response","60","182919","0.0-1.0-74.0","0","0","56233","","null","","","null","8","","","","","","","","","","","","","","","",""
"","ISI","","html-keyboard-response","61","183927","0.0-1.0-75.0","0","0","56233","","null","","","null","8","NaN","","","","","","","","","","","","","","",""
"","S2","","html-keyboard-response","62","184186","0.0-1.0-76.0","0","0","56233","","null","","","null","8","","NaN","","","","","","","","","","","","","",""
"","response","","html-keyboard-response","63","184860","0.0-1.0-77.0-0.0","0","0","56233","","671","","","75","8","","","1","8","training","adjacent","AB","1","2","L.jpg","Q.jpg","1","1","1","",""
"","feedback","","html-keyboard-response","64","185871","0.0-1.0-78.0-0.0","0","0","56233","","null","","","null","8","","","","","","","","","","","","","","","",""
"","ITI","","html-keyboard-response","65","186879","0.0-1.0-81.0","0","0","56233","","null","","","null","8","","","","","","","","","","","","","","","NaN",""
"","S1","","html-keyboard-response","66","187135","0.0-1.0-83.0","0","0","56233","","null","","","null","9","","","","","","","","","","","","","","","",""
"","ISI","","html-keyboard-response","67","188143","0.0-1.0-84.0","0","0","56233","","null","","","null","9","NaN","","","","","","","","","","","","","","",""
"","S2","","html-keyboard-response","68","188399","0.0-1.0-85.0","0","0","56233","","null","","","null","9","","NaN","","","","","","","","","","","","","",""
"","response","","html-keyboard-response","69","189293","0.0-1.0-86.0-0.0","0","0","56233","","891","","","75","9","","","1","9","training","adjacent","DE","4","5","M.jpg","N.jpg","1","1","1","",""
"","feedback","","html-keyboard-response","70","190303","0.0-1.0-87.0-0.0","0","0","56233","","null","","","null","9","","","","","","","","","","","","","","","",""
"","ITI","","html-keyboard-response","71","191310","0.0-1.0-90.0","0","0","56233","","null","","","null","9","","","","","","","","","","","","","","","NaN",""
"","S1","","html-keyboard-response","72","191567","0.0-1.0-92.0","0","0","56233","","null","","","null","10","","","","","","","","","","","","","","","",""
"","ISI","","html-keyboard-response","73","192578","0.0-1.0-93.0","0","0","56233","","null","","","null","10","NaN","","","","","","","","","","","","","","",""
"","S2","","html-keyboard-response","74","192839","0.0-1.0-94.0","0","0","56233","","null","","","null","10","","NaN","","","","","","","","","","","","","",""
"","response","","html-keyboard-response","75","193773","0.0-1.0-95.0-0.0","0","0","56233","","931","","","68","10","","","1","10","training","adjacent","EF","5","6","N.jpg","R.jpg","0","1","0","",""
"","feedback","","html-keyboard-response","76","194786","0.0-1.0-96.0-0.0","0","0","56233","","null","","","null","10","","","","","","","","","","","","","","","",""
"","time_out","","html-keyboard-response","77","196791","0.0-1.0-98.0-0.0","0","0","56233","","null","","","null","10","","","","","","","","","","","","","","","",""
"","ITI","","html-keyboard-response","78","197799","0.0-1.0-99.0","0","0","56233","","null","","","null","10","","","","","","","","","","","","","","","NaN",""
"","S1","","html-keyboard-response","79","198055","0.0-1.0-101.0","0","0","56233","","null","","","null","11","","","","","","","","","","","","","","","",""
"","ISI","","html-keyboard-response","80","199062","0.0-1.0-102.0","0","0","56233","","null","","","null","11","NaN","","","","","","","","","","","","","","",""
"","S2","","html-keyboard-response","81","199319","0.0-1.0-103.0","0","0","56233","","null","","","null","11","","NaN","","","","","","","","","","","","","",""
"","response","","html-keyboard-response","82","199710","0.0-1.0-104.0-0.0","0","0","56233","","389","","","75","11","","","1","11","training","adjacent","AB","1","2","L.jpg","Q.jpg","1","1","1","",""
"","feedback","","html-keyboard-response","83","200719","0.0-1.0-105.0-0.0","0","0","56233","","null","","","null","11","","","","","","","","","","","","","","","",""
"","ITI","","html-keyboard-response","84","201727","0.0-1.0-108.0","0","0","56233","","null","","","null","11","","","","","","","","","","","","","","","NaN",""
"","S1","","html-keyboard-response","85","201986","0.0-1.0-110.0","0","0","56233","","null","","","null","12","","","","","","","","","","","","","","","",""
"","ISI","","html-keyboard-response","86","202991","0.0-1.0-111.0","0","0","56233","","null","","","null","12","NaN","","","","","","","","","","","","","","",""
"","S2","","html-keyboard-response","87","203246","0.0-1.0-112.0","0","0","56233","","null","","","null","12","","NaN","","","","","","","","","","","","","",""
"","response","","html-keyboard-response","88","204305","0.0-1.0-113.0-0.0","0","0","56233","","1056","","","68","12","","","1","12","training","adjacent","BC","2","3","Q.jpg","O.jpg","0","1","0","",""
"","feedback","","html-keyboard-response","89","205310","0.0-1.0-114.0-0.0","0","0","56233","","null","","","null","12","","","","","","","","","","","","","","","",""
"","time_out","","html-keyboard-response","90","207318","0.0-1.0-116.0-0.0","0","0","56233","","null","","","null","12","","","","","","","","","","","","","","","",""
"","ITI","","html-keyboard-response","91","208327","0.0-1.0-117.0","0","0","56233","","null","","","null","12","","","","","","","","","","","","","","","NaN",""
"","S1","","html-keyboard-response","92","208586","0.0-1.0-119.0","0","0","56233","","null","","","null","13","","","","","","","","","","","","","","","",""
"","ISI","","html-keyboard-response","93","209591","0.0-1.0-120.0","0","0","56233","","null","","","null","13","NaN","","","","","","","","","","","","","","",""
"","S2","","html-keyboard-response","94","209847","0.0-1.0-121.0","0","0","56233","","null","","","null","13","","NaN","","","","","","","","","","","","","",""
"","response","","html-keyboard-response","95","210315","0.0-1.0-122.0-0.0","0","0","56233","","466","","","75","13","","","1","13","training","adjacent","DC","4","3","M.jpg","O.jpg","1","0","0","",""
"","feedback","","html-keyboard-response","96","211327","0.0-1.0-123.0-0.0","0","0","56233","","null","","","null","13","","","","","","","","","","","","","","","",""
"","time_out","","html-keyboard-response","97","213335","0.0-1.0-125.0-0.0","0","0","56233","","null","","","null","13","","","","","","","","","","","","","","","",""
"","ITI","","html-keyboard-response","98","214343","0.0-1.0-126.0","0","0","56233","","null","","","null","13","","","","","","","","","","","","","","","NaN",""
"","S1","","html-keyboard-response","99","214599","0.0-1.0-128.0","0","0","56233","","null","","","null","14","","","","","","","","","","","","","","","",""
"","ISI","","html-keyboard-response","100","215607","0.0-1.0-129.0","0","0","56233","","null","","","null","14","NaN","","","","","","","","","","","","","","",""
"","S2","","html-keyboard-response","101","215863","0.0-1.0-130.0","0","0","56233","","null","","","null","14","","NaN","","","","","","","","","","","","","",""
"","response","","html-keyboard-response","102","216578","0.0-1.0-131.0-0.0","0","0","56233","","712","","","68","14","","","1","14","training","adjacent","ED","5","4","N.jpg","M.jpg","0","0","1","",""
"","feedback","","html-keyboard-response","103","217587","0.0-1.0-132.0-0.0","0","0","56233","","null","","","null","14","","","","","","","","","","","","","","","",""
"","ITI","","html-keyboard-response","104","218591","0.0-1.0-135.0","0","0","56233","","null","","","null","14","","","","","","","","","","","","","","","NaN",""
"","S1","","html-keyboard-response","105","218847","0.0-1.0-137.0","0","0","56233","","null","","","null","15","","","","","","","","","","","","","","","",""
"","ISI","","html-keyboard-response","106","219855","0.0-1.0-138.0","0","0","56233","","null","","","null","15","NaN","","","","","","","","","","","","","","",""
"","S2","","html-keyboard-response","107","220111","0.0-1.0-139.0","0","0","56233","","null","","","null","15","","NaN","","","","","","","","","","","","","",""
"","response","","html-keyboard-response","108","220898","0.0-1.0-140.0-0.0","0","0","56233","","785","","","75","15","","","1","15","training","adjacent","CB","3","2","O.jpg","Q.jpg","1","0","0","",""
"","feedback","","html-keyboard-response","109","221903","0.0-1.0-141.0-0.0","0","0","56233","","null","","","null","15","","","","","","","","","","","","","","","",""
"","time_out","","html-keyboard-response","110","223911","0.0-1.0-143.0-0.0","0","0","56233","","null","","","null","15","","","","","","","","","","","","","","","",""
"","ITI","","html-keyboard-response","111","224919","0.0-1.0-144.0","0","0","56233","","null","","","null","15","","","","","","","","","","","","","","","NaN",""
"","S1","","html-keyboard-response","112","225175","0.0-1.0-146.0","0","0","56233","","null","","","null","16","","","","","","","","","","","","","","","",""
"","ISI","","html-keyboard-response","113","226187","0.0-1.0-147.0","0","0","56233","","null","","","null","16","NaN","","","","","","","","","","","","","","",""
"","S2","","html-keyboard-response","114","226447","0.0-1.0-148.0","0","0","56233","","null","","","null","16","","NaN","","","","","","","","","","","","","",""
"","response","","html-keyboard-response","115","227138","0.0-1.0-149.0-0.0","0","0","56233","","688","","","68","16","","","1","16","training","adjacent","CD","3","4","O.jpg","M.jpg","0","1","0","",""
"","feedback","","html-keyboard-response","116","228143","0.0-1.0-150.0-0.0","0","0","56233","","null","","","null","16","","","","","","","","","","","","","","","",""
"","time_out","","html-keyboard-response","117","230151","0.0-1.0-152.0-0.0","0","0","56233","","null","","","null","16","","","","","","","","","","","","","","","",""
"","ITI","","html-keyboard-response","118","231159","0.0-1.0-153.0","0","0","56233","","null","","","null","16","","","","","","","","","","","","","","","NaN",""
"","S1","","html-keyboard-response","119","231415","0.0-1.0-155.0","0","0","56233","","null","","","null","17","","","","","","","","","","","","","","","",""
"","ISI","","html-keyboard-response","120","232423","0.0-1.0-156.0","0","0","56233","","null","","","null","17","NaN","","","","","","","","","","","","","","",""
"","S2","","html-keyboard-response","121","232679","0.0-1.0-157.0","0","0","56233","","null","","","null","17","","NaN","","","","","","","","","","","","","",""
"","response","","html-keyboard-response","122","233489","0.0-1.0-158.0-0.0","0","0","56233","","809","","","68","17","","","1","17","training","adjacent","GF","7","6","P.jpg","R.jpg","0","0","1","",""
"","feedback","","html-keyboard-response","123","234495","0.0-1.0-159.0-0.0","0","0","56233","","null","","","null","17","","","","","","","","","","","","","","","",""
"","ITI","","html-keyboard-response","124","235503","0.0-1.0-162.0","0","0","56233","","null","","","null","17","","","","","","","","","","","","","","","NaN",""
"","S1","","html-keyboard-response","125","235759","0.0-1.0-164.0","0","0","56233","","null","","","null","18","","","","","","","","","","","","","","","",""
"","ISI","","html-keyboard-response","126","236766","0.0-1.0-165.0","0","0","56233","","null","","","null","18","NaN","","","","","","","","","","","","","","",""
"","S2","","html-keyboard-response","127","237024","0.0-1.0-166.0","0","0","56233","","null","","","null","18","","NaN","","","","","","","","","","","","","",""
"","response","","html-keyboard-response","128","237803","0.0-1.0-167.0-0.0","0","0","56233","","778","","","68","18","","","1","18","training","adjacent","BA","2","1","Q.jpg","L.jpg","0","0","1","",""
"","feedback","","html-keyboard-response","129","238807","0.0-1.0-168.0-0.0","0","0","56233","","null","","","null","18","","","","","","","","","","","","","","","",""
"","ITI","","html-keyboard-response","130","239815","0.0-1.0-171.0","0","0","56233","","null","","","null","18","","","","","","","","","","","","","","","NaN",""
"","S1","","html-keyboard-response","131","240071","0.0-1.0-173.0","0","0","56233","","null","","","null","19","","","","","","","","","","","","","","","",""
"","ISI","","html-keyboard-response","132","241078","0.0-1.0-174.0","0","0","56233","","null","","","null","19","NaN","","","","","","","","","","","","","","",""
"","S2","","html-keyboard-response","133","241336","0.0-1.0-175.0","0","0","56233","","null","","","null","19","","NaN","","","","","","","","","","","","","",""
"","response","","html-keyboard-response","134","242139","0.0-1.0-176.0-0.0","0","0","56233","","801","","","68","19","","","1","19","training","adjacent","ED","5","4","N.jpg","M.jpg","0","0","1","",""
"","feedback","","html-keyboard-response","135","243143","0.0-1.0-177.0-0.0","0","0","56233","","null","","","null","19","","","","","","","","","","","","","","","",""
"","ITI","","html-keyboard-response","136","244151","0.0-1.0-180.0","0","0","56233","","null","","","null","19","","","","","","","","","","","","","","","NaN",""
"","S1","","html-keyboard-response","137","244408","0.0-1.0-182.0","0","0","56233","","null","","","null","20","","","","","","","","","","","","","","","",""
"","ISI","","html-keyboard-response","138","245415","0.0-1.0-183.0","0","0","56233","","null","","","null","20","NaN","","","","","","","","","","","","","","",""
"","S2","","html-keyboard-response","139","245671","0.0-1.0-184.0","0","0","56233","","null","","","null","20","","NaN","","","","","","","","","","","","","",""
"","response","","html-keyboard-response","140","246387","0.0-1.0-185.0-0.0","0","0","56233","","714","","","68","20","","","1","20","training","adjacent","CD","3","4","O.jpg","M.jpg","0","1","0","",""
"","feedback","","html-keyboard-response","141","247391","0.0-1.0-186.0-0.0","0","0","56233","","null","","","null","20","","","","","","","","","","","","","","","",""
"","time_out","","html-keyboard-response","142","249399","0.0-1.0-188.0-0.0","0","0","56233","","null","","","null","20","","","","","","","","","","","","","","","",""
"","ITI","","html-keyboard-response","143","250407","0.0-1.0-189.0","0","0","56233","","null","","","null","20","","","","","","","","","","","","","","","NaN",""
"","S1","","html-keyboard-response","144","250663","0.0-1.0-191.0","0","0","56233","","null","","","null","21","","","","","","","","","","","","","","","",""
"","ISI","","html-keyboard-response","145","251671","0.0-1.0-192.0","0","0","56233","","null","","","null","21","NaN","","","","","","","","","","","","","","",""
"","S2","","html-keyboard-response","146","251927","0.0-1.0-193.0","0","0","56233","","null","","","null","21","","NaN","","","","","","","","","","","","","",""
"","response","","html-keyboard-response","147","252387","0.0-1.0-194.0-0.0","0","0","56233","","458","","","75","21","","","1","21","training","adjacent","FE","6","5","R.jpg","N.jpg","1","0","0","",""
"","feedback","","html-keyboard-response","148","253391","0.0-1.0-195.0-0.0","0","0","56233","","null","","","null","21","","","","","","","","","","","","","","","",""
"","time_out","","html-keyboard-response","149","255400","0.0-1.0-197.0-0.0","0","0","56233","","null","","","null","21","","","","","","","","","","","","","","","",""
"","ITI","","html-keyboard-response","150","256408","0.0-1.0-198.0","0","0","56233","","null","","","null","21","","","","","","","","","","","","","","","NaN",""
"","S1","","html-keyboard-response","151","256663","0.0-1.0-200.0","0","0","56233","","null","","","null","22","","","","","","","","","","","","","","","",""
"","ISI","","html-keyboard-response","152","257671","0.0-1.0-201.0","0","0","56233","","null","","","null","22","NaN","","","","","","","","","","","","","","",""
"","S2","","html-keyboard-response","153","257928","0.0-1.0-202.0","0","0","56233","","null","","","null","22","","NaN","","","","","","","","","","","","","",""
"","response","","html-keyboard-response","154","258401","0.0-1.0-203.0-0.0","0","0","56233","","472","","","68","22","","","1","22","training","adjacent","CD","3","4","O.jpg","M.jpg","0","1","0","",""
"","feedback","","html-keyboard-response","155","259408","0.0-1.0-204.0-0.0","0","0","56233","","null","","","null","22","","","","","","","","","","","","","","","",""
"","time_out","","html-keyboard-response","156","261415","0.0-1.0-206.0-0.0","0","0","56233","","null","","","null","22","","","","","","","","","","","","","","","",""
"","ITI","","html-keyboard-response","157","262423","0.0-1.0-207.0","0","0","56233","","null","","","null","22","","","","","","","","","","","","","","","NaN",""
"","S1","","html-keyboard-response","158","262679","0.0-1.0-209.0","0","0","56233","","null","","","null","23","","","","","","","","","","","","","","","",""
"","ISI","","html-keyboard-response","159","263687","0.0-1.0-210.0","0","0","56233","","null","","","null","23","NaN","","","","","","","","","","","","","","",""
"","S2","","html-keyboard-response","160","263943","0.0-1.0-211.0","0","0","56233","","null","","","null","23","","NaN","","","","","","","","","","","","","",""
"","response","","html-keyboard-response","161","264553","0.0-1.0-212.0-0.0","0","0","56233","","607","","","68","23","","","1","23","training","adjacent","BC","2","3","Q.jpg","O.jpg","0","1","0","",""
"","feedback","","html-keyboard-response","162","265560","0.0-1.0-213.0-0.0","0","0","56233","","null","","","null","23","","","","","","","","","","","","","","","",""
"","time_out","","html-keyboard-response","163","267567","0.0-1.0-215.0-0.0","0","0","56233","","null","","","null","23","","","","","","","","","","","","","","","",""
"","ITI","","html-keyboard-response","164","268575","0.0-1.0-216.0","0","0","56233","","null","","","null","23","","","","","","","","","","","","","","","NaN",""
"","S1","","html-keyboard-response","165","268830","0.0-1.0-218.0","0","0","56233","","null","","","null","24","","","","","","","","","","","","","","","",""
"","ISI","","html-keyboard-response","166","269840","0.0-1.0-219.0","0","0","56233","","null","","","null","24","NaN","","","","","","","","","","","","","","",""
"","S2","","html-keyboard-response","167","270096","0.0-1.0-220.0","0","0","56233","","null","","","null","24","","NaN","","","","","","","","","","","","","",""
"","response","","html-keyboard-response","168","270959","0.0-1.0-221.0-0.0","0","0","56233","","860","","","68","24","","","1","24","training","adjacent","FG","6","7","R.jpg","P.jpg","0","1","0","",""
"","feedback","","html-keyboard-response","169","271967","0.0-1.0-222.0-0.0","0","0","56233","","null","","","null","24","","","","","","","","","","","","","","","",""
"","time_out","","html-keyboard-response","170","273975","0.0-1.0-224.0-0.0","0","0","56233","","null","","","null","24","","","","","","","","","","","","","","","",""
"","ITI","","html-keyboard-response","171","274987","0.0-1.0-225.0","0","0","56233","","null","","","null","24","","","","","","","","","","","","","","","NaN",""
"","S1","","html-keyboard-response","172","275248","0.0-1.0-227.0","0","0","56233","","null","","","null","25","","","","","","","","","","","","","","","",""
"","ISI","","html-keyboard-response","173","276255","0.0-1.0-228.0","0","0","56233","","null","","","null","25","NaN","","","","","","","","","","","","","","",""
"","S2","","html-keyboard-response","174","276511","0.0-1.0-229.0","0","0","56233","","null","","","null","25","","NaN","","","","","","","","","","","","","",""
"","response","","html-keyboard-response","175","276903","0.0-1.0-230.0-0.0","0","0","56233","","389","","","68","25","","","1","25","training","adjacent","BC","2","3","Q.jpg","O.jpg","0","1","0","",""
"","feedback","","html-keyboard-response","176","277912","0.0-1.0-231.0-0.0","0","0","56233","","null","","","null","25","","","","","","","","","","","","","","","",""
"","time_out","","html-keyboard-response","177","279920","0.0-1.0-233.0-0.0","0","0","56233","","null","","","null","25","","","","","","","","","","","","","","","",""
"","ITI","","html-keyboard-response","178","280928","0.0-1.0-234.0","0","0","56233","","null","","","null","25","","","","","","","","","","","","","","","NaN",""
"","S1","","html-keyboard-response","179","281187","0.0-1.0-236.0","0","0","56233","","null","","","null","26","","","","","","","","","","","","","","","",""
"","ISI","","html-keyboard-response","180","282192","0.0-1.0-237.0","0","0","56233","","null","","","null","26","NaN","","","","","","","","","","","","","","",""
"","S2","","html-keyboard-response","181","282448","0.0-1.0-238.0","0","0","56233","","null","","","null","26","","NaN","","","","","","","","","","","","","",""
"","response","","html-keyboard-response","182","283460","0.0-1.0-239.0-0.0","0","0","56233","","1010","","","75","26","","","1","26","training","adjacent","CB","3","2","O.jpg","Q.jpg","1","0","0","",""
"","feedback","","html-keyboard-response","183","284472","0.0-1.0-240.0-0.0","0","0","56233","","null","","","null","26","","","","","","","","","","","","","","","",""
"","time_out","","html-keyboard-response","184","286479","0.0-1.0-242.0-0.0","0","0","56233","","null","","","null","26","","","","","","","","","","","","","","","",""
"","ITI","","html-keyboard-response","185","287487","0.0-1.0-243.0","0","0","56233","","null","","","null","26","","","","","","","","","","","","","","","NaN",""
"","S1","","html-keyboard-response","186","287744","0.0-1.0-245.0","0","0","56233","","null","","","null","27","","","","","","","","","","","","","","","",""
"","ISI","","html-keyboard-response","187","288751","0.0-1.0-246.0","0","0","56233","","null","","","null","27","NaN","","","","","","","","","","","","","","",""
"","S2","","html-keyboard-response","188","289008","0.0-1.0-247.0","0","0","56233","","null","","","null","27","","NaN","","","","","","","","","","","","","",""
"","response","","html-keyboard-response","189","289849","0.0-1.0-248.0-0.0","0","0","56233","","839","","","68","27","","","1","27","training","adjacent","GF","7","6","P.jpg","R.jpg","0","0","1","",""
"","feedback","","html-keyboard-response","190","290856","0.0-1.0-249.0-0.0","0","0","56233","","null","","","null","27","","","","","","","","","","","","","","","",""
"","ITI","","html-keyboard-response","191","291864","0.0-1.0-252.0","0","0","56233","","null","","","null","27","","","","","","","","","","","","","","","NaN",""
"","S1","","html-keyboard-response","192","292120","0.0-1.0-254.0","0","0","56233","","null","","","null","28","","","","","","","","","","","","","","","",""
"","ISI","","html-keyboard-response","193","293127","0.0-1.0-255.0","0","0","56233","","null","","","null","28","NaN","","","","","","","","","","","","","","",""
"","S2","","html-keyboard-response","194","293386","0.0-1.0-256.0","0","0","56233","","null","","","null","28","","NaN","","","","","","","","","","","","","",""
"","response","","html-keyboard-response","195","293891","0.0-1.0-257.0-0.0","0","0","56233","","503","","","75","28","","","1","28","training","adjacent","FE","6","5","R.jpg","N.jpg","1","0","0","",""
"","feedback","","html-keyboard-response","196","294896","0.0-1.0-258.0-0.0","0","0","56233","","null","","","null","28","","","","","","","","","","","","","","","",""
"","time_out","","html-keyboard-response","197","296904","0.0-1.0-260.0-0.0","0","0","56233","","null","","","null","28","","","","","","","","","","","","","","","",""
"","ITI","","html-keyboard-response","198","297912","0.0-1.0-261.0","0","0","56233","","null","","","null","28","","","","","","","","","","","","","","","NaN",""
"","S1","","html-keyboard-response","199","298168","0.0-1.0-263.0","0","0","56233","","null","","","null","29","","","","","","","","","","","","","","","",""
"","ISI","","html-keyboard-response","200","299175","0.0-1.0-264.0","0","0","56233","","null","","","null","29","NaN","","","","","","","","","","","","","","",""
"","S2","","html-keyboard-response","201","299432","0.0-1.0-265.0","0","0","56233","","null","","","null","29","","NaN","","","","","","","","","","","","","",""
"","response","","html-keyboard-response","202","300066","0.0-1.0-266.0-0.0","0","0","56233","","631","","","68","29","","","1","29","training","adjacent","ED","5","4","N.jpg","M.jpg","0","0","1","",""
"","feedback","","html-keyboard-response","203","301072","0.0-1.0-267.0-0.0","0","0","56233","","null","","","null","29","","","","","","","","","","","","","","","",""
"","ITI","","html-keyboard-response","204","302080","0.0-1.0-270.0","0","0","56233","","null","","","null","29","","","","","","","","","","","","","","","NaN",""
"","S1","","html-keyboard-response","205","302336","0.0-1.0-272.0","0","0","56233","","null","","","null","30","","","","","","","","","","","","","","","",""
"","ISI","","html-keyboard-response","206","303343","0.0-1.0-273.0","0","0","56233","","null","","","null","30","NaN","","","","","","","","","","","","","","",""
"","S2","","html-keyboard-response","207","303600","0.0-1.0-274.0","0","0","56233","","null","","","null","30","","NaN","","","","","","","","","","","","","",""
"","response","","html-keyboard-response","208","304271","0.0-1.0-275.0-0.0","0","0","56233","","669","","","68","30","","","1","30","training","adjacent","BA","2","1","Q.jpg","L.jpg","0","0","1","",""
"","feedback","","html-keyboard-response","209","305280","0.0-1.0-276.0-0.0","0","0","56233","","null","","","null","30","","","","","","","","","","","","","","","",""
"","ITI","","html-keyboard-response","210","306287","0.0-1.0-279.0","0","0","56233","","null","","","null","30","","","","","","","","","","","","","","","NaN",""
"","S1","","html-keyboard-response","211","306544","0.0-1.0-281.0","0","0","56233","","null","","","null","31","","","","","","","","","","","","","","","",""
"","ISI","","html-keyboard-response","212","307552","0.0-1.0-282.0","0","0","56233","","null","","","null","31","NaN","","","","","","","","","","","","","","",""
"","S2","","html-keyboard-response","213","307807","0.0-1.0-283.0","0","0","56233","","null","","","null","31","","NaN","","","","","","","","","","","","","",""
"","response","","html-keyboard-response","214","308332","0.0-1.0-284.0-0.0","0","0","56233","","522","","","68","31","","","1","31","training","adjacent","BA","2","1","Q.jpg","L.jpg","0","0","1","",""
"","feedback","","html-keyboard-response","215","309344","0.0-1.0-285.0-0.0","0","0","56233","","null","","","null","31","","","","","","","","","","","","","","","",""
"","ITI","","html-keyboard-response","216","310352","0.0-1.0-288.0","0","0","56233","","null","","","null","31","","","","","","","","","","","","","","","NaN",""
"","S1","","html-keyboard-response","217","310608","0.0-1.0-290.0","0","0","56233","","null","","","null","32","","","","","","","","","","","","","","","",""
"","ISI","","html-keyboard-response","218","311615","0.0-1.0-291.0","0","0","56233","","null","","","null","32","NaN","","","","","","","","","","","","","","",""
"","S2","","html-keyboard-response","219","311872","0.0-1.0-292.0","0","0","56233","","null","","","null","32","","NaN","","","","","","","","","","","","","",""
"","response","","html-keyboard-response","220","312372","0.0-1.0-293.0-0.0","0","0","56233","","498","","","75","32","","","1","32","training","adjacent","AB","1","2","L.jpg","Q.jpg","1","1","1","",""
"","feedback","","html-keyboard-response","221","313387","0.0-1.0-294.0-0.0","0","0","56233","","null","","","null","32","","","","","","","","","","","","","","","",""
"","ITI","","html-keyboard-response","222","314392","0.0-1.0-297.0","0","0","56233","","null","","","null","32","","","","","","","","","","","","","","","NaN",""
"","S1","","html-keyboard-response","223","314648","0.0-1.0-299.0","0","0","56233","","null","","","null","33","","","","","","","","","","","","","","","",""
"","ISI","","html-keyboard-response","224","315655","0.0-1.0-300.0","0","0","56233","","null","","","null","33","NaN","","","","","","","","","","","","","","",""
"","S2","","html-keyboard-response","225","315912","0.0-1.0-301.0","0","0","56233","","null","","","null","33","","NaN","","","","","","","","","","","","","",""
"","response","","html-keyboard-response","226","316621","0.0-1.0-302.0-0.0","0","0","56233","","707","","","75","33","","","1","33","training","adjacent","FE","6","5","R.jpg","N.jpg","1","0","0","",""
"","feedback","","html-keyboard-response","227","317632","0.0-1.0-303.0-0.0","0","0","56233","","null","","","null","33","","","","","","","","","","","","","","","",""
"","time_out","","html-keyboard-response","228","319640","0.0-1.0-305.0-0.0","0","0","56233","","null","","","null","33","","","","","","","","","","","","","","","",""
"","ITI","","html-keyboard-response","229","320647","0.0-1.0-306.0","0","0","56233","","null","","","null","33","","","","","","","","","","","","","","","NaN",""
"","S1","","html-keyboard-response","230","320904","0.0-1.0-308.0","0","0","56233","","null","","","null","34","","","","","","","","","","","","","","","",""
"","ISI","","html-keyboard-response","231","321910","0.0-1.0-309.0","0","0","56233","","null","","","null","34","NaN","","","","","","","","","","","","","","",""
"","S2","","html-keyboard-response","232","322167","0.0-1.0-310.0","0","0","56233","","null","","","null","34","","NaN","","","","","","","","","","","","","",""
"","response","","html-keyboard-response","233","323037","0.0-1.0-311.0-0.0","0","0","56233","","868","","","68","34","","","1","34","training","adjacent","DE","4","5","M.jpg","N.jpg","0","1","0","",""
"","feedback","","html-keyboard-response","234","324046","0.0-1.0-312.0-0.0","0","0","56233","","null","","","null","34","","","","","","","","","","","","","","","",""
"","time_out","","html-keyboard-response","235","326054","0.0-1.0-314.0-0.0","0","0","56233","","null","","","null","34","","","","","","","","","","","","","","","",""
"","ITI","","html-keyboard-response","236","327062","0.0-1.0-315.0","0","0","56233","","null","","","null","34","","","","","","","","","","","","","","","NaN",""
"","S1","","html-keyboard-response","237","327319","0.0-1.0-317.0","0","0","56233","","null","","","null","35","","","","","","","","","","","","","","","",""
"","ISI","","html-keyboard-response","238","328328","0.0-1.0-318.0","0","0","56233","","null","","","null","35","NaN","","","","","","","","","","","","","","",""
"","S2","","html-keyboard-response","239","328587","0.0-1.0-319.0","0","0","56233","","null","","","null","35","","NaN","","","","","","","","","","","","","",""
"","response","","html-keyboard-response","240","329008","0.0-1.0-320.0-0.0","0","0","56233","","418","","","75","35","","","1","35","training","adjacent","DC","4","3","M.jpg","O.jpg","1","0","0","",""
"","feedback","","html-keyboard-response","241","330016","0.0-1.0-321.0-0.0","0","0","56233","","null","","","null","35","","","","","","","","","","","","","","","",""
"","time_out","","html-keyboard-response","242","332024","0.0-1.0-323.0-0.0","0","0","56233","","null","","","null","35","","","","","","","","","","","","","","","",""
"","ITI","","html-keyboard-response","243","333031","0.0-1.0-324.0","0","0","56233","","null","","","null","35","","","","","","","","","","","","","","","NaN",""
"","S1","","html-keyboard-response","244","333287","0.0-1.0-326.0","0","0","56233","","null","","","null","36","","","","","","","","","","","","","","","",""
"","ISI","","html-keyboard-response","245","334295","0.0-1.0-327.0","0","0","56233","","null","","","null","36","NaN","","","","","","","","","","","","","","",""
"","S2","","html-keyboard-response","246","334552","0.0-1.0-328.0","0","0","56233","","null","","","null","36","","NaN","","","","","","","","","","","","","",""
"","response","","html-keyboard-response","247","335363","0.0-1.0-329.0-0.0","0","0","56233","","810","","","68","36","","","1","36","training","adjacent","EF","5","6","N.jpg","R.jpg","0","1","0","",""
"","feedback","","html-keyboard-response","248","336367","0.0-1.0-330.0-0.0","0","0","56233","","null","","","null","36","","","","","","","","","","","","","","","",""
"","time_out","","html-keyboard-response","249","338375","0.0-1.0-332.0-0.0","0","0","56233","","null","","","null","36","","","","","","","","","","","","","","","",""
"","ITI","","html-keyboard-response","250","339387","0.0-1.0-333.0","0","0","56233","","null","","","null","36","","","","","","","","","","","","","","","NaN",""
"","S1","","html-keyboard-response","251","339646","0.0-1.0-335.0","0","0","56233","","null","","","null","37","","","","","","","","","","","","","","","",""
"","ISI","","html-keyboard-response","252","340655","0.0-1.0-336.0","0","0","56233","","null","","","null","37","NaN","","","","","","","","","","","","","","",""
"","S2","","html-keyboard-response","253","340910","0.0-1.0-337.0","0","0","56233","","null","","","null","37","","NaN","","","","","","","","","","","","","",""
"","response","","html-keyboard-response","254","342286","0.0-1.0-338.0-0.0","0","0","56233","","1373","","","75","37","","","1","37","training","adjacent","CB","3","2","O.jpg","Q.jpg","1","0","0","",""
"","feedback","","html-keyboard-response","255","343296","0.0-1.0-339.0-0.0","0","0","56233","","null","","","null","37","","","","","","","","","","","","","","","",""
"","time_out","","html-keyboard-response","256","345304","0.0-1.0-341.0-0.0","0","0","56233","","null","","","null","37","","","","","","","","","","","","","","","",""
"","ITI","","html-keyboard-response","257","346312","0.0-1.0-342.0","0","0","56233","","null","","","null","37","","","","","","","","","","","","","","","NaN",""
"","S1","","html-keyboard-response","258","346568","0.0-1.0-344.0","0","0","56233","","null","","","null","38","","","","","","","","","","","","","","","",""
"","ISI","","html-keyboard-response","259","347575","0.0-1.0-345.0","0","0","56233","","null","","","null","38","NaN","","","","","","","","","","","","","","",""
"","S2","","html-keyboard-response","260","347832","0.0-1.0-346.0","0","0","56233","","null","","","null","38","","NaN","","","","","","","","","","","","","",""
"","response","","html-keyboard-response","261","348658","0.0-1.0-347.0-0.0","0","0","56233","","823","","","68","38","","","1","38","training","adjacent","CD","3","4","O.jpg","M.jpg","0","1","0","",""
"","feedback","","html-keyboard-response","262","349664","0.0-1.0-348.0-0.0","0","0","56233","","null","","","null","38","","","","","","","","","","","","","","","",""
"","time_out","","html-keyboard-response","263","351672","0.0-1.0-350.0-0.0","0","0","56233","","null","","","null","38","","","","","","","","","","","","","","","",""
"","ITI","","html-keyboard-response","264","352680","0.0-1.0-351.0","0","0","56233","","null","","","null","38","","","","","","","","","","","","","","","NaN",""
"","S1","","html-keyboard-response","265","352936","0.0-1.0-353.0","0","0","56233","","null","","","null","39","","","","","","","","","","","","","","","",""
"","ISI","","html-keyboard-response","266","353944","0.0-1.0-354.0","0","0","56233","","null","","","null","39","NaN","","","","","","","","","","","","","","",""
"","S2","","html-keyboard-response","267","354200","0.0-1.0-355.0","0","0","56233","","null","","","null","39","","NaN","","","","","","","","","","","","","",""
"","response","","html-keyboard-response","268","354891","0.0-1.0-356.0-0.0","0","0","56233","","689","","","68","39","","","1","39","training","adjacent","GF","7","6","P.jpg","R.jpg","0","0","1","",""
"","feedback","","html-keyboard-response","269","355895","0.0-1.0-357.0-0.0","0","0","56233","","null","","","null","39","","","","","","","","","","","","","","","",""
"","ITI","","html-keyboard-response","270","356904","0.0-1.0-360.0","0","0","56233","","null","","","null","39","","","","","","","","","","","","","","","NaN",""
"","S1","","html-keyboard-response","271","357160","0.0-1.0-362.0","0","0","56233","","null","","","null","40","","","","","","","","","","","","","","","",""
"","ISI","","html-keyboard-response","272","358168","0.0-1.0-363.0","0","0","56233","","null","","","null","40","NaN","","","","","","","","","","","","","","",""
"","S2","","html-keyboard-response","273","358424","0.0-1.0-364.0","0","0","56233","","null","","","null","40","","NaN","","","","","","","","","","","","","",""
"","response","","html-keyboard-response","274","358864","0.0-1.0-365.0-0.0","0","0","56233","","437","","","68","40","","","1","40","training","adjacent","GF","7","6","P.jpg","R.jpg","0","0","1","",""
"","feedback","","html-keyboard-response","275","359872","0.0-1.0-366.0-0.0","0","0","56233","","null","","","null","40","","","","","","","","","","","","","","","",""
"","ITI","","html-keyboard-response","276","360880","0.0-1.0-369.0","0","0","56233","","null","","","null","40","","","","","","","","","","","","","","","NaN",""
"","S1","","html-keyboard-response","277","361136","0.0-1.0-371.0","0","0","56233","","null","","","null","41","","","","","","","","","","","","","","","",""
"","ISI","","html-keyboard-response","278","362144","0.0-1.0-372.0","0","0","56233","","null","","","null","41","NaN","","","","","","","","","","","","","","",""
"","S2","","html-keyboard-response","279","362399","0.0-1.0-373.0","0","0","56233","","null","","","null","41","","NaN","","","","","","","","","","","","","",""
"","response","","html-keyboard-response","280","362837","0.0-1.0-374.0-0.0","0","0","56233","","435","","","75","41","","","1","41","training","adjacent","FG","6","7","R.jpg","P.jpg","1","1","1","",""
"","feedback","","html-keyboard-response","281","363848","0.0-1.0-375.0-0.0","0","0","56233","","null","","","null","41","","","","","","","","","","","","","","","",""
"","ITI","","html-keyboard-response","282","364856","0.0-1.0-378.0","0","0","56233","","null","","","null","41","","","","","","","","","","","","","","","NaN",""
"","S1","","html-keyboard-response","283","365112","0.0-1.0-380.0","0","0","56233","","null","","","null","42","","","","","","","","","","","","","","","",""
"","ISI","","html-keyboard-response","284","366120","0.0-1.0-381.0","0","0","56233","","null","","","null","42","NaN","","","","","","","","","","","","","","",""
"","S2","","html-keyboard-response","285","366376","0.0-1.0-382.0","0","0","56233","","null","","","null","42","","NaN","","","","","","","","","","","","","",""
"","response","","html-keyboard-response","286","367575","0.0-1.0-383.0-0.0","0","0","56233","","1196","","","75","42","","","1","42","training","adjacent","EF","5","6","N.jpg","R.jpg","1","1","1","",""
"","feedback","","html-keyboard-response","287","368588","0.0-1.0-384.0-0.0","0","0","56233","","null","","","null","42","","","","","","","","","","","","","","","",""
"","ITI","","html-keyboard-response","288","369592","0.0-1.0-387.0","0","0","56233","","null","","","null","42","","","","","","","","","","","","","","","NaN",""
"","S1","","html-keyboard-response","289","369848","0.0-1.0-389.0","0","0","56233","","null","","","null","43","","","","","","","","","","","","","","","",""
"","ISI","","html-keyboard-response","290","370856","0.0-1.0-390.0","0","0","56233","","null","","","null","43","NaN","","","","","","","","","","","","","","",""
"","S2","","html-keyboard-response","291","371112","0.0-1.0-391.0","0","0","56233","","null","","","null","43","","NaN","","","","","","","","","","","","","",""
"","response","","html-keyboard-response","292","371844","0.0-1.0-392.0-0.0","0","0","56233","","729","","","68","43","","","1","43","training","adjacent","FG","6","7","R.jpg","P.jpg","0","1","0","",""
"","feedback","","html-keyboard-response","293","372856","0.0-1.0-393.0-0.0","0","0","56233","","null","","","null","43","","","","","","","","","","","","","","","",""
"","time_out","","html-keyboard-response","294","374864","0.0-1.0-395.0-0.0","0","0","56233","","null","","","null","43","","","","","","","","","","","","","","","",""
"","ITI","","html-keyboard-response","295","375871","0.0-1.0-396.0","0","0","56233","","null","","","null","43","","","","","","","","","","","","","","","NaN",""
"","S1","","html-keyboard-response","296","376128","0.0-1.0-398.0","0","0","56233","","null","","","null","44","","","","","","","","","","","","","","","",""
"","ISI","","html-keyboard-response","297","377136","0.0-1.0-399.0","0","0","56233","","null","","","null","44","NaN","","","","","","","","","","","","","","",""
"","S2","","html-keyboard-response","298","377391","0.0-1.0-400.0","0","0","56233","","null","","","null","44","","NaN","","","","","","","","","","","","","",""
"","response","","html-keyboard-response","299","377989","0.0-1.0-401.0-0.0","0","0","56233","","595","","","75","44","","","1","44","training","adjacent","FG","6","7","R.jpg","P.jpg","1","1","1","",""
"","feedback","","html-keyboard-response","300","379000","0.0-1.0-402.0-0.0","0","0","56233","","null","","","null","44","","","","","","","","","","","","","","","",""
"","ITI","","html-keyboard-response","301","380007","0.0-1.0-405.0","0","0","56233","","null","","","null","44","","","","","","","","","","","","","","","NaN",""
"","S1","","html-keyboard-response","302","380264","0.0-1.0-407.0","0","0","56233","","null","","","null","45","","","","","","","","","","","","","","","",""
"","ISI","","html-keyboard-response","303","381271","0.0-1.0-408.0","0","0","56233","","null","","","null","45","NaN","","","","","","","","","","","","","","",""
"","S2","","html-keyboard-response","304","381528","0.0-1.0-409.0","0","0","56233","","null","","","null","45","","NaN","","","","","","","","","","","","","",""
"","response","","html-keyboard-response","305","382425","0.0-1.0-410.0-0.0","0","0","56233","","894","","","68","45","","","1","45","training","adjacent","DE","4","5","M.jpg","N.jpg","0","1","0","",""
"","feedback","","html-keyboard-response","306","383432","0.0-1.0-411.0-0.0","0","0","56233","","null","","","null","45","","","","","","","","","","","","","","","",""
"","time_out","","html-keyboard-response","307","385440","0.0-1.0-413.0-0.0","0","0","56233","","null","","","null","45","","","","","","","","","","","","","","","",""
"","ITI","","html-keyboard-response","308","386448","0.0-1.0-414.0","0","0","56233","","null","","","null","45","","","","","","","","","","","","","","","NaN",""
"","S1","","html-keyboard-response","309","386704","0.0-1.0-416.0","0","0","56233","","null","","","null","46","","","","","","","","","","","","","","","",""
"","ISI","","html-keyboard-response","310","387712","0.0-1.0-417.0","0","0","56233","","null","","","null","46","NaN","","","","","","","","","","","","","","",""
"","S2","","html-keyboard-response","311","387967","0.0-1.0-418.0","0","0","56233","","null","","","null","46","","NaN","","","","","","","","","","","","","",""
"","response","","html-keyboard-response","312","389226","0.0-1.0-419.0-0.0","0","0","56233","","1257","","","68","46","","","1","46","training","adjacent","BC","2","3","Q.jpg","O.jpg","0","1","0","",""
"","feedback","","html-keyboard-response","313","390232","0.0-1.0-420.0-0.0","0","0","56233","","null","","","null","46","","","","","","","","","","","","","","","",""
"","time_out","","html-keyboard-response","314","392240","0.0-1.0-422.0-0.0","0","0","56233","","null","","","null","46","","","","","","","","","","","","","","","",""
"","ITI","","html-keyboard-response","315","393249","0.0-1.0-423.0","0","0","56233","","null","","","null","46","","","","","","","","","","","","","","","NaN",""
"","S1","","html-keyboard-response","316","393504","0.0-1.0-425.0","0","0","56233","","null","","","null","47","","","","","","","","","","","","","","","",""
"","ISI","","html-keyboard-response","317","394508","0.0-1.0-426.0","0","0","56233","","null","","","null","47","NaN","","","","","","","","","","","","","","",""
"","S2","","html-keyboard-response","318","394772","0.0-1.0-427.0","0","0","56233","","null","","","null","47","","NaN","","","","","","","","","","","","","",""
"","response","","html-keyboard-response","319","395489","0.0-1.0-428.0-0.0","0","0","56233","","715","","","68","47","","","1","47","training","adjacent","FE","6","5","R.jpg","N.jpg","0","0","1","",""
"","feedback","","html-keyboard-response","320","396496","0.0-1.0-429.0-0.0","0","0","56233","","null","","","null","47","","","","","","","","","","","","","","","",""
"","ITI","","html-keyboard-response","321","397505","0.0-1.0-432.0","0","0","56233","","null","","","null","47","","","","","","","","","","","","","","","NaN",""
"","block_over","","html-keyboard-response","322","404810","0.0-1.0-433.0-0.0","0","0","56233","","7301","","","32","47","","","","","","","","","","","","","","","",""
"","S1","","html-keyboard-response","323","405072","0.0-1.0-434.0","0","0","56233","","null","","","null","48","","","","","","","","","","","","","","","",""
"","ISI","","html-keyboard-response","324","406083","0.0-1.0-435.0","0","0","56233","","null","","","null","48","NaN","","","","","","","","","","","","","","",""
"","S2","","html-keyboard-response","325","406344","0.0-1.0-436.0","0","0","56233","","null","","","null","48","","NaN","","","","","","","","","","","","","",""
"","response","","html-keyboard-response","326","407241","0.0-1.0-437.0-0.0","0","0","56233","","894","","","75","48","","","2","48","training","adjacent","CB","3","2","O.jpg","Q.jpg","1","0","0","",""
"","feedback","","html-keyboard-response","327","408248","0.0-1.0-438.0-0.0","0","0","56233","","null","","","null","48","","","","","","","","","","","","","","","",""
"","time_out","","html-keyboard-response","328","410256","0.0-1.0-440.0-0.0","0","0","56233","","null","","","null","48","","","","","","","","","","","","","","","",""
"","ITI","","html-keyboard-response","329","411264","0.0-1.0-441.0","0","0","56233","","null","","","null","48","","","","","","","","","","","","","","","NaN",""
"","S1","","html-keyboard-response","330","411521","0.0-1.0-443.0","0","0","56233","","null","","","null","49","","","","","","","","","","","","","","","",""
"","ISI","","html-keyboard-response","331","412528","0.0-1.0-444.0","0","0","56233","","null","","","null","49","NaN","","","","","","","","","","","","","","",""
"","S2","","html-keyboard-response","332","412788","0.0-1.0-445.0","0","0","56233","","null","","","null","49","","NaN","","","","","","","","","","","","","",""
"","response","","html-keyboard-response","333","413588","0.0-1.0-446.0-0.0","0","0","56233","","797","","","68","49","","","2","49","training","adjacent","FE","6","5","R.jpg","N.jpg","0","0","1","",""
"","feedback","","html-keyboard-response","334","414592","0.0-1.0-447.0-0.0","0","0","56233","","null","","","null","49","","","","","","","","","","","","","","","",""
"","ITI","","html-keyboard-response","335","415599","0.0-1.0-450.0","0","0","56233","","null","","","null","49","","","","","","","","","","","","","","","NaN",""
"","S1","","html-keyboard-response","336","415856","0.0-1.0-452.0","0","0","56233","","null","","","null","50","","","","","","","","","","","","","","","",""
"","ISI","","html-keyboard-response","337","416863","0.0-1.0-453.0","0","0","56233","","null","","","null","50","NaN","","","","","","","","","","","","","","",""
"","S2","","html-keyboard-response","338","417120","0.0-1.0-454.0","0","0","56233","","null","","","null","50","","NaN","","","","","","","","","","","","","",""
"","response","","html-keyboard-response","339","418029","0.0-1.0-455.0-0.0","0","0","56233","","906","","","68","50","","","2","50","training","adjacent","CD","3","4","O.jpg","M.jpg","0","1","0","",""
"","feedback","","html-keyboard-response","340","419040","0.0-1.0-456.0-0.0","0","0","56233","","null","","","null","50","","","","","","","","","","","","","","","",""
"","time_out","","html-keyboard-response","341","421048","0.0-1.0-458.0-0.0","0","0","56233","","null","","","null","50","","","","","","","","","","","","","","","",""
"","ITI","","html-keyboard-response","342","422056","0.0-1.0-459.0","0","0","56233","","null","","","null","50","","","","","","","","","","","","","","","NaN",""
"","S1","","html-keyboard-response","343","422312","0.0-1.0-461.0","0","0","56233","","null","","","null","51","","","","","","","","","","","","","","","",""
"","ISI","","html-keyboard-response","344","423320","0.0-1.0-462.0","0","0","56233","","null","","","null","51","NaN","","","","","","","","","","","","","","",""
"","S2","","html-keyboard-response","345","423576","0.0-1.0-463.0","0","0","56233","","null","","","null","51","","NaN","","","","","","","","","","","","","",""
"","response","","html-keyboard-response","346","424521","0.0-1.0-464.0-0.0","0","0","56233","","942","","","68","51","","","2","51","training","adjacent","CD","3","4","O.jpg","M.jpg","0","1","0","",""
"","feedback","","html-keyboard-response","347","425528","0.0-1.0-465.0-0.0","0","0","56233","","null","","","null","51","","","","","","","","","","","","","","","",""
"","time_out","","html-keyboard-response","348","427537","0.0-1.0-467.0-0.0","0","0","56233","","null","","","null","51","","","","","","","","","","","","","","","",""
"","ITI","","html-keyboard-response","349","428544","0.0-1.0-468.0","0","0","56233","","null","","","null","51","","","","","","","","","","","","","","","NaN",""
"","S1","","html-keyboard-response","350","428800","0.0-1.0-470.0","0","0","56233","","null","","","null","52","","","","","","","","","","","","","","","",""
"","ISI","","html-keyboard-response","351","429808","0.0-1.0-471.0","0","0","56233","","null","","","null","52","NaN","","","","","","","","","","","","","","",""
"","S2","","html-keyboard-response","352","430063","0.0-1.0-472.0","0","0","56233","","null","","","null","52","","NaN","","","","","","","","","","","","","",""
"","response","","html-keyboard-response","353","430675","0.0-1.0-473.0-0.0","0","0","56233","","609","","","68","52","","","2","52","training","adjacent","GF","7","6","P.jpg","R.jpg","0","0","1","",""
"","feedback","","html-keyboard-response","354","431679","0.0-1.0-474.0-0.0","0","0","56233","","null","","","null","52","","","","","","","","","","","","","","","",""
"","ITI","","html-keyboard-response","355","432688","0.0-1.0-477.0","0","0","56233","","null","","","null","52","","","","","","","","","","","","","","","NaN",""
"","S1","","html-keyboard-response","356","432944","0.0-1.0-479.0","0","0","56233","","null","","","null","53","","","","","","","","","","","","","","","",""
"","ISI","","html-keyboard-response","357","433952","0.0-1.0-480.0","0","0","56233","","null","","","null","53","NaN","","","","","","","","","","","","","","",""
"","S2","","html-keyboard-response","358","434208","0.0-1.0-481.0","0","0","56233","","null","","","null","53","","NaN","","","","","","","","","","","","","",""
"","response","","html-keyboard-response","359","435258","0.0-1.0-482.0-0.0","0","0","56233","","1048","","","68","53","","","2","53","training","adjacent","DC","4","3","M.jpg","O.jpg","0","0","1","",""
"","feedback","","html-keyboard-response","360","436264","0.0-1.0-483.0-0.0","0","0","56233","","null","","","null","53","","","","","","","","","","","","","","","",""
"","ITI","","html-keyboard-response","361","437273","0.0-1.0-486.0","0","0","56233","","null","","","null","53","","","","","","","","","","","","","","","NaN",""
"","S1","","html-keyboard-response","362","437528","0.0-1.0-488.0","0","0","56233","","null","","","null","54","","","","","","","","","","","","","","","",""
"","ISI","","html-keyboard-response","363","438538","0.0-1.0-489.0","0","0","56233","","null","","","null","54","NaN","","","","","","","","","","","","","","",""
"","S2","","html-keyboard-response","364","438792","0.0-1.0-490.0","0","0","56233","","null","","","null","54","","NaN","","","","","","","","","","","","","",""
"","response","","html-keyboard-response","365","439164","0.0-1.0-491.0-0.0","0","0","56233","","370","","","75","54","","","2","54","training","adjacent","BC","2","3","Q.jpg","O.jpg","1","1","1","",""
"","feedback","","html-keyboard-response","366","440176","0.0-1.0-492.0-0.0","0","0","56233","","null","","","null","54","","","","","","","","","","","","","","","",""
"","ITI","","html-keyboard-response","367","441188","0.0-1.0-495.0","0","0","56233","","null","","","null","54","","","","","","","","","","","","","","","NaN",""
"","S1","","html-keyboard-response","368","441448","0.0-1.0-497.0","0","0","56233","","null","","","null","55","","","","","","","","","","","","","","","",""
"","ISI","","html-keyboard-response","369","442456","0.0-1.0-498.0","0","0","56233","","null","","","null","55","NaN","","","","","","","","","","","","","","",""
"","S2","","html-keyboard-response","370","442712","0.0-1.0-499.0","0","0","56233","","null","","","null","55","","NaN","","","","","","","","","","","","","",""
"","response","","html-keyboard-response","371","443329","0.0-1.0-500.0-0.0","0","0","56233","","614","","","68","55","","","2","55","training","adjacent","DE","4","5","M.jpg","N.jpg","0","1","0","",""
"","feedback","","html-keyboard-response","372","444338","0.0-1.0-501.0-0.0","0","0","56233","","null","","","null","55","","","","","","","","","","","","","","","",""
"","time_out","","html-keyboard-response","373","446344","0.0-1.0-503.0-0.0","0","0","56233","","null","","","null","55","","","","","","","","","","","","","","","",""
"","ITI","","html-keyboard-response","374","447351","0.0-1.0-504.0","0","0","56233","","null","","","null","55","","","","","","","","","","","","","","","NaN",""
"","S1","","html-keyboard-response","375","447612","0.0-1.0-506.0","0","0","56233","","null","","","null","56","","","","","","","","","","","","","","","",""
"","ISI","","html-keyboard-response","376","448616","0.0-1.0-507.0","0","0","56233","","null","","","null","56","NaN","","","","","","","","","","","","","","",""
"","S2","","html-keyboard-response","377","448872","0.0-1.0-508.0","0","0","56233","","null","","","null","56","","NaN","","","","","","","","","","","","","",""
"","response","","html-keyboard-response","378","449355","0.0-1.0-509.0-0.0","0","0","56233","","480","","","68","56","","","2","56","training","adjacent","FE","6","5","R.jpg","N.jpg","0","0","1","",""
"","feedback","","html-keyboard-response","379","450360","0.0-1.0-510.0-0.0","0","0","56233","","null","","","null","56","","","","","","","","","","","","","","","",""
"","ITI","","html-keyboard-response","380","451368","0.0-1.0-513.0","0","0","56233","","null","","","null","56","","","","","","","","","","","","","","","NaN",""
"","S1","","html-keyboard-response","381","451624","0.0-1.0-515.0","0","0","56233","","null","","","null","57","","","","","","","","","","","","","","","",""
"","ISI","","html-keyboard-response","382","452632","0.0-1.0-516.0","0","0","56233","","null","","","null","57","NaN","","","","","","","","","","","","","","",""
"","S2","","html-keyboard-response","383","452888","0.0-1.0-517.0","0","0","56233","","null","","","null","57","","NaN","","","","","","","","","","","","","",""
"","response","","html-keyboard-response","384","453268","0.0-1.0-518.0-0.0","0","0","56233","","377","","","68","57","","","2","57","training","adjacent","DE","4","5","M.jpg","N.jpg","0","1","0","",""
"","feedback","","html-keyboard-response","385","454272","0.0-1.0-519.0-0.0","0","0","56233","","null","","","null","57","","","","","","","","","","","","","","","",""
"","time_out","","html-keyboard-response","386","456280","0.0-1.0-521.0-0.0","0","0","56233","","null","","","null","57","","","","","","","","","","","","","","","",""
"","ITI","","html-keyboard-response","387","457288","0.0-1.0-522.0","0","0","56233","","null","","","null","57","","","","","","","","","","","","","","","NaN",""
"","S1","","html-keyboard-response","388","457547","0.0-1.0-524.0","0","0","56233","","null","","","null","58","","","","","","","","","","","","","","","",""
"","ISI","","html-keyboard-response","389","458552","0.0-1.0-525.0","0","0","56233","","null","","","null","58","NaN","","","","","","","","","","","","","","",""
"","S2","","html-keyboard-response","390","458809","0.0-1.0-526.0","0","0","56233","","null","","","null","58","","NaN","","","","","","","","","","","","","",""
"","response","","html-keyboard-response","391","459253","0.0-1.0-527.0-0.0","0","0","56233","","442","","","75","58","","","2","58","training","adjacent","DE","4","5","M.jpg","N.jpg","1","1","1","",""
"","feedback","","html-keyboard-response","392","460264","0.0-1.0-528.0-0.0","0","0","56233","","null","","","null","58","","","","","","","","","","","","","","","",""
"","ITI","","html-keyboard-response","393","461271","0.0-1.0-531.0","0","0","56233","","null","","","null","58","","","","","","","","","","","","","","","NaN",""
"","S1","","html-keyboard-response","394","461528","0.0-1.0-533.0","0","0","56233","","null","","","null","59","","","","","","","","","","","","","","","",""
"","ISI","","html-keyboard-response","395","462537","0.0-1.0-534.0","0","0","56233","","null","","","null","59","NaN","","","","","","","","","","","","","","",""
"","S2","","html-keyboard-response","396","462793","0.0-1.0-535.0","0","0","56233","","null","","","null","59","","NaN","","","","","","","","","","","","","",""
"","response","","html-keyboard-response","397","464058","0.0-1.0-536.0-0.0","0","0","56233","","1263","","","75","59","","","2","59","training","adjacent","FG","6","7","R.jpg","P.jpg","1","1","1","",""
"","feedback","","html-keyboard-response","398","465065","0.0-1.0-537.0-0.0","0","0","56233","","null","","","null","59","","","","","","","","","","","","","","","",""
"","ITI","","html-keyboard-response","399","466072","0.0-1.0-540.0","0","0","56233","","null","","","null","59","","","","","","","","","","","","","","","NaN",""
"","S1","","html-keyboard-response","400","466328","0.0-1.0-542.0","0","0","56233","","null","","","null","60","","","","","","","","","","","","","","","",""
"","ISI","","html-keyboard-response","401","467337","0.0-1.0-543.0","0","0","56233","","null","","","null","60","NaN","","","","","","","","","","","","","","",""
"","S2","","html-keyboard-response","402","467593","0.0-1.0-544.0","0","0","56233","","null","","","null","60","","NaN","","","","","","","","","","","","","",""
"","response","","html-keyboard-response","403","468322","0.0-1.0-545.0-0.0","0","0","56233","","726","","","68","60","","","2","60","training","adjacent","BA","2","1","Q.jpg","L.jpg","0","0","1","",""
"","feedback","","html-keyboard-response","404","469329","0.0-1.0-546.0-0.0","0","0","56233","","null","","","null","60","","","","","","","","","","","","","","","",""
"","ITI","","html-keyboard-response","405","470337","0.0-1.0-549.0","0","0","56233","","null","","","null","60","","","","","","","","","","","","","","","NaN",""
"","S1","","html-keyboard-response","406","470593","0.0-1.0-551.0","0","0","56233","","null","","","null","61","","","","","","","","","","","","","","","",""
"","ISI","","html-keyboard-response","407","471600","0.0-1.0-552.0","0","0","56233","","null","","","null","61","NaN","","","","","","","","","","","","","","",""
"","S2","","html-keyboard-response","408","471856","0.0-1.0-553.0","0","0","56233","","null","","","null","61","","NaN","","","","","","","","","","","","","",""
"","response","","html-keyboard-response","409","472974","0.0-1.0-554.0-0.0","0","0","56233","","1115","","","75","61","","","2","61","training","adjacent","ED","5","4","N.jpg","M.jpg","1","0","0","",""
"","feedback","","html-keyboard-response","410","473988","0.0-1.0-555.0-0.0","0","0","56233","","null","","","null","61","","","","","","","","","","","","","","","",""
"","time_out","","html-keyboard-response","411","475993","0.0-1.0-557.0-0.0","0","0","56233","","null","","","null","61","","","","","","","","","","","","","","","",""
"","ITI","","html-keyboard-response","412","476999","0.0-1.0-558.0","0","0","56233","","null","","","null","61","","","","","","","","","","","","","","","NaN",""
"","S1","","html-keyboard-response","413","477256","0.0-1.0-560.0","0","0","56233","","null","","","null","62","","","","","","","","","","","","","","","",""
"","ISI","","html-keyboard-response","414","478263","0.0-1.0-561.0","0","0","56233","","null","","","null","62","NaN","","","","","","","","","","","","","","",""
"","S2","","html-keyboard-response","415","478520","0.0-1.0-562.0","0","0","56233","","null","","","null","62","","NaN","","","","","","","","","","","","","",""
"","response","","html-keyboard-response","416","479347","0.0-1.0-563.0-0.0","0","0","56233","","824","","","68","62","","","2","62","training","adjacent","DC","4","3","M.jpg","O.jpg","0","0","1","",""
"","feedback","","html-keyboard-response","417","480353","0.0-1.0-564.0-0.0","0","0","56233","","null","","","null","62","","","","","","","","","","","","","","","",""
"","ITI","","html-keyboard-response","418","481361","0.0-1.0-567.0","0","0","56233","","null","","","null","62","","","","","","","","","","","","","","","NaN",""
"","S1","","html-keyboard-response","419","481616","0.0-1.0-569.0","0","0","56233","","null","","","null","63","","","","","","","","","","","","","","","",""
"","ISI","","html-keyboard-response","420","482624","0.0-1.0-570.0","0","0","56233","","null","","","null","63","NaN","","","","","","","","","","","","","","",""
"","S2","","html-keyboard-response","421","482880","0.0-1.0-571.0","0","0","56233","","null","","","null","63","","NaN","","","","","","","","","","","","","",""
"","response","","html-keyboard-response","422","483921","0.0-1.0-572.0-0.0","0","0","56233","","1039","","","75","63","","","2","63","training","adjacent","BA","2","1","Q.jpg","L.jpg","1","0","0","",""
"","feedback","","html-keyboard-response","423","484928","0.0-1.0-573.0-0.0","0","0","56233","","null","","","null","63","","","","","","","","","","","","","","","",""
"","time_out","","html-keyboard-response","424","486938","0.0-1.0-575.0-0.0","0","0","56233","","null","","","null","63","","","","","","","","","","","","","","","",""
"","ITI","","html-keyboard-response","425","487944","0.0-1.0-576.0","0","0","56233","","null","","","null","63","","","","","","","","","","","","","","","NaN",""
"","S1","","html-keyboard-response","426","488200","0.0-1.0-578.0","0","0","56233","","null","","","null","64","","","","","","","","","","","","","","","",""
"","ISI","","html-keyboard-response","427","489208","0.0-1.0-579.0","0","0","56233","","null","","","null","64","NaN","","","","","","","","","","","","","","",""
"","S2","","html-keyboard-response","428","489465","0.0-1.0-580.0","0","0","56233","","null","","","null","64","","NaN","","","","","","","","","","","","","",""
"","response","","html-keyboard-response","429","490113","0.0-1.0-581.0-0.0","0","0","56233","","647","","","68","64","","","2","64","training","adjacent","CD","3","4","O.jpg","M.jpg","0","1","0","",""
"","feedback","","html-keyboard-response","430","491120","0.0-1.0-582.0-0.0","0","0","56233","","null","","","null","64","","","","","","","","","","","","","","","",""
"","time_out","","html-keyboard-response","431","493128","0.0-1.0-584.0-0.0","0","0","56233","","null","","","null","64","","","","","","","","","","","","","","","",""
"","ITI","","html-keyboard-response","432","494137","0.0-1.0-585.0","0","0","56233","","null","","","null","64","","","","","","","","","","","","","","","NaN",""
"","S1","","html-keyboard-response","433","494393","0.0-1.0-587.0","0","0","56233","","null","","","null","65","","","","","","","","","","","","","","","",""
"","ISI","","html-keyboard-response","434","495400","0.0-1.0-588.0","0","0","56233","","null","","","null","65","NaN","","","","","","","","","","","","","","",""
"","S2","","html-keyboard-response","435","495656","0.0-1.0-589.0","0","0","56233","","null","","","null","65","","NaN","","","","","","","","","","","","","",""
"","response","","html-keyboard-response","436","495854","0.0-1.0-590.0-0.0","0","0","56233","","195","","","75","65","","","2","65","training","adjacent","AB","1","2","L.jpg","Q.jpg","1","1","1","",""
"","feedback","","html-keyboard-response","437","496865","0.0-1.0-591.0-0.0","0","0","56233","","null","","","null","65","","","","","","","","","","","","","","","",""
"","ITI","","html-keyboard-response","438","497872","0.0-1.0-594.0","0","0","56233","","null","","","null","65","","","","","","","","","","","","","","","NaN",""
"","S1","","html-keyboard-response","439","498130","0.0-1.0-596.0","0","0","56233","","null","","","null","66","","","","","","","","","","","","","","","",""
"","ISI","","html-keyboard-response","440","499136","0.0-1.0-597.0","0","0","56233","","null","","","null","66","NaN","","","","","","","","","","","","","","",""
"","S2","","html-keyboard-response","441","499393","0.0-1.0-598.0","0","0","56233","","null","","","null","66","","NaN","","","","","","","","","","","","","",""
"","response","","html-keyboard-response","442","499898","0.0-1.0-599.0-0.0","0","0","56233","","503","","","68","66","","","2","66","training","adjacent","FE","6","5","R.jpg","N.jpg","0","0","1","",""
"","feedback","","html-keyboard-response","443","500904","0.0-1.0-600.0-0.0","0","0","56233","","null","","","null","66","","","","","","","","","","","","","","","",""
"","ITI","","html-keyboard-response","444","501913","0.0-1.0-603.0","0","0","56233","","null","","","null","66","","","","","","","","","","","","","","","NaN",""
"","S1","","html-keyboard-response","445","502168","0.0-1.0-605.0","0","0","56233","","null","","","null","67","","","","","","","","","","","","","","","",""
"","ISI","","html-keyboard-response","446","503176","0.0-1.0-606.0","0","0","56233","","null","","","null","67","NaN","","","","","","","","","","","","","","",""
"","S2","","html-keyboard-response","447","503432","0.0-1.0-607.0","0","0","56233","","null","","","null","67","","NaN","","","","","","","","","","","","","",""
"","response","","html-keyboard-response","448","503535","0.0-1.0-608.0-0.0","0","0","56233","","102","","","75","67","","","2","67","training","adjacent","AB","1","2","L.jpg","Q.jpg","1","1","1","",""
"","feedback","","html-keyboard-response","449","504544","0.0-1.0-609.0-0.0","0","0","56233","","null","","","null","67","","","","","","","","","","","","","","","",""
"","ITI","","html-keyboard-response","450","505553","0.0-1.0-612.0","0","0","56233","","null","","","null","67","","","","","","","","","","","","","","","NaN",""
"","S1","","html-keyboard-response","451","505808","0.0-1.0-614.0","0","0","56233","","null","","","null","68","","","","","","","","","","","","","","","",""
"","ISI","","html-keyboard-response","452","506817","0.0-1.0-615.0","0","0","56233","","null","","","null","68","NaN","","","","","","","","","","","","","","",""
"","S2","","html-keyboard-response","453","507073","0.0-1.0-616.0","0","0","56233","","null","","","null","68","","NaN","","","","","","","","","","","","","",""
"","response","","html-keyboard-response","454","507367","0.0-1.0-617.0-0.0","0","0","56233","","292","","","75","68","","","2","68","training","adjacent","ED","5","4","N.jpg","M.jpg","1","0","0","",""
"","feedback","","html-keyboard-response","455","508377","0.0-1.0-618.0-0.0","0","0","56233","","null","","","null","68","","","","","","","","","","","","","","","",""
"","time_out","","html-keyboard-response","456","510387","0.0-1.0-620.0-0.0","0","0","56233","","null","","","null","68","","","","","","","","","","","","","","","",""
"","ITI","","html-keyboard-response","457","511393","0.0-1.0-621.0","0","0","56233","","null","","","null","68","","","","","","","","","","","","","","","NaN",""
"","S1","","html-keyboard-response","458","511649","0.0-1.0-623.0","0","0","56233","","null","","","null","69","","","","","","","","","","","","","","","",""
"","ISI","","html-keyboard-response","459","512656","0.0-1.0-624.0","0","0","56233","","null","","","null","69","NaN","","","","","","","","","","","","","","",""
"","S2","","html-keyboard-response","460","512913","0.0-1.0-625.0","0","0","56233","","null","","","null","69","","NaN","","","","","","","","","","","","","",""
"","response","","html-keyboard-response","461","513328","0.0-1.0-626.0-0.0","0","0","56233","","413","","","75","69","","","2","69","training","adjacent","AB","1","2","L.jpg","Q.jpg","1","1","1","",""
"","feedback","","html-keyboard-response","462","514337","0.0-1.0-627.0-0.0","0","0","56233","","null","","","null","69","","","","","","","","","","","","","","","",""
"","ITI","","html-keyboard-response","463","515344","0.0-1.0-630.0","0","0","56233","","null","","","null","69","","","","","","","","","","","","","","","NaN",""
"","S1","","html-keyboard-response","464","515601","0.0-1.0-632.0","0","0","56233","","null","","","null","70","","","","","","","","","","","","","","","",""
"","ISI","","html-keyboard-response","465","516609","0.0-1.0-633.0","0","0","56233","","null","","","null","70","NaN","","","","","","","","","","","","","","",""
"","S2","","html-keyboard-response","466","516865","0.0-1.0-634.0","0","0","56233","","null","","","null","70","","NaN","","","","","","","","","","","","","",""
"","response","","html-keyboard-response","467","517785","0.0-1.0-635.0-0.0","0","0","56233","","917","","","75","70","","","2","70","training","adjacent","CD","3","4","O.jpg","M.jpg","1","1","1","",""
"","feedback","","html-keyboard-response","468","518793","0.0-1.0-636.0-0.0","0","0","56233","","null","","","null","70","","","","","","","","","","","","","","","",""
"","ITI","","html-keyboard-response","469","519801","0.0-1.0-639.0","0","0","56233","","null","","","null","70","","","","","","","","","","","","","","","NaN",""
"","S1","","html-keyboard-response","470","520057","0.0-1.0-641.0","0","0","56233","","null","","","null","71","","","","","","","","","","","","","","","",""
"","ISI","","html-keyboard-response","471","521064","0.0-1.0-642.0","0","0","56233","","null","","","null","71","NaN","","","","","","","","","","","","","","",""
"","S2","","html-keyboard-response","472","521321","0.0-1.0-643.0","0","0","56233","","null","","","null","71","","NaN","","","","","","","","","","","","","",""
"","response","","html-keyboard-response","473","521684","0.0-1.0-644.0-0.0","0","0","56233","","360","","","68","71","","","2","71","training","adjacent","GF","7","6","P.jpg","R.jpg","0","0","1","",""
"","feedback","","html-keyboard-response","474","522689","0.0-1.0-645.0-0.0","0","0","56233","","null","","","null","71","","","","","","","","","","","","","","","",""
"","ITI","","html-keyboard-response","475","523697","0.0-1.0-648.0","0","0","56233","","null","","","null","71","","","","","","","","","","","","","","","NaN",""
"","S1","","html-keyboard-response","476","523953","0.0-1.0-650.0","0","0","56233","","null","","","null","72","","","","","","","","","","","","","","","",""
"","ISI","","html-keyboard-response","477","524961","0.0-1.0-651.0","0","0","56233","","null","","","null","72","NaN","","","","","","","","","","","","","","",""
"","S2","","html-keyboard-response","478","525217","0.0-1.0-652.0","0","0","56233","","null","","","null","72","","NaN","","","","","","","","","","","","","",""
"","response","","html-keyboard-response","479","526267","0.0-1.0-653.0-0.0","0","0","56233","","1049","","","75","72","","","2","72","training","adjacent","BC","2","3","Q.jpg","O.jpg","1","1","1","",""
"","feedback","","html-keyboard-response","480","527273","0.0-1.0-654.0-0.0","0","0","56233","","null","","","null","72","","","","","","","","","","","","","","","",""
"","ITI","","html-keyboard-response","481","528281","0.0-1.0-657.0","0","0","56233","","null","","","null","72","","","","","","","","","","","","","","","NaN",""
"","S1","","html-keyboard-response","482","528537","0.0-1.0-659.0","0","0","56233","","null","","","null","73","","","","","","","","","","","","","","","",""
"","ISI","","html-keyboard-response","483","529544","0.0-1.0-660.0","0","0","56233","","null","","","null","73","NaN","","","","","","","","","","","","","","",""
"","S2","","html-keyboard-response","484","529801","0.0-1.0-661.0","0","0","56233","","null","","","null","73","","NaN","","","","","","","","","","","","","",""
"","response","","html-keyboard-response","485","530688","0.0-1.0-662.0-0.0","0","0","56233","","884","","","68","73","","","2","73","training","adjacent","CB","3","2","O.jpg","Q.jpg","0","0","1","",""
"","feedback","","html-keyboard-response","486","531697","0.0-1.0-663.0-0.0","0","0","56233","","null","","","null","73","","","","","","","","","","","","","","","",""
"","ITI","","html-keyboard-response","487","532705","0.0-1.0-666.0","0","0","56233","","null","","","null","73","","","","","","","","","","","","","","","NaN",""
"","S1","","html-keyboard-response","488","532961","0.0-1.0-668.0","0","0","56233","","null","","","null","74","","","","","","","","","","","","","","","",""
"","ISI","","html-keyboard-response","489","533968","0.0-1.0-669.0","0","0","56233","","null","","","null","74","NaN","","","","","","","","","","","","","","",""
"","S2","","html-keyboard-response","490","534225","0.0-1.0-670.0","0","0","56233","","null","","","null","74","","NaN","","","","","","","","","","","","","",""
"","response","","html-keyboard-response","491","535180","0.0-1.0-671.0-0.0","0","0","56233","","953","","","75","74","","","2","74","training","adjacent","FG","6","7","R.jpg","P.jpg","1","1","1","",""
"","feedback","","html-keyboard-response","492","536188","0.0-1.0-672.0-0.0","0","0","56233","","null","","","null","74","","","","","","","","","","","","","","","",""
"","ITI","","html-keyboard-response","493","537192","0.0-1.0-675.0","0","0","56233","","null","","","null","74","","","","","","","","","","","","","","","NaN",""
"","S1","","html-keyboard-response","494","537449","0.0-1.0-677.0","0","0","56233","","null","","","null","75","","","","","","","","","","","","","","","",""
"","ISI","","html-keyboard-response","495","538456","0.0-1.0-678.0","0","0","56233","","null","","","null","75","NaN","","","","","","","","","","","","","","",""
"","S2","","html-keyboard-response","496","538713","0.0-1.0-679.0","0","0","56233","","null","","","null","75","","NaN","","","","","","","","","","","","","",""
"","response","","html-keyboard-response","497","539381","0.0-1.0-680.0-0.0","0","0","56233","","665","","","75","75","","","2","75","training","adjacent","FG","6","7","R.jpg","P.jpg","1","1","1","",""
"","feedback","","html-keyboard-response","498","540388","0.0-1.0-681.0-0.0","0","0","56233","","null","","","null","75","","","","","","","","","","","","","","","",""
"","ITI","","html-keyboard-response","499","541393","0.0-1.0-684.0","0","0","56233","","null","","","null","75","","","","","","","","","","","","","","","NaN",""
"","S1","","html-keyboard-response","500","541649","0.0-1.0-686.0","0","0","56233","","null","","","null","76","","","","","","","","","","","","","","","",""
"","ISI","","html-keyboard-response","501","542658","0.0-1.0-687.0","0","0","56233","","null","","","null","76","NaN","","","","","","","","","","","","","","",""
"","S2","","html-keyboard-response","502","542913","0.0-1.0-688.0","0","0","56233","","null","","","null","76","","NaN","","","","","","","","","","","","","",""
"","response","","html-keyboard-response","503","543611","0.0-1.0-689.0-0.0","0","0","56233","","695","","","75","76","","","2","76","training","adjacent","BC","2","3","Q.jpg","O.jpg","1","1","1","",""
"","feedback","","html-keyboard-response","504","544617","0.0-1.0-690.0-0.0","0","0","56233","","null","","","null","76","","","","","","","","","","","","","","","",""
"","ITI","","html-keyboard-response","505","545625","0.0-1.0-693.0","0","0","56233","","null","","","null","76","","","","","","","","","","","","","","","NaN",""
"","S1","","html-keyboard-response","506","545881","0.0-1.0-695.0","0","0","56233","","null","","","null","77","","","","","","","","","","","","","","","",""
"","ISI","","html-keyboard-response","507","546888","0.0-1.0-696.0","0","0","56233","","null","","","null","77","NaN","","","","","","","","","","","","","","",""
"","S2","","html-keyboard-response","508","547145","0.0-1.0-697.0","0","0","56233","","null","","","null","77","","NaN","","","","","","","","","","","","","",""
"","response","","html-keyboard-response","509","547731","0.0-1.0-698.0-0.0","0","0","56233","","583","","","75","77","","","2","77","training","adjacent","ED","5","4","N.jpg","M.jpg","1","0","0","",""
"","feedback","","html-keyboard-response","510","548737","0.0-1.0-699.0-0.0","0","0","56233","","null","","","null","77","","","","","","","","","","","","","","","",""
"","time_out","","html-keyboard-response","511","550744","0.0-1.0-701.0-0.0","0","0","56233","","null","","","null","77","","","","","","","","","","","","","","","",""
"","ITI","","html-keyboard-response","512","551753","0.0-1.0-702.0","0","0","56233","","null","","","null","77","","","","","","","","","","","","","","","NaN",""
"","S1","","html-keyboard-response","513","552009","0.0-1.0-704.0","0","0","56233","","null","","","null","78","","","","","","","","","","","","","","","",""
"","ISI","","html-keyboard-response","514","553016","0.0-1.0-705.0","0","0","56233","","null","","","null","78","NaN","","","","","","","","","","","","","","",""
"","S2","","html-keyboard-response","515","553273","0.0-1.0-706.0","0","0","56233","","null","","","null","78","","NaN","","","","","","","","","","","","","",""
"","response","","html-keyboard-response","516","553690","0.0-1.0-707.0-0.0","0","0","56233","","415","","","75","78","","","2","78","training","adjacent","BA","2","1","Q.jpg","L.jpg","1","0","0","",""
"","feedback","","html-keyboard-response","517","554696","0.0-1.0-708.0-0.0","0","0","56233","","null","","","null","78","","","","","","","","","","","","","","","",""
"","time_out","","html-keyboard-response","518","556705","0.0-1.0-710.0-0.0","0","0","56233","","null","","","null","78","","","","","","","","","","","","","","","",""
"","ITI","","html-keyboard-response","519","557712","0.0-1.0-711.0","0","0","56233","","null","","","null","78","","","","","","","","","","","","","","","NaN",""
"","S1","","html-keyboard-response","520","557969","0.0-1.0-713.0","0","0","56233","","null","","","null","79","","","","","","","","","","","","","","","",""
"","ISI","","html-keyboard-response","521","558977","0.0-1.0-714.0","0","0","56233","","null","","","null","79","NaN","","","","","","","","","","","","","","",""
"","S2","","html-keyboard-response","522","559233","0.0-1.0-715.0","0","0","56233","","null","","","null","79","","NaN","","","","","","","","","","","","","",""
"","response","","html-keyboard-response","523","560499","0.0-1.0-716.0-0.0","0","0","56233","","1263","","","75","79","","","2","79","training","adjacent","EF","5","6","N.jpg","R.jpg","1","1","1","",""
"","feedback","","html-keyboard-response","524","561505","0.0-1.0-717.0-0.0","0","0","56233","","null","","","null","79","","","","","","","","","","","","","","","",""
"","ITI","","html-keyboard-response","525","562513","0.0-1.0-720.0","0","0","56233","","null","","","null","79","","","","","","","","","","","","","","","NaN",""
"","S1","","html-keyboard-response","526","562769","0.0-1.0-722.0","0","0","56233","","null","","","null","80","","","","","","","","","","","","","","","",""
"","ISI","","html-keyboard-response","527","563776","0.0-1.0-723.0","0","0","56233","","null","","","null","80","NaN","","","","","","","","","","","","","","",""
"","S2","","html-keyboard-response","528","564033","0.0-1.0-724.0","0","0","56233","","null","","","null","80","","NaN","","","","","","","","","","","","","",""
"","response","","html-keyboard-response","529","565605","0.0-1.0-725.0-0.0","0","0","56233","","1569","","","75","80","","","2","80","training","adjacent","GF","7","6","P.jpg","R.jpg","1","0","0","",""
"","feedback","","html-keyboard-response","530","566619","0.0-1.0-726.0-0.0","0","0","56233","","null","","","null","80","","","","","","","","","","","","","","","",""
"","time_out","","html-keyboard-response","531","568625","0.0-1.0-728.0-0.0","0","0","56233","","null","","","null","80","","","","","","","","","","","","","","","",""
"","ITI","","html-keyboard-response","532","569632","0.0-1.0-729.0","0","0","56233","","null","","","null","80","","","","","","","","","","","","","","","NaN",""
"","S1","","html-keyboard-response","533","569888","0.0-1.0-731.0","0","0","56233","","null","","","null","81","","","","","","","","","","","","","","","",""
"","ISI","","html-keyboard-response","534","570896","0.0-1.0-732.0","0","0","56233","","null","","","null","81","NaN","","","","","","","","","","","","","","",""
"","S2","","html-keyboard-response","535","571153","0.0-1.0-733.0","0","0","56233","","null","","","null","81","","NaN","","","","","","","","","","","","","",""
"","response","","html-keyboard-response","536","572045","0.0-1.0-734.0-0.0","0","0","56233","","889","","","68","81","","","2","81","training","adjacent","DC","4","3","M.jpg","O.jpg","0","0","1","",""
"","feedback","","html-keyboard-response","537","573057","0.0-1.0-735.0-0.0","0","0","56233","","null","","","null","81","","","","","","","","","","","","","","","",""
"","ITI","","html-keyboard-response","538","574065","0.0-1.0-738.0","0","0","56233","","null","","","null","81","","","","","","","","","","","","","","","NaN",""
"","S1","","html-keyboard-response","539","574321","0.0-1.0-740.0","0","0","56233","","null","","","null","82","","","","","","","","","","","","","","","",""
"","ISI","","html-keyboard-response","540","575329","0.0-1.0-741.0","0","0","56233","","null","","","null","82","NaN","","","","","","","","","","","","","","",""
"","S2","","html-keyboard-response","541","575588","0.0-1.0-742.0","0","0","56233","","null","","","null","82","","NaN","","","","","","","","","","","","","",""
"","response","","html-keyboard-response","542","576498","0.0-1.0-743.0-0.0","0","0","56233","","908","","","75","82","","","2","82","training","adjacent","ED","5","4","N.jpg","M.jpg","1","0","0","",""
"","feedback","","html-keyboard-response","543","577504","0.0-1.0-744.0-0.0","0","0","56233","","null","","","null","82","","","","","","","","","","","","","","","",""
"","time_out","","html-keyboard-response","544","579513","0.0-1.0-746.0-0.0","0","0","56233","","null","","","null","82","","","","","","","","","","","","","","","",""
"","ITI","","html-keyboard-response","545","580521","0.0-1.0-747.0","0","0","56233","","null","","","null","82","","","","","","","","","","","","","","","NaN",""
"","S1","","html-keyboard-response","546","580777","0.0-1.0-749.0","0","0","56233","","null","","","null","83","","","","","","","","","","","","","","","",""
"","ISI","","html-keyboard-response","547","581788","0.0-1.0-750.0","0","0","56233","","null","","","null","83","NaN","","","","","","","","","","","","","","",""
"","S2","","html-keyboard-response","548","582049","0.0-1.0-751.0","0","0","56233","","null","","","null","83","","NaN","","","","","","","","","","","","","",""
"","response","","html-keyboard-response","549","583147","0.0-1.0-752.0-0.0","0","0","56233","","1095","","","68","83","","","2","83","training","adjacent","CB","3","2","O.jpg","Q.jpg","0","0","1","",""
"","feedback","","html-keyboard-response","550","584153","0.0-1.0-753.0-0.0","0","0","56233","","null","","","null","83","","","","","","","","","","","","","","","",""
"","ITI","","html-keyboard-response","551","585161","0.0-1.0-756.0","0","0","56233","","null","","","null","83","","","","","","","","","","","","","","","NaN",""
"","S1","","html-keyboard-response","552","585417","0.0-1.0-758.0","0","0","56233","","null","","","null","84","","","","","","","","","","","","","","","",""
"","ISI","","html-keyboard-response","553","586425","0.0-1.0-759.0","0","0","56233","","null","","","null","84","NaN","","","","","","","","","","","","","","",""
"","S2","","html-keyboard-response","554","586681","0.0-1.0-760.0","0","0","56233","","null","","","null","84","","NaN","","","","","","","","","","","","","",""
"","response","","html-keyboard-response","555","587405","0.0-1.0-761.0-0.0","0","0","56233","","721","","","75","84","","","2","84","training","adjacent","EF","5","6","N.jpg","R.jpg","1","1","1","",""
"","feedback","","html-keyboard-response","556","588417","0.0-1.0-762.0-0.0","0","0","56233","","null","","","null","84","","","","","","","","","","","","","","","",""
"","ITI","","html-keyboard-response","557","589424","0.0-1.0-765.0","0","0","56233","","null","","","null","84","","","","","","","","","","","","","","","NaN",""
"","S1","","html-keyboard-response","558","589681","0.0-1.0-767.0","0","0","56233","","null","","","null","85","","","","","","","","","","","","","","","",""
"","ISI","","html-keyboard-response","559","590689","0.0-1.0-768.0","0","0","56233","","null","","","null","85","NaN","","","","","","","","","","","","","","",""
"","S2","","html-keyboard-response","560","590948","0.0-1.0-769.0","0","0","56233","","null","","","null","85","","NaN","","","","","","","","","","","","","",""
"","response","","html-keyboard-response","561","591796","0.0-1.0-770.0-0.0","0","0","56233","","845","","","68","85","","","2","85","training","adjacent","BA","2","1","Q.jpg","L.jpg","0","0","1","",""
"","feedback","","html-keyboard-response","562","592801","0.0-1.0-771.0-0.0","0","0","56233","","null","","","null","85","","","","","","","","","","","","","","","",""
"","ITI","","html-keyboard-response","563","593809","0.0-1.0-774.0","0","0","56233","","null","","","null","85","","","","","","","","","","","","","","","NaN",""
"","S1","","html-keyboard-response","564","594065","0.0-1.0-776.0","0","0","56233","","null","","","null","86","","","","","","","","","","","","","","","",""
"","ISI","","html-keyboard-response","565","595072","0.0-1.0-777.0","0","0","56233","","null","","","null","86","NaN","","","","","","","","","","","","","","",""
"","S2","","html-keyboard-response","566","595329","0.0-1.0-778.0","0","0","56233","","null","","","null","86","","NaN","","","","","","","","","","","","","",""
"","response","","html-keyboard-response","567","596020","0.0-1.0-779.0-0.0","0","0","56233","","688","","","75","86","","","2","86","training","adjacent","DC","4","3","M.jpg","O.jpg","1","0","0","",""
"","feedback","","html-keyboard-response","568","597025","0.0-1.0-780.0-0.0","0","0","56233","","null","","","null","86","","","","","","","","","","","","","","","",""
"","time_out","","html-keyboard-response","569","599033","0.0-1.0-782.0-0.0","0","0","56233","","null","","","null","86","","","","","","","","","","","","","","","",""
"","ITI","","html-keyboard-response","570","600040","0.0-1.0-783.0","0","0","56233","","null","","","null","86","","","","","","","","","","","","","","","NaN",""
"","S1","","html-keyboard-response","571","600297","0.0-1.0-785.0","0","0","56233","","null","","","null","87","","","","","","","","","","","","","","","",""
"","ISI","","html-keyboard-response","572","601305","0.0-1.0-786.0","0","0","56233","","null","","","null","87","NaN","","","","","","","","","","","","","","",""
"","S2","","html-keyboard-response","573","601560","0.0-1.0-787.0","0","0","56233","","null","","","null","87","","NaN","","","","","","","","","","","","","",""
"","response","","html-keyboard-response","574","602717","0.0-1.0-788.0-0.0","0","0","56233","","1155","","","75","87","","","2","87","training","adjacent","FE","6","5","R.jpg","N.jpg","1","0","0","",""
"","feedback","","html-keyboard-response","575","603729","0.0-1.0-789.0-0.0","0","0","56233","","null","","","null","87","","","","","","","","","","","","","","","",""
"","time_out","","html-keyboard-response","576","605737","0.0-1.0-791.0-0.0","0","0","56233","","null","","","null","87","","","","","","","","","","","","","","","",""
"","ITI","","html-keyboard-response","577","606745","0.0-1.0-792.0","0","0","56233","","null","","","null","87","","","","","","","","","","","","","","","NaN",""
"","S1","","html-keyboard-response","578","607001","0.0-1.0-794.0","0","0","56233","","null","","","null","88","","","","","","","","","","","","","","","",""
"","ISI","","html-keyboard-response","579","608008","0.0-1.0-795.0","0","0","56233","","null","","","null","88","NaN","","","","","","","","","","","","","","",""
"","S2","","html-keyboard-response","580","608265","0.0-1.0-796.0","0","0","56233","","null","","","null","88","","NaN","","","","","","","","","","","","","",""
