"success","ttype","start_time","trial_type","trial_index","time_elapsed","internal_node_id","warning","missed_checkup","PID","view_history","rt","responses","repeat_instructions","key_press","index","keypress_isi","keypress_S2","block","trial_num","phase","group_type","pair_type","S1_stim","S2_stim","S1_img","S2_img","S1_chosen","S1_higher","accuracy","keypress_iti","total_bonus_tally"
"true","full_screen","d04162023hr0201","fullscreen","0","7963","0.0-0.0","0","0","41906","","","","","","","","","","","","","","","","","","","","","",""
"","instructions","","instructions","1","35328","0.0-1.0-0.0-0.0","0","0","41906","[{""page_index"":0,""viewing_time"":4757},{""page_index"":1,""viewing_time"":12122},{""page_index"":2,""viewing_time"":7734},{""page_index"":3,""viewing_time"":2746}]","27360","","","","","","","","","","","","","","","","","","","",""
"","comprehension_check","","survey-multi-choice","2","65375","0.0-1.0-0.0-1.0","0","0","41906","","30038","{""Q0"":""True"",""Q1"":""D"",""Q2"":""Only when the screen 'MAKE A CHOICE' is shown"",""Q3"":""Green mark"",""Q4"":""either D or K""}","1","","","","","","","","","","","","","","","","","",""
"","missed_instruction_checkup","","html-keyboard-response","3","67490","0.0-1.0-0.0-2.0-0.0","0","1","41906","","2104","","","32","","","","","","","","","","","","","","","","",""
"","instructions","","instructions","4","80451","0.0-1.0-0.1-0.1","0","0","41906","[{""page_index"":0,""viewing_time"":2977},{""page_index"":1,""viewing_time"":7802},{""page_index"":2,""viewing_time"":1157},{""page_index"":3,""viewing_time"":1019}]","12956","","","","","","","","","","","","","","","","","","","",""
"","comprehension_check","","survey-multi-choice","5","100655","0.0-1.0-0.1-1.1","0","0","41906","","20194","{""Q0"":""True"",""Q1"":""D"",""Q2"":""Once the second image appears and while the screen 'MAKE A CHOICE' is shown"",""Q3"":""Green mark"",""Q4"":""either D or K""}","0","","","","","","","","","","","","","","","","","",""
"","start_exp","","html-keyboard-response","6","102495","0.0-1.0-1.0","0","0","41906","","1834","","","32","","","","","","","","","","","","","","","","",""
"","S1","","html-keyboard-response","7","102757","0.0-1.0-2.0","0","0","41906","","null","","","null","0","","","","","","","","","","","","","","","",""
"","ISI","","html-keyboard-response","8","103765","0.0-1.0-3.0","0","0","41906","","null","","","null","0","NaN","","","","","","","","","","","","","","",""
"","S2","","html-keyboard-response","9","104021","0.0-1.0-4.0","0","0","41906","","null","","","null","0","","NaN","","","","","","","","","","","","","",""
"","response","","html-keyboard-response","10","105780","0.0-1.0-5.0-0.0","0","0","41906","","null","","","null","0","","","1","0","training","adjacent","DE","4","5","Q.jpg","L.jpg","NaN","1","0","",""
"","too_slow_prompt","","html-keyboard-response","11","106788","0.0-1.0-7.0-0.0","1","0","41906","","null","","","null","","","","","","","","","","","","","","","","",""
"","time_out","","html-keyboard-response","12","108801","0.0-1.0-8.0-0.0","0","0","41906","","null","","","null","0","","","","","","","","","","","","","","","",""
"","ITI","","html-keyboard-response","13","109819","0.0-1.0-9.0","0","0","41906","","null","","","null","0","","","","","","","","","","","","","","","NaN",""
"","S1","","html-keyboard-response","14","110077","0.0-1.0-11.0","0","0","41906","","null","","","null","1","","","","","","","","","","","","","","","",""
"","ISI","","html-keyboard-response","15","111085","0.0-1.0-12.0","0","0","41906","","null","","","null","1","NaN","","","","","","","","","","","","","","",""
"","S2","","html-keyboard-response","16","111340","0.0-1.0-13.0","0","0","41906","","null","","","null","1","","NaN","","","","","","","","","","","","","",""
"","response","","html-keyboard-response","17","111636","0.0-1.0-14.0-0.0","0","0","41906","","292","","","68","1","","","1","1","training","adjacent","CD","3","4","R.jpg","Q.jpg","1","1","1","",""
"","feedback","","html-keyboard-response","18","112645","0.0-1.0-15.0-0.0","0","0","41906","","null","","","null","1","","","","","","","","","","","","","","","",""
"","ITI","","html-keyboard-response","19","113652","0.0-1.0-18.0","0","0","41906","","null","","","null","1","","","","","","","","","","","","","","","NaN",""
"","S1","","html-keyboard-response","20","113908","0.0-1.0-20.0","0","0","41906","","null","","","null","2","","","","","","","","","","","","","","","",""
"","ISI","","html-keyboard-response","21","114919","0.0-1.0-21.0","0","0","41906","","null","","","null","2","NaN","","","","","","","","","","","","","","",""
"","S2","","html-keyboard-response","22","115180","0.0-1.0-22.0","0","0","41906","","null","","","null","2","","NaN","","","","","","","","","","","","","",""
"","response","","html-keyboard-response","23","115806","0.0-1.0-23.0-0.0","0","0","41906","","615","","","68","2","","","1","2","training","adjacent","ED","5","4","L.jpg","Q.jpg","1","0","0","",""
"","feedback","","html-keyboard-response","24","116814","0.0-1.0-24.0-0.0","0","0","41906","","null","","","null","2","","","","","","","","","","","","","","","",""
"","time_out","","html-keyboard-response","25","118822","0.0-1.0-26.0-0.0","0","0","41906","","null","","","null","2","","","","","","","","","","","","","","","",""
"","ITI","","html-keyboard-response","26","119828","0.0-1.0-27.0","0","0","41906","","null","","","null","2","","","","","","","","","","","","","","","NaN",""
"","S1","","html-keyboard-response","27","120084","0.0-1.0-29.0","0","0","41906","","null","","","null","3","","","","","","","","","","","","","","","",""
"","ISI","","html-keyboard-response","28","121094","0.0-1.0-30.0","0","0","41906","","null","","","null","3","NaN","","","","","","","","","","","","","","",""
"","S2","","html-keyboard-response","29","121356","0.0-1.0-31.0","0","0","41906","","null","","","null","3","","NaN","","","","","","","","","","","","","",""
"","response","","html-keyboard-response","30","121622","0.0-1.0-32.0-0.0","0","0","41906","","262","","","75","3","","","1","3","training","adjacent","FG","6","7","O.jpg","P.jpg","0","1","0","",""
"","feedback","","html-keyboard-response","31","122629","0.0-1.0-33.0-0.0","0","0","41906","","null","","","null","3","","","","","","","","","","","","","","","",""
"","time_out","","html-keyboard-response","32","124636","0.0-1.0-35.0-0.0","0","0","41906","","null","","","null","3","","","","","","","","","","","","","","","",""
"","ITI","","html-keyboard-response","33","125645","0.0-1.0-36.0","0","0","41906","","null","","","null","3","","","","","","","","","","","","","","","NaN",""
"","S1","","html-keyboard-response","34","125900","0.0-1.0-38.0","0","0","41906","","null","","","null","4","","","","","","","","","","","","","","","",""
"","ISI","","html-keyboard-response","35","126909","0.0-1.0-39.0","0","0","41906","","null","","","null","4","NaN","","","","","","","","","","","","","","",""
"","S2","","html-keyboard-response","36","127165","0.0-1.0-40.0","0","0","41906","","null","","","null","4","","NaN","","","","","","","","","","","","","",""
"","response","","html-keyboard-response","37","127398","0.0-1.0-41.0-0.0","0","0","41906","","228","","","75","4","","","1","4","training","adjacent","FE","6","5","O.jpg","L.jpg","0","0","1","",""
"","feedback","","html-keyboard-response","38","128405","0.0-1.0-42.0-0.0","0","0","41906","","null","","","null","4","","","","","","","","","","","","","","","",""
"","ITI","","html-keyboard-response","39","129415","0.0-1.0-45.0","0","0","41906","","null","","","null","4","","","","","","","","","","","","","","","NaN",""
"","S1","","html-keyboard-response","40","129677","0.0-1.0-47.0","0","0","41906","","null","","","null","5","","","","","","","","","","","","","","","",""
"","ISI","","html-keyboard-response","41","130685","0.0-1.0-48.0","0","0","41906","","null","","","null","5","NaN","","","","","","","","","","","","","","",""
"","S2","","html-keyboard-response","42","130940","0.0-1.0-49.0","0","0","41906","","null","","","null","5","","NaN","","","","","","","","","","","","","",""
"","response","","html-keyboard-response","43","131347","0.0-1.0-50.0-0.0","0","0","41906","","403","","","75","5","","","1","5","training","adjacent","BA","2","1","N.jpg","M.jpg","0","0","1","",""
"","feedback","","html-keyboard-response","44","132356","0.0-1.0-51.0-0.0","0","0","41906","","null","","","null","5","","","","","","","","","","","","","","","",""
"","ITI","","html-keyboard-response","45","133364","0.0-1.0-54.0","0","0","41906","","null","","","null","5","","","","","","","","","","","","","","","NaN",""
"","S1","","html-keyboard-response","46","133620","0.0-1.0-56.0","0","0","41906","","null","","","null","6","","","","","","","","","","","","","","","",""
"","ISI","","html-keyboard-response","47","134628","0.0-1.0-57.0","0","0","41906","","null","","","null","6","NaN","","","","","","","","","","","","","","",""
"","S2","","html-keyboard-response","48","134656","0.0-1.0-58.0","0","0","41906","","24","","","75","6","","k","1","6","training","adjacent","BA","2","1","N.jpg","M.jpg","0","0","1","",""
"","feedback","","html-keyboard-response","49","135668","0.0-1.0-60.0-0.0","0","0","41906","","null","","","null","6","","","","","","","","","","","","","","","",""
"","ITI","","html-keyboard-response","50","136677","0.0-1.0-63.0","0","0","41906","","null","","","null","6","","","","","","","","","","","","","","","NaN",""
"","S1","","html-keyboard-response","51","136932","0.0-1.0-65.0","0","0","41906","","null","","","null","7","","","","","","","","","","","","","","","",""
"","ISI","","html-keyboard-response","52","137940","0.0-1.0-66.0","0","0","41906","","null","","","null","7","NaN","","","","","","","","","","","","","","",""
"","S2","","html-keyboard-response","53","138204","0.0-1.0-67.0","0","0","41906","","null","","","null","7","","NaN","","","","","","","","","","","","","",""
"","response","","html-keyboard-response","54","138545","0.0-1.0-68.0-0.0","0","0","41906","","336","","","68","7","","","1","7","training","adjacent","DE","4","5","Q.jpg","L.jpg","1","1","1","",""
"","feedback","","html-keyboard-response","55","139556","0.0-1.0-69.0-0.0","0","0","41906","","null","","","null","7","","","","","","","","","","","","","","","",""
"","ITI","","html-keyboard-response","56","140564","0.0-1.0-72.0","0","0","41906","","null","","","null","7","","","","","","","","","","","","","","","NaN",""
"","S1","","html-keyboard-response","57","140820","0.0-1.0-74.0","0","0","41906","","null","","","null","8","","","","","","","","","","","","","","","",""
"","ISI","","html-keyboard-response","58","141828","0.0-1.0-75.0","0","0","41906","","null","","","null","8","NaN","","","","","","","","","","","","","","",""
"","S2","","html-keyboard-response","59","142087","0.0-1.0-76.0","0","0","41906","","null","","","null","8","","NaN","","","","","","","","","","","","","",""
"","response","","html-keyboard-response","60","142436","0.0-1.0-77.0-0.0","0","0","41906","","344","","","75","8","","","1","8","training","adjacent","BC","2","3","N.jpg","R.jpg","0","1","0","",""
"","feedback","","html-keyboard-response","61","143445","0.0-1.0-78.0-0.0","0","0","41906","","null","","","null","8","","","","","","","","","","","","","","","",""
"","time_out","","html-keyboard-response","62","145453","0.0-1.0-80.0-0.0","0","0","41906","","null","","","null","8","","","","","","","","","","","","","","","",""
"","ITI","","html-keyboard-response","63","146460","0.0-1.0-81.0","0","0","41906","","null","","","null","8","","","","","","","","","","","","","","","NaN",""
"","S1","","html-keyboard-response","64","146716","0.0-1.0-83.0","0","0","41906","","null","","","null","9","","","","","","","","","","","","","","","",""
"","ISI","","html-keyboard-response","65","147724","0.0-1.0-84.0","0","0","41906","","null","","","null","9","NaN","","","","","","","","","","","","","","",""
"","S2","","html-keyboard-response","66","147980","0.0-1.0-85.0","0","0","41906","","null","","","null","9","","NaN","","","","","","","","","","","","","",""
"","response","","html-keyboard-response","67","148592","0.0-1.0-86.0-0.0","0","0","41906","","607","","","75","9","","","1","9","training","adjacent","FG","6","7","O.jpg","P.jpg","0","1","0","",""
"","feedback","","html-keyboard-response","68","149605","0.0-1.0-87.0-0.0","0","0","41906","","null","","","null","9","","","","","","","","","","","","","","","",""
"","time_out","","html-keyboard-response","69","151612","0.0-1.0-89.0-0.0","0","0","41906","","null","","","null","9","","","","","","","","","","","","","","","",""
"","ITI","","html-keyboard-response","70","152621","0.0-1.0-90.0","0","0","41906","","null","","","null","9","","","","","","","","","","","","","","","NaN",""
"","S1","","html-keyboard-response","71","152876","0.0-1.0-92.0","0","0","41906","","null","","","null","10","","","","","","","","","","","","","","","",""
"","ISI","","html-keyboard-response","72","153886","0.0-1.0-93.0","0","0","41906","","null","","","null","10","NaN","","","","","","","","","","","","","","",""
"","S2","","html-keyboard-response","73","154148","0.0-1.0-94.0","0","0","41906","","null","","","null","10","","NaN","","","","","","","","","","","","","",""
"","response","","html-keyboard-response","74","154477","0.0-1.0-95.0-0.0","0","0","41906","","324","","","75","10","","","1","10","training","adjacent","FG","6","7","O.jpg","P.jpg","0","1","0","",""
"","feedback","","html-keyboard-response","75","155484","0.0-1.0-96.0-0.0","0","0","41906","","null","","","null","10","","","","","","","","","","","","","","","",""
"","time_out","","html-keyboard-response","76","157497","0.0-1.0-98.0-0.0","0","0","41906","","null","","","null","10","","","","","","","","","","","","","","","",""
"","ITI","","html-keyboard-response","77","158508","0.0-1.0-99.0","0","0","41906","","null","","","null","10","","","","","","","","","","","","","","","NaN",""
"","S1","","html-keyboard-response","78","158764","0.0-1.0-101.0","0","0","41906","","null","","","null","11","","","","","","","","","","","","","","","",""
"","ISI","","html-keyboard-response","79","159772","0.0-1.0-102.0","0","0","41906","","null","","","null","11","NaN","","","","","","","","","","","","","","",""
"","S2","","html-keyboard-response","80","160031","0.0-1.0-103.0","0","0","41906","","null","","","null","11","","NaN","","","","","","","","","","","","","",""
"","response","","html-keyboard-response","81","160635","0.0-1.0-104.0-0.0","0","0","41906","","599","","","75","11","","","1","11","training","adjacent","DE","4","5","Q.jpg","L.jpg","0","1","0","",""
"","feedback","","html-keyboard-response","82","161644","0.0-1.0-105.0-0.0","0","0","41906","","null","","","null","11","","","","","","","","","","","","","","","",""
"","time_out","","html-keyboard-response","83","163652","0.0-1.0-107.0-0.0","0","0","41906","","null","","","null","11","","","","","","","","","","","","","","","",""
"","ITI","","html-keyboard-response","84","164660","0.0-1.0-108.0","0","0","41906","","null","","","null","11","","","","","","","","","","","","","","","NaN",""
"","S1","","html-keyboard-response","85","164918","0.0-1.0-110.0","0","0","41906","","null","","","null","12","","","","","","","","","","","","","","","",""
"","ISI","","html-keyboard-response","86","165924","0.0-1.0-111.0","0","0","41906","","null","","","null","12","NaN","","","","","","","","","","","","","","",""
"","S2","","html-keyboard-response","87","166181","0.0-1.0-112.0","0","0","41906","","null","","","null","12","","NaN","","","","","","","","","","","","","",""
"","response","","html-keyboard-response","88","166814","0.0-1.0-113.0-0.0","0","0","41906","","627","","","75","12","","","1","12","training","adjacent","AB","1","2","M.jpg","N.jpg","0","1","0","",""
"","feedback","","html-keyboard-response","89","167820","0.0-1.0-114.0-0.0","0","0","41906","","null","","","null","12","","","","","","","","","","","","","","","",""
"","time_out","","html-keyboard-response","90","169829","0.0-1.0-116.0-0.0","0","0","41906","","null","","","null","12","","","","","","","","","","","","","","","",""
"","ITI","","html-keyboard-response","91","170837","0.0-1.0-117.0","0","0","41906","","null","","","null","12","","","","","","","","","","","","","","","NaN",""
"","S1","","html-keyboard-response","92","171095","0.0-1.0-119.0","0","0","41906","","null","","","null","13","","","","","","","","","","","","","","","",""
"","ISI","","html-keyboard-response","93","172103","0.0-1.0-120.0","0","0","41906","","null","","","null","13","NaN","","","","","","","","","","","","","","",""
"","S2","","html-keyboard-response","94","172364","0.0-1.0-121.0","0","0","41906","","null","","","null","13","","NaN","","","","","","","","","","","","","",""
"","response","","html-keyboard-response","95","172554","0.0-1.0-122.0-0.0","0","0","41906","","186","","","68","13","","","1","13","training","adjacent","EF","5","6","L.jpg","O.jpg","1","1","1","",""
"","feedback","","html-keyboard-response","96","173564","0.0-1.0-123.0-0.0","0","0","41906","","null","","","null","13","","","","","","","","","","","","","","","",""
"","ITI","","html-keyboard-response","97","174572","0.0-1.0-126.0","0","0","41906","","null","","","null","13","","","","","","","","","","","","","","","NaN",""
"","S1","","html-keyboard-response","98","174828","0.0-1.0-128.0","0","0","41906","","null","","","null","14","","","","","","","","","","","","","","","",""
"","ISI","","html-keyboard-response","99","175836","0.0-1.0-129.0","0","0","41906","","null","","","null","14","NaN","","","","","","","","","","","","","","",""
"","S2","","html-keyboard-response","100","176092","0.0-1.0-130.0","0","0","41906","","null","","","null","14","","NaN","","","","","","","","","","","","","",""
"","response","","html-keyboard-response","101","176667","0.0-1.0-131.0-0.0","0","0","41906","","570","","","75","14","","","1","14","training","adjacent","AB","1","2","M.jpg","N.jpg","0","1","0","",""
"","feedback","","html-keyboard-response","102","177676","0.0-1.0-132.0-0.0","0","0","41906","","null","","","null","14","","","","","","","","","","","","","","","",""
"","time_out","","html-keyboard-response","103","179684","0.0-1.0-134.0-0.0","0","0","41906","","null","","","null","14","","","","","","","","","","","","","","","",""
"","ITI","","html-keyboard-response","104","180692","0.0-1.0-135.0","0","0","41906","","null","","","null","14","","","","","","","","","","","","","","","NaN",""
"","S1","","html-keyboard-response","105","180949","0.0-1.0-137.0","0","0","41906","","null","","","null","15","","","","","","","","","","","","","","","",""
"","ISI","","html-keyboard-response","106","181957","0.0-1.0-138.0","0","0","41906","","null","","","null","15","NaN","","","","","","","","","","","","","","",""
"","S2","","html-keyboard-response","107","182213","0.0-1.0-139.0","0","0","41906","","null","","","null","15","","NaN","","","","","","","","","","","","","",""
"","response","","html-keyboard-response","108","182515","0.0-1.0-140.0-0.0","0","0","41906","","299","","","68","15","","","1","15","training","adjacent","BA","2","1","N.jpg","M.jpg","1","0","0","",""
"","feedback","","html-keyboard-response","109","183524","0.0-1.0-141.0-0.0","0","0","41906","","null","","","null","15","","","","","","","","","","","","","","","",""
"","time_out","","html-keyboard-response","110","185532","0.0-1.0-143.0-0.0","0","0","41906","","null","","","null","15","","","","","","","","","","","","","","","",""
"","ITI","","html-keyboard-response","111","186540","0.0-1.0-144.0","0","0","41906","","null","","","null","15","","","","","","","","","","","","","","","NaN",""
"","S1","","html-keyboard-response","112","186798","0.0-1.0-146.0","0","0","41906","","null","","","null","16","","","","","","","","","","","","","","","",""
"","ISI","","html-keyboard-response","113","187805","0.0-1.0-147.0","0","0","41906","","null","","","null","16","NaN","","","","","","","","","","","","","","",""
"","S2","","html-keyboard-response","114","188061","0.0-1.0-148.0","0","0","41906","","null","","","null","16","","NaN","","","","","","","","","","","","","",""
"","response","","html-keyboard-response","115","188269","0.0-1.0-149.0-0.0","0","0","41906","","202","","","68","16","","","1","16","training","adjacent","ED","5","4","L.jpg","Q.jpg","1","0","0","",""
"","feedback","","html-keyboard-response","116","189276","0.0-1.0-150.0-0.0","0","0","41906","","null","","","null","16","","","","","","","","","","","","","","","",""
"","time_out","","html-keyboard-response","117","191285","0.0-1.0-152.0-0.0","0","0","41906","","null","","","null","16","","","","","","","","","","","","","","","",""
"","ITI","","html-keyboard-response","118","192293","0.0-1.0-153.0","0","0","41906","","null","","","null","16","","","","","","","","","","","","","","","NaN",""
"","S1","","html-keyboard-response","119","192548","0.0-1.0-155.0","0","0","41906","","null","","","null","17","","","","","","","","","","","","","","","",""
"","ISI","","html-keyboard-response","120","193556","0.0-1.0-156.0","0","0","41906","","null","","","null","17","NaN","","","","","","","","","","","","","","",""
"","S2","","html-keyboard-response","121","193812","0.0-1.0-157.0","0","0","41906","","null","","","null","17","","NaN","","","","","","","","","","","","","",""
"","response","","html-keyboard-response","122","194160","0.0-1.0-158.0-0.0","0","0","41906","","342","","","75","17","","","1","17","training","adjacent","AB","1","2","M.jpg","N.jpg","0","1","0","",""
"","feedback","","html-keyboard-response","123","195174","0.0-1.0-159.0-0.0","0","0","41906","","null","","","null","17","","","","","","","","","","","","","","","",""
"","time_out","","html-keyboard-response","124","197181","0.0-1.0-161.0-0.0","0","0","41906","","null","","","null","17","","","","","","","","","","","","","","","",""
"","ITI","","html-keyboard-response","125","198189","0.0-1.0-162.0","0","0","41906","","null","","","null","17","","","","","","","","","","","","","","","NaN",""
"","S1","","html-keyboard-response","126","198444","0.0-1.0-164.0","0","0","41906","","null","","","null","18","","","","","","","","","","","","","","","",""
"","ISI","","html-keyboard-response","127","199490","0.0-1.0-165.0","0","0","41906","","null","","","null","18","NaN","","","","","","","","","","","","","","",""
"","S2","","html-keyboard-response","128","199748","0.0-1.0-166.0","0","0","41906","","null","","","null","18","","NaN","","","","","","","","","","","","","",""
"","response","","html-keyboard-response","129","199822","0.0-1.0-167.0-0.0","0","0","41906","","70","","","68","18","","","1","18","training","adjacent","ED","5","4","L.jpg","Q.jpg","1","0","0","",""
"","feedback","","html-keyboard-response","130","200828","0.0-1.0-168.0-0.0","0","0","41906","","null","","","null","18","","","","","","","","","","","","","","","",""
"","time_out","","html-keyboard-response","131","202836","0.0-1.0-170.0-0.0","0","0","41906","","null","","","null","18","","","","","","","","","","","","","","","",""
"","ITI","","html-keyboard-response","132","203845","0.0-1.0-171.0","0","0","41906","","null","","","null","18","","","","","","","","","","","","","","","NaN",""
"","S1","","html-keyboard-response","133","204101","0.0-1.0-173.0","0","0","41906","","null","","","null","19","","","","","","","","","","","","","","","",""
"","ISI","","html-keyboard-response","134","205108","0.0-1.0-174.0","0","0","41906","","null","","","null","19","NaN","","","","","","","","","","","","","","",""
"","S2","","html-keyboard-response","135","205364","0.0-1.0-175.0","0","0","41906","","null","","","null","19","","NaN","","","","","","","","","","","","","",""
"","response","","html-keyboard-response","136","205704","0.0-1.0-176.0-0.0","0","0","41906","","336","","","75","19","","","1","19","training","adjacent","DC","4","3","Q.jpg","R.jpg","0","0","1","",""
"","feedback","","html-keyboard-response","137","206716","0.0-1.0-177.0-0.0","0","0","41906","","null","","","null","19","","","","","","","","","","","","","","","",""
"","ITI","","html-keyboard-response","138","207724","0.0-1.0-180.0","0","0","41906","","null","","","null","19","","","","","","","","","","","","","","","NaN",""
"","S1","","html-keyboard-response","139","207981","0.0-1.0-182.0","0","0","41906","","null","","","null","20","","","","","","","","","","","","","","","",""
"","ISI","","html-keyboard-response","140","208989","0.0-1.0-183.0","0","0","41906","","null","","","null","20","NaN","","","","","","","","","","","","","","",""
"","S2","","html-keyboard-response","141","209244","0.0-1.0-184.0","0","0","41906","","null","","","null","20","","NaN","","","","","","","","","","","","","",""
"","response","","html-keyboard-response","142","209637","0.0-1.0-185.0-0.0","0","0","41906","","388","","","75","20","","","1","20","training","adjacent","BC","2","3","N.jpg","R.jpg","0","1","0","",""
"","feedback","","html-keyboard-response","143","210644","0.0-1.0-186.0-0.0","0","0","41906","","null","","","null","20","","","","","","","","","","","","","","","",""
"","time_out","","html-keyboard-response","144","212652","0.0-1.0-188.0-0.0","0","0","41906","","null","","","null","20","","","","","","","","","","","","","","","",""
"","ITI","","html-keyboard-response","145","213660","0.0-1.0-189.0","0","0","41906","","null","","","null","20","","","","","","","","","","","","","","","NaN",""
"","S1","","html-keyboard-response","146","213917","0.0-1.0-191.0","0","0","41906","","null","","","null","21","","","","","","","","","","","","","","","",""
"","ISI","","html-keyboard-response","147","214925","0.0-1.0-192.0","0","0","41906","","null","","","null","21","NaN","","","","","","","","","","","","","","",""
"","S2","","html-keyboard-response","148","215181","0.0-1.0-193.0","0","0","41906","","null","","","null","21","","NaN","","","","","","","","","","","","","",""
"","response","","html-keyboard-response","149","215526","0.0-1.0-194.0-0.0","0","0","41906","","342","","","75","21","","","1","21","training","adjacent","DC","4","3","Q.jpg","R.jpg","0","0","1","",""
"","feedback","","html-keyboard-response","150","216532","0.0-1.0-195.0-0.0","0","0","41906","","null","","","null","21","","","","","","","","","","","","","","","",""
"","ITI","","html-keyboard-response","151","217540","0.0-1.0-198.0","0","0","41906","","null","","","null","21","","","","","","","","","","","","","","","NaN",""
"","S1","","html-keyboard-response","152","217797","0.0-1.0-200.0","0","0","41906","","null","","","null","22","","","","","","","","","","","","","","","",""
"","ISI","","html-keyboard-response","153","218805","0.0-1.0-201.0","0","0","41906","","null","","","null","22","NaN","","","","","","","","","","","","","","",""
"","S2","","html-keyboard-response","154","219071","0.0-1.0-202.0","0","0","41906","","null","","","null","22","","NaN","","","","","","","","","","","","","",""
"","response","","html-keyboard-response","155","219425","0.0-1.0-203.0-0.0","0","0","41906","","349","","","75","22","","","1","22","training","adjacent","DC","4","3","Q.jpg","R.jpg","0","0","1","",""
"","feedback","","html-keyboard-response","156","220433","0.0-1.0-204.0-0.0","0","0","41906","","null","","","null","22","","","","","","","","","","","","","","","",""
"","ITI","","html-keyboard-response","157","221444","0.0-1.0-207.0","0","0","41906","","null","","","null","22","","","","","","","","","","","","","","","NaN",""
"","S1","","html-keyboard-response","158","221701","0.0-1.0-209.0","0","0","41906","","null","","","null","23","","","","","","","","","","","","","","","",""
"","ISI","","html-keyboard-response","159","222708","0.0-1.0-210.0","0","0","41906","","null","","","null","23","NaN","","","","","","","","","","","","","","",""
"","S2","","html-keyboard-response","160","222964","0.0-1.0-211.0","0","0","41906","","null","","","null","23","","NaN","","","","","","","","","","","","","",""
"","response","","html-keyboard-response","161","223560","0.0-1.0-212.0-0.0","0","0","41906","","591","","","75","23","","","1","23","training","adjacent","FE","6","5","O.jpg","L.jpg","0","0","1","",""
"","feedback","","html-keyboard-response","162","224572","0.0-1.0-213.0-0.0","0","0","41906","","null","","","null","23","","","","","","","","","","","","","","","",""
"","ITI","","html-keyboard-response","163","225580","0.0-1.0-216.0","0","0","41906","","null","","","null","23","","","","","","","","","","","","","","","NaN",""
"","S1","","html-keyboard-response","164","225836","0.0-1.0-218.0","0","0","41906","","null","","","null","24","","","","","","","","","","","","","","","",""
"","ISI","","html-keyboard-response","165","226845","0.0-1.0-219.0","0","0","41906","","null","","","null","24","NaN","","","","","","","","","","","","","","",""
"","S2","","html-keyboard-response","166","227111","0.0-1.0-220.0","0","0","41906","","null","","","null","24","","NaN","","","","","","","","","","","","","",""
"","response","","html-keyboard-response","167","227469","0.0-1.0-221.0-0.0","0","0","41906","","354","","","68","24","","","1","24","training","adjacent","CD","3","4","R.jpg","Q.jpg","1","1","1","",""
"","feedback","","html-keyboard-response","168","228476","0.0-1.0-222.0-0.0","0","0","41906","","null","","","null","24","","","","","","","","","","","","","","","",""
"","ITI","","html-keyboard-response","169","229484","0.0-1.0-225.0","0","0","41906","","null","","","null","24","","","","","","","","","","","","","","","NaN",""
"","S1","","html-keyboard-response","170","229740","0.0-1.0-227.0","0","0","41906","","null","","","null","25","","","","","","","","","","","","","","","",""
"","ISI","","html-keyboard-response","171","230748","0.0-1.0-228.0","0","0","41906","","null","","","null","25","NaN","","","","","","","","","","","","","","",""
"","S2","","html-keyboard-response","172","231005","0.0-1.0-229.0","0","0","41906","","null","","","null","25","","NaN","","","","","","","","","","","","","",""
"","response","","html-keyboard-response","173","231407","0.0-1.0-230.0-0.0","0","0","41906","","398","","","75","25","","","1","25","training","adjacent","AB","1","2","M.jpg","N.jpg","0","1","0","",""
"","feedback","","html-keyboard-response","174","232412","0.0-1.0-231.0-0.0","0","0","41906","","null","","","null","25","","","","","","","","","","","","","","","",""
"","time_out","","html-keyboard-response","175","234420","0.0-1.0-233.0-0.0","0","0","41906","","null","","","null","25","","","","","","","","","","","","","","","",""
"","ITI","","html-keyboard-response","176","235426","0.0-1.0-234.0","0","0","41906","","null","","","null","25","","","","","","","","","","","","","","","NaN",""
"","S1","","html-keyboard-response","177","235684","0.0-1.0-236.0","0","0","41906","","null","","","null","26","","","","","","","","","","","","","","","",""
"","ISI","","html-keyboard-response","178","236692","0.0-1.0-237.0","0","0","41906","","null","","","null","26","NaN","","","","","","","","","","","","","","",""
"","S2","","html-keyboard-response","179","236948","0.0-1.0-238.0","0","0","41906","","null","","","null","26","","NaN","","","","","","","","","","","","","",""
"","response","","html-keyboard-response","180","237305","0.0-1.0-239.0-0.0","0","0","41906","","353","","","75","26","","","1","26","training","adjacent","FE","6","5","O.jpg","L.jpg","0","0","1","",""
"","feedback","","html-keyboard-response","181","238316","0.0-1.0-240.0-0.0","0","0","41906","","null","","","null","26","","","","","","","","","","","","","","","",""
"","ITI","","html-keyboard-response","182","239336","0.0-1.0-243.0","0","0","41906","","null","","","null","26","","","","","","","","","","","","","","","NaN",""
"","S1","","html-keyboard-response","183","239596","0.0-1.0-245.0","0","0","41906","","null","","","null","27","","","","","","","","","","","","","","","",""
"","ISI","","html-keyboard-response","184","240604","0.0-1.0-246.0","0","0","41906","","null","","","null","27","NaN","","","","","","","","","","","","","","",""
"","S2","","html-keyboard-response","185","240860","0.0-1.0-247.0","0","0","41906","","null","","","null","27","","NaN","","","","","","","","","","","","","",""
"","response","","html-keyboard-response","186","241215","0.0-1.0-248.0-0.0","0","0","41906","","349","","","68","27","","","1","27","training","adjacent","GF","7","6","P.jpg","O.jpg","1","0","0","",""
"","feedback","","html-keyboard-response","187","242221","0.0-1.0-249.0-0.0","0","0","41906","","null","","","null","27","","","","","","","","","","","","","","","",""
"","time_out","","html-keyboard-response","188","244228","0.0-1.0-251.0-0.0","0","0","41906","","null","","","null","27","","","","","","","","","","","","","","","",""
"","ITI","","html-keyboard-response","189","245236","0.0-1.0-252.0","0","0","41906","","null","","","null","27","","","","","","","","","","","","","","","NaN",""
"","S1","","html-keyboard-response","190","245492","0.0-1.0-254.0","0","0","41906","","null","","","null","28","","","","","","","","","","","","","","","",""
"","ISI","","html-keyboard-response","191","246500","0.0-1.0-255.0","0","0","41906","","null","","","null","28","NaN","","","","","","","","","","","","","","",""
"","S2","","html-keyboard-response","192","246756","0.0-1.0-256.0","0","0","41906","","null","","","null","28","","NaN","","","","","","","","","","","","","",""
"","response","","html-keyboard-response","193","247114","0.0-1.0-257.0-0.0","0","0","41906","","353","","","75","28","","","1","28","training","adjacent","FG","6","7","O.jpg","P.jpg","0","1","0","",""
"","feedback","","html-keyboard-response","194","248124","0.0-1.0-258.0-0.0","0","0","41906","","null","","","null","28","","","","","","","","","","","","","","","",""
"","time_out","","html-keyboard-response","195","250132","0.0-1.0-260.0-0.0","0","0","41906","","null","","","null","28","","","","","","","","","","","","","","","",""
"","ITI","","html-keyboard-response","196","251141","0.0-1.0-261.0","0","0","41906","","null","","","null","28","","","","","","","","","","","","","","","NaN",""
"","S1","","html-keyboard-response","197","251397","0.0-1.0-263.0","0","0","41906","","null","","","null","29","","","","","","","","","","","","","","","",""
"","ISI","","html-keyboard-response","198","252404","0.0-1.0-264.0","0","0","41906","","null","","","null","29","NaN","","","","","","","","","","","","","","",""
"","S2","","html-keyboard-response","199","252660","0.0-1.0-265.0","0","0","41906","","null","","","null","29","","NaN","","","","","","","","","","","","","",""
"","response","","html-keyboard-response","200","253566","0.0-1.0-266.0-0.0","0","0","41906","","900","","","68","29","","","1","29","training","adjacent","CB","3","2","R.jpg","N.jpg","1","0","0","",""
"","feedback","","html-keyboard-response","201","254572","0.0-1.0-267.0-0.0","0","0","41906","","null","","","null","29","","","","","","","","","","","","","","","",""
"","time_out","","html-keyboard-response","202","256581","0.0-1.0-269.0-0.0","0","0","41906","","null","","","null","29","","","","","","","","","","","","","","","",""
"","ITI","","html-keyboard-response","203","257589","0.0-1.0-270.0","0","0","41906","","null","","","null","29","","","","","","","","","","","","","","","NaN",""
"","S1","","html-keyboard-response","204","257844","0.0-1.0-272.0","0","0","41906","","null","","","null","30","","","","","","","","","","","","","","","",""
"","ISI","","html-keyboard-response","205","258852","0.0-1.0-273.0","0","0","41906","","null","","","null","30","NaN","","","","","","","","","","","","","","",""
"","S2","","html-keyboard-response","206","259109","0.0-1.0-274.0","0","0","41906","","null","","","null","30","","NaN","","","","","","","","","","","","","",""
"","response","","html-keyboard-response","207","259804","0.0-1.0-275.0-0.0","0","0","41906","","691","","","75","30","","","1","30","training","adjacent","ED","5","4","L.jpg","Q.jpg","0","0","1","",""
"","feedback","","html-keyboard-response","208","260812","0.0-1.0-276.0-0.0","0","0","41906","","null","","","null","30","","","","","","","","","","","","","","","",""
"","ITI","","html-keyboard-response","209","261820","0.0-1.0-279.0","0","0","41906","","null","","","null","30","","","","","","","","","","","","","","","NaN",""
"","S1","","html-keyboard-response","210","262080","0.0-1.0-281.0","0","0","41906","","null","","","null","31","","","","","","","","","","","","","","","",""
"","ISI","","html-keyboard-response","211","263085","0.0-1.0-282.0","0","0","41906","","null","","","null","31","NaN","","","","","","","","","","","","","","",""
"","S2","","html-keyboard-response","212","263341","0.0-1.0-283.0","0","0","41906","","null","","","null","31","","NaN","","","","","","","","","","","","","",""
"","response","","html-keyboard-response","213","264059","0.0-1.0-284.0-0.0","0","0","41906","","714","","","75","31","","","1","31","training","adjacent","BA","2","1","N.jpg","M.jpg","0","0","1","",""
"","feedback","","html-keyboard-response","214","265070","0.0-1.0-285.0-0.0","0","0","41906","","null","","","null","31","","","","","","","","","","","","","","","",""
"","ITI","","html-keyboard-response","215","266077","0.0-1.0-288.0","0","0","41906","","null","","","null","31","","","","","","","","","","","","","","","NaN",""
"","S1","","html-keyboard-response","216","266333","0.0-1.0-290.0","0","0","41906","","null","","","null","32","","","","","","","","","","","","","","","",""
"","ISI","","html-keyboard-response","217","267340","0.0-1.0-291.0","0","0","41906","","null","","","null","32","NaN","","","","","","","","","","","","","","",""
"","S2","","html-keyboard-response","218","267597","0.0-1.0-292.0","0","0","41906","","null","","","null","32","","NaN","","","","","","","","","","","","","",""
"","response","","html-keyboard-response","219","268000","0.0-1.0-293.0-0.0","0","0","41906","","400","","","68","32","","","1","32","training","adjacent","EF","5","6","L.jpg","O.jpg","1","1","1","",""
"","feedback","","html-keyboard-response","220","269031","0.0-1.0-294.0-0.0","0","0","41906","","null","","","null","32","","","","","","","","","","","","","","","",""
"","ITI","","html-keyboard-response","221","270036","0.0-1.0-297.0","0","0","41906","","null","","","null","32","","","","","","","","","","","","","","","NaN",""
"","S1","","html-keyboard-response","222","270292","0.0-1.0-299.0","0","0","41906","","null","","","null","33","","","","","","","","","","","","","","","",""
"","ISI","","html-keyboard-response","223","271315","0.0-1.0-300.0","0","0","41906","","null","","","null","33","NaN","","","","","","","","","","","","","","",""
"","S2","","html-keyboard-response","224","271572","0.0-1.0-301.0","0","0","41906","","null","","","null","33","","NaN","","","","","","","","","","","","","",""
"","response","","html-keyboard-response","225","271883","0.0-1.0-302.0-0.0","0","0","41906","","306","","","68","33","","","1","33","training","adjacent","DC","4","3","Q.jpg","R.jpg","1","0","0","",""
"","feedback","","html-keyboard-response","226","272892","0.0-1.0-303.0-0.0","0","0","41906","","null","","","null","33","","","","","","","","","","","","","","","",""
"","time_out","","html-keyboard-response","227","274901","0.0-1.0-305.0-0.0","0","0","41906","","null","","","null","33","","","","","","","","","","","","","","","",""
"","ITI","","html-keyboard-response","228","275909","0.0-1.0-306.0","0","0","41906","","null","","","null","33","","","","","","","","","","","","","","","NaN",""
"","S1","","html-keyboard-response","229","276165","0.0-1.0-308.0","0","0","41906","","null","","","null","34","","","","","","","","","","","","","","","",""
"","ISI","","html-keyboard-response","230","277172","0.0-1.0-309.0","0","0","41906","","null","","","null","34","NaN","","","","","","","","","","","","","","",""
"","S2","","html-keyboard-response","231","277428","0.0-1.0-310.0","0","0","41906","","null","","","null","34","","NaN","","","","","","","","","","","","","",""
"","response","","html-keyboard-response","232","278042","0.0-1.0-311.0-0.0","0","0","41906","","610","","","75","34","","","1","34","training","adjacent","DE","4","5","Q.jpg","L.jpg","0","1","0","",""
"","feedback","","html-keyboard-response","233","279052","0.0-1.0-312.0-0.0","0","0","41906","","null","","","null","34","","","","","","","","","","","","","","","",""
"","time_out","","html-keyboard-response","234","281060","0.0-1.0-314.0-0.0","0","0","41906","","null","","","null","34","","","","","","","","","","","","","","","",""
"","ITI","","html-keyboard-response","235","282071","0.0-1.0-315.0","0","0","41906","","null","","","null","34","","","","","","","","","","","","","","","NaN",""
"","S1","","html-keyboard-response","236","282333","0.0-1.0-317.0","0","0","41906","","null","","","null","35","","","","","","","","","","","","","","","",""
"","ISI","","html-keyboard-response","237","283340","0.0-1.0-318.0","0","0","41906","","null","","","null","35","NaN","","","","","","","","","","","","","","",""
"","S2","","html-keyboard-response","238","283597","0.0-1.0-319.0","0","0","41906","","null","","","null","35","","NaN","","","","","","","","","","","","","",""
"","response","","html-keyboard-response","239","283944","0.0-1.0-320.0-0.0","0","0","41906","","343","","","68","35","","","1","35","training","adjacent","CB","3","2","R.jpg","N.jpg","1","0","0","",""
"","feedback","","html-keyboard-response","240","284956","0.0-1.0-321.0-0.0","0","0","41906","","null","","","null","35","","","","","","","","","","","","","","","",""
"","time_out","","html-keyboard-response","241","286965","0.0-1.0-323.0-0.0","0","0","41906","","null","","","null","35","","","","","","","","","","","","","","","",""
"","ITI","","html-keyboard-response","242","287972","0.0-1.0-324.0","0","0","41906","","null","","","null","35","","","","","","","","","","","","","","","NaN",""
"","S1","","html-keyboard-response","243","288228","0.0-1.0-326.0","0","0","41906","","null","","","null","36","","","","","","","","","","","","","","","",""
"","ISI","","html-keyboard-response","244","289236","0.0-1.0-327.0","0","0","41906","","null","","","null","36","NaN","","","","","","","","","","","","","","",""
"","S2","","html-keyboard-response","245","289492","0.0-1.0-328.0","0","0","41906","","null","","","null","36","","NaN","","","","","","","","","","","","","",""
"","response","","html-keyboard-response","246","289728","0.0-1.0-329.0-0.0","0","0","41906","","232","","","75","36","","","1","36","training","adjacent","CD","3","4","R.jpg","Q.jpg","0","1","0","",""
"","feedback","","html-keyboard-response","247","290740","0.0-1.0-330.0-0.0","0","0","41906","","null","","","null","36","","","","","","","","","","","","","","","",""
"","time_out","","html-keyboard-response","248","292748","0.0-1.0-332.0-0.0","0","0","41906","","null","","","null","36","","","","","","","","","","","","","","","",""
"","ITI","","html-keyboard-response","249","293756","0.0-1.0-333.0","0","0","41906","","null","","","null","36","","","","","","","","","","","","","","","NaN",""
"","S1","","html-keyboard-response","250","294012","0.0-1.0-335.0","0","0","41906","","null","","","null","37","","","","","","","","","","","","","","","",""
"","ISI","","html-keyboard-response","251","295021","0.0-1.0-336.0","0","0","41906","","null","","","null","37","NaN","","","","","","","","","","","","","","",""
"","S2","","html-keyboard-response","252","295317","0.0-1.0-337.0","0","0","41906","","null","","","null","37","","NaN","","","","","","","","","","","","","",""
"","response","","html-keyboard-response","253","295705","0.0-1.0-338.0-0.0","0","0","41906","","384","","","68","37","","","1","37","training","adjacent","BC","2","3","N.jpg","R.jpg","1","1","1","",""
"","feedback","","html-keyboard-response","254","296716","0.0-1.0-339.0-0.0","0","0","41906","","null","","","null","37","","","","","","","","","","","","","","","",""
"","ITI","","html-keyboard-response","255","297724","0.0-1.0-342.0","0","0","41906","","null","","","null","37","","","","","","","","","","","","","","","NaN",""
"","S1","","html-keyboard-response","256","297981","0.0-1.0-344.0","0","0","41906","","null","","","null","38","","","","","","","","","","","","","","","",""
"","ISI","","html-keyboard-response","257","298988","0.0-1.0-345.0","0","0","41906","","null","","","null","38","NaN","","","","","","","","","","","","","","",""
"","S2","","html-keyboard-response","258","299245","0.0-1.0-346.0","0","0","41906","","null","","","null","38","","NaN","","","","","","","","","","","","","",""
"","response","","html-keyboard-response","259","299685","0.0-1.0-347.0-0.0","0","0","41906","","436","","","75","38","","","1","38","training","adjacent","GF","7","6","P.jpg","O.jpg","0","0","1","",""
"","feedback","","html-keyboard-response","260","300692","0.0-1.0-348.0-0.0","0","0","41906","","null","","","null","38","","","","","","","","","","","","","","","",""
"","ITI","","html-keyboard-response","261","301701","0.0-1.0-351.0","0","0","41906","","null","","","null","38","","","","","","","","","","","","","","","NaN",""
"","S1","","html-keyboard-response","262","301958","0.0-1.0-353.0","0","0","41906","","null","","","null","39","","","","","","","","","","","","","","","",""
"","ISI","","html-keyboard-response","263","302965","0.0-1.0-354.0","0","0","41906","","null","","","null","39","NaN","","","","","","","","","","","","","","",""
"","S2","","html-keyboard-response","264","303220","0.0-1.0-355.0","0","0","41906","","null","","","null","39","","NaN","","","","","","","","","","","","","",""
"","response","","html-keyboard-response","265","303531","0.0-1.0-356.0-0.0","0","0","41906","","307","","","75","39","","","1","39","training","adjacent","CD","3","4","R.jpg","Q.jpg","0","1","0","",""
"","feedback","","html-keyboard-response","266","304540","0.0-1.0-357.0-0.0","0","0","41906","","null","","","null","39","","","","","","","","","","","","","","","",""
"","time_out","","html-keyboard-response","267","306552","0.0-1.0-359.0-0.0","0","0","41906","","null","","","null","39","","","","","","","","","","","","","","","",""
"","ITI","","html-keyboard-response","268","307556","0.0-1.0-360.0","0","0","41906","","null","","","null","39","","","","","","","","","","","","","","","NaN",""
"","S1","","html-keyboard-response","269","307812","0.0-1.0-362.0","0","0","41906","","null","","","null","40","","","","","","","","","","","","","","","",""
"","ISI","","html-keyboard-response","270","308820","0.0-1.0-363.0","0","0","41906","","null","","","null","40","NaN","","","","","","","","","","","","","","",""
"","S2","","html-keyboard-response","271","309085","0.0-1.0-364.0","0","0","41906","","null","","","null","40","","NaN","","","","","","","","","","","","","",""
"","response","","html-keyboard-response","272","309487","0.0-1.0-365.0-0.0","0","0","41906","","394","","","68","40","","","1","40","training","adjacent","CB","3","2","R.jpg","N.jpg","1","0","0","",""
"","feedback","","html-keyboard-response","273","310501","0.0-1.0-366.0-0.0","0","0","41906","","null","","","null","40","","","","","","","","","","","","","","","",""
"","time_out","","html-keyboard-response","274","312509","0.0-1.0-368.0-0.0","0","0","41906","","null","","","null","40","","","","","","","","","","","","","","","",""
"","ITI","","html-keyboard-response","275","313517","0.0-1.0-369.0","0","0","41906","","null","","","null","40","","","","","","","","","","","","","","","NaN",""
"","S1","","html-keyboard-response","276","313772","0.0-1.0-371.0","0","0","41906","","null","","","null","41","","","","","","","","","","","","","","","",""
"","ISI","","html-keyboard-response","277","314780","0.0-1.0-372.0","0","0","41906","","null","","","null","41","NaN","","","","","","","","","","","","","","",""
"","S2","","html-keyboard-response","278","315036","0.0-1.0-373.0","0","0","41906","","null","","","null","41","","NaN","","","","","","","","","","","","","",""
"","response","","html-keyboard-response","279","315437","0.0-1.0-374.0-0.0","0","0","41906","","393","","","75","41","","","1","41","training","adjacent","GF","7","6","P.jpg","O.jpg","0","0","1","",""
"","feedback","","html-keyboard-response","280","316444","0.0-1.0-375.0-0.0","0","0","41906","","null","","","null","41","","","","","","","","","","","","","","","",""
"","ITI","","html-keyboard-response","281","317453","0.0-1.0-378.0","0","0","41906","","null","","","null","41","","","","","","","","","","","","","","","NaN",""
"","S1","","html-keyboard-response","282","317709","0.0-1.0-380.0","0","0","41906","","null","","","null","42","","","","","","","","","","","","","","","",""
"","ISI","","html-keyboard-response","283","318717","0.0-1.0-381.0","0","0","41906","","null","","","null","42","NaN","","","","","","","","","","","","","","",""
"","S2","","html-keyboard-response","284","318972","0.0-1.0-382.0","0","0","41906","","null","","","null","42","","NaN","","","","","","","","","","","","","",""
"","response","","html-keyboard-response","285","319993","0.0-1.0-383.0-0.0","0","0","41906","","1016","","","68","42","","","1","42","training","adjacent","CB","3","2","R.jpg","N.jpg","1","0","0","",""
"","feedback","","html-keyboard-response","286","321004","0.0-1.0-384.0-0.0","0","0","41906","","null","","","null","42","","","","","","","","","","","","","","","",""
"","time_out","","html-keyboard-response","287","323012","0.0-1.0-386.0-0.0","0","0","41906","","null","","","null","42","","","","","","","","","","","","","","","",""
"","ITI","","html-keyboard-response","288","324020","0.0-1.0-387.0","0","0","41906","","null","","","null","42","","","","","","","","","","","","","","","NaN",""
"","S1","","html-keyboard-response","289","324276","0.0-1.0-389.0","0","0","41906","","null","","","null","43","","","","","","","","","","","","","","","",""
"","ISI","","html-keyboard-response","290","325284","0.0-1.0-390.0","0","0","41906","","null","","","null","43","NaN","","","","","","","","","","","","","","",""
"","S2","","html-keyboard-response","291","325540","0.0-1.0-391.0","0","0","41906","","null","","","null","43","","NaN","","","","","","","","","","","","","",""
"","response","","html-keyboard-response","292","325654","0.0-1.0-392.0-0.0","0","0","41906","","109","","","75","43","","","1","43","training","adjacent","EF","5","6","L.jpg","O.jpg","0","1","0","",""
"","feedback","","html-keyboard-response","293","326660","0.0-1.0-393.0-0.0","0","0","41906","","null","","","null","43","","","","","","","","","","","","","","","",""
"","time_out","","html-keyboard-response","294","328668","0.0-1.0-395.0-0.0","0","0","41906","","null","","","null","43","","","","","","","","","","","","","","","",""
"","ITI","","html-keyboard-response","295","329676","0.0-1.0-396.0","0","0","41906","","null","","","null","43","","","","","","","","","","","","","","","NaN",""
"","S1","","html-keyboard-response","296","329932","0.0-1.0-398.0","0","0","41906","","null","","","null","44","","","","","","","","","","","","","","","",""
"","ISI","","html-keyboard-response","297","330940","0.0-1.0-399.0","0","0","41906","","null","","","null","44","NaN","","","","","","","","","","","","","","",""
"","S2","","html-keyboard-response","298","331196","0.0-1.0-400.0","0","0","41906","","null","","","null","44","","NaN","","","","","","","","","","","","","",""
"","response","","html-keyboard-response","299","331408","0.0-1.0-401.0-0.0","0","0","41906","","208","","","75","44","","","1","44","training","adjacent","EF","5","6","L.jpg","O.jpg","0","1","0","",""
"","feedback","","html-keyboard-response","300","332420","0.0-1.0-402.0-0.0","0","0","41906","","null","","","null","44","","","","","","","","","","","","","","","",""
"","time_out","","html-keyboard-response","301","334432","0.0-1.0-404.0-0.0","0","0","41906","","null","","","null","44","","","","","","","","","","","","","","","",""
"","ITI","","html-keyboard-response","302","335444","0.0-1.0-405.0","0","0","41906","","null","","","null","44","","","","","","","","","","","","","","","NaN",""
"","S1","","html-keyboard-response","303","335700","0.0-1.0-407.0","0","0","41906","","null","","","null","45","","","","","","","","","","","","","","","",""
"","ISI","","html-keyboard-response","304","336708","0.0-1.0-408.0","0","0","41906","","null","","","null","45","NaN","","","","","","","","","","","","","","",""
"","S2","","html-keyboard-response","305","336964","0.0-1.0-409.0","0","0","41906","","null","","","null","45","","NaN","","","","","","","","","","","","","",""
"","response","","html-keyboard-response","306","337497","0.0-1.0-410.0-0.0","0","0","41906","","527","","","75","45","","","1","45","training","adjacent","GF","7","6","P.jpg","O.jpg","0","0","1","",""
"","feedback","","html-keyboard-response","307","338508","0.0-1.0-411.0-0.0","0","0","41906","","null","","","null","45","","","","","","","","","","","","","","","",""
"","ITI","","html-keyboard-response","308","339517","0.0-1.0-414.0","0","0","41906","","null","","","null","45","","","","","","","","","","","","","","","NaN",""
"","S1","","html-keyboard-response","309","339772","0.0-1.0-416.0","0","0","41906","","null","","","null","46","","","","","","","","","","","","","","","",""
"","ISI","","html-keyboard-response","310","340780","0.0-1.0-417.0","0","0","41906","","null","","","null","46","NaN","","","","","","","","","","","","","","",""
"","S2","","html-keyboard-response","311","341036","0.0-1.0-418.0","0","0","41906","","null","","","null","46","","NaN","","","","","","","","","","","","","",""
"","response","","html-keyboard-response","312","341519","0.0-1.0-419.0-0.0","0","0","41906","","479","","","68","46","","","1","46","training","adjacent","BC","2","3","N.jpg","R.jpg","1","1","1","",""
"","feedback","","html-keyboard-response","313","342524","0.0-1.0-420.0-0.0","0","0","41906","","null","","","null","46","","","","","","","","","","","","","","","",""
"","ITI","","html-keyboard-response","314","343532","0.0-1.0-423.0","0","0","41906","","null","","","null","46","","","","","","","","","","","","","","","NaN",""
"","S1","","html-keyboard-response","315","343788","0.0-1.0-425.0","0","0","41906","","null","","","null","47","","","","","","","","","","","","","","","",""
"","ISI","","html-keyboard-response","316","344798","0.0-1.0-426.0","0","0","41906","","155","","","75","47","k","","","","","","","","","","","","","","",""
"","S2","","html-keyboard-response","317","345061","0.0-1.0-427.0","0","0","41906","","null","","","null","47","","NaN","","","","","","","","","","","","","",""
"","response","","html-keyboard-response","318","345481","0.0-1.0-428.0-0.0","0","0","41906","","415","","","75","47","","","1","47","training","adjacent","FE","6","5","O.jpg","L.jpg","0","0","1","",""
"","feedback","","html-keyboard-response","319","346492","0.0-1.0-429.0-0.0","0","0","41906","","null","","","null","47","","","","","","","","","","","","","","","",""
"","ITI","","html-keyboard-response","320","347501","0.0-1.0-432.0","0","0","41906","","null","","","null","47","","","","","","","","","","","","","","","NaN",""
"","block_over","","html-keyboard-response","321","355903","0.0-1.0-433.0-0.0","0","0","41906","","8398","","","32","47","","","","","","","","","","","","","","","",""
"","S1","","html-keyboard-response","322","356166","0.0-1.0-434.0","0","0","41906","","null","","","null","48","","","","","","","","","","","","","","","",""
"","ISI","","html-keyboard-response","323","357173","0.0-1.0-435.0","0","0","41906","","null","","","null","48","NaN","","","","","","","","","","","","","","",""
"","S2","","html-keyboard-response","324","357429","0.0-1.0-436.0","0","0","41906","","null","","","null","48","","NaN","","","","","","","","","","","","","",""
"","response","","html-keyboard-response","325","357662","0.0-1.0-437.0-0.0","0","0","41906","","230","","","75","48","","","2","48","training","adjacent","GF","7","6","P.jpg","O.jpg","0","0","1","",""
"","feedback","","html-keyboard-response","326","358668","0.0-1.0-438.0-0.0","0","0","41906","","null","","","null","48","","","","","","","","","","","","","","","",""
"","ITI","","html-keyboard-response","327","359677","0.0-1.0-441.0","0","0","41906","","null","","","null","48","","","","","","","","","","","","","","","NaN",""
"","S1","","html-keyboard-response","328","359932","0.0-1.0-443.0","0","0","41906","","null","","","null","49","","","","","","","","","","","","","","","",""
"","ISI","","html-keyboard-response","329","360940","0.0-1.0-444.0","0","0","41906","","null","","","null","49","NaN","","","","","","","","","","","","","","",""
"","S2","","html-keyboard-response","330","361196","0.0-1.0-445.0","0","0","41906","","null","","","null","49","","NaN","","","","","","","","","","","","","",""
"","response","","html-keyboard-response","331","361558","0.0-1.0-446.0-0.0","0","0","41906","","358","","","75","49","","","2","49","training","adjacent","ED","5","4","L.jpg","Q.jpg","0","0","1","",""
"","feedback","","html-keyboard-response","332","362565","0.0-1.0-447.0-0.0","0","0","41906","","null","","","null","49","","","","","","","","","","","","","","","",""
"","ITI","","html-keyboard-response","333","363573","0.0-1.0-450.0","0","0","41906","","null","","","null","49","","","","","","","","","","","","","","","NaN",""
"","S1","","html-keyboard-response","334","363828","0.0-1.0-452.0","0","0","41906","","null","","","null","50","","","","","","","","","","","","","","","",""
"","ISI","","html-keyboard-response","335","364836","0.0-1.0-453.0","0","0","41906","","null","","","null","50","NaN","","","","","","","","","","","","","","",""
"","S2","","html-keyboard-response","336","365092","0.0-1.0-454.0","0","0","41906","","null","","","null","50","","NaN","","","","","","","","","","","","","",""
"","response","","html-keyboard-response","337","365240","0.0-1.0-455.0-0.0","0","0","41906","","143","","","75","50","","","2","50","training","adjacent","ED","5","4","L.jpg","Q.jpg","0","0","1","",""
"","feedback","","html-keyboard-response","338","366252","0.0-1.0-456.0-0.0","0","0","41906","","null","","","null","50","","","","","","","","","","","","","","","",""
"","ITI","","html-keyboard-response","339","367303","0.0-1.0-459.0","0","0","41906","","null","","","null","50","","","","","","","","","","","","","","","NaN",""
"","S1","","html-keyboard-response","340","367564","0.0-1.0-461.0","0","0","41906","","null","","","null","51","","","","","","","","","","","","","","","",""
"","ISI","","html-keyboard-response","341","368572","0.0-1.0-462.0","0","0","41906","","null","","","null","51","NaN","","","","","","","","","","","","","","",""
"","S2","","html-keyboard-response","342","368828","0.0-1.0-463.0","0","0","41906","","null","","","null","51","","NaN","","","","","","","","","","","","","",""
"","response","","html-keyboard-response","343","369147","0.0-1.0-464.0-0.0","0","0","41906","","315","","","68","51","","","2","51","training","adjacent","DC","4","3","Q.jpg","R.jpg","1","0","0","",""
"","feedback","","html-keyboard-response","344","370156","0.0-1.0-465.0-0.0","0","0","41906","","null","","","null","51","","","","","","","","","","","","","","","",""
"","time_out","","html-keyboard-response","345","372164","0.0-1.0-467.0-0.0","0","0","41906","","null","","","null","51","","","","","","","","","","","","","","","",""
"","ITI","","html-keyboard-response","346","373172","0.0-1.0-468.0","0","0","41906","","null","","","null","51","","","","","","","","","","","","","","","NaN",""
"","S1","","html-keyboard-response","347","373429","0.0-1.0-470.0","0","0","41906","","null","","","null","52","","","","","","","","","","","","","","","",""
"","ISI","","html-keyboard-response","348","374434","0.0-1.0-471.0","0","0","41906","","null","","","null","52","NaN","","","","","","","","","","","","","","",""
"","S2","","html-keyboard-response","349","374692","0.0-1.0-472.0","0","0","41906","","null","","","null","52","","NaN","","","","","","","","","","","","","",""
"","response","","html-keyboard-response","350","374750","0.0-1.0-473.0-0.0","0","0","41906","","53","","","75","52","","","2","52","training","adjacent","DE","4","5","Q.jpg","L.jpg","0","1","0","",""
"","feedback","","html-keyboard-response","351","375756","0.0-1.0-474.0-0.0","0","0","41906","","null","","","null","52","","","","","","","","","","","","","","","",""
"","time_out","","html-keyboard-response","352","377764","0.0-1.0-476.0-0.0","0","0","41906","","null","","","null","52","","","","","","","","","","","","","","","",""
"","ITI","","html-keyboard-response","353","378772","0.0-1.0-477.0","0","0","41906","","null","","","null","52","","","","","","","","","","","","","","","NaN",""
"","S1","","html-keyboard-response","354","379028","0.0-1.0-479.0","0","0","41906","","null","","","null","53","","","","","","","","","","","","","","","",""
"","ISI","","html-keyboard-response","355","380037","0.0-1.0-480.0","0","0","41906","","null","","","null","53","NaN","","","","","","","","","","","","","","",""
"","S2","","html-keyboard-response","356","380293","0.0-1.0-481.0","0","0","41906","","null","","","null","53","","NaN","","","","","","","","","","","","","",""
"","response","","html-keyboard-response","357","380839","0.0-1.0-482.0-0.0","0","0","41906","","542","","","75","53","","","2","53","training","adjacent","CB","3","2","R.jpg","N.jpg","0","0","1","",""
"","feedback","","html-keyboard-response","358","381853","0.0-1.0-483.0-0.0","0","0","41906","","null","","","null","53","","","","","","","","","","","","","","","",""
"","ITI","","html-keyboard-response","359","382860","0.0-1.0-486.0","0","0","41906","","null","","","null","53","","","","","","","","","","","","","","","NaN",""
"","S1","","html-keyboard-response","360","383118","0.0-1.0-488.0","0","0","41906","","null","","","null","54","","","","","","","","","","","","","","","",""
"","ISI","","html-keyboard-response","361","384124","0.0-1.0-489.0","0","0","41906","","null","","","null","54","NaN","","","","","","","","","","","","","","",""
"","S2","","html-keyboard-response","362","384380","0.0-1.0-490.0","0","0","41906","","null","","","null","54","","NaN","","","","","","","","","","","","","",""
"","response","","html-keyboard-response","363","384985","0.0-1.0-491.0-0.0","0","0","41906","","601","","","75","54","","","2","54","training","adjacent","EF","5","6","L.jpg","O.jpg","0","1","0","",""
"","feedback","","html-keyboard-response","364","385995","0.0-1.0-492.0-0.0","0","0","41906","","null","","","null","54","","","","","","","","","","","","","","","",""
"","time_out","","html-keyboard-response","365","388004","0.0-1.0-494.0-0.0","0","0","41906","","null","","","null","54","","","","","","","","","","","","","","","",""
"","ITI","","html-keyboard-response","366","389012","0.0-1.0-495.0","0","0","41906","","null","","","null","54","","","","","","","","","","","","","","","NaN",""
"","S1","","html-keyboard-response","367","389314","0.0-1.0-497.0","0","0","41906","","null","","","null","55","","","","","","","","","","","","","","","",""
"","ISI","","html-keyboard-response","368","390325","0.0-1.0-498.0","0","0","41906","","null","","","null","55","NaN","","","","","","","","","","","","","","",""
"","S2","","html-keyboard-response","369","390580","0.0-1.0-499.0","0","0","41906","","null","","","null","55","","NaN","","","","","","","","","","","","","",""
"","response","","html-keyboard-response","370","391450","0.0-1.0-500.0-0.0","0","0","41906","","865","","","75","55","","","2","55","training","adjacent","CB","3","2","R.jpg","N.jpg","0","0","1","",""
"","feedback","","html-keyboard-response","371","392460","0.0-1.0-501.0-0.0","0","0","41906","","null","","","null","55","","","","","","","","","","","","","","","",""
"","ITI","","html-keyboard-response","372","393468","0.0-1.0-504.0","0","0","41906","","null","","","null","55","","","","","","","","","","","","","","","NaN",""
"","S1","","html-keyboard-response","373","393724","0.0-1.0-506.0","0","0","41906","","null","","","null","56","","","","","","","","","","","","","","","",""
"","ISI","","html-keyboard-response","374","394732","0.0-1.0-507.0","0","0","41906","","null","","","null","56","NaN","","","","","","","","","","","","","","",""
"","S2","","html-keyboard-response","375","394988","0.0-1.0-508.0","0","0","41906","","null","","","null","56","","NaN","","","","","","","","","","","","","",""
"","response","","html-keyboard-response","376","395579","0.0-1.0-509.0-0.0","0","0","41906","","586","","","68","56","","","2","56","training","adjacent","FG","6","7","O.jpg","P.jpg","1","1","1","",""
"","feedback","","html-keyboard-response","377","396588","0.0-1.0-510.0-0.0","0","0","41906","","null","","","null","56","","","","","","","","","","","","","","","",""
"","ITI","","html-keyboard-response","378","397596","0.0-1.0-513.0","0","0","41906","","null","","","null","56","","","","","","","","","","","","","","","NaN",""
"","S1","","html-keyboard-response","379","397853","0.0-1.0-515.0","0","0","41906","","null","","","null","57","","","","","","","","","","","","","","","",""
"","ISI","","html-keyboard-response","380","398860","0.0-1.0-516.0","0","0","41906","","null","","","null","57","NaN","","","","","","","","","","","","","","",""
"","S2","","html-keyboard-response","381","399117","0.0-1.0-517.0","0","0","41906","","null","","","null","57","","NaN","","","","","","","","","","","","","",""
"","response","","html-keyboard-response","382","399476","0.0-1.0-518.0-0.0","0","0","41906","","356","","","75","57","","","2","57","training","adjacent","DE","4","5","Q.jpg","L.jpg","0","1","0","",""
"","feedback","","html-keyboard-response","383","400485","0.0-1.0-519.0-0.0","0","0","41906","","null","","","null","57","","","","","","","","","","","","","","","",""
"","time_out","","html-keyboard-response","384","402492","0.0-1.0-521.0-0.0","0","0","41906","","null","","","null","57","","","","","","","","","","","","","","","",""
"","ITI","","html-keyboard-response","385","403500","0.0-1.0-522.0","0","0","41906","","null","","","null","57","","","","","","","","","","","","","","","NaN",""
"","S1","","html-keyboard-response","386","403756","0.0-1.0-524.0","0","0","41906","","null","","","null","58","","","","","","","","","","","","","","","",""
"","ISI","","html-keyboard-response","387","404764","0.0-1.0-525.0","0","0","41906","","null","","","null","58","NaN","","","","","","","","","","","","","","",""
"","S2","","html-keyboard-response","388","405022","0.0-1.0-526.0","0","0","41906","","null","","","null","58","","NaN","","","","","","","","","","","","","",""
"","response","","html-keyboard-response","389","405144","0.0-1.0-527.0-0.0","0","0","41906","","117","","","75","58","","","2","58","training","adjacent","EF","5","6","L.jpg","O.jpg","0","1","0","",""
"","feedback","","html-keyboard-response","390","406156","0.0-1.0-528.0-0.0","0","0","41906","","null","","","null","58","","","","","","","","","","","","","","","",""
"","time_out","","html-keyboard-response","391","408164","0.0-1.0-530.0-0.0","0","0","41906","","null","","","null","58","","","","","","","","","","","","","","","",""
"","ITI","","html-keyboard-response","392","409172","0.0-1.0-531.0","0","0","41906","","null","","","null","58","","","","","","","","","","","","","","","NaN",""
"","S1","","html-keyboard-response","393","409430","0.0-1.0-533.0","0","0","41906","","null","","","null","59","","","","","","","","","","","","","","","",""
"","ISI","","html-keyboard-response","394","410436","0.0-1.0-534.0","0","0","41906","","null","","","null","59","NaN","","","","","","","","","","","","","","",""
"","S2","","html-keyboard-response","395","410692","0.0-1.0-535.0","0","0","41906","","null","","","null","59","","NaN","","","","","","","","","","","","","",""
"","response","","html-keyboard-response","396","411261","0.0-1.0-536.0-0.0","0","0","41906","","559","","","75","59","","","2","59","training","adjacent","CD","3","4","R.jpg","Q.jpg","0","1","0","",""
"","feedback","","html-keyboard-response","397","412269","0.0-1.0-537.0-0.0","0","0","41906","","null","","","null","59","","","","","","","","","","","","","","","",""
"","time_out","","html-keyboard-response","398","414276","0.0-1.0-539.0-0.0","0","0","41906","","null","","","null","59","","","","","","","","","","","","","","","",""
"","ITI","","html-keyboard-response","399","415325","0.0-1.0-540.0","0","0","41906","","null","","","null","59","","","","","","","","","","","","","","","NaN",""
"","S1","","html-keyboard-response","400","415580","0.0-1.0-542.0","0","0","41906","","null","","","null","60","","","","","","","","","","","","","","","",""
"","ISI","","html-keyboard-response","401","416588","0.0-1.0-543.0","0","0","41906","","null","","","null","60","NaN","","","","","","","","","","","","","","",""
"","S2","","html-keyboard-response","402","416844","0.0-1.0-544.0","0","0","41906","","null","","","null","60","","NaN","","","","","","","","","","","","","",""
"","response","","html-keyboard-response","403","416973","0.0-1.0-545.0-0.0","0","0","41906","","124","","","68","60","","","2","60","training","adjacent","FE","6","5","O.jpg","L.jpg","1","0","0","",""
"","feedback","","html-keyboard-response","404","417991","0.0-1.0-546.0-0.0","0","0","41906","","null","","","null","60","","","","","","","","","","","","","","","",""
"","time_out","","html-keyboard-response","405","419996","0.0-1.0-548.0-0.0","0","0","41906","","null","","","null","60","","","","","","","","","","","","","","","",""
"","ITI","","html-keyboard-response","406","421004","0.0-1.0-549.0","0","0","41906","","null","","","null","60","","","","","","","","","","","","","","","NaN",""
"","S1","","html-keyboard-response","407","421295","0.0-1.0-551.0","0","0","41906","","null","","","null","61","","","","","","","","","","","","","","","",""
"","ISI","","html-keyboard-response","408","422301","0.0-1.0-552.0","0","0","41906","","null","","","null","61","NaN","","","","","","","","","","","","","","",""
"","S2","","html-keyboard-response","409","422556","0.0-1.0-553.0","0","0","41906","","null","","","null","61","","NaN","","","","","","","","","","","","","",""
"","response","","html-keyboard-response","410","423041","0.0-1.0-554.0-0.0","0","0","41906","","481","","","68","61","","","2","61","training","adjacent","BA","2","1","N.jpg","M.jpg","1","0","0","",""
"","feedback","","html-keyboard-response","411","424052","0.0-1.0-555.0-0.0","0","0","41906","","null","","","null","61","","","","","","","","","","","","","","","",""
"","time_out","","html-keyboard-response","412","426060","0.0-1.0-557.0-0.0","0","0","41906","","null","","","null","61","","","","","","","","","","","","","","","",""
"","ITI","","html-keyboard-response","413","427069","0.0-1.0-558.0","0","0","41906","","null","","","null","61","","","","","","","","","","","","","","","NaN",""
"","S1","","html-keyboard-response","414","427324","0.0-1.0-560.0","0","0","41906","","null","","","null","62","","","","","","","","","","","","","","","",""
"","ISI","","html-keyboard-response","415","428332","0.0-1.0-561.0","0","0","41906","","null","","","null","62","NaN","","","","","","","","","","","","","","",""
"","S2","","html-keyboard-response","416","428588","0.0-1.0-562.0","0","0","41906","","null","","","null","62","","NaN","","","","","","","","","","","","","",""
"","response","","html-keyboard-response","417","428844","0.0-1.0-563.0-0.0","0","0","41906","","250","","","75","62","","","2","62","training","adjacent","BA","2","1","N.jpg","M.jpg","0","0","1","",""
"","feedback","","html-keyboard-response","418","429853","0.0-1.0-564.0-0.0","0","0","41906","","null","","","null","62","","","","","","","","","","","","","","","",""
"","ITI","","html-keyboard-response","419","430860","0.0-1.0-567.0","0","0","41906","","null","","","null","62","","","","","","","","","","","","","","","NaN",""
"","S1","","html-keyboard-response","420","431117","0.0-1.0-569.0","0","0","41906","","null","","","null","63","","","","","","","","","","","","","","","",""
"","ISI","","html-keyboard-response","421","432124","0.0-1.0-570.0","0","0","41906","","null","","","null","63","NaN","","","","","","","","","","","","","","",""
"","S2","","html-keyboard-response","422","432380","0.0-1.0-571.0","0","0","41906","","null","","","null","63","","NaN","","","","","","","","","","","","","",""
"","response","","html-keyboard-response","423","432994","0.0-1.0-572.0-0.0","0","0","41906","","609","","","75","63","","","2","63","training","adjacent","AB","1","2","M.jpg","N.jpg","0","1","0","",""
"","feedback","","html-keyboard-response","424","434004","0.0-1.0-573.0-0.0","0","0","41906","","null","","","null","63","","","","","","","","","","","","","","","",""
"","time_out","","html-keyboard-response","425","436012","0.0-1.0-575.0-0.0","0","0","41906","","null","","","null","63","","","","","","","","","","","","","","","",""
"","ITI","","html-keyboard-response","426","437021","0.0-1.0-576.0","0","0","41906","","null","","","null","63","","","","","","","","","","","","","","","NaN",""
"","S1","","html-keyboard-response","427","437276","0.0-1.0-578.0","0","0","41906","","null","","","null","64","","","","","","","","","","","","","","","",""
"","ISI","","html-keyboard-response","428","438284","0.0-1.0-579.0","0","0","41906","","null","","","null","64","NaN","","","","","","","","","","","","","","",""
"","S2","","html-keyboard-response","429","438540","0.0-1.0-580.0","0","0","41906","","null","","","null","64","","NaN","","","","","","","","","","","","","",""
"","response","","html-keyboard-response","430","439003","0.0-1.0-581.0-0.0","0","0","41906","","458","","","75","64","","","2","64","training","adjacent","CB","3","2","R.jpg","N.jpg","0","0","1","",""
"","feedback","","html-keyboard-response","431","440013","0.0-1.0-582.0-0.0","0","0","41906","","null","","","null","64","","","","","","","","","","","","","","","",""
"","ITI","","html-keyboard-response","432","441021","0.0-1.0-585.0","0","0","41906","","null","","","null","64","","","","","","","","","","","","","","","NaN",""
"","S1","","html-keyboard-response","433","441306","0.0-1.0-587.0","0","0","41906","","null","","","null","65","","","","","","","","","","","","","","","",""
"","ISI","","html-keyboard-response","434","442317","0.0-1.0-588.0","0","0","41906","","null","","","null","65","NaN","","","","","","","","","","","","","","",""
"","S2","","html-keyboard-response","435","442572","0.0-1.0-589.0","0","0","41906","","null","","","null","65","","NaN","","","","","","","","","","","","","",""
"","response","","html-keyboard-response","436","443883","0.0-1.0-590.0-0.0","0","0","41906","","1307","","","75","65","","","2","65","training","adjacent","DC","4","3","Q.jpg","R.jpg","0","0","1","",""
"","feedback","","html-keyboard-response","437","444892","0.0-1.0-591.0-0.0","0","0","41906","","null","","","null","65","","","","","","","","","","","","","","","",""
"","ITI","","html-keyboard-response","438","445900","0.0-1.0-594.0","0","0","41906","","null","","","null","65","","","","","","","","","","","","","","","NaN",""
"","S1","","html-keyboard-response","439","446157","0.0-1.0-596.0","0","0","41906","","null","","","null","66","","","","","","","","","","","","","","","",""
"","ISI","","html-keyboard-response","440","447165","0.0-1.0-597.0","0","0","41906","","null","","","null","66","NaN","","","","","","","","","","","","","","",""
"","S2","","html-keyboard-response","441","447420","0.0-1.0-598.0","0","0","41906","","null","","","null","66","","NaN","","","","","","","","","","","","","",""
"","response","","html-keyboard-response","442","447473","0.0-1.0-599.0-0.0","0","0","41906","","49","","","75","66","","","2","66","training","adjacent","DE","4","5","Q.jpg","L.jpg","0","1","0","",""
"","feedback","","html-keyboard-response","443","448485","0.0-1.0-600.0-0.0","0","0","41906","","null","","","null","66","","","","","","","","","","","","","","","",""
"","time_out","","html-keyboard-response","444","450492","0.0-1.0-602.0-0.0","0","0","41906","","null","","","null","66","","","","","","","","","","","","","","","",""
"","ITI","","html-keyboard-response","445","451500","0.0-1.0-603.0","0","0","41906","","null","","","null","66","","","","","","","","","","","","","","","NaN",""
"","S1","","html-keyboard-response","446","451756","0.0-1.0-605.0","0","0","41906","","null","","","null","67","","","","","","","","","","","","","","","",""
"","ISI","","html-keyboard-response","447","452764","0.0-1.0-606.0","0","0","41906","","null","","","null","67","NaN","","","","","","","","","","","","","","",""
"","S2","","html-keyboard-response","448","453021","0.0-1.0-607.0","0","0","41906","","null","","","null","67","","NaN","","","","","","","","","","","","","",""
"","response","","html-keyboard-response","449","453565","0.0-1.0-608.0-0.0","0","0","41906","","539","","","68","67","","","2","67","training","adjacent","DE","4","5","Q.jpg","L.jpg","1","1","1","",""
"","feedback","","html-keyboard-response","450","454572","0.0-1.0-609.0-0.0","0","0","41906","","null","","","null","67","","","","","","","","","","","","","","","",""
"","ITI","","html-keyboard-response","451","455580","0.0-1.0-612.0","0","0","41906","","null","","","null","67","","","","","","","","","","","","","","","NaN",""
"","S1","","html-keyboard-response","452","455836","0.0-1.0-614.0","0","0","41906","","null","","","null","68","","","","","","","","","","","","","","","",""
"","ISI","","html-keyboard-response","453","456844","0.0-1.0-615.0","0","0","41906","","null","","","null","68","NaN","","","","","","","","","","","","","","",""
"","S2","","html-keyboard-response","454","457101","0.0-1.0-616.0","0","0","41906","","null","","","null","68","","NaN","","","","","","","","","","","","","",""
"","response","","html-keyboard-response","455","457427","0.0-1.0-617.0-0.0","0","0","41906","","322","","","75","68","","","2","68","training","adjacent","DC","4","3","Q.jpg","R.jpg","0","0","1","",""
"","feedback","","html-keyboard-response","456","458433","0.0-1.0-618.0-0.0","0","0","41906","","null","","","null","68","","","","","","","","","","","","","","","",""
"","ITI","","html-keyboard-response","457","459444","0.0-1.0-621.0","0","0","41906","","null","","","null","68","","","","","","","","","","","","","","","NaN",""
"","S1","","html-keyboard-response","458","459700","0.0-1.0-623.0","0","0","41906","","null","","","null","69","","","","","","","","","","","","","","","",""
"","ISI","","html-keyboard-response","459","460709","0.0-1.0-624.0","0","0","41906","","null","","","null","69","NaN","","","","","","","","","","","","","","",""
"","S2","","html-keyboard-response","460","460964","0.0-1.0-625.0","0","0","41906","","null","","","null","69","","NaN","","","","","","","","","","","","","",""
"","response","","html-keyboard-response","461","461542","0.0-1.0-626.0-0.0","0","0","41906","","574","","","75","69","","","2","69","training","adjacent","GF","7","6","P.jpg","O.jpg","0","0","1","",""
"","feedback","","html-keyboard-response","462","462548","0.0-1.0-627.0-0.0","0","0","41906","","null","","","null","69","","","","","","","","","","","","","","","",""
"","ITI","","html-keyboard-response","463","463556","0.0-1.0-630.0","0","0","41906","","null","","","null","69","","","","","","","","","","","","","","","NaN",""
"","S1","","html-keyboard-response","464","463812","0.0-1.0-632.0","0","0","41906","","null","","","null","70","","","","","","","","","","","","","","","",""
"","ISI","","html-keyboard-response","465","464821","0.0-1.0-633.0","0","0","41906","","null","","","null","70","NaN","","","","","","","","","","","","","","",""
"","S2","","html-keyboard-response","466","465076","0.0-1.0-634.0","0","0","41906","","null","","","null","70","","NaN","","","","","","","","","","","","","",""
"","response","","html-keyboard-response","467","465800","0.0-1.0-635.0-0.0","0","0","41906","","719","","","68","70","","","2","70","training","adjacent","FG","6","7","O.jpg","P.jpg","1","1","1","",""
"","feedback","","html-keyboard-response","468","466813","0.0-1.0-636.0-0.0","0","0","41906","","null","","","null","70","","","","","","","","","","","","","","","",""
"","ITI","","html-keyboard-response","469","467820","0.0-1.0-639.0","0","0","41906","","null","","","null","70","","","","","","","","","","","","","","","NaN",""
"","S1","","html-keyboard-response","470","468076","0.0-1.0-641.0","0","0","41906","","null","","","null","71","","","","","","","","","","","","","","","",""
"","ISI","","html-keyboard-response","471","469084","0.0-1.0-642.0","0","0","41906","","null","","","null","71","NaN","","","","","","","","","","","","","","",""
"","S2","","html-keyboard-response","472","469355","0.0-1.0-643.0","0","0","41906","","null","","","null","71","","NaN","","","","","","","","","","","","","",""
"","response","","html-keyboard-response","473","469677","0.0-1.0-644.0-0.0","0","0","41906","","316","","","75","71","","","2","71","training","adjacent","AB","1","2","M.jpg","N.jpg","0","1","0","",""
"","feedback","","html-keyboard-response","474","470684","0.0-1.0-645.0-0.0","0","0","41906","","null","","","null","71","","","","","","","","","","","","","","","",""
"","time_out","","html-keyboard-response","475","472692","0.0-1.0-647.0-0.0","0","0","41906","","null","","","null","71","","","","","","","","","","","","","","","",""
"","ITI","","html-keyboard-response","476","473700","0.0-1.0-648.0","0","0","41906","","null","","","null","71","","","","","","","","","","","","","","","NaN",""
"","S1","","html-keyboard-response","477","473956","0.0-1.0-650.0","0","0","41906","","null","","","null","72","","","","","","","","","","","","","","","",""
"","ISI","","html-keyboard-response","478","474964","0.0-1.0-651.0","0","0","41906","","null","","","null","72","NaN","","","","","","","","","","","","","","",""
"","S2","","html-keyboard-response","479","475220","0.0-1.0-652.0","0","0","41906","","null","","","null","72","","NaN","","","","","","","","","","","","","",""
"","response","","html-keyboard-response","480","475542","0.0-1.0-653.0-0.0","0","0","41906","","318","","","75","72","","","2","72","training","adjacent","GF","7","6","P.jpg","O.jpg","0","0","1","",""
"","feedback","","html-keyboard-response","481","476549","0.0-1.0-654.0-0.0","0","0","41906","","null","","","null","72","","","","","","","","","","","","","","","",""
"","ITI","","html-keyboard-response","482","477556","0.0-1.0-657.0","0","0","41906","","null","","","null","72","","","","","","","","","","","","","","","NaN",""
"","S1","","html-keyboard-response","483","477812","0.0-1.0-659.0","0","0","41906","","null","","","null","73","","","","","","","","","","","","","","","",""
"","ISI","","html-keyboard-response","484","478821","0.0-1.0-660.0","0","0","41906","","null","","","null","73","NaN","","","","","","","","","","","","","","",""
"","S2","","html-keyboard-response","485","479076","0.0-1.0-661.0","0","0","41906","","null","","","null","73","","NaN","","","","","","","","","","","","","",""
"","response","","html-keyboard-response","486","479971","0.0-1.0-662.0-0.0","0","0","41906","","890","","","68","73","","","2","73","training","adjacent","BC","2","3","N.jpg","R.jpg","1","1","1","",""
"","feedback","","html-keyboard-response","487","480980","0.0-1.0-663.0-0.0","0","0","41906","","null","","","null","73","","","","","","","","","","","","","","","",""
"","ITI","","html-keyboard-response","488","481988","0.0-1.0-666.0","0","0","41906","","null","","","null","73","","","","","","","","","","","","","","","NaN",""
"","S1","","html-keyboard-response","489","482245","0.0-1.0-668.0","0","0","41906","","null","","","null","74","","","","","","","","","","","","","","","",""
"","ISI","","html-keyboard-response","490","483305","0.0-1.0-669.0","0","0","41906","","null","","","null","74","NaN","","","","","","","","","","","","","","",""
"","S2","","html-keyboard-response","491","483564","0.0-1.0-670.0","0","0","41906","","null","","","null","74","","NaN","","","","","","","","","","","","","",""
"","response","","html-keyboard-response","492","483943","0.0-1.0-671.0-0.0","0","0","41906","","375","","","75","74","","","2","74","training","adjacent","FG","6","7","O.jpg","P.jpg","0","1","0","",""
"","feedback","","html-keyboard-response","493","484948","0.0-1.0-672.0-0.0","0","0","41906","","null","","","null","74","","","","","","","","","","","","","","","",""
"","time_out","","html-keyboard-response","494","486956","0.0-1.0-674.0-0.0","0","0","41906","","null","","","null","74","","","","","","","","","","","","","","","",""
"","ITI","","html-keyboard-response","495","487964","0.0-1.0-675.0","0","0","41906","","null","","","null","74","","","","","","","","","","","","","","","NaN",""
"","S1","","html-keyboard-response","496","488221","0.0-1.0-677.0","0","0","41906","","null","","","null","75","","","","","","","","","","","","","","","",""
"","ISI","","html-keyboard-response","497","489229","0.0-1.0-678.0","0","0","41906","","null","","","null","75","NaN","","","","","","","","","","","","","","",""
"","S2","","html-keyboard-response","498","489484","0.0-1.0-679.0","0","0","41906","","null","","","null","75","","NaN","","","","","","","","","","","","","",""
"","response","","html-keyboard-response","499","489892","0.0-1.0-680.0-0.0","0","0","41906","","403","","","68","75","","","2","75","training","adjacent","BC","2","3","N.jpg","R.jpg","1","1","1","",""
"","feedback","","html-keyboard-response","500","490900","0.0-1.0-681.0-0.0","0","0","41906","","null","","","null","75","","","","","","","","","","","","","","","",""
"","ITI","","html-keyboard-response","501","491908","0.0-1.0-684.0","0","0","41906","","null","","","null","75","","","","","","","","","","","","","","","NaN",""
"","S1","","html-keyboard-response","502","492165","0.0-1.0-686.0","0","0","41906","","null","","","null","76","","","","","","","","","","","","","","","",""
"","ISI","","html-keyboard-response","503","493172","0.0-1.0-687.0","0","0","41906","","null","","","null","76","NaN","","","","","","","","","","","","","","",""
"","S2","","html-keyboard-response","504","493433","0.0-1.0-688.0","0","0","41906","","null","","","null","76","","NaN","","","","","","","","","","","","","",""
"","response","","html-keyboard-response","505","493905","0.0-1.0-689.0-0.0","0","0","41906","","467","","","75","76","","","2","76","training","adjacent","ED","5","4","L.jpg","Q.jpg","0","0","1","",""
"","feedback","","html-keyboard-response","506","494917","0.0-1.0-690.0-0.0","0","0","41906","","null","","","null","76","","","","","","","","","","","","","","","",""
"","ITI","","html-keyboard-response","507","495926","0.0-1.0-693.0","0","0","41906","","null","","","null","76","","","","","","","","","","","","","","","NaN",""
"","S1","","html-keyboard-response","508","496189","0.0-1.0-695.0","0","0","41906","","null","","","null","77","","","","","","","","","","","","","","","",""
"","ISI","","html-keyboard-response","509","497196","0.0-1.0-696.0","0","0","41906","","null","","","null","77","NaN","","","","","","","","","","","","","","",""
"","S2","","html-keyboard-response","510","497453","0.0-1.0-697.0","0","0","41906","","null","","","null","77","","NaN","","","","","","","","","","","","","",""
"","response","","html-keyboard-response","511","498332","0.0-1.0-698.0-0.0","0","0","41906","","875","","","75","77","","","2","77","training","adjacent","CD","3","4","R.jpg","Q.jpg","0","1","0","",""
"","feedback","","html-keyboard-response","512","499353","0.0-1.0-699.0-0.0","0","0","41906","","null","","","null","77","","","","","","","","","","","","","","","",""
"","time_out","","html-keyboard-response","513","501364","0.0-1.0-701.0-0.0","0","0","41906","","null","","","null","77","","","","","","","","","","","","","","","",""
"","ITI","","html-keyboard-response","514","502373","0.0-1.0-702.0","0","0","41906","","null","","","null","77","","","","","","","","","","","","","","","NaN",""
"","S1","","html-keyboard-response","515","502629","0.0-1.0-704.0","0","0","41906","","null","","","null","78","","","","","","","","","","","","","","","",""
"","ISI","","html-keyboard-response","516","503637","0.0-1.0-705.0","0","0","41906","","null","","","null","78","NaN","","","","","","","","","","","","","","",""
"","S2","","html-keyboard-response","517","503893","0.0-1.0-706.0","0","0","41906","","null","","","null","78","","NaN","","","","","","","","","","","","","",""
"","response","","html-keyboard-response","518","504338","0.0-1.0-707.0-0.0","0","0","41906","","440","","","68","78","","","2","78","training","adjacent","BC","2","3","N.jpg","R.jpg","1","1","1","",""
"","feedback","","html-keyboard-response","519","505348","0.0-1.0-708.0-0.0","0","0","41906","","null","","","null","78","","","","","","","","","","","","","","","",""
"","ITI","","html-keyboard-response","520","506356","0.0-1.0-711.0","0","0","41906","","null","","","null","78","","","","","","","","","","","","","","","NaN",""
"","S1","","html-keyboard-response","521","506612","0.0-1.0-713.0","0","0","41906","","null","","","null","79","","","","","","","","","","","","","","","",""
"","ISI","","html-keyboard-response","522","507621","0.0-1.0-714.0","0","0","41906","","null","","","null","79","NaN","","","","","","","","","","","","","","",""
"","S2","","html-keyboard-response","523","507876","0.0-1.0-715.0","0","0","41906","","null","","","null","79","","NaN","","","","","","","","","","","","","",""
"","response","","html-keyboard-response","524","508372","0.0-1.0-716.0-0.0","0","0","41906","","490","","","75","79","","","2","79","training","adjacent","EF","5","6","L.jpg","O.jpg","0","1","0","",""
"","feedback","","html-keyboard-response","525","509407","0.0-1.0-717.0-0.0","0","0","41906","","null","","","null","79","","","","","","","","","","","","","","","",""
"","time_out","","html-keyboard-response","526","511412","0.0-1.0-719.0-0.0","0","0","41906","","null","","","null","79","","","","","","","","","","","","","","","",""
"","ITI","","html-keyboard-response","527","512421","0.0-1.0-720.0","0","0","41906","","null","","","null","79","","","","","","","","","","","","","","","NaN",""
"","S1","","html-keyboard-response","528","512676","0.0-1.0-722.0","0","0","41906","","null","","","null","80","","","","","","","","","","","","","","","",""
"","ISI","","html-keyboard-response","529","513684","0.0-1.0-723.0","0","0","41906","","null","","","null","80","NaN","","","","","","","","","","","","","","",""
"","S2","","html-keyboard-response","530","513940","0.0-1.0-724.0","0","0","41906","","null","","","null","80","","NaN","","","","","","","","","","","","","",""
"","response","","html-keyboard-response","531","514484","0.0-1.0-725.0-0.0","0","0","41906","","540","","","68","80","","","2","80","training","adjacent","DC","4","3","Q.jpg","R.jpg","1","0","0","",""
"","feedback","","html-keyboard-response","532","515492","0.0-1.0-726.0-0.0","0","0","41906","","null","","","null","80","","","","","","","","","","","","","","","",""
"","time_out","","html-keyboard-response","533","517501","0.0-1.0-728.0-0.0","0","0","41906","","null","","","null","80","","","","","","","","","","","","","","","",""
"","ITI","","html-keyboard-response","534","518508","0.0-1.0-729.0","0","0","41906","","null","","","null","80","","","","","","","","","","","","","","","NaN",""
"","S1","","html-keyboard-response","535","518764","0.0-1.0-731.0","0","0","41906","","null","","","null","81","","","","","","","","","","","","","","","",""
"","ISI","","html-keyboard-response","536","519772","0.0-1.0-732.0","0","0","41906","","null","","","null","81","NaN","","","","","","","","","","","","","","",""
"","S2","","html-keyboard-response","537","520028","0.0-1.0-733.0","0","0","41906","","null","","","null","81","","NaN","","","","","","","","","","","","","",""
"","response","","html-keyboard-response","538","520336","0.0-1.0-734.0-0.0","0","0","41906","","304","","","75","81","","","2","81","training","adjacent","GF","7","6","P.jpg","O.jpg","0","0","1","",""
"","feedback","","html-keyboard-response","539","521348","0.0-1.0-735.0-0.0","0","0","41906","","null","","","null","81","","","","","","","","","","","","","","","",""
"","ITI","","html-keyboard-response","540","522357","0.0-1.0-738.0","0","0","41906","","null","","","null","81","","","","","","","","","","","","","","","NaN",""
"","S1","","html-keyboard-response","541","522613","0.0-1.0-740.0","0","0","41906","","null","","","null","82","","","","","","","","","","","","","","","",""
"","ISI","","html-keyboard-response","542","523622","0.0-1.0-741.0","0","0","41906","","null","","","null","82","NaN","","","","","","","","","","","","","","",""
"","S2","","html-keyboard-response","543","523885","0.0-1.0-742.0","0","0","41906","","null","","","null","82","","NaN","","","","","","","","","","","","","",""
"","response","","html-keyboard-response","544","524492","0.0-1.0-743.0-0.0","0","0","41906","","602","","","68","82","","","2","82","training","adjacent","FG","6","7","O.jpg","P.jpg","1","1","1","",""
"","feedback","","html-keyboard-response","545","525500","0.0-1.0-744.0-0.0","0","0","41906","","null","","","null","82","","","","","","","","","","","","","","","",""
"","ITI","","html-keyboard-response","546","526508","0.0-1.0-747.0","0","0","41906","","null","","","null","82","","","","","","","","","","","","","","","NaN",""
"","S1","","html-keyboard-response","547","526764","0.0-1.0-749.0","0","0","41906","","null","","","null","83","","","","","","","","","","","","","","","",""
"","ISI","","html-keyboard-response","548","527773","0.0-1.0-750.0","0","0","41906","","null","","","null","83","NaN","","","","","","","","","","","","","","",""
"","S2","","html-keyboard-response","549","528028","0.0-1.0-751.0","0","0","41906","","null","","","null","83","","NaN","","","","","","","","","","","","","",""
"","response","","html-keyboard-response","550","528690","0.0-1.0-752.0-0.0","0","0","41906","","657","","","75","83","","","2","83","training","adjacent","AB","1","2","M.jpg","N.jpg","0","1","0","",""
"","feedback","","html-keyboard-response","551","529700","0.0-1.0-753.0-0.0","0","0","41906","","null","","","null","83","","","","","","","","","","","","","","","",""
"","time_out","","html-keyboard-response","552","531708","0.0-1.0-755.0-0.0","0","0","41906","","null","","","null","83","","","","","","","","","","","","","","","",""
"","ITI","","html-keyboard-response","553","532716","0.0-1.0-756.0","0","0","41906","","null","","","null","83","","","","","","","","","","","","","","","NaN",""
"","S1","","html-keyboard-response","554","532973","0.0-1.0-758.0","0","0","41906","","null","","","null","84","","","","","","","","","","","","","","","",""
"","ISI","","html-keyboard-response","555","533987","0.0-1.0-759.0","0","0","41906","","null","","","null","84","NaN","","","","","","","","","","","","","","",""
"","S2","","html-keyboard-response","556","534245","0.0-1.0-760.0","0","0","41906","","null","","","null","84","","NaN","","","","","","","","","","","","","",""
"","response","","html-keyboard-response","557","534441","0.0-1.0-761.0-0.0","0","0","41906","","192","","","68","84","","","2","84","training","adjacent","BA","2","1","N.jpg","M.jpg","1","0","0","",""
"","feedback","","html-keyboard-response","558","535452","0.0-1.0-762.0-0.0","0","0","41906","","null","","","null","84","","","","","","","","","","","","","","","",""
"","time_out","","html-keyboard-response","559","537460","0.0-1.0-764.0-0.0","0","0","41906","","null","","","null","84","","","","","","","","","","","","","","","",""
"","ITI","","html-keyboard-response","560","538468","0.0-1.0-765.0","0","0","41906","","null","","","null","84","","","","","","","","","","","","","","","NaN",""
"","S1","","html-keyboard-response","561","538724","0.0-1.0-767.0","0","0","41906","","null","","","null","85","","","","","","","","","","","","","","","",""
"","ISI","","html-keyboard-response","562","539732","0.0-1.0-768.0","0","0","41906","","null","","","null","85","NaN","","","","","","","","","","","","","","",""
"","S2","","html-keyboard-response","563","539989","0.0-1.0-769.0","0","0","41906","","null","","","null","85","","NaN","","","","","","","","","","","","","",""
"","response","","html-keyboard-response","564","540354","0.0-1.0-770.0-0.0","0","0","41906","","361","","","75","85","","","2","85","training","adjacent","CD","3","4","R.jpg","Q.jpg","0","1","0","",""
"","feedback","","html-keyboard-response","565","541364","0.0-1.0-771.0-0.0","0","0","41906","","null","","","null","85","","","","","","","","","","","","","","","",""
"","time_out","","html-keyboard-response","566","543372","0.0-1.0-773.0-0.0","0","0","41906","","null","","","null","85","","","","","","","","","","","","","","","",""
"","ITI","","html-keyboard-response","567","544380","0.0-1.0-774.0","0","0","41906","","null","","","null","85","","","","","","","","","","","","","","","NaN",""
"","S1","","html-keyboard-response","568","544636","0.0-1.0-776.0","0","0","41906","","null","","","null","86","","","","","","","","","","","","","","","",""
"","ISI","","html-keyboard-response","569","545644","0.0-1.0-777.0","0","0","41906","","null","","","null","86","NaN","","","","","","","","","","","","","","",""
"","S2","","html-keyboard-response","570","545901","0.0-1.0-778.0","0","0","41906","","null","","","null","86","","NaN","","","","","","","","","","","","","",""
"","response","","html-keyboard-response","571","546283","0.0-1.0-779.0-0.0","0","0","41906","","378","","","68","86","","","2","86","training","adjacent","FE","6","5","O.jpg","L.jpg","1","0","0","",""
"","feedback","","html-keyboard-response","572","547306","0.0-1.0-780.0-0.0","0","0","41906","","null","","","null","86","","","","","","","","","","","","","","","",""
"","time_out","","html-keyboard-response","573","549318","0.0-1.0-782.0-0.0","0","0","41906","","null","","","null","86","","","","","","","","","","","","","","","",""
"","ITI","","html-keyboard-response","574","550332","0.0-1.0-783.0","0","0","41906","","null","","","null","86","","","","","","","","","","","","","","","NaN",""
"","S1","","html-keyboard-response","575","550589","0.0-1.0-785.0","0","0","41906","","null","","","null","87","","","","","","","","","","","","","","","",""
"","ISI","","html-keyboard-response","576","551597","0.0-1.0-786.0","0","0","41906","","null","","","null","87","NaN","","","","","","","","","","","","","","",""
"","S2","","html-keyboard-response","577","551852","0.0-1.0-787.0","0","0","41906","","null","","","null","87","","NaN","","","","","","","","","","","","","",""
"","response","","html-keyboard-response","578","551957","0.0-1.0-788.0-0.0","0","0","41906","","99","","","75","87","","","2","87","training","adjacent","EF","5","6","L.jpg","O.jpg","0","1","0","",""
"","feedback","","html-keyboard-response","579","552964","0.0-1.0-789.0-0.0","0","0","41906","","null","","","null","87","","","","","","","","","","","","","","","",""
"","time_out","","html-keyboard-response","580","554973","0.0-1.0-791.0-0.0","0","0","41906","","null","","","null","87","","","","","","","","","","","","","","","",""
