"success","ttype","start_time","trial_type","trial_index","time_elapsed","internal_node_id","warning","missed_checkup","PID","view_history","rt","responses","repeat_instructions","key_press","index","keypress_isi","keypress_S2","block","trial_num","phase","group_type","pair_type","S1_stim","S2_stim","S1_img","S2_img","S1_chosen","S1_higher","accuracy","keypress_iti","total_bonus_tally"
"true","full_screen","d04132023hr2107","fullscreen","0","21882","0.0-0.0","0","0","27050","","","","","","","","","","","","","","","","","","","","","",""
"","instructions","","instructions","1","67917","0.0-1.0-0.0-0.0","0","0","27050","[{""page_index"":0,""viewing_time"":4496},{""page_index"":1,""viewing_time"":27422},{""page_index"":2,""viewing_time"":9816},{""page_index"":3,""viewing_time"":4298}]","46032","","","","","","","","","","","","","","","","","","","",""
"","comprehension_check","","survey-multi-choice","2","98934","0.0-1.0-0.0-1.0","0","0","27050","","31010","{""Q0"":""True"",""Q1"":""D"",""Q2"":""Once the second image appears and while the screen 'MAKE A CHOICE' is shown"",""Q3"":""Green mark"",""Q4"":""either D or K""}","0","","","","","","","","","","","","","","","","","",""
"","start_exp","","html-keyboard-response","3","104042","0.0-1.0-1.0","0","0","27050","","5104","","","32","","","","","","","","","","","","","","","","",""
"","S1","","html-keyboard-response","4","104296","0.0-1.0-2.0","0","0","27050","","null","","","null","0","","","","","","","","","","","","","","","",""
"","ISI","","html-keyboard-response","5","105299","0.0-1.0-3.0","0","0","27050","","null","","","null","0","NaN","","","","","","","","","","","","","","",""
"","S2","","html-keyboard-response","6","105553","0.0-1.0-4.0","0","0","27050","","null","","","null","0","","NaN","","","","","","","","","","","","","",""
"","response","","html-keyboard-response","7","107306","0.0-1.0-5.0-0.0","0","0","27050","","null","","","null","0","","","1","0","training","adjacent","DE","4","5","L.jpg","P.jpg","NaN","1","0","",""
"","too_slow_prompt","","html-keyboard-response","8","108309","0.0-1.0-7.0-0.0","1","0","27050","","null","","","null","","","","","","","","","","","","","","","","",""
"","time_out","","html-keyboard-response","9","110312","0.0-1.0-8.0-0.0","0","0","27050","","null","","","null","0","","","","","","","","","","","","","","","",""
"","ITI","","html-keyboard-response","10","111315","0.0-1.0-9.0","0","0","27050","","null","","","null","0","","","","","","","","","","","","","","","NaN",""
"","S1","","html-keyboard-response","11","111569","0.0-1.0-11.0","0","0","27050","","null","","","null","1","","","","","","","","","","","","","","","",""
"","ISI","","html-keyboard-response","12","112571","0.0-1.0-12.0","0","0","27050","","null","","","null","1","NaN","","","","","","","","","","","","","","",""
"","S2","","html-keyboard-response","13","112838","0.0-1.0-13.0","0","0","27050","","null","","","null","1","","NaN","","","","","","","","","","","","","",""
"","response","","html-keyboard-response","14","113286","0.0-1.0-14.0-0.0","0","0","27050","","445","","","68","1","","","1","1","training","adjacent","FE","6","5","O.jpg","P.jpg","1","0","0","",""
"","feedback","","html-keyboard-response","15","114289","0.0-1.0-15.0-0.0","0","0","27050","","null","","","null","1","","","","","","","","","","","","","","","",""
"","time_out","","html-keyboard-response","16","116291","0.0-1.0-17.0-0.0","0","0","27050","","null","","","null","1","","","","","","","","","","","","","","","",""
"","ITI","","html-keyboard-response","17","117293","0.0-1.0-18.0","0","0","27050","","null","","","null","1","","","","","","","","","","","","","","","NaN",""
"","S1","","html-keyboard-response","18","117559","0.0-1.0-20.0","0","0","27050","","null","","","null","2","","","","","","","","","","","","","","","",""
"","ISI","","html-keyboard-response","19","118560","0.0-1.0-21.0","0","0","27050","","null","","","null","2","NaN","","","","","","","","","","","","","","",""
"","S2","","html-keyboard-response","20","118814","0.0-1.0-22.0","0","0","27050","","null","","","null","2","","NaN","","","","","","","","","","","","","",""
"","response","","html-keyboard-response","21","119123","0.0-1.0-23.0-0.0","0","0","27050","","307","","","75","2","","","1","2","training","adjacent","AB","1","2","Q.jpg","N.jpg","0","1","0","",""
"","feedback","","html-keyboard-response","22","120126","0.0-1.0-24.0-0.0","0","0","27050","","null","","","null","2","","","","","","","","","","","","","","","",""
"","time_out","","html-keyboard-response","23","122129","0.0-1.0-26.0-0.0","0","0","27050","","null","","","null","2","","","","","","","","","","","","","","","",""
"","ITI","","html-keyboard-response","24","123132","0.0-1.0-27.0","0","0","27050","","null","","","null","2","","","","","","","","","","","","","","","NaN",""
"","S1","","html-keyboard-response","25","123385","0.0-1.0-29.0","0","0","27050","","null","","","null","3","","","","","","","","","","","","","","","",""
"","ISI","","html-keyboard-response","26","124387","0.0-1.0-30.0","0","0","27050","","null","","","null","3","NaN","","","","","","","","","","","","","","",""
"","S2","","html-keyboard-response","27","124640","0.0-1.0-31.0","0","0","27050","","null","","","null","3","","NaN","","","","","","","","","","","","","",""
"","response","","html-keyboard-response","28","124838","0.0-1.0-32.0-0.0","0","0","27050","","197","","","75","3","","","1","3","training","adjacent","BC","2","3","N.jpg","M.jpg","0","1","0","",""
"","feedback","","html-keyboard-response","29","125843","0.0-1.0-33.0-0.0","0","0","27050","","null","","","null","3","","","","","","","","","","","","","","","",""
"","time_out","","html-keyboard-response","30","127846","0.0-1.0-35.0-0.0","0","0","27050","","null","","","null","3","","","","","","","","","","","","","","","",""
"","ITI","","html-keyboard-response","31","128848","0.0-1.0-36.0","0","0","27050","","null","","","null","3","","","","","","","","","","","","","","","NaN",""
"","S1","","html-keyboard-response","32","129101","0.0-1.0-38.0","0","0","27050","","null","","","null","4","","","","","","","","","","","","","","","",""
"","ISI","","html-keyboard-response","33","130104","0.0-1.0-39.0","0","0","27050","","null","","","null","4","NaN","","","","","","","","","","","","","","",""
"","S2","","html-keyboard-response","34","130357","0.0-1.0-40.0","0","0","27050","","null","","","null","4","","NaN","","","","","","","","","","","","","",""
"","response","","html-keyboard-response","35","130758","0.0-1.0-41.0-0.0","0","0","27050","","399","","","68","4","","","1","4","training","adjacent","FE","6","5","O.jpg","P.jpg","1","0","0","",""
"","feedback","","html-keyboard-response","36","131760","0.0-1.0-42.0-0.0","0","0","27050","","null","","","null","4","","","","","","","","","","","","","","","",""
"","time_out","","html-keyboard-response","37","133762","0.0-1.0-44.0-0.0","0","0","27050","","null","","","null","4","","","","","","","","","","","","","","","",""
"","ITI","","html-keyboard-response","38","134765","0.0-1.0-45.0","0","0","27050","","null","","","null","4","","","","","","","","","","","","","","","NaN",""
"","S1","","html-keyboard-response","39","135018","0.0-1.0-47.0","0","0","27050","","null","","","null","5","","","","","","","","","","","","","","","",""
"","ISI","","html-keyboard-response","40","136021","0.0-1.0-48.0","0","0","27050","","null","","","null","5","NaN","","","","","","","","","","","","","","",""
"","S2","","html-keyboard-response","41","136273","0.0-1.0-49.0","0","0","27050","","null","","","null","5","","NaN","","","","","","","","","","","","","",""
"","response","","html-keyboard-response","42","136799","0.0-1.0-50.0-0.0","0","0","27050","","524","","","68","5","","","1","5","training","adjacent","GF","7","6","R.jpg","O.jpg","1","0","0","",""
"","feedback","","html-keyboard-response","43","137802","0.0-1.0-51.0-0.0","0","0","27050","","null","","","null","5","","","","","","","","","","","","","","","",""
"","time_out","","html-keyboard-response","44","139805","0.0-1.0-53.0-0.0","0","0","27050","","null","","","null","5","","","","","","","","","","","","","","","",""
"","ITI","","html-keyboard-response","45","140808","0.0-1.0-54.0","0","0","27050","","null","","","null","5","","","","","","","","","","","","","","","NaN",""
"","S1","","html-keyboard-response","46","141060","0.0-1.0-56.0","0","0","27050","","null","","","null","6","","","","","","","","","","","","","","","",""
"","ISI","","html-keyboard-response","47","142066","0.0-1.0-57.0","0","0","27050","","null","","","null","6","NaN","","","","","","","","","","","","","","",""
"","S2","","html-keyboard-response","48","142320","0.0-1.0-58.0","0","0","27050","","null","","","null","6","","NaN","","","","","","","","","","","","","",""
"","response","","html-keyboard-response","49","143002","0.0-1.0-59.0-0.0","0","0","27050","","679","","","75","6","","","1","6","training","adjacent","EF","5","6","P.jpg","O.jpg","0","1","0","",""
"","feedback","","html-keyboard-response","50","144006","0.0-1.0-60.0-0.0","0","0","27050","","null","","","null","6","","","","","","","","","","","","","","","",""
"","time_out","","html-keyboard-response","51","146011","0.0-1.0-62.0-0.0","0","0","27050","","null","","","null","6","","","","","","","","","","","","","","","",""
"","ITI","","html-keyboard-response","52","147014","0.0-1.0-63.0","0","0","27050","","null","","","null","6","","","","","","","","","","","","","","","NaN",""
"","S1","","html-keyboard-response","53","147268","0.0-1.0-65.0","0","0","27050","","null","","","null","7","","","","","","","","","","","","","","","",""
"","ISI","","html-keyboard-response","54","148271","0.0-1.0-66.0","0","0","27050","","null","","","null","7","NaN","","","","","","","","","","","","","","",""
"","S2","","html-keyboard-response","55","148523","0.0-1.0-67.0","0","0","27050","","null","","","null","7","","NaN","","","","","","","","","","","","","",""
"","response","","html-keyboard-response","56","149042","0.0-1.0-68.0-0.0","0","0","27050","","517","","","75","7","","","1","7","training","adjacent","AB","1","2","Q.jpg","N.jpg","0","1","0","",""
"","feedback","","html-keyboard-response","57","150046","0.0-1.0-69.0-0.0","0","0","27050","","null","","","null","7","","","","","","","","","","","","","","","",""
"","time_out","","html-keyboard-response","58","152049","0.0-1.0-71.0-0.0","0","0","27050","","null","","","null","7","","","","","","","","","","","","","","","",""
"","ITI","","html-keyboard-response","59","153052","0.0-1.0-72.0","0","0","27050","","null","","","null","7","","","","","","","","","","","","","","","NaN",""
"","S1","","html-keyboard-response","60","153305","0.0-1.0-74.0","0","0","27050","","null","","","null","8","","","","","","","","","","","","","","","",""
"","ISI","","html-keyboard-response","61","154307","0.0-1.0-75.0","0","0","27050","","null","","","null","8","NaN","","","","","","","","","","","","","","",""
"","S2","","html-keyboard-response","62","154561","0.0-1.0-76.0","0","0","27050","","null","","","null","8","","NaN","","","","","","","","","","","","","",""
"","response","","html-keyboard-response","63","155062","0.0-1.0-77.0-0.0","0","0","27050","","499","","","75","8","","","1","8","training","adjacent","CB","3","2","M.jpg","N.jpg","0","0","1","",""
"","feedback","","html-keyboard-response","64","156064","0.0-1.0-78.0-0.0","0","0","27050","","null","","","null","8","","","","","","","","","","","","","","","",""
"","ITI","","html-keyboard-response","65","157066","0.0-1.0-81.0","0","0","27050","","null","","","null","8","","","","","","","","","","","","","","","NaN",""
"","S1","","html-keyboard-response","66","157319","0.0-1.0-83.0","0","0","27050","","null","","","null","9","","","","","","","","","","","","","","","",""
"","ISI","","html-keyboard-response","67","158321","0.0-1.0-84.0","0","0","27050","","null","","","null","9","NaN","","","","","","","","","","","","","","",""
"","S2","","html-keyboard-response","68","158574","0.0-1.0-85.0","0","0","27050","","null","","","null","9","","NaN","","","","","","","","","","","","","",""
"","response","","html-keyboard-response","69","159218","0.0-1.0-86.0-0.0","0","0","27050","","641","","","68","9","","","1","9","training","adjacent","GF","7","6","R.jpg","O.jpg","1","0","0","",""
"","feedback","","html-keyboard-response","70","160220","0.0-1.0-87.0-0.0","0","0","27050","","null","","","null","9","","","","","","","","","","","","","","","",""
"","time_out","","html-keyboard-response","71","162223","0.0-1.0-89.0-0.0","0","0","27050","","null","","","null","9","","","","","","","","","","","","","","","",""
"","ITI","","html-keyboard-response","72","163226","0.0-1.0-90.0","0","0","27050","","null","","","null","9","","","","","","","","","","","","","","","NaN",""
"","S1","","html-keyboard-response","73","163479","0.0-1.0-92.0","0","0","27050","","null","","","null","10","","","","","","","","","","","","","","","",""
"","ISI","","html-keyboard-response","74","164481","0.0-1.0-93.0","0","0","27050","","null","","","null","10","NaN","","","","","","","","","","","","","","",""
"","S2","","html-keyboard-response","75","164733","0.0-1.0-94.0","0","0","27050","","null","","","null","10","","NaN","","","","","","","","","","","","","",""
"","response","","html-keyboard-response","76","165316","0.0-1.0-95.0-0.0","0","0","27050","","582","","","75","10","","","1","10","training","adjacent","EF","5","6","P.jpg","O.jpg","0","1","0","",""
"","feedback","","html-keyboard-response","77","166319","0.0-1.0-96.0-0.0","0","0","27050","","null","","","null","10","","","","","","","","","","","","","","","",""
"","time_out","","html-keyboard-response","78","168322","0.0-1.0-98.0-0.0","0","0","27050","","null","","","null","10","","","","","","","","","","","","","","","",""
"","ITI","","html-keyboard-response","79","169324","0.0-1.0-99.0","0","0","27050","","null","","","null","10","","","","","","","","","","","","","","","NaN",""
"","S1","","html-keyboard-response","80","169577","0.0-1.0-101.0","0","0","27050","","null","","","null","11","","","","","","","","","","","","","","","",""
"","ISI","","html-keyboard-response","81","170579","0.0-1.0-102.0","0","0","27050","","null","","","null","11","NaN","","","","","","","","","","","","","","",""
"","S2","","html-keyboard-response","82","170831","0.0-1.0-103.0","0","0","27050","","null","","","null","11","","NaN","","","","","","","","","","","","","",""
"","response","","html-keyboard-response","83","171149","0.0-1.0-104.0-0.0","0","0","27050","","316","","","68","11","","","1","11","training","adjacent","DC","4","3","L.jpg","M.jpg","1","0","0","",""
"","feedback","","html-keyboard-response","84","172152","0.0-1.0-105.0-0.0","0","0","27050","","null","","","null","11","","","","","","","","","","","","","","","",""
"","time_out","","html-keyboard-response","85","174154","0.0-1.0-107.0-0.0","0","0","27050","","null","","","null","11","","","","","","","","","","","","","","","",""
"","ITI","","html-keyboard-response","86","175157","0.0-1.0-108.0","0","0","27050","","null","","","null","11","","","","","","","","","","","","","","","NaN",""
"","S1","","html-keyboard-response","87","175410","0.0-1.0-110.0","0","0","27050","","null","","","null","12","","","","","","","","","","","","","","","",""
"","ISI","","html-keyboard-response","88","176412","0.0-1.0-111.0","0","0","27050","","null","","","null","12","NaN","","","","","","","","","","","","","","",""
"","S2","","html-keyboard-response","89","176665","0.0-1.0-112.0","0","0","27050","","null","","","null","12","","NaN","","","","","","","","","","","","","",""
"","response","","html-keyboard-response","90","176852","0.0-1.0-113.0-0.0","0","0","27050","","185","","","68","12","","","1","12","training","adjacent","BA","2","1","N.jpg","Q.jpg","1","0","0","",""
"","feedback","","html-keyboard-response","91","177855","0.0-1.0-114.0-0.0","0","0","27050","","null","","","null","12","","","","","","","","","","","","","","","",""
"","time_out","","html-keyboard-response","92","179857","0.0-1.0-116.0-0.0","0","0","27050","","null","","","null","12","","","","","","","","","","","","","","","",""
"","ITI","","html-keyboard-response","93","180860","0.0-1.0-117.0","0","0","27050","","null","","","null","12","","","","","","","","","","","","","","","NaN",""
"","S1","","html-keyboard-response","94","181113","0.0-1.0-119.0","0","0","27050","","null","","","null","13","","","","","","","","","","","","","","","",""
"","ISI","","html-keyboard-response","95","182116","0.0-1.0-120.0","0","0","27050","","null","","","null","13","NaN","","","","","","","","","","","","","","",""
"","S2","","html-keyboard-response","96","182368","0.0-1.0-121.0","0","0","27050","","null","","","null","13","","NaN","","","","","","","","","","","","","",""
"","response","","html-keyboard-response","97","182754","0.0-1.0-122.0-0.0","0","0","27050","","384","","","75","13","","","1","13","training","adjacent","ED","5","4","P.jpg","L.jpg","0","0","1","",""
"","feedback","","html-keyboard-response","98","183756","0.0-1.0-123.0-0.0","0","0","27050","","null","","","null","13","","","","","","","","","","","","","","","",""
"","ITI","","html-keyboard-response","99","184759","0.0-1.0-126.0","0","0","27050","","null","","","null","13","","","","","","","","","","","","","","","NaN",""
"","S1","","html-keyboard-response","100","185012","0.0-1.0-128.0","0","0","27050","","null","","","null","14","","","","","","","","","","","","","","","",""
"","ISI","","html-keyboard-response","101","186015","0.0-1.0-129.0","0","0","27050","","null","","","null","14","NaN","","","","","","","","","","","","","","",""
"","S2","","html-keyboard-response","102","186267","0.0-1.0-130.0","0","0","27050","","null","","","null","14","","NaN","","","","","","","","","","","","","",""
"","response","","html-keyboard-response","103","186598","0.0-1.0-131.0-0.0","0","0","27050","","330","","","68","14","","","1","14","training","adjacent","GF","7","6","R.jpg","O.jpg","1","0","0","",""
"","feedback","","html-keyboard-response","104","187600","0.0-1.0-132.0-0.0","0","0","27050","","null","","","null","14","","","","","","","","","","","","","","","",""
"","time_out","","html-keyboard-response","105","189603","0.0-1.0-134.0-0.0","0","0","27050","","null","","","null","14","","","","","","","","","","","","","","","",""
"","ITI","","html-keyboard-response","106","190606","0.0-1.0-135.0","0","0","27050","","null","","","null","14","","","","","","","","","","","","","","","NaN",""
"","S1","","html-keyboard-response","107","190860","0.0-1.0-137.0","0","0","27050","","null","","","null","15","","","","","","","","","","","","","","","",""
"","ISI","","html-keyboard-response","108","191862","0.0-1.0-138.0","0","0","27050","","null","","","null","15","NaN","","","","","","","","","","","","","","",""
"","S2","","html-keyboard-response","109","192115","0.0-1.0-139.0","0","0","27050","","null","","","null","15","","NaN","","","","","","","","","","","","","",""
"","response","","html-keyboard-response","110","192379","0.0-1.0-140.0-0.0","0","0","27050","","263","","","68","15","","","1","15","training","adjacent","CB","3","2","M.jpg","N.jpg","1","0","0","",""
"","feedback","","html-keyboard-response","111","193383","0.0-1.0-141.0-0.0","0","0","27050","","null","","","null","15","","","","","","","","","","","","","","","",""
"","time_out","","html-keyboard-response","112","195385","0.0-1.0-143.0-0.0","0","0","27050","","null","","","null","15","","","","","","","","","","","","","","","",""
"","ITI","","html-keyboard-response","113","196387","0.0-1.0-144.0","0","0","27050","","null","","","null","15","","","","","","","","","","","","","","","NaN",""
"","S1","","html-keyboard-response","114","196640","0.0-1.0-146.0","0","0","27050","","null","","","null","16","","","","","","","","","","","","","","","",""
"","ISI","","html-keyboard-response","115","197643","0.0-1.0-147.0","0","0","27050","","null","","","null","16","NaN","","","","","","","","","","","","","","",""
"","S2","","html-keyboard-response","116","197895","0.0-1.0-148.0","0","0","27050","","null","","","null","16","","NaN","","","","","","","","","","","","","",""
"","response","","html-keyboard-response","117","198247","0.0-1.0-149.0-0.0","0","0","27050","","351","","","75","16","","","1","16","training","adjacent","CD","3","4","M.jpg","L.jpg","0","1","0","",""
"","feedback","","html-keyboard-response","118","199250","0.0-1.0-150.0-0.0","0","0","27050","","null","","","null","16","","","","","","","","","","","","","","","",""
"","time_out","","html-keyboard-response","119","201253","0.0-1.0-152.0-0.0","0","0","27050","","null","","","null","16","","","","","","","","","","","","","","","",""
"","ITI","","html-keyboard-response","120","202257","0.0-1.0-153.0","0","0","27050","","null","","","null","16","","","","","","","","","","","","","","","NaN",""
"","S1","","html-keyboard-response","121","202511","0.0-1.0-155.0","0","0","27050","","null","","","null","17","","","","","","","","","","","","","","","",""
"","ISI","","html-keyboard-response","122","203513","0.0-1.0-156.0","0","0","27050","","null","","","null","17","NaN","","","","","","","","","","","","","","",""
"","S2","","html-keyboard-response","123","203766","0.0-1.0-157.0","0","0","27050","","null","","","null","17","","NaN","","","","","","","","","","","","","",""
"","response","","html-keyboard-response","124","204105","0.0-1.0-158.0-0.0","0","0","27050","","337","","","75","17","","","1","17","training","adjacent","CD","3","4","M.jpg","L.jpg","0","1","0","",""
"","feedback","","html-keyboard-response","125","205107","0.0-1.0-159.0-0.0","0","0","27050","","null","","","null","17","","","","","","","","","","","","","","","",""
"","time_out","","html-keyboard-response","126","207110","0.0-1.0-161.0-0.0","0","0","27050","","null","","","null","17","","","","","","","","","","","","","","","",""
"","ITI","","html-keyboard-response","127","208113","0.0-1.0-162.0","0","0","27050","","null","","","null","17","","","","","","","","","","","","","","","NaN",""
"","S1","","html-keyboard-response","128","208365","0.0-1.0-164.0","0","0","27050","","null","","","null","18","","","","","","","","","","","","","","","",""
"","ISI","","html-keyboard-response","129","209369","0.0-1.0-165.0","0","0","27050","","null","","","null","18","NaN","","","","","","","","","","","","","","",""
"","S2","","html-keyboard-response","130","209622","0.0-1.0-166.0","0","0","27050","","null","","","null","18","","NaN","","","","","","","","","","","","","",""
"","response","","html-keyboard-response","131","209662","0.0-1.0-167.0-0.0","0","0","27050","","39","","","75","18","","","1","18","training","adjacent","FE","6","5","O.jpg","P.jpg","0","0","1","",""
"","feedback","","html-keyboard-response","132","210665","0.0-1.0-168.0-0.0","0","0","27050","","null","","","null","18","","","","","","","","","","","","","","","",""
"","ITI","","html-keyboard-response","133","211668","0.0-1.0-171.0","0","0","27050","","null","","","null","18","","","","","","","","","","","","","","","NaN",""
"","S1","","html-keyboard-response","134","211922","0.0-1.0-173.0","0","0","27050","","null","","","null","19","","","","","","","","","","","","","","","",""
"","ISI","","html-keyboard-response","135","212925","0.0-1.0-174.0","0","0","27050","","null","","","null","19","NaN","","","","","","","","","","","","","","",""
"","S2","","html-keyboard-response","136","213179","0.0-1.0-175.0","0","0","27050","","null","","","null","19","","NaN","","","","","","","","","","","","","",""
"","response","","html-keyboard-response","137","213182","0.0-1.0-176.0-0.0","0","0","27050","","1","","","75","19","","","1","19","training","adjacent","FG","6","7","O.jpg","R.jpg","0","1","0","",""
"","feedback","","html-keyboard-response","138","214185","0.0-1.0-177.0-0.0","0","0","27050","","null","","","null","19","","","","","","","","","","","","","","","",""
"","time_out","","html-keyboard-response","139","216190","0.0-1.0-179.0-0.0","0","0","27050","","null","","","null","19","","","","","","","","","","","","","","","",""
"","ITI","","html-keyboard-response","140","217192","0.0-1.0-180.0","0","0","27050","","null","","","null","19","","","","","","","","","","","","","","","NaN",""
"","S1","","html-keyboard-response","141","217446","0.0-1.0-182.0","0","0","27050","","null","","","null","20","","","","","","","","","","","","","","","",""
"","ISI","","html-keyboard-response","142","218448","0.0-1.0-183.0","0","0","27050","","null","","","null","20","NaN","","","","","","","","","","","","","","",""
"","S2","","html-keyboard-response","143","218700","0.0-1.0-184.0","0","0","27050","","null","","","null","20","","NaN","","","","","","","","","","","","","",""
"","response","","html-keyboard-response","144","219174","0.0-1.0-185.0-0.0","0","0","27050","","472","","","75","20","","","1","20","training","adjacent","CD","3","4","M.jpg","L.jpg","0","1","0","",""
"","feedback","","html-keyboard-response","145","220182","0.0-1.0-186.0-0.0","0","0","27050","","null","","","null","20","","","","","","","","","","","","","","","",""
"","time_out","","html-keyboard-response","146","222184","0.0-1.0-188.0-0.0","0","0","27050","","null","","","null","20","","","","","","","","","","","","","","","",""
"","ITI","","html-keyboard-response","147","223186","0.0-1.0-189.0","0","0","27050","","null","","","null","20","","","","","","","","","","","","","","","NaN",""
"","S1","","html-keyboard-response","148","223439","0.0-1.0-191.0","0","0","27050","","null","","","null","21","","","","","","","","","","","","","","","",""
"","ISI","","html-keyboard-response","149","224441","0.0-1.0-192.0","0","0","27050","","null","","","null","21","NaN","","","","","","","","","","","","","","",""
"","S2","","html-keyboard-response","150","224694","0.0-1.0-193.0","0","0","27050","","null","","","null","21","","NaN","","","","","","","","","","","","","",""
"","response","","html-keyboard-response","151","224859","0.0-1.0-194.0-0.0","0","0","27050","","164","","","68","21","","","1","21","training","adjacent","DE","4","5","L.jpg","P.jpg","1","1","1","",""
"","feedback","","html-keyboard-response","152","225862","0.0-1.0-195.0-0.0","0","0","27050","","null","","","null","21","","","","","","","","","","","","","","","",""
"","ITI","","html-keyboard-response","153","226866","0.0-1.0-198.0","0","0","27050","","null","","","null","21","","","","","","","","","","","","","","","NaN",""
"","S1","","html-keyboard-response","154","227119","0.0-1.0-200.0","0","0","27050","","null","","","null","22","","","","","","","","","","","","","","","",""
"","ISI","","html-keyboard-response","155","228121","0.0-1.0-201.0","0","0","27050","","null","","","null","22","NaN","","","","","","","","","","","","","","",""
"","S2","","html-keyboard-response","156","228377","0.0-1.0-202.0","0","0","27050","","null","","","null","22","","NaN","","","","","","","","","","","","","",""
"","response","","html-keyboard-response","157","228790","0.0-1.0-203.0-0.0","0","0","27050","","410","","","75","22","","","1","22","training","adjacent","BA","2","1","N.jpg","Q.jpg","0","0","1","",""
"","feedback","","html-keyboard-response","158","229793","0.0-1.0-204.0-0.0","0","0","27050","","null","","","null","22","","","","","","","","","","","","","","","",""
"","ITI","","html-keyboard-response","159","230796","0.0-1.0-207.0","0","0","27050","","null","","","null","22","","","","","","","","","","","","","","","NaN",""
"","S1","","html-keyboard-response","160","231058","0.0-1.0-209.0","0","0","27050","","null","","","null","23","","","","","","","","","","","","","","","",""
"","ISI","","html-keyboard-response","161","232062","0.0-1.0-210.0","0","0","27050","","null","","","null","23","NaN","","","","","","","","","","","","","","",""
"","S2","","html-keyboard-response","162","232316","0.0-1.0-211.0","0","0","27050","","null","","","null","23","","NaN","","","","","","","","","","","","","",""
"","response","","html-keyboard-response","163","232581","0.0-1.0-212.0-0.0","0","0","27050","","263","","","75","23","","","1","23","training","adjacent","FG","6","7","O.jpg","R.jpg","0","1","0","",""
"","feedback","","html-keyboard-response","164","233583","0.0-1.0-213.0-0.0","0","0","27050","","null","","","null","23","","","","","","","","","","","","","","","",""
"","time_out","","html-keyboard-response","165","235587","0.0-1.0-215.0-0.0","0","0","27050","","null","","","null","23","","","","","","","","","","","","","","","",""
"","ITI","","html-keyboard-response","166","236589","0.0-1.0-216.0","0","0","27050","","null","","","null","23","","","","","","","","","","","","","","","NaN",""
"","S1","","html-keyboard-response","167","236841","0.0-1.0-218.0","0","0","27050","","null","","","null","24","","","","","","","","","","","","","","","",""
"","ISI","","html-keyboard-response","168","237844","0.0-1.0-219.0","0","0","27050","","null","","","null","24","NaN","","","","","","","","","","","","","","",""
"","S2","","html-keyboard-response","169","238097","0.0-1.0-220.0","0","0","27050","","null","","","null","24","","NaN","","","","","","","","","","","","","",""
"","response","","html-keyboard-response","170","238503","0.0-1.0-221.0-0.0","0","0","27050","","404","","","75","24","","","1","24","training","adjacent","BA","2","1","N.jpg","Q.jpg","0","0","1","",""
"","feedback","","html-keyboard-response","171","239507","0.0-1.0-222.0-0.0","0","0","27050","","null","","","null","24","","","","","","","","","","","","","","","",""
"","ITI","","html-keyboard-response","172","240509","0.0-1.0-225.0","0","0","27050","","null","","","null","24","","","","","","","","","","","","","","","NaN",""
"","S1","","html-keyboard-response","173","240761","0.0-1.0-227.0","0","0","27050","","null","","","null","25","","","","","","","","","","","","","","","",""
"","ISI","","html-keyboard-response","174","241763","0.0-1.0-228.0","0","0","27050","","null","","","null","25","NaN","","","","","","","","","","","","","","",""
"","S2","","html-keyboard-response","175","242016","0.0-1.0-229.0","0","0","27050","","null","","","null","25","","NaN","","","","","","","","","","","","","",""
"","response","","html-keyboard-response","176","242741","0.0-1.0-230.0-0.0","0","0","27050","","723","","","68","25","","","1","25","training","adjacent","CB","3","2","M.jpg","N.jpg","1","0","0","",""
"","feedback","","html-keyboard-response","177","243744","0.0-1.0-231.0-0.0","0","0","27050","","null","","","null","25","","","","","","","","","","","","","","","",""
"","time_out","","html-keyboard-response","178","245747","0.0-1.0-233.0-0.0","0","0","27050","","null","","","null","25","","","","","","","","","","","","","","","",""
"","ITI","","html-keyboard-response","179","246750","0.0-1.0-234.0","0","0","27050","","null","","","null","25","","","","","","","","","","","","","","","NaN",""
"","S1","","html-keyboard-response","180","247003","0.0-1.0-236.0","0","0","27050","","null","","","null","26","","","","","","","","","","","","","","","",""
"","ISI","","html-keyboard-response","181","248006","0.0-1.0-237.0","0","0","27050","","null","","","null","26","NaN","","","","","","","","","","","","","","",""
"","S2","","html-keyboard-response","182","248259","0.0-1.0-238.0","0","0","27050","","null","","","null","26","","NaN","","","","","","","","","","","","","",""
"","response","","html-keyboard-response","183","248701","0.0-1.0-239.0-0.0","0","0","27050","","440","","","68","26","","","1","26","training","adjacent","DC","4","3","L.jpg","M.jpg","1","0","0","",""
"","feedback","","html-keyboard-response","184","249704","0.0-1.0-240.0-0.0","0","0","27050","","null","","","null","26","","","","","","","","","","","","","","","",""
"","time_out","","html-keyboard-response","185","251707","0.0-1.0-242.0-0.0","0","0","27050","","null","","","null","26","","","","","","","","","","","","","","","",""
"","ITI","","html-keyboard-response","186","252709","0.0-1.0-243.0","0","0","27050","","null","","","null","26","","","","","","","","","","","","","","","NaN",""
"","S1","","html-keyboard-response","187","252962","0.0-1.0-245.0","0","0","27050","","null","","","null","27","","","","","","","","","","","","","","","",""
"","ISI","","html-keyboard-response","188","253965","0.0-1.0-246.0","0","0","27050","","null","","","null","27","NaN","","","","","","","","","","","","","","",""
"","S2","","html-keyboard-response","189","254218","0.0-1.0-247.0","0","0","27050","","null","","","null","27","","NaN","","","","","","","","","","","","","",""
"","response","","html-keyboard-response","190","254497","0.0-1.0-248.0-0.0","0","0","27050","","277","","","75","27","","","1","27","training","adjacent","BC","2","3","N.jpg","M.jpg","0","1","0","",""
"","feedback","","html-keyboard-response","191","255501","0.0-1.0-249.0-0.0","0","0","27050","","null","","","null","27","","","","","","","","","","","","","","","",""
"","time_out","","html-keyboard-response","192","257504","0.0-1.0-251.0-0.0","0","0","27050","","null","","","null","27","","","","","","","","","","","","","","","",""
"","ITI","","html-keyboard-response","193","258507","0.0-1.0-252.0","0","0","27050","","null","","","null","27","","","","","","","","","","","","","","","NaN",""
"","S1","","html-keyboard-response","194","258760","0.0-1.0-254.0","0","0","27050","","null","","","null","28","","","","","","","","","","","","","","","",""
"","ISI","","html-keyboard-response","195","259762","0.0-1.0-255.0","0","0","27050","","null","","","null","28","NaN","","","","","","","","","","","","","","",""
"","S2","","html-keyboard-response","196","260015","0.0-1.0-256.0","0","0","27050","","null","","","null","28","","NaN","","","","","","","","","","","","","",""
"","response","","html-keyboard-response","197","260253","0.0-1.0-257.0-0.0","0","0","27050","","236","","","75","28","","","1","28","training","adjacent","BC","2","3","N.jpg","M.jpg","0","1","0","",""
"","feedback","","html-keyboard-response","198","261255","0.0-1.0-258.0-0.0","0","0","27050","","null","","","null","28","","","","","","","","","","","","","","","",""
"","time_out","","html-keyboard-response","199","263257","0.0-1.0-260.0-0.0","0","0","27050","","null","","","null","28","","","","","","","","","","","","","","","",""
"","ITI","","html-keyboard-response","200","264260","0.0-1.0-261.0","0","0","27050","","null","","","null","28","","","","","","","","","","","","","","","NaN",""
"","S1","","html-keyboard-response","201","264512","0.0-1.0-263.0","0","0","27050","","null","","","null","29","","","","","","","","","","","","","","","",""
"","ISI","","html-keyboard-response","202","265515","0.0-1.0-264.0","0","0","27050","","null","","","null","29","NaN","","","","","","","","","","","","","","",""
"","S2","","html-keyboard-response","203","265769","0.0-1.0-265.0","0","0","27050","","null","","","null","29","","NaN","","","","","","","","","","","","","",""
"","response","","html-keyboard-response","204","266130","0.0-1.0-266.0-0.0","0","0","27050","","360","","","75","29","","","1","29","training","adjacent","BC","2","3","N.jpg","M.jpg","0","1","0","",""
"","feedback","","html-keyboard-response","205","267133","0.0-1.0-267.0-0.0","0","0","27050","","null","","","null","29","","","","","","","","","","","","","","","",""
"","time_out","","html-keyboard-response","206","269136","0.0-1.0-269.0-0.0","0","0","27050","","null","","","null","29","","","","","","","","","","","","","","","",""
"","ITI","","html-keyboard-response","207","270139","0.0-1.0-270.0","0","0","27050","","null","","","null","29","","","","","","","","","","","","","","","NaN",""
"","S1","","html-keyboard-response","208","270392","0.0-1.0-272.0","0","0","27050","","null","","","null","30","","","","","","","","","","","","","","","",""
"","ISI","","html-keyboard-response","209","271394","0.0-1.0-273.0","0","0","27050","","null","","","null","30","NaN","","","","","","","","","","","","","","",""
"","S2","","html-keyboard-response","210","271647","0.0-1.0-274.0","0","0","27050","","null","","","null","30","","NaN","","","","","","","","","","","","","",""
"","response","","html-keyboard-response","211","272080","0.0-1.0-275.0-0.0","0","0","27050","","431","","","68","30","","","1","30","training","adjacent","EF","5","6","P.jpg","O.jpg","1","1","1","",""
"","feedback","","html-keyboard-response","212","273093","0.0-1.0-276.0-0.0","0","0","27050","","null","","","null","30","","","","","","","","","","","","","","","",""
"","ITI","","html-keyboard-response","213","274096","0.0-1.0-279.0","0","0","27050","","null","","","null","30","","","","","","","","","","","","","","","NaN",""
"","S1","","html-keyboard-response","214","274348","0.0-1.0-281.0","0","0","27050","","null","","","null","31","","","","","","","","","","","","","","","",""
"","ISI","","html-keyboard-response","215","275351","0.0-1.0-282.0","0","0","27050","","null","","","null","31","NaN","","","","","","","","","","","","","","",""
"","S2","","html-keyboard-response","216","275604","0.0-1.0-283.0","0","0","27050","","null","","","null","31","","NaN","","","","","","","","","","","","","",""
"","response","","html-keyboard-response","217","275915","0.0-1.0-284.0-0.0","0","0","27050","","309","","","75","31","","","1","31","training","adjacent","ED","5","4","P.jpg","L.jpg","0","0","1","",""
"","feedback","","html-keyboard-response","218","276918","0.0-1.0-285.0-0.0","0","0","27050","","null","","","null","31","","","","","","","","","","","","","","","",""
"","ITI","","html-keyboard-response","219","277921","0.0-1.0-288.0","0","0","27050","","null","","","null","31","","","","","","","","","","","","","","","NaN",""
"","S1","","html-keyboard-response","220","278175","0.0-1.0-290.0","0","0","27050","","null","","","null","32","","","","","","","","","","","","","","","",""
"","ISI","","html-keyboard-response","221","279178","0.0-1.0-291.0","0","0","27050","","null","","","null","32","NaN","","","","","","","","","","","","","","",""
"","S2","","html-keyboard-response","222","279430","0.0-1.0-292.0","0","0","27050","","null","","","null","32","","NaN","","","","","","","","","","","","","",""
"","response","","html-keyboard-response","223","279863","0.0-1.0-293.0-0.0","0","0","27050","","431","","","68","32","","","1","32","training","adjacent","DC","4","3","L.jpg","M.jpg","1","0","0","",""
"","feedback","","html-keyboard-response","224","280866","0.0-1.0-294.0-0.0","0","0","27050","","null","","","null","32","","","","","","","","","","","","","","","",""
"","time_out","","html-keyboard-response","225","282868","0.0-1.0-296.0-0.0","0","0","27050","","null","","","null","32","","","","","","","","","","","","","","","",""
"","ITI","","html-keyboard-response","226","283870","0.0-1.0-297.0","0","0","27050","","null","","","null","32","","","","","","","","","","","","","","","NaN",""
"","S1","","html-keyboard-response","227","284124","0.0-1.0-299.0","0","0","27050","","null","","","null","33","","","","","","","","","","","","","","","",""
"","ISI","","html-keyboard-response","228","285127","0.0-1.0-300.0","0","0","27050","","null","","","null","33","NaN","","","","","","","","","","","","","","",""
"","S2","","html-keyboard-response","229","285380","0.0-1.0-301.0","0","0","27050","","null","","","null","33","","NaN","","","","","","","","","","","","","",""
"","response","","html-keyboard-response","230","285727","0.0-1.0-302.0-0.0","0","0","27050","","345","","","68","33","","","1","33","training","adjacent","DC","4","3","L.jpg","M.jpg","1","0","0","",""
"","feedback","","html-keyboard-response","231","286730","0.0-1.0-303.0-0.0","0","0","27050","","null","","","null","33","","","","","","","","","","","","","","","",""
"","time_out","","html-keyboard-response","232","288732","0.0-1.0-305.0-0.0","0","0","27050","","null","","","null","33","","","","","","","","","","","","","","","",""
"","ITI","","html-keyboard-response","233","289734","0.0-1.0-306.0","0","0","27050","","null","","","null","33","","","","","","","","","","","","","","","NaN",""
"","S1","","html-keyboard-response","234","289987","0.0-1.0-308.0","0","0","27050","","null","","","null","34","","","","","","","","","","","","","","","",""
"","ISI","","html-keyboard-response","235","290989","0.0-1.0-309.0","0","0","27050","","null","","","null","34","NaN","","","","","","","","","","","","","","",""
"","S2","","html-keyboard-response","236","291243","0.0-1.0-310.0","0","0","27050","","null","","","null","34","","NaN","","","","","","","","","","","","","",""
"","response","","html-keyboard-response","237","291614","0.0-1.0-311.0-0.0","0","0","27050","","369","","","68","34","","","1","34","training","adjacent","EF","5","6","P.jpg","O.jpg","1","1","1","",""
"","feedback","","html-keyboard-response","238","292627","0.0-1.0-312.0-0.0","0","0","27050","","null","","","null","34","","","","","","","","","","","","","","","",""
"","ITI","","html-keyboard-response","239","293630","0.0-1.0-315.0","0","0","27050","","null","","","null","34","","","","","","","","","","","","","","","NaN",""
"","S1","","html-keyboard-response","240","293883","0.0-1.0-317.0","0","0","27050","","null","","","null","35","","","","","","","","","","","","","","","",""
"","ISI","","html-keyboard-response","241","294885","0.0-1.0-318.0","0","0","27050","","null","","","null","35","NaN","","","","","","","","","","","","","","",""
"","S2","","html-keyboard-response","242","295138","0.0-1.0-319.0","0","0","27050","","null","","","null","35","","NaN","","","","","","","","","","","","","",""
"","response","","html-keyboard-response","243","295460","0.0-1.0-320.0-0.0","0","0","27050","","320","","","68","35","","","1","35","training","adjacent","DE","4","5","L.jpg","P.jpg","1","1","1","",""
"","feedback","","html-keyboard-response","244","296463","0.0-1.0-321.0-0.0","0","0","27050","","null","","","null","35","","","","","","","","","","","","","","","",""
"","ITI","","html-keyboard-response","245","297467","0.0-1.0-324.0","0","0","27050","","null","","","null","35","","","","","","","","","","","","","","","NaN",""
"","S1","","html-keyboard-response","246","297720","0.0-1.0-326.0","0","0","27050","","null","","","null","36","","","","","","","","","","","","","","","",""
"","ISI","","html-keyboard-response","247","298723","0.0-1.0-327.0","0","0","27050","","null","","","null","36","NaN","","","","","","","","","","","","","","",""
"","S2","","html-keyboard-response","248","298975","0.0-1.0-328.0","0","0","27050","","null","","","null","36","","NaN","","","","","","","","","","","","","",""
"","response","","html-keyboard-response","249","299104","0.0-1.0-329.0-0.0","0","0","27050","","127","","","68","36","","","1","36","training","adjacent","AB","1","2","Q.jpg","N.jpg","1","1","1","",""
"","feedback","","html-keyboard-response","250","300108","0.0-1.0-330.0-0.0","0","0","27050","","null","","","null","36","","","","","","","","","","","","","","","",""
"","ITI","","html-keyboard-response","251","301111","0.0-1.0-333.0","0","0","27050","","null","","","null","36","","","","","","","","","","","","","","","NaN",""
"","S1","","html-keyboard-response","252","301363","0.0-1.0-335.0","0","0","27050","","null","","","null","37","","","","","","","","","","","","","","","",""
"","ISI","","html-keyboard-response","253","302367","0.0-1.0-336.0","0","0","27050","","null","","","null","37","NaN","","","","","","","","","","","","","","",""
"","S2","","html-keyboard-response","254","302619","0.0-1.0-337.0","0","0","27050","","null","","","null","37","","NaN","","","","","","","","","","","","","",""
"","response","","html-keyboard-response","255","302964","0.0-1.0-338.0-0.0","0","0","27050","","342","","","75","37","","","1","37","training","adjacent","BA","2","1","N.jpg","Q.jpg","0","0","1","",""
"","feedback","","html-keyboard-response","256","303979","0.0-1.0-339.0-0.0","0","0","27050","","null","","","null","37","","","","","","","","","","","","","","","",""
"","ITI","","html-keyboard-response","257","304982","0.0-1.0-342.0","0","0","27050","","null","","","null","37","","","","","","","","","","","","","","","NaN",""
"","S1","","html-keyboard-response","258","305234","0.0-1.0-344.0","0","0","27050","","null","","","null","38","","","","","","","","","","","","","","","",""
"","ISI","","html-keyboard-response","259","306237","0.0-1.0-345.0","0","0","27050","","null","","","null","38","NaN","","","","","","","","","","","","","","",""
"","S2","","html-keyboard-response","260","306490","0.0-1.0-346.0","0","0","27050","","null","","","null","38","","NaN","","","","","","","","","","","","","",""
"","response","","html-keyboard-response","261","306961","0.0-1.0-347.0-0.0","0","0","27050","","469","","","68","38","","","1","38","training","adjacent","CD","3","4","M.jpg","L.jpg","1","1","1","",""
"","feedback","","html-keyboard-response","262","307964","0.0-1.0-348.0-0.0","0","0","27050","","null","","","null","38","","","","","","","","","","","","","","","",""
"","ITI","","html-keyboard-response","263","308967","0.0-1.0-351.0","0","0","27050","","null","","","null","38","","","","","","","","","","","","","","","NaN",""
"","S1","","html-keyboard-response","264","309220","0.0-1.0-353.0","0","0","27050","","null","","","null","39","","","","","","","","","","","","","","","",""
"","ISI","","html-keyboard-response","265","310222","0.0-1.0-354.0","0","0","27050","","null","","","null","39","NaN","","","","","","","","","","","","","","",""
"","S2","","html-keyboard-response","266","310475","0.0-1.0-355.0","0","0","27050","","null","","","null","39","","NaN","","","","","","","","","","","","","",""
"","response","","html-keyboard-response","267","310750","0.0-1.0-356.0-0.0","0","0","27050","","273","","","68","39","","","1","39","training","adjacent","AB","1","2","Q.jpg","N.jpg","1","1","1","",""
"","feedback","","html-keyboard-response","268","311752","0.0-1.0-357.0-0.0","0","0","27050","","null","","","null","39","","","","","","","","","","","","","","","",""
"","ITI","","html-keyboard-response","269","312754","0.0-1.0-360.0","0","0","27050","","null","","","null","39","","","","","","","","","","","","","","","NaN",""
"","S1","","html-keyboard-response","270","313007","0.0-1.0-362.0","0","0","27050","","null","","","null","40","","","","","","","","","","","","","","","",""
"","ISI","","html-keyboard-response","271","314009","0.0-1.0-363.0","0","0","27050","","null","","","null","40","NaN","","","","","","","","","","","","","","",""
"","S2","","html-keyboard-response","272","314262","0.0-1.0-364.0","0","0","27050","","null","","","null","40","","NaN","","","","","","","","","","","","","",""
"","response","","html-keyboard-response","273","314408","0.0-1.0-365.0-0.0","0","0","27050","","145","","","75","40","","","1","40","training","adjacent","ED","5","4","P.jpg","L.jpg","0","0","1","",""
"","feedback","","html-keyboard-response","274","315411","0.0-1.0-366.0-0.0","0","0","27050","","null","","","null","40","","","","","","","","","","","","","","","",""
"","ITI","","html-keyboard-response","275","316414","0.0-1.0-369.0","0","0","27050","","null","","","null","40","","","","","","","","","","","","","","","NaN",""
"","S1","","html-keyboard-response","276","316667","0.0-1.0-371.0","0","0","27050","","null","","","null","41","","","","","","","","","","","","","","","",""
"","ISI","","html-keyboard-response","277","317669","0.0-1.0-372.0","0","0","27050","","null","","","null","41","NaN","","","","","","","","","","","","","","",""
"","S2","","html-keyboard-response","278","317921","0.0-1.0-373.0","0","0","27050","","null","","","null","41","","NaN","","","","","","","","","","","","","",""
"","response","","html-keyboard-response","279","318212","0.0-1.0-374.0-0.0","0","0","27050","","288","","","68","41","","","1","41","training","adjacent","CB","3","2","M.jpg","N.jpg","1","0","0","",""
"","feedback","","html-keyboard-response","280","319216","0.0-1.0-375.0-0.0","0","0","27050","","null","","","null","41","","","","","","","","","","","","","","","",""
"","time_out","","html-keyboard-response","281","321219","0.0-1.0-377.0-0.0","0","0","27050","","null","","","null","41","","","","","","","","","","","","","","","",""
"","ITI","","html-keyboard-response","282","322221","0.0-1.0-378.0","0","0","27050","","null","","","null","41","","","","","","","","","","","","","","","NaN",""
"","S1","","html-keyboard-response","283","322473","0.0-1.0-380.0","0","0","27050","","null","","","null","42","","","","","","","","","","","","","","","",""
"","ISI","","html-keyboard-response","284","323476","0.0-1.0-381.0","0","0","27050","","null","","","null","42","NaN","","","","","","","","","","","","","","",""
"","S2","","html-keyboard-response","285","323729","0.0-1.0-382.0","0","0","27050","","null","","","null","42","","NaN","","","","","","","","","","","","","",""
"","response","","html-keyboard-response","286","323976","0.0-1.0-383.0-0.0","0","0","27050","","244","","","68","42","","","1","42","training","adjacent","DE","4","5","L.jpg","P.jpg","1","1","1","",""
"","feedback","","html-keyboard-response","287","324978","0.0-1.0-384.0-0.0","0","0","27050","","null","","","null","42","","","","","","","","","","","","","","","",""
"","ITI","","html-keyboard-response","288","325981","0.0-1.0-387.0","0","0","27050","","null","","","null","42","","","","","","","","","","","","","","","NaN",""
"","S1","","html-keyboard-response","289","326234","0.0-1.0-389.0","0","0","27050","","null","","","null","43","","","","","","","","","","","","","","","",""
"","ISI","","html-keyboard-response","290","327237","0.0-1.0-390.0","0","0","27050","","null","","","null","43","NaN","","","","","","","","","","","","","","",""
"","S2","","html-keyboard-response","291","327489","0.0-1.0-391.0","0","0","27050","","null","","","null","43","","NaN","","","","","","","","","","","","","",""
"","response","","html-keyboard-response","292","327966","0.0-1.0-392.0-0.0","0","0","27050","","476","","","75","43","","","1","43","training","adjacent","FG","6","7","O.jpg","R.jpg","0","1","0","",""
"","feedback","","html-keyboard-response","293","328969","0.0-1.0-393.0-0.0","0","0","27050","","null","","","null","43","","","","","","","","","","","","","","","",""
"","time_out","","html-keyboard-response","294","330971","0.0-1.0-395.0-0.0","0","0","27050","","null","","","null","43","","","","","","","","","","","","","","","",""
"","ITI","","html-keyboard-response","295","331973","0.0-1.0-396.0","0","0","27050","","null","","","null","43","","","","","","","","","","","","","","","NaN",""
"","S1","","html-keyboard-response","296","332226","0.0-1.0-398.0","0","0","27050","","null","","","null","44","","","","","","","","","","","","","","","",""
"","ISI","","html-keyboard-response","297","333228","0.0-1.0-399.0","0","0","27050","","null","","","null","44","NaN","","","","","","","","","","","","","","",""
"","S2","","html-keyboard-response","298","333481","0.0-1.0-400.0","0","0","27050","","null","","","null","44","","NaN","","","","","","","","","","","","","",""
"","response","","html-keyboard-response","299","333989","0.0-1.0-401.0-0.0","0","0","27050","","506","","","75","44","","","1","44","training","adjacent","ED","5","4","P.jpg","L.jpg","0","0","1","",""
"","feedback","","html-keyboard-response","300","334992","0.0-1.0-402.0-0.0","0","0","27050","","null","","","null","44","","","","","","","","","","","","","","","",""
"","ITI","","html-keyboard-response","301","335996","0.0-1.0-405.0","0","0","27050","","null","","","null","44","","","","","","","","","","","","","","","NaN",""
"","S1","","html-keyboard-response","302","336249","0.0-1.0-407.0","0","0","27050","","null","","","null","45","","","","","","","","","","","","","","","",""
"","ISI","","html-keyboard-response","303","337252","0.0-1.0-408.0","0","0","27050","","null","","","null","45","NaN","","","","","","","","","","","","","","",""
"","S2","","html-keyboard-response","304","337505","0.0-1.0-409.0","0","0","27050","","null","","","null","45","","NaN","","","","","","","","","","","","","",""
"","response","","html-keyboard-response","305","338205","0.0-1.0-410.0-0.0","0","0","27050","","698","","","68","45","","","1","45","training","adjacent","GF","7","6","R.jpg","O.jpg","1","0","0","",""
"","feedback","","html-keyboard-response","306","339208","0.0-1.0-411.0-0.0","0","0","27050","","null","","","null","45","","","","","","","","","","","","","","","",""
"","time_out","","html-keyboard-response","307","341211","0.0-1.0-413.0-0.0","0","0","27050","","null","","","null","45","","","","","","","","","","","","","","","",""
"","ITI","","html-keyboard-response","308","342214","0.0-1.0-414.0","0","0","27050","","null","","","null","45","","","","","","","","","","","","","","","NaN",""
"","S1","","html-keyboard-response","309","342467","0.0-1.0-416.0","0","0","27050","","null","","","null","46","","","","","","","","","","","","","","","",""
"","ISI","","html-keyboard-response","310","343470","0.0-1.0-417.0","0","0","27050","","null","","","null","46","NaN","","","","","","","","","","","","","","",""
"","S2","","html-keyboard-response","311","343722","0.0-1.0-418.0","0","0","27050","","null","","","null","46","","NaN","","","","","","","","","","","","","",""
"","response","","html-keyboard-response","312","343815","0.0-1.0-419.0-0.0","0","0","27050","","90","","","75","46","","","1","46","training","adjacent","FE","6","5","O.jpg","P.jpg","0","0","1","",""
"","feedback","","html-keyboard-response","313","344818","0.0-1.0-420.0-0.0","0","0","27050","","null","","","null","46","","","","","","","","","","","","","","","",""
"","ITI","","html-keyboard-response","314","345820","0.0-1.0-423.0","0","0","27050","","null","","","null","46","","","","","","","","","","","","","","","NaN",""
"","S1","","html-keyboard-response","315","346072","0.0-1.0-425.0","0","0","27050","","null","","","null","47","","","","","","","","","","","","","","","",""
"","ISI","","html-keyboard-response","316","347075","0.0-1.0-426.0","0","0","27050","","null","","","null","47","NaN","","","","","","","","","","","","","","",""
"","S2","","html-keyboard-response","317","347328","0.0-1.0-427.0","0","0","27050","","null","","","null","47","","NaN","","","","","","","","","","","","","",""
"","response","","html-keyboard-response","318","347764","0.0-1.0-428.0-0.0","0","0","27050","","434","","","75","47","","","1","47","training","adjacent","FG","6","7","O.jpg","R.jpg","0","1","0","",""
"","feedback","","html-keyboard-response","319","348769","0.0-1.0-429.0-0.0","0","0","27050","","null","","","null","47","","","","","","","","","","","","","","","",""
"","time_out","","html-keyboard-response","320","350772","0.0-1.0-431.0-0.0","0","0","27050","","null","","","null","47","","","","","","","","","","","","","","","",""
"","ITI","","html-keyboard-response","321","351774","0.0-1.0-432.0","0","0","27050","","null","","","null","47","","","","","","","","","","","","","","","NaN",""
"","block_over","","html-keyboard-response","322","357734","0.0-1.0-433.0-0.0","0","0","27050","","5957","","","32","47","","","","","","","","","","","","","","","",""
"","S1","","html-keyboard-response","323","357987","0.0-1.0-434.0","0","0","27050","","null","","","null","48","","","","","","","","","","","","","","","",""
"","ISI","","html-keyboard-response","324","358990","0.0-1.0-435.0","0","0","27050","","null","","","null","48","NaN","","","","","","","","","","","","","","",""
"","S2","","html-keyboard-response","325","359243","0.0-1.0-436.0","0","0","27050","","null","","","null","48","","NaN","","","","","","","","","","","","","",""
"","response","","html-keyboard-response","326","359466","0.0-1.0-437.0-0.0","0","0","27050","","221","","","75","48","","","2","48","training","adjacent","CD","3","4","M.jpg","L.jpg","0","1","0","",""
"","feedback","","html-keyboard-response","327","360483","0.0-1.0-438.0-0.0","0","0","27050","","null","","","null","48","","","","","","","","","","","","","","","",""
"","time_out","","html-keyboard-response","328","362486","0.0-1.0-440.0-0.0","0","0","27050","","null","","","null","48","","","","","","","","","","","","","","","",""
"","ITI","","html-keyboard-response","329","363488","0.0-1.0-441.0","0","0","27050","","null","","","null","48","","","","","","","","","","","","","","","NaN",""
"","S1","","html-keyboard-response","330","363740","0.0-1.0-443.0","0","0","27050","","null","","","null","49","","","","","","","","","","","","","","","",""
"","ISI","","html-keyboard-response","331","364742","0.0-1.0-444.0","0","0","27050","","null","","","null","49","NaN","","","","","","","","","","","","","","",""
"","S2","","html-keyboard-response","332","364995","0.0-1.0-445.0","0","0","27050","","null","","","null","49","","NaN","","","","","","","","","","","","","",""
"","response","","html-keyboard-response","333","365271","0.0-1.0-446.0-0.0","0","0","27050","","274","","","75","49","","","2","49","training","adjacent","ED","5","4","P.jpg","L.jpg","0","0","1","",""
"","feedback","","html-keyboard-response","334","366274","0.0-1.0-447.0-0.0","0","0","27050","","null","","","null","49","","","","","","","","","","","","","","","",""
"","ITI","","html-keyboard-response","335","367285","0.0-1.0-450.0","0","0","27050","","null","","","null","49","","","","","","","","","","","","","","","NaN",""
"","S1","","html-keyboard-response","336","367538","0.0-1.0-452.0","0","0","27050","","null","","","null","50","","","","","","","","","","","","","","","",""
"","ISI","","html-keyboard-response","337","368542","0.0-1.0-453.0","0","0","27050","","null","","","null","50","NaN","","","","","","","","","","","","","","",""
"","S2","","html-keyboard-response","338","368795","0.0-1.0-454.0","0","0","27050","","null","","","null","50","","NaN","","","","","","","","","","","","","",""
"","response","","html-keyboard-response","339","369108","0.0-1.0-455.0-0.0","0","0","27050","","310","","","68","50","","","2","50","training","adjacent","EF","5","6","P.jpg","O.jpg","1","1","1","",""
"","feedback","","html-keyboard-response","340","370111","0.0-1.0-456.0-0.0","0","0","27050","","null","","","null","50","","","","","","","","","","","","","","","",""
"","ITI","","html-keyboard-response","341","371115","0.0-1.0-459.0","0","0","27050","","null","","","null","50","","","","","","","","","","","","","","","NaN",""
"","S1","","html-keyboard-response","342","371367","0.0-1.0-461.0","0","0","27050","","null","","","null","51","","","","","","","","","","","","","","","",""
"","ISI","","html-keyboard-response","343","372370","0.0-1.0-462.0","0","0","27050","","null","","","null","51","NaN","","","","","","","","","","","","","","",""
"","S2","","html-keyboard-response","344","372624","0.0-1.0-463.0","0","0","27050","","null","","","null","51","","NaN","","","","","","","","","","","","","",""
"","response","","html-keyboard-response","345","372907","0.0-1.0-464.0-0.0","0","0","27050","","282","","","75","51","","","2","51","training","adjacent","DC","4","3","L.jpg","M.jpg","0","0","1","",""
"","feedback","","html-keyboard-response","346","373910","0.0-1.0-465.0-0.0","0","0","27050","","null","","","null","51","","","","","","","","","","","","","","","",""
"","ITI","","html-keyboard-response","347","374916","0.0-1.0-468.0","0","0","27050","","null","","","null","51","","","","","","","","","","","","","","","NaN",""
"","S1","","html-keyboard-response","348","375170","0.0-1.0-470.0","0","0","27050","","null","","","null","52","","","","","","","","","","","","","","","",""
"","ISI","","html-keyboard-response","349","376172","0.0-1.0-471.0","0","0","27050","","null","","","null","52","NaN","","","","","","","","","","","","","","",""
"","S2","","html-keyboard-response","350","376408","0.0-1.0-472.0","0","0","27050","","234","","","75","52","","k","2","52","training","adjacent","FE","6","5","O.jpg","P.jpg","0","0","1","",""
"","feedback","","html-keyboard-response","351","377411","0.0-1.0-474.0-0.0","0","0","27050","","null","","","null","52","","","","","","","","","","","","","","","",""
"","ITI","","html-keyboard-response","352","378414","0.0-1.0-477.0","0","0","27050","","null","","","null","52","","","","","","","","","","","","","","","NaN",""
"","S1","","html-keyboard-response","353","378666","0.0-1.0-479.0","0","0","27050","","null","","","null","53","","","","","","","","","","","","","","","",""
"","ISI","","html-keyboard-response","354","379679","0.0-1.0-480.0","0","0","27050","","null","","","null","53","NaN","","","","","","","","","","","","","","",""
"","S2","","html-keyboard-response","355","379931","0.0-1.0-481.0","0","0","27050","","null","","","null","53","","NaN","","","","","","","","","","","","","",""
"","response","","html-keyboard-response","356","380505","0.0-1.0-482.0-0.0","0","0","27050","","572","","","75","53","","","2","53","training","adjacent","BA","2","1","N.jpg","Q.jpg","0","0","1","",""
"","feedback","","html-keyboard-response","357","381507","0.0-1.0-483.0-0.0","0","0","27050","","null","","","null","53","","","","","","","","","","","","","","","",""
"","ITI","","html-keyboard-response","358","382510","0.0-1.0-486.0","0","0","27050","","null","","","null","53","","","","","","","","","","","","","","","NaN",""
"","S1","","html-keyboard-response","359","382762","0.0-1.0-488.0","0","0","27050","","null","","","null","54","","","","","","","","","","","","","","","",""
"","ISI","","html-keyboard-response","360","383764","0.0-1.0-489.0","0","0","27050","","null","","","null","54","NaN","","","","","","","","","","","","","","",""
"","S2","","html-keyboard-response","361","384017","0.0-1.0-490.0","0","0","27050","","null","","","null","54","","NaN","","","","","","","","","","","","","",""
"","response","","html-keyboard-response","362","384805","0.0-1.0-491.0-0.0","0","0","27050","","787","","","75","54","","","2","54","training","adjacent","DC","4","3","L.jpg","M.jpg","0","0","1","",""
"","feedback","","html-keyboard-response","363","385808","0.0-1.0-492.0-0.0","0","0","27050","","null","","","null","54","","","","","","","","","","","","","","","",""
"","ITI","","html-keyboard-response","364","386810","0.0-1.0-495.0","0","0","27050","","null","","","null","54","","","","","","","","","","","","","","","NaN",""
"","S1","","html-keyboard-response","365","387063","0.0-1.0-497.0","0","0","27050","","null","","","null","55","","","","","","","","","","","","","","","",""
"","ISI","","html-keyboard-response","366","388066","0.0-1.0-498.0","0","0","27050","","null","","","null","55","NaN","","","","","","","","","","","","","","",""
"","S2","","html-keyboard-response","367","388319","0.0-1.0-499.0","0","0","27050","","null","","","null","55","","NaN","","","","","","","","","","","","","",""
"","response","","html-keyboard-response","368","388747","0.0-1.0-500.0-0.0","0","0","27050","","425","","","68","55","","","2","55","training","adjacent","GF","7","6","R.jpg","O.jpg","1","0","0","",""
"","feedback","","html-keyboard-response","369","389750","0.0-1.0-501.0-0.0","0","0","27050","","null","","","null","55","","","","","","","","","","","","","","","",""
"","time_out","","html-keyboard-response","370","391753","0.0-1.0-503.0-0.0","0","0","27050","","null","","","null","55","","","","","","","","","","","","","","","",""
"","ITI","","html-keyboard-response","371","392754","0.0-1.0-504.0","0","0","27050","","null","","","null","55","","","","","","","","","","","","","","","NaN",""
"","S1","","html-keyboard-response","372","393007","0.0-1.0-506.0","0","0","27050","","null","","","null","56","","","","","","","","","","","","","","","",""
"","ISI","","html-keyboard-response","373","394010","0.0-1.0-507.0","0","0","27050","","null","","","null","56","NaN","","","","","","","","","","","","","","",""
"","S2","","html-keyboard-response","374","394262","0.0-1.0-508.0","0","0","27050","","null","","","null","56","","NaN","","","","","","","","","","","","","",""
"","response","","html-keyboard-response","375","394538","0.0-1.0-509.0-0.0","0","0","27050","","274","","","75","56","","","2","56","training","adjacent","ED","5","4","P.jpg","L.jpg","0","0","1","",""
"","feedback","","html-keyboard-response","376","395541","0.0-1.0-510.0-0.0","0","0","27050","","null","","","null","56","","","","","","","","","","","","","","","",""
"","ITI","","html-keyboard-response","377","396544","0.0-1.0-513.0","0","0","27050","","null","","","null","56","","","","","","","","","","","","","","","NaN",""
"","S1","","html-keyboard-response","378","396797","0.0-1.0-515.0","0","0","27050","","null","","","null","57","","","","","","","","","","","","","","","",""
"","ISI","","html-keyboard-response","379","397800","0.0-1.0-516.0","0","0","27050","","null","","","null","57","NaN","","","","","","","","","","","","","","",""
"","S2","","html-keyboard-response","380","398054","0.0-1.0-517.0","0","0","27050","","null","","","null","57","","NaN","","","","","","","","","","","","","",""
"","response","","html-keyboard-response","381","398457","0.0-1.0-518.0-0.0","0","0","27050","","402","","","68","57","","","2","57","training","adjacent","DE","4","5","L.jpg","P.jpg","1","1","1","",""
"","feedback","","html-keyboard-response","382","399460","0.0-1.0-519.0-0.0","0","0","27050","","null","","","null","57","","","","","","","","","","","","","","","",""
"","ITI","","html-keyboard-response","383","400462","0.0-1.0-522.0","0","0","27050","","null","","","null","57","","","","","","","","","","","","","","","NaN",""
"","S1","","html-keyboard-response","384","400714","0.0-1.0-524.0","0","0","27050","","null","","","null","58","","","","","","","","","","","","","","","",""
"","ISI","","html-keyboard-response","385","401717","0.0-1.0-525.0","0","0","27050","","null","","","null","58","NaN","","","","","","","","","","","","","","",""
"","S2","","html-keyboard-response","386","401970","0.0-1.0-526.0","0","0","27050","","null","","","null","58","","NaN","","","","","","","","","","","","","",""
"","response","","html-keyboard-response","387","402120","0.0-1.0-527.0-0.0","0","0","27050","","148","","","75","58","","","2","58","training","adjacent","FG","6","7","O.jpg","R.jpg","0","1","0","",""
"","feedback","","html-keyboard-response","388","403123","0.0-1.0-528.0-0.0","0","0","27050","","null","","","null","58","","","","","","","","","","","","","","","",""
"","time_out","","html-keyboard-response","389","405127","0.0-1.0-530.0-0.0","0","0","27050","","null","","","null","58","","","","","","","","","","","","","","","",""
"","ITI","","html-keyboard-response","390","406129","0.0-1.0-531.0","0","0","27050","","null","","","null","58","","","","","","","","","","","","","","","NaN",""
"","S1","","html-keyboard-response","391","406382","0.0-1.0-533.0","0","0","27050","","null","","","null","59","","","","","","","","","","","","","","","",""
"","ISI","","html-keyboard-response","392","407384","0.0-1.0-534.0","0","0","27050","","null","","","null","59","NaN","","","","","","","","","","","","","","",""
"","S2","","html-keyboard-response","393","407637","0.0-1.0-535.0","0","0","27050","","null","","","null","59","","NaN","","","","","","","","","","","","","",""
"","response","","html-keyboard-response","394","407859","0.0-1.0-536.0-0.0","0","0","27050","","221","","","68","59","","","2","59","training","adjacent","AB","1","2","Q.jpg","N.jpg","1","1","1","",""
"","feedback","","html-keyboard-response","395","408862","0.0-1.0-537.0-0.0","0","0","27050","","null","","","null","59","","","","","","","","","","","","","","","",""
"","ITI","","html-keyboard-response","396","409866","0.0-1.0-540.0","0","0","27050","","null","","","null","59","","","","","","","","","","","","","","","NaN",""
"","S1","","html-keyboard-response","397","410118","0.0-1.0-542.0","0","0","27050","","null","","","null","60","","","","","","","","","","","","","","","",""
"","ISI","","html-keyboard-response","398","411121","0.0-1.0-543.0","0","0","27050","","null","","","null","60","NaN","","","","","","","","","","","","","","",""
"","S2","","html-keyboard-response","399","411375","0.0-1.0-544.0","0","0","27050","","null","","","null","60","","NaN","","","","","","","","","","","","","",""
"","response","","html-keyboard-response","400","411630","0.0-1.0-545.0-0.0","0","0","27050","","253","","","75","60","","","2","60","training","adjacent","ED","5","4","P.jpg","L.jpg","0","0","1","",""
"","feedback","","html-keyboard-response","401","412633","0.0-1.0-546.0-0.0","0","0","27050","","null","","","null","60","","","","","","","","","","","","","","","",""
"","ITI","","html-keyboard-response","402","413635","0.0-1.0-549.0","0","0","27050","","null","","","null","60","","","","","","","","","","","","","","","NaN",""
"","S1","","html-keyboard-response","403","413888","0.0-1.0-551.0","0","0","27050","","null","","","null","61","","","","","","","","","","","","","","","",""
"","ISI","","html-keyboard-response","404","414891","0.0-1.0-552.0","0","0","27050","","null","","","null","61","NaN","","","","","","","","","","","","","","",""
"","S2","","html-keyboard-response","405","415145","0.0-1.0-553.0","0","0","27050","","null","","","null","61","","NaN","","","","","","","","","","","","","",""
"","response","","html-keyboard-response","406","415329","0.0-1.0-554.0-0.0","0","0","27050","","181","","","75","61","","","2","61","training","adjacent","FG","6","7","O.jpg","R.jpg","0","1","0","",""
"","feedback","","html-keyboard-response","407","416332","0.0-1.0-555.0-0.0","0","0","27050","","null","","","null","61","","","","","","","","","","","","","","","",""
"","time_out","","html-keyboard-response","408","418335","0.0-1.0-557.0-0.0","0","0","27050","","null","","","null","61","","","","","","","","","","","","","","","",""
"","ITI","","html-keyboard-response","409","419338","0.0-1.0-558.0","0","0","27050","","null","","","null","61","","","","","","","","","","","","","","","NaN",""
"","S1","","html-keyboard-response","410","419591","0.0-1.0-560.0","0","0","27050","","null","","","null","62","","","","","","","","","","","","","","","",""
"","ISI","","html-keyboard-response","411","420594","0.0-1.0-561.0","0","0","27050","","null","","","null","62","NaN","","","","","","","","","","","","","","",""
"","S2","","html-keyboard-response","412","420847","0.0-1.0-562.0","0","0","27050","","null","","","null","62","","NaN","","","","","","","","","","","","","",""
"","response","","html-keyboard-response","413","421283","0.0-1.0-563.0-0.0","0","0","27050","","435","","","68","62","","","2","62","training","adjacent","CD","3","4","M.jpg","L.jpg","1","1","1","",""
"","feedback","","html-keyboard-response","414","422285","0.0-1.0-564.0-0.0","0","0","27050","","null","","","null","62","","","","","","","","","","","","","","","",""
"","ITI","","html-keyboard-response","415","423288","0.0-1.0-567.0","0","0","27050","","null","","","null","62","","","","","","","","","","","","","","","NaN",""
"","S1","","html-keyboard-response","416","423540","0.0-1.0-569.0","0","0","27050","","null","","","null","63","","","","","","","","","","","","","","","",""
"","ISI","","html-keyboard-response","417","424543","0.0-1.0-570.0","0","0","27050","","null","","","null","63","NaN","","","","","","","","","","","","","","",""
"","S2","","html-keyboard-response","418","424797","0.0-1.0-571.0","0","0","27050","","null","","","null","63","","NaN","","","","","","","","","","","","","",""
"","response","","html-keyboard-response","419","425385","0.0-1.0-572.0-0.0","0","0","27050","","587","","","68","63","","","2","63","training","adjacent","AB","1","2","Q.jpg","N.jpg","1","1","1","",""
"","feedback","","html-keyboard-response","420","426388","0.0-1.0-573.0-0.0","0","0","27050","","null","","","null","63","","","","","","","","","","","","","","","",""
"","ITI","","html-keyboard-response","421","427391","0.0-1.0-576.0","0","0","27050","","null","","","null","63","","","","","","","","","","","","","","","NaN",""
"","S1","","html-keyboard-response","422","427644","0.0-1.0-578.0","0","0","27050","","null","","","null","64","","","","","","","","","","","","","","","",""
"","ISI","","html-keyboard-response","423","428648","0.0-1.0-579.0","0","0","27050","","null","","","null","64","NaN","","","","","","","","","","","","","","",""
"","S2","","html-keyboard-response","424","428901","0.0-1.0-580.0","0","0","27050","","null","","","null","64","","NaN","","","","","","","","","","","","","",""
"","response","","html-keyboard-response","425","429339","0.0-1.0-581.0-0.0","0","0","27050","","437","","","75","64","","","2","64","training","adjacent","DC","4","3","L.jpg","M.jpg","0","0","1","",""
"","feedback","","html-keyboard-response","426","430342","0.0-1.0-582.0-0.0","0","0","27050","","null","","","null","64","","","","","","","","","","","","","","","",""
"","ITI","","html-keyboard-response","427","431345","0.0-1.0-585.0","0","0","27050","","null","","","null","64","","","","","","","","","","","","","","","NaN",""
"","S1","","html-keyboard-response","428","431597","0.0-1.0-587.0","0","0","27050","","null","","","null","65","","","","","","","","","","","","","","","",""
"","ISI","","html-keyboard-response","429","432600","0.0-1.0-588.0","0","0","27050","","null","","","null","65","NaN","","","","","","","","","","","","","","",""
"","S2","","html-keyboard-response","430","432854","0.0-1.0-589.0","0","0","27050","","null","","","null","65","","NaN","","","","","","","","","","","","","",""
"","response","","html-keyboard-response","431","433466","0.0-1.0-590.0-0.0","0","0","27050","","611","","","68","65","","","2","65","training","adjacent","GF","7","6","R.jpg","O.jpg","1","0","0","",""
"","feedback","","html-keyboard-response","432","434470","0.0-1.0-591.0-0.0","0","0","27050","","null","","","null","65","","","","","","","","","","","","","","","",""
"","time_out","","html-keyboard-response","433","436473","0.0-1.0-593.0-0.0","0","0","27050","","null","","","null","65","","","","","","","","","","","","","","","",""
"","ITI","","html-keyboard-response","434","437476","0.0-1.0-594.0","0","0","27050","","null","","","null","65","","","","","","","","","","","","","","","NaN",""
"","S1","","html-keyboard-response","435","437729","0.0-1.0-596.0","0","0","27050","","null","","","null","66","","","","","","","","","","","","","","","",""
"","ISI","","html-keyboard-response","436","438732","0.0-1.0-597.0","0","0","27050","","null","","","null","66","NaN","","","","","","","","","","","","","","",""
"","S2","","html-keyboard-response","437","438984","0.0-1.0-598.0","0","0","27050","","null","","","null","66","","NaN","","","","","","","","","","","","","",""
"","response","","html-keyboard-response","438","439307","0.0-1.0-599.0-0.0","0","0","27050","","321","","","75","66","","","2","66","training","adjacent","EF","5","6","P.jpg","O.jpg","0","1","0","",""
"","feedback","","html-keyboard-response","439","440310","0.0-1.0-600.0-0.0","0","0","27050","","null","","","null","66","","","","","","","","","","","","","","","",""
"","time_out","","html-keyboard-response","440","442313","0.0-1.0-602.0-0.0","0","0","27050","","null","","","null","66","","","","","","","","","","","","","","","",""
"","ITI","","html-keyboard-response","441","443314","0.0-1.0-603.0","0","0","27050","","null","","","null","66","","","","","","","","","","","","","","","NaN",""
"","S1","","html-keyboard-response","442","443567","0.0-1.0-605.0","0","0","27050","","null","","","null","67","","","","","","","","","","","","","","","",""
"","ISI","","html-keyboard-response","443","444569","0.0-1.0-606.0","0","0","27050","","null","","","null","67","NaN","","","","","","","","","","","","","","",""
"","S2","","html-keyboard-response","444","444822","0.0-1.0-607.0","0","0","27050","","null","","","null","67","","NaN","","","","","","","","","","","","","",""
"","response","","html-keyboard-response","445","445159","0.0-1.0-608.0-0.0","0","0","27050","","334","","","68","67","","","2","67","training","adjacent","GF","7","6","R.jpg","O.jpg","1","0","0","",""
"","feedback","","html-keyboard-response","446","446162","0.0-1.0-609.0-0.0","0","0","27050","","null","","","null","67","","","","","","","","","","","","","","","",""
"","time_out","","html-keyboard-response","447","448164","0.0-1.0-611.0-0.0","0","0","27050","","null","","","null","67","","","","","","","","","","","","","","","",""
"","ITI","","html-keyboard-response","448","449168","0.0-1.0-612.0","0","0","27050","","null","","","null","67","","","","","","","","","","","","","","","NaN",""
"","S1","","html-keyboard-response","449","449420","0.0-1.0-614.0","0","0","27050","","null","","","null","68","","","","","","","","","","","","","","","",""
"","ISI","","html-keyboard-response","450","450423","0.0-1.0-615.0","0","0","27050","","null","","","null","68","NaN","","","","","","","","","","","","","","",""
"","S2","","html-keyboard-response","451","450676","0.0-1.0-616.0","0","0","27050","","null","","","null","68","","NaN","","","","","","","","","","","","","",""
"","response","","html-keyboard-response","452","451074","0.0-1.0-617.0-0.0","0","0","27050","","396","","","75","68","","","2","68","training","adjacent","BA","2","1","N.jpg","Q.jpg","0","0","1","",""
"","feedback","","html-keyboard-response","453","452077","0.0-1.0-618.0-0.0","0","0","27050","","null","","","null","68","","","","","","","","","","","","","","","",""
"","ITI","","html-keyboard-response","454","453080","0.0-1.0-621.0","0","0","27050","","null","","","null","68","","","","","","","","","","","","","","","NaN",""
"","S1","","html-keyboard-response","455","453334","0.0-1.0-623.0","0","0","27050","","null","","","null","69","","","","","","","","","","","","","","","",""
"","ISI","","html-keyboard-response","456","454335","0.0-1.0-624.0","0","0","27050","","null","","","null","69","NaN","","","","","","","","","","","","","","",""
"","S2","","html-keyboard-response","457","454588","0.0-1.0-625.0","0","0","27050","","null","","","null","69","","NaN","","","","","","","","","","","","","",""
"","response","","html-keyboard-response","458","454937","0.0-1.0-626.0-0.0","0","0","27050","","348","","","68","69","","","2","69","training","adjacent","DE","4","5","L.jpg","P.jpg","1","1","1","",""
"","feedback","","html-keyboard-response","459","455940","0.0-1.0-627.0-0.0","0","0","27050","","null","","","null","69","","","","","","","","","","","","","","","",""
"","ITI","","html-keyboard-response","460","456943","0.0-1.0-630.0","0","0","27050","","null","","","null","69","","","","","","","","","","","","","","","NaN",""
"","S1","","html-keyboard-response","461","457195","0.0-1.0-632.0","0","0","27050","","null","","","null","70","","","","","","","","","","","","","","","",""
"","ISI","","html-keyboard-response","462","458196","0.0-1.0-633.0","0","0","27050","","null","","","null","70","NaN","","","","","","","","","","","","","","",""
"","S2","","html-keyboard-response","463","458449","0.0-1.0-634.0","0","0","27050","","null","","","null","70","","NaN","","","","","","","","","","","","","",""
"","response","","html-keyboard-response","464","458744","0.0-1.0-635.0-0.0","0","0","27050","","293","","","75","70","","","2","70","training","adjacent","DC","4","3","L.jpg","M.jpg","0","0","1","",""
"","feedback","","html-keyboard-response","465","459749","0.0-1.0-636.0-0.0","0","0","27050","","null","","","null","70","","","","","","","","","","","","","","","",""
"","ITI","","html-keyboard-response","466","460754","0.0-1.0-639.0","0","0","27050","","null","","","null","70","","","","","","","","","","","","","","","NaN",""
"","S1","","html-keyboard-response","467","461009","0.0-1.0-641.0","0","0","27050","","null","","","null","71","","","","","","","","","","","","","","","",""
"","ISI","","html-keyboard-response","468","462014","0.0-1.0-642.0","0","0","27050","","null","","","null","71","NaN","","","","","","","","","","","","","","",""
"","S2","","html-keyboard-response","469","462268","0.0-1.0-643.0","0","0","27050","","null","","","null","71","","NaN","","","","","","","","","","","","","",""
"","response","","html-keyboard-response","470","462709","0.0-1.0-644.0-0.0","0","0","27050","","438","","","75","71","","","2","71","training","adjacent","BC","2","3","N.jpg","M.jpg","0","1","0","",""
"","feedback","","html-keyboard-response","471","463713","0.0-1.0-645.0-0.0","0","0","27050","","null","","","null","71","","","","","","","","","","","","","","","",""
"","time_out","","html-keyboard-response","472","465715","0.0-1.0-647.0-0.0","0","0","27050","","null","","","null","71","","","","","","","","","","","","","","","",""
"","ITI","","html-keyboard-response","473","466718","0.0-1.0-648.0","0","0","27050","","null","","","null","71","","","","","","","","","","","","","","","NaN",""
"","S1","","html-keyboard-response","474","466971","0.0-1.0-650.0","0","0","27050","","null","","","null","72","","","","","","","","","","","","","","","",""
"","ISI","","html-keyboard-response","475","467974","0.0-1.0-651.0","0","0","27050","","null","","","null","72","NaN","","","","","","","","","","","","","","",""
"","S2","","html-keyboard-response","476","468227","0.0-1.0-652.0","0","0","27050","","null","","","null","72","","NaN","","","","","","","","","","","","","",""
"","response","","html-keyboard-response","477","468430","0.0-1.0-653.0-0.0","0","0","27050","","201","","","68","72","","","2","72","training","adjacent","AB","1","2","Q.jpg","N.jpg","1","1","1","",""
"","feedback","","html-keyboard-response","478","469434","0.0-1.0-654.0-0.0","0","0","27050","","null","","","null","72","","","","","","","","","","","","","","","",""
"","ITI","","html-keyboard-response","479","470437","0.0-1.0-657.0","0","0","27050","","null","","","null","72","","","","","","","","","","","","","","","NaN",""
"","S1","","html-keyboard-response","480","470690","0.0-1.0-659.0","0","0","27050","","null","","","null","73","","","","","","","","","","","","","","","",""
"","ISI","","html-keyboard-response","481","471693","0.0-1.0-660.0","0","0","27050","","null","","","null","73","NaN","","","","","","","","","","","","","","",""
"","S2","","html-keyboard-response","482","471948","0.0-1.0-661.0","0","0","27050","","null","","","null","73","","NaN","","","","","","","","","","","","","",""
"","response","","html-keyboard-response","483","472415","0.0-1.0-662.0-0.0","0","0","27050","","466","","","75","73","","","2","73","training","adjacent","EF","5","6","P.jpg","O.jpg","0","1","0","",""
"","feedback","","html-keyboard-response","484","473418","0.0-1.0-663.0-0.0","0","0","27050","","null","","","null","73","","","","","","","","","","","","","","","",""
"","time_out","","html-keyboard-response","485","475421","0.0-1.0-665.0-0.0","0","0","27050","","null","","","null","73","","","","","","","","","","","","","","","",""
"","ITI","","html-keyboard-response","486","476424","0.0-1.0-666.0","0","0","27050","","null","","","null","73","","","","","","","","","","","","","","","NaN",""
"","S1","","html-keyboard-response","487","476679","0.0-1.0-668.0","0","0","27050","","null","","","null","74","","","","","","","","","","","","","","","",""
"","ISI","","html-keyboard-response","488","477683","0.0-1.0-669.0","0","0","27050","","null","","","null","74","NaN","","","","","","","","","","","","","","",""
"","S2","","html-keyboard-response","489","477936","0.0-1.0-670.0","0","0","27050","","null","","","null","74","","NaN","","","","","","","","","","","","","",""
"","response","","html-keyboard-response","490","478298","0.0-1.0-671.0-0.0","0","0","27050","","358","","","68","74","","","2","74","training","adjacent","CB","3","2","M.jpg","N.jpg","1","0","0","",""
"","feedback","","html-keyboard-response","491","479303","0.0-1.0-672.0-0.0","0","0","27050","","null","","","null","74","","","","","","","","","","","","","","","",""
"","time_out","","html-keyboard-response","492","481307","0.0-1.0-674.0-0.0","0","0","27050","","null","","","null","74","","","","","","","","","","","","","","","",""
"","ITI","","html-keyboard-response","493","482312","0.0-1.0-675.0","0","0","27050","","null","","","null","74","","","","","","","","","","","","","","","NaN",""
"","S1","","html-keyboard-response","494","482565","0.0-1.0-677.0","0","0","27050","","null","","","null","75","","","","","","","","","","","","","","","",""
"","ISI","","html-keyboard-response","495","483568","0.0-1.0-678.0","0","0","27050","","null","","","null","75","NaN","","","","","","","","","","","","","","",""
"","S2","","html-keyboard-response","496","483823","0.0-1.0-679.0","0","0","27050","","null","","","null","75","","NaN","","","","","","","","","","","","","",""
"","response","","html-keyboard-response","497","484429","0.0-1.0-680.0-0.0","0","0","27050","","602","","","68","75","","","2","75","training","adjacent","CB","3","2","M.jpg","N.jpg","1","0","0","",""
"","feedback","","html-keyboard-response","498","485433","0.0-1.0-681.0-0.0","0","0","27050","","null","","","null","75","","","","","","","","","","","","","","","",""
"","time_out","","html-keyboard-response","499","487438","0.0-1.0-683.0-0.0","0","0","27050","","null","","","null","75","","","","","","","","","","","","","","","",""
"","ITI","","html-keyboard-response","500","488443","0.0-1.0-684.0","0","0","27050","","null","","","null","75","","","","","","","","","","","","","","","NaN",""
"","S1","","html-keyboard-response","501","488698","0.0-1.0-686.0","0","0","27050","","null","","","null","76","","","","","","","","","","","","","","","",""
"","ISI","","html-keyboard-response","502","489702","0.0-1.0-687.0","0","0","27050","","108","","","75","76","k","","","","","","","","","","","","","","",""
"","S2","","html-keyboard-response","503","489956","0.0-1.0-688.0","0","0","27050","","null","","","null","76","","NaN","","","","","","","","","","","","","",""
"","response","","html-keyboard-response","504","490434","0.0-1.0-689.0-0.0","0","0","27050","","474","","","75","76","","","2","76","training","adjacent","EF","5","6","P.jpg","O.jpg","0","1","0","",""
"","feedback","","html-keyboard-response","505","491439","0.0-1.0-690.0-0.0","0","0","27050","","null","","","null","76","","","","","","","","","","","","","","","",""
"","time_out","","html-keyboard-response","506","493444","0.0-1.0-692.0-0.0","0","0","27050","","null","","","null","76","","","","","","","","","","","","","","","",""
"","ITI","","html-keyboard-response","507","494448","0.0-1.0-693.0","0","0","27050","","null","","","null","76","","","","","","","","","","","","","","","NaN",""
"","S1","","html-keyboard-response","508","494703","0.0-1.0-695.0","0","0","27050","","null","","","null","77","","","","","","","","","","","","","","","",""
"","ISI","","html-keyboard-response","509","495706","0.0-1.0-696.0","0","0","27050","","null","","","null","77","NaN","","","","","","","","","","","","","","",""
"","S2","","html-keyboard-response","510","495961","0.0-1.0-697.0","0","0","27050","","null","","","null","77","","NaN","","","","","","","","","","","","","",""
"","response","","html-keyboard-response","511","496411","0.0-1.0-698.0-0.0","0","0","27050","","446","","","68","77","","","2","77","training","adjacent","FE","6","5","O.jpg","P.jpg","1","0","0","",""
"","feedback","","html-keyboard-response","512","497418","0.0-1.0-699.0-0.0","0","0","27050","","null","","","null","77","","","","","","","","","","","","","","","",""
"","time_out","","html-keyboard-response","513","499422","0.0-1.0-701.0-0.0","0","0","27050","","null","","","null","77","","","","","","","","","","","","","","","",""
"","ITI","","html-keyboard-response","514","500426","0.0-1.0-702.0","0","0","27050","","null","","","null","77","","","","","","","","","","","","","","","NaN",""
"","S1","","html-keyboard-response","515","500680","0.0-1.0-704.0","0","0","27050","","null","","","null","78","","","","","","","","","","","","","","","",""
"","ISI","","html-keyboard-response","516","501683","0.0-1.0-705.0","0","0","27050","","null","","","null","78","NaN","","","","","","","","","","","","","","",""
"","S2","","html-keyboard-response","517","501938","0.0-1.0-706.0","0","0","27050","","null","","","null","78","","NaN","","","","","","","","","","","","","",""
"","response","","html-keyboard-response","518","502246","0.0-1.0-707.0-0.0","0","0","27050","","304","","","75","78","","","2","78","training","adjacent","FE","6","5","O.jpg","P.jpg","0","0","1","",""
"","feedback","","html-keyboard-response","519","503250","0.0-1.0-708.0-0.0","0","0","27050","","null","","","null","78","","","","","","","","","","","","","","","",""
"","ITI","","html-keyboard-response","520","504255","0.0-1.0-711.0","0","0","27050","","null","","","null","78","","","","","","","","","","","","","","","NaN",""
"","S1","","html-keyboard-response","521","504509","0.0-1.0-713.0","0","0","27050","","null","","","null","79","","","","","","","","","","","","","","","",""
"","ISI","","html-keyboard-response","522","505512","0.0-1.0-714.0","0","0","27050","","null","","","null","79","NaN","","","","","","","","","","","","","","",""
"","S2","","html-keyboard-response","523","505766","0.0-1.0-715.0","0","0","27050","","null","","","null","79","","NaN","","","","","","","","","","","","","",""
"","response","","html-keyboard-response","524","506180","0.0-1.0-716.0-0.0","0","0","27050","","412","","","68","79","","","2","79","training","adjacent","CD","3","4","M.jpg","L.jpg","1","1","1","",""
"","feedback","","html-keyboard-response","525","507183","0.0-1.0-717.0-0.0","0","0","27050","","null","","","null","79","","","","","","","","","","","","","","","",""
"","ITI","","html-keyboard-response","526","508189","0.0-1.0-720.0","0","0","27050","","null","","","null","79","","","","","","","","","","","","","","","NaN",""
"","S1","","html-keyboard-response","527","508443","0.0-1.0-722.0","0","0","27050","","null","","","null","80","","","","","","","","","","","","","","","",""
"","ISI","","html-keyboard-response","528","509446","0.0-1.0-723.0","0","0","27050","","null","","","null","80","NaN","","","","","","","","","","","","","","",""
"","S2","","html-keyboard-response","529","509701","0.0-1.0-724.0","0","0","27050","","null","","","null","80","","NaN","","","","","","","","","","","","","",""
"","response","","html-keyboard-response","530","510116","0.0-1.0-725.0-0.0","0","0","27050","","412","","","75","80","","","2","80","training","adjacent","CB","3","2","M.jpg","N.jpg","0","0","1","",""
"","feedback","","html-keyboard-response","531","511120","0.0-1.0-726.0-0.0","0","0","27050","","null","","","null","80","","","","","","","","","","","","","","","",""
"","ITI","","html-keyboard-response","532","512124","0.0-1.0-729.0","0","0","27050","","null","","","null","80","","","","","","","","","","","","","","","NaN",""
"","S1","","html-keyboard-response","533","512377","0.0-1.0-731.0","0","0","27050","","null","","","null","81","","","","","","","","","","","","","","","",""
"","ISI","","html-keyboard-response","534","513381","0.0-1.0-732.0","0","0","27050","","null","","","null","81","NaN","","","","","","","","","","","","","","",""
"","S2","","html-keyboard-response","535","513634","0.0-1.0-733.0","0","0","27050","","null","","","null","81","","NaN","","","","","","","","","","","","","",""
"","response","","html-keyboard-response","536","513997","0.0-1.0-734.0-0.0","0","0","27050","","362","","","75","81","","","2","81","training","adjacent","ED","5","4","P.jpg","L.jpg","0","0","1","",""
"","feedback","","html-keyboard-response","537","514999","0.0-1.0-735.0-0.0","0","0","27050","","null","","","null","81","","","","","","","","","","","","","","","",""
"","ITI","","html-keyboard-response","538","516003","0.0-1.0-738.0","0","0","27050","","null","","","null","81","","","","","","","","","","","","","","","NaN",""
"","S1","","html-keyboard-response","539","516259","0.0-1.0-740.0","0","0","27050","","null","","","null","82","","","","","","","","","","","","","","","",""
"","ISI","","html-keyboard-response","540","517278","0.0-1.0-741.0","0","0","27050","","null","","","null","82","NaN","","","","","","","","","","","","","","",""
"","S2","","html-keyboard-response","541","517533","0.0-1.0-742.0","0","0","27050","","null","","","null","82","","NaN","","","","","","","","","","","","","",""
"","response","","html-keyboard-response","542","517772","0.0-1.0-743.0-0.0","0","0","27050","","235","","","75","82","","","2","82","training","adjacent","FG","6","7","O.jpg","R.jpg","0","1","0","",""
"","feedback","","html-keyboard-response","543","518776","0.0-1.0-744.0-0.0","0","0","27050","","null","","","null","82","","","","","","","","","","","","","","","",""
"","time_out","","html-keyboard-response","544","520781","0.0-1.0-746.0-0.0","0","0","27050","","null","","","null","82","","","","","","","","","","","","","","","",""
"","ITI","","html-keyboard-response","545","521785","0.0-1.0-747.0","0","0","27050","","null","","","null","82","","","","","","","","","","","","","","","NaN",""
"","S1","","html-keyboard-response","546","522039","0.0-1.0-749.0","0","0","27050","","null","","","null","83","","","","","","","","","","","","","","","",""
"","ISI","","html-keyboard-response","547","523043","0.0-1.0-750.0","0","0","27050","","null","","","null","83","NaN","","","","","","","","","","","","","","",""
"","S2","","html-keyboard-response","548","523297","0.0-1.0-751.0","0","0","27050","","null","","","null","83","","NaN","","","","","","","","","","","","","",""
"","response","","html-keyboard-response","549","523738","0.0-1.0-752.0-0.0","0","0","27050","","439","","","75","83","","","2","83","training","adjacent","BA","2","1","N.jpg","Q.jpg","0","0","1","",""
"","feedback","","html-keyboard-response","550","524741","0.0-1.0-753.0-0.0","0","0","27050","","null","","","null","83","","","","","","","","","","","","","","","",""
"","ITI","","html-keyboard-response","551","525745","0.0-1.0-756.0","0","0","27050","","null","","","null","83","","","","","","","","","","","","","","","NaN",""
"","S1","","html-keyboard-response","552","526000","0.0-1.0-758.0","0","0","27050","","null","","","null","84","","","","","","","","","","","","","","","",""
"","ISI","","html-keyboard-response","553","527005","0.0-1.0-759.0","0","0","27050","","null","","","null","84","NaN","","","","","","","","","","","","","","",""
"","S2","","html-keyboard-response","554","527259","0.0-1.0-760.0","0","0","27050","","null","","","null","84","","NaN","","","","","","","","","","","","","",""
"","response","","html-keyboard-response","555","527545","0.0-1.0-761.0-0.0","0","0","27050","","281","","","75","84","","","2","84","training","adjacent","BA","2","1","N.jpg","Q.jpg","0","0","1","",""
"","feedback","","html-keyboard-response","556","528550","0.0-1.0-762.0-0.0","0","0","27050","","null","","","null","84","","","","","","","","","","","","","","","",""
"","ITI","","html-keyboard-response","557","529555","0.0-1.0-765.0","0","0","27050","","null","","","null","84","","","","","","","","","","","","","","","NaN",""
"","S1","","html-keyboard-response","558","529809","0.0-1.0-767.0","0","0","27050","","null","","","null","85","","","","","","","","","","","","","","","",""
"","ISI","","html-keyboard-response","559","530822","0.0-1.0-768.0","0","0","27050","","null","","","null","85","NaN","","","","","","","","","","","","","","",""
"","S2","","html-keyboard-response","560","531077","0.0-1.0-769.0","0","0","27050","","null","","","null","85","","NaN","","","","","","","","","","","","","",""
"","response","","html-keyboard-response","561","531461","0.0-1.0-770.0-0.0","0","0","27050","","381","","","68","85","","","2","85","training","adjacent","CB","3","2","M.jpg","N.jpg","1","0","0","",""
"","feedback","","html-keyboard-response","562","532466","0.0-1.0-771.0-0.0","0","0","27050","","null","","","null","85","","","","","","","","","","","","","","","",""
"","time_out","","html-keyboard-response","563","534471","0.0-1.0-773.0-0.0","0","0","27050","","null","","","null","85","","","","","","","","","","","","","","","",""
"","ITI","","html-keyboard-response","564","535475","0.0-1.0-774.0","0","0","27050","","null","","","null","85","","","","","","","","","","","","","","","NaN",""
"","S1","","html-keyboard-response","565","535730","0.0-1.0-776.0","0","0","27050","","null","","","null","86","","","","","","","","","","","","","","","",""
"","ISI","","html-keyboard-response","566","536734","0.0-1.0-777.0","0","0","27050","","null","","","null","86","NaN","","","","","","","","","","","","","","",""
"","S2","","html-keyboard-response","567","536988","0.0-1.0-778.0","0","0","27050","","null","","","null","86","","NaN","","","","","","","","","","","","","",""
"","response","","html-keyboard-response","568","537408","0.0-1.0-779.0-0.0","0","0","27050","","418","","","68","86","","","2","86","training","adjacent","DE","4","5","L.jpg","P.jpg","1","1","1","",""
"","feedback","","html-keyboard-response","569","538412","0.0-1.0-780.0-0.0","0","0","27050","","null","","","null","86","","","","","","","","","","","","","","","",""
"","ITI","","html-keyboard-response","570","539425","0.0-1.0-783.0","0","0","27050","","null","","","null","86","","","","","","","","","","","","","","","NaN",""
"","S1","","html-keyboard-response","571","539679","0.0-1.0-785.0","0","0","27050","","null","","","null","87","","","","","","","","","","","","","","","",""
"","ISI","","html-keyboard-response","572","540684","0.0-1.0-786.0","0","0","27050","","null","","","null","87","NaN","","","","","","","","","","","","","","",""
"","S2","","html-keyboard-response","573","540939","0.0-1.0-787.0","0","0","27050","","null","","","null","87","","NaN","","","","","","","","","","","","","",""
"","response","","html-keyboard-response","574","541430","0.0-1.0-788.0-0.0","0","0","27050","","487","","","75","87","","","2","87","training","adjacent","AB","1","2","Q.jpg","N.jpg","0","1","0","",""
"","feedback","","html-keyboard-response","575","542435","0.0-1.0-789.0-0.0","0","0","27050","","null","","","null","87","","","","","","","","","","","","","","","",""
"","time_out","","html-keyboard-response","576","544440","0.0-1.0-791.0-0.0","0","0","27050","","null","","","null","87","","","","","","","","","","","","","","","",""
"","ITI","","html-keyboard-response","577","545444","0.0-1.0-792.0","0","0","27050","","null","","","null","87","","","","","","","","","","","","","","","NaN",""
"","S1","","html-keyboard-response","578","545698","0.0-1.0-794.0","0","0","27050","","null","","","null","88","","","","","","","","","","","","","","","",""
"","ISI","","html-keyboard-response","579","546701","0.0-1.0-795.0","0","0","27050","","null","","","null","88","NaN","","","","","","","","","","","","","","",""
"","S2","","html-keyboard-response","580","546956","0.0-1.0-796.0","0","0","27050","","null","","","null","88","","NaN","","","","","","","","","","","","","",""
"","response","","html-keyboard-response","581","547216","0.0-1.0-797.0-0.0","0","0","27050","","258","","","75","88","","","2","88","training","adjacent","BC","2","3","N.jpg","M.jpg","0","1","0","",""
"","feedback","","html-keyboard-response","582","548220","0.0-1.0-798.0-0.0","0","0","27050","","null","","","null","88","","","","","","","","","","","","","","","",""
