"success","ttype","start_time","trial_type","trial_index","time_elapsed","internal_node_id","warning","missed_checkup","PID","view_history","rt","responses","repeat_instructions","key_press","index","keypress_isi","keypress_S2","block","trial_num","phase","group_type","pair_type","S1_stim","S2_stim","S1_img","S2_img","S1_chosen","S1_higher","accuracy","keypress_iti","total_bonus_tally"
"true","full_screen","d04152023hr0814","fullscreen","0","18111","0.0-0.0","0","0","23673","","","","","","","","","","","","","","","","","","","","","",""
"","instructions","","instructions","1","67114","0.0-1.0-0.0-0.0","0","0","23673","[{""page_index"":0,""viewing_time"":12841},{""page_index"":1,""viewing_time"":24674},{""page_index"":2,""viewing_time"":9566},{""page_index"":3,""viewing_time"":1918}]","48999","","","","","","","","","","","","","","","","","","","",""
"","comprehension_check","","survey-multi-choice","2","95566","0.0-1.0-0.0-1.0","0","0","23673","","28446","{""Q0"":""True"",""Q1"":""K"",""Q2"":""Only when the screen 'MAKE A CHOICE' is shown"",""Q3"":""Green mark"",""Q4"":""either D or K""}","1","","","","","","","","","","","","","","","","","",""
"","missed_instruction_checkup","","html-keyboard-response","3","96978","0.0-1.0-0.0-2.0-0.0","0","1","23673","","1411","","","32","","","","","","","","","","","","","","","","",""
"","instructions","","instructions","4","105079","0.0-1.0-0.1-0.1","0","0","23673","[{""page_index"":0,""viewing_time"":1164},{""page_index"":1,""viewing_time"":4191},{""page_index"":2,""viewing_time"":1608},{""page_index"":3,""viewing_time"":1137}]","8100","","","","","","","","","","","","","","","","","","","",""
"","comprehension_check","","survey-multi-choice","5","116413","0.0-1.0-0.1-1.1","0","0","23673","","11329","{""Q0"":""True"",""Q1"":""K"",""Q2"":""Once the second image appears and while the screen 'MAKE A CHOICE' is shown"",""Q3"":""Green mark"",""Q4"":""either D or K""}","0","","","","","","","","","","","","","","","","","",""
"","start_exp","","html-keyboard-response","6","118462","0.0-1.0-1.0","0","0","23673","","2046","","","32","","","","","","","","","","","","","","","","",""
"","S1","","html-keyboard-response","7","118723","0.0-1.0-2.0","0","0","23673","","null","","","null","0","","","","","","","","","","","","","","","",""
"","ISI","","html-keyboard-response","8","119732","0.0-1.0-3.0","0","0","23673","","null","","","null","0","NaN","","","","","","","","","","","","","","",""
"","S2","","html-keyboard-response","9","119996","0.0-1.0-4.0","0","0","23673","","null","","","null","0","","NaN","","","","","","","","","","","","","",""
"","response","","html-keyboard-response","10","120640","0.0-1.0-5.0-0.0","0","0","23673","","641","","","75","0","","","1","0","training","adjacent","DC","4","3","M.jpg","Q.jpg","1","0","0","",""
"","feedback","","html-keyboard-response","11","121652","0.0-1.0-6.0-0.0","0","0","23673","","null","","","null","0","","","","","","","","","","","","","","","",""
"","time_out","","html-keyboard-response","12","123666","0.0-1.0-8.0-0.0","0","0","23673","","null","","","null","0","","","","","","","","","","","","","","","",""
"","ITI","","html-keyboard-response","13","124672","0.0-1.0-9.0","0","0","23673","","null","","","null","0","","","","","","","","","","","","","","","NaN",""
"","S1","","html-keyboard-response","14","124936","0.0-1.0-11.0","0","0","23673","","null","","","null","1","","","","","","","","","","","","","","","",""
"","ISI","","html-keyboard-response","15","125946","0.0-1.0-12.0","0","0","23673","","null","","","null","1","NaN","","","","","","","","","","","","","","",""
"","S2","","html-keyboard-response","16","126208","0.0-1.0-13.0","0","0","23673","","null","","","null","1","","NaN","","","","","","","","","","","","","",""
"","response","","html-keyboard-response","17","126749","0.0-1.0-14.0-0.0","0","0","23673","","537","","","68","1","","","1","1","training","adjacent","CD","3","4","Q.jpg","M.jpg","0","1","0","",""
"","feedback","","html-keyboard-response","18","127762","0.0-1.0-15.0-0.0","0","0","23673","","null","","","null","1","","","","","","","","","","","","","","","",""
"","time_out","","html-keyboard-response","19","129776","0.0-1.0-17.0-0.0","0","0","23673","","null","","","null","1","","","","","","","","","","","","","","","",""
"","ITI","","html-keyboard-response","20","130783","0.0-1.0-18.0","0","0","23673","","null","","","null","1","","","","","","","","","","","","","","","NaN",""
"","S1","","html-keyboard-response","21","131047","0.0-1.0-20.0","0","0","23673","","null","","","null","2","","","","","","","","","","","","","","","",""
"","ISI","","html-keyboard-response","22","132058","0.0-1.0-21.0","0","0","23673","","null","","","null","2","NaN","","","","","","","","","","","","","","",""
"","S2","","html-keyboard-response","23","132317","0.0-1.0-22.0","0","0","23673","","null","","","null","2","","NaN","","","","","","","","","","","","","",""
"","response","","html-keyboard-response","24","132670","0.0-1.0-23.0-0.0","0","0","23673","","349","","","75","2","","","1","2","training","adjacent","GF","7","6","P.jpg","R.jpg","1","0","0","",""
"","feedback","","html-keyboard-response","25","133683","0.0-1.0-24.0-0.0","0","0","23673","","null","","","null","2","","","","","","","","","","","","","","","",""
"","time_out","","html-keyboard-response","26","135699","0.0-1.0-26.0-0.0","0","0","23673","","null","","","null","2","","","","","","","","","","","","","","","",""
"","ITI","","html-keyboard-response","27","136703","0.0-1.0-27.0","0","0","23673","","null","","","null","2","","","","","","","","","","","","","","","NaN",""
"","S1","","html-keyboard-response","28","136969","0.0-1.0-29.0","0","0","23673","","null","","","null","3","","","","","","","","","","","","","","","",""
"","ISI","","html-keyboard-response","29","137978","0.0-1.0-30.0","0","0","23673","","null","","","null","3","NaN","","","","","","","","","","","","","","",""
"","S2","","html-keyboard-response","30","138238","0.0-1.0-31.0","0","0","23673","","null","","","null","3","","NaN","","","","","","","","","","","","","",""
"","response","","html-keyboard-response","31","138800","0.0-1.0-32.0-0.0","0","0","23673","","560","","","75","3","","","1","3","training","adjacent","EF","5","6","N.jpg","R.jpg","1","1","1","",""
"","feedback","","html-keyboard-response","32","139804","0.0-1.0-33.0-0.0","0","0","23673","","null","","","null","3","","","","","","","","","","","","","","","",""
"","ITI","","html-keyboard-response","33","140813","0.0-1.0-36.0","0","0","23673","","null","","","null","3","","","","","","","","","","","","","","","NaN",""
"","S1","","html-keyboard-response","34","141075","0.0-1.0-38.0","0","0","23673","","null","","","null","4","","","","","","","","","","","","","","","",""
"","ISI","","html-keyboard-response","35","142083","0.0-1.0-39.0","0","0","23673","","null","","","null","4","NaN","","","","","","","","","","","","","","",""
"","S2","","html-keyboard-response","36","142349","0.0-1.0-40.0","0","0","23673","","null","","","null","4","","NaN","","","","","","","","","","","","","",""
"","response","","html-keyboard-response","37","142947","0.0-1.0-41.0-0.0","0","0","23673","","596","","","75","4","","","1","4","training","adjacent","FG","6","7","R.jpg","P.jpg","1","1","1","",""
"","feedback","","html-keyboard-response","38","143956","0.0-1.0-42.0-0.0","0","0","23673","","null","","","null","4","","","","","","","","","","","","","","","",""
"","ITI","","html-keyboard-response","39","144965","0.0-1.0-45.0","0","0","23673","","null","","","null","4","","","","","","","","","","","","","","","NaN",""
"","S1","","html-keyboard-response","40","145231","0.0-1.0-47.0","0","0","23673","","null","","","null","5","","","","","","","","","","","","","","","",""
"","ISI","","html-keyboard-response","41","146235","0.0-1.0-48.0","0","0","23673","","null","","","null","5","NaN","","","","","","","","","","","","","","",""
"","S2","","html-keyboard-response","42","146499","0.0-1.0-49.0","0","0","23673","","null","","","null","5","","NaN","","","","","","","","","","","","","",""
"","response","","html-keyboard-response","43","147667","0.0-1.0-50.0-0.0","0","0","23673","","1166","","","75","5","","","1","5","training","adjacent","DC","4","3","M.jpg","Q.jpg","1","0","0","",""
"","feedback","","html-keyboard-response","44","148682","0.0-1.0-51.0-0.0","0","0","23673","","null","","","null","5","","","","","","","","","","","","","","","",""
"","time_out","","html-keyboard-response","45","150688","0.0-1.0-53.0-0.0","0","0","23673","","null","","","null","5","","","","","","","","","","","","","","","",""
"","ITI","","html-keyboard-response","46","151691","0.0-1.0-54.0","0","0","23673","","null","","","null","5","","","","","","","","","","","","","","","NaN",""
"","S1","","html-keyboard-response","47","151956","0.0-1.0-56.0","0","0","23673","","null","","","null","6","","","","","","","","","","","","","","","",""
"","ISI","","html-keyboard-response","48","152961","0.0-1.0-57.0","0","0","23673","","null","","","null","6","NaN","","","","","","","","","","","","","","",""
"","S2","","html-keyboard-response","49","153226","0.0-1.0-58.0","0","0","23673","","null","","","null","6","","NaN","","","","","","","","","","","","","",""
"","response","","html-keyboard-response","50","154011","0.0-1.0-59.0-0.0","0","0","23673","","781","","","68","6","","","1","6","training","adjacent","DC","4","3","M.jpg","Q.jpg","0","0","1","",""
"","feedback","","html-keyboard-response","51","155025","0.0-1.0-60.0-0.0","0","0","23673","","null","","","null","6","","","","","","","","","","","","","","","",""
"","ITI","","html-keyboard-response","52","156032","0.0-1.0-63.0","0","0","23673","","null","","","null","6","","","","","","","","","","","","","","","NaN",""
"","S1","","html-keyboard-response","53","156295","0.0-1.0-65.0","0","0","23673","","null","","","null","7","","","","","","","","","","","","","","","",""
"","ISI","","html-keyboard-response","54","157304","0.0-1.0-66.0","0","0","23673","","null","","","null","7","NaN","","","","","","","","","","","","","","",""
"","S2","","html-keyboard-response","55","157567","0.0-1.0-67.0","0","0","23673","","null","","","null","7","","NaN","","","","","","","","","","","","","",""
"","response","","html-keyboard-response","56","157935","0.0-1.0-68.0-0.0","0","0","23673","","366","","","68","7","","","1","7","training","adjacent","BC","2","3","L.jpg","Q.jpg","0","1","0","",""
"","feedback","","html-keyboard-response","57","158946","0.0-1.0-69.0-0.0","0","0","23673","","null","","","null","7","","","","","","","","","","","","","","","",""
"","time_out","","html-keyboard-response","58","160962","0.0-1.0-71.0-0.0","0","0","23673","","null","","","null","7","","","","","","","","","","","","","","","",""
"","ITI","","html-keyboard-response","59","161967","0.0-1.0-72.0","0","0","23673","","null","","","null","7","","","","","","","","","","","","","","","NaN",""
"","S1","","html-keyboard-response","60","162233","0.0-1.0-74.0","0","0","23673","","null","","","null","8","","","","","","","","","","","","","","","",""
"","ISI","","html-keyboard-response","61","163237","0.0-1.0-75.0","0","0","23673","","null","","","null","8","NaN","","","","","","","","","","","","","","",""
"","S2","","html-keyboard-response","62","163502","0.0-1.0-76.0","0","0","23673","","null","","","null","8","","NaN","","","","","","","","","","","","","",""
"","response","","html-keyboard-response","63","164249","0.0-1.0-77.0-0.0","0","0","23673","","745","","","68","8","","","1","8","training","adjacent","AB","1","2","O.jpg","L.jpg","0","1","0","",""
"","feedback","","html-keyboard-response","64","165256","0.0-1.0-78.0-0.0","0","0","23673","","null","","","null","8","","","","","","","","","","","","","","","",""
"","time_out","","html-keyboard-response","65","167272","0.0-1.0-80.0-0.0","0","0","23673","","null","","","null","8","","","","","","","","","","","","","","","",""
"","ITI","","html-keyboard-response","66","168281","0.0-1.0-81.0","0","0","23673","","null","","","null","8","","","","","","","","","","","","","","","NaN",""
"","S1","","html-keyboard-response","67","168545","0.0-1.0-83.0","0","0","23673","","null","","","null","9","","","","","","","","","","","","","","","",""
"","ISI","","html-keyboard-response","68","169551","0.0-1.0-84.0","0","0","23673","","null","","","null","9","NaN","","","","","","","","","","","","","","",""
"","S2","","html-keyboard-response","69","169814","0.0-1.0-85.0","0","0","23673","","null","","","null","9","","NaN","","","","","","","","","","","","","",""
"","response","","html-keyboard-response","70","170560","0.0-1.0-86.0-0.0","0","0","23673","","743","","","75","9","","","1","9","training","adjacent","DE","4","5","M.jpg","N.jpg","1","1","1","",""
"","feedback","","html-keyboard-response","71","171567","0.0-1.0-87.0-0.0","0","0","23673","","null","","","null","9","","","","","","","","","","","","","","","",""
"","ITI","","html-keyboard-response","72","172573","0.0-1.0-90.0","0","0","23673","","null","","","null","9","","","","","","","","","","","","","","","NaN",""
"","S1","","html-keyboard-response","73","172836","0.0-1.0-92.0","0","0","23673","","null","","","null","10","","","","","","","","","","","","","","","",""
"","ISI","","html-keyboard-response","74","173843","0.0-1.0-93.0","0","0","23673","","null","","","null","10","NaN","","","","","","","","","","","","","","",""
"","S2","","html-keyboard-response","75","174107","0.0-1.0-94.0","0","0","23673","","null","","","null","10","","NaN","","","","","","","","","","","","","",""
"","response","","html-keyboard-response","76","174356","0.0-1.0-95.0-0.0","0","0","23673","","246","","","75","10","","","1","10","training","adjacent","FE","6","5","R.jpg","N.jpg","1","0","0","",""
"","feedback","","html-keyboard-response","77","175365","0.0-1.0-96.0-0.0","0","0","23673","","null","","","null","10","","","","","","","","","","","","","","","",""
"","time_out","","html-keyboard-response","78","177381","0.0-1.0-98.0-0.0","0","0","23673","","null","","","null","10","","","","","","","","","","","","","","","",""
"","ITI","","html-keyboard-response","79","178393","0.0-1.0-99.0","0","0","23673","","null","","","null","10","","","","","","","","","","","","","","","NaN",""
"","S1","","html-keyboard-response","80","178652","0.0-1.0-101.0","0","0","23673","","null","","","null","11","","","","","","","","","","","","","","","",""
"","ISI","","html-keyboard-response","81","179665","0.0-1.0-102.0","0","0","23673","","null","","","null","11","NaN","","","","","","","","","","","","","","",""
"","S2","","html-keyboard-response","82","179924","0.0-1.0-103.0","0","0","23673","","null","","","null","11","","NaN","","","","","","","","","","","","","",""
"","response","","html-keyboard-response","83","180321","0.0-1.0-104.0-0.0","0","0","23673","","394","","","68","11","","","1","11","training","adjacent","BC","2","3","L.jpg","Q.jpg","0","1","0","",""
"","feedback","","html-keyboard-response","84","181337","0.0-1.0-105.0-0.0","0","0","23673","","null","","","null","11","","","","","","","","","","","","","","","",""
"","time_out","","html-keyboard-response","85","183350","0.0-1.0-107.0-0.0","0","0","23673","","null","","","null","11","","","","","","","","","","","","","","","",""
"","ITI","","html-keyboard-response","86","184356","0.0-1.0-108.0","0","0","23673","","null","","","null","11","","","","","","","","","","","","","","","NaN",""
"","S1","","html-keyboard-response","87","184619","0.0-1.0-110.0","0","0","23673","","null","","","null","12","","","","","","","","","","","","","","","",""
"","ISI","","html-keyboard-response","88","185625","0.0-1.0-111.0","0","0","23673","","null","","","null","12","NaN","","","","","","","","","","","","","","",""
"","S2","","html-keyboard-response","89","185891","0.0-1.0-112.0","0","0","23673","","null","","","null","12","","NaN","","","","","","","","","","","","","",""
"","response","","html-keyboard-response","90","186529","0.0-1.0-113.0-0.0","0","0","23673","","634","","","68","12","","","1","12","training","adjacent","AB","1","2","O.jpg","L.jpg","0","1","0","",""
"","feedback","","html-keyboard-response","91","187535","0.0-1.0-114.0-0.0","0","0","23673","","null","","","null","12","","","","","","","","","","","","","","","",""
"","time_out","","html-keyboard-response","92","189545","0.0-1.0-116.0-0.0","0","0","23673","","null","","","null","12","","","","","","","","","","","","","","","",""
"","ITI","","html-keyboard-response","93","190554","0.0-1.0-117.0","0","0","23673","","null","","","null","12","","","","","","","","","","","","","","","NaN",""
"","S1","","html-keyboard-response","94","190815","0.0-1.0-119.0","0","0","23673","","null","","","null","13","","","","","","","","","","","","","","","",""
"","ISI","","html-keyboard-response","95","191822","0.0-1.0-120.0","0","0","23673","","null","","","null","13","NaN","","","","","","","","","","","","","","",""
"","S2","","html-keyboard-response","96","192084","0.0-1.0-121.0","0","0","23673","","null","","","null","13","","NaN","","","","","","","","","","","","","",""
"","response","","html-keyboard-response","97","192719","0.0-1.0-122.0-0.0","0","0","23673","","634","","","68","13","","","1","13","training","adjacent","CB","3","2","Q.jpg","L.jpg","0","0","1","",""
"","feedback","","html-keyboard-response","98","193728","0.0-1.0-123.0-0.0","0","0","23673","","null","","","null","13","","","","","","","","","","","","","","","",""
"","ITI","","html-keyboard-response","99","194738","0.0-1.0-126.0","0","0","23673","","null","","","null","13","","","","","","","","","","","","","","","NaN",""
"","S1","","html-keyboard-response","100","195001","0.0-1.0-128.0","0","0","23673","","null","","","null","14","","","","","","","","","","","","","","","",""
"","ISI","","html-keyboard-response","101","196009","0.0-1.0-129.0","0","0","23673","","null","","","null","14","NaN","","","","","","","","","","","","","","",""
"","S2","","html-keyboard-response","102","196273","0.0-1.0-130.0","0","0","23673","","null","","","null","14","","NaN","","","","","","","","","","","","","",""
"","response","","html-keyboard-response","103","196529","0.0-1.0-131.0-0.0","0","0","23673","","254","","","75","14","","","1","14","training","adjacent","BA","2","1","L.jpg","O.jpg","1","0","0","",""
"","feedback","","html-keyboard-response","104","197539","0.0-1.0-132.0-0.0","0","0","23673","","null","","","null","14","","","","","","","","","","","","","","","",""
"","time_out","","html-keyboard-response","105","199542","0.0-1.0-134.0-0.0","0","0","23673","","null","","","null","14","","","","","","","","","","","","","","","",""
"","ITI","","html-keyboard-response","106","200550","0.0-1.0-135.0","0","0","23673","","null","","","null","14","","","","","","","","","","","","","","","NaN",""
"","S1","","html-keyboard-response","107","200816","0.0-1.0-137.0","0","0","23673","","null","","","null","15","","","","","","","","","","","","","","","",""
"","ISI","","html-keyboard-response","108","201826","0.0-1.0-138.0","0","0","23673","","null","","","null","15","NaN","","","","","","","","","","","","","","",""
"","S2","","html-keyboard-response","109","202089","0.0-1.0-139.0","0","0","23673","","null","","","null","15","","NaN","","","","","","","","","","","","","",""
"","response","","html-keyboard-response","110","202361","0.0-1.0-140.0-0.0","0","0","23673","","268","","","68","15","","","1","15","training","adjacent","CB","3","2","Q.jpg","L.jpg","0","0","1","",""
"","feedback","","html-keyboard-response","111","203370","0.0-1.0-141.0-0.0","0","0","23673","","null","","","null","15","","","","","","","","","","","","","","","",""
"","ITI","","html-keyboard-response","112","204380","0.0-1.0-144.0","0","0","23673","","null","","","null","15","","","","","","","","","","","","","","","NaN",""
"","S1","","html-keyboard-response","113","204643","0.0-1.0-146.0","0","0","23673","","null","","","null","16","","","","","","","","","","","","","","","",""
"","ISI","","html-keyboard-response","114","205647","0.0-1.0-147.0","0","0","23673","","null","","","null","16","NaN","","","","","","","","","","","","","","",""
"","S2","","html-keyboard-response","115","205914","0.0-1.0-148.0","0","0","23673","","null","","","null","16","","NaN","","","","","","","","","","","","","",""
"","response","","html-keyboard-response","116","206191","0.0-1.0-149.0-0.0","0","0","23673","","272","","","75","16","","","1","16","training","adjacent","DC","4","3","M.jpg","Q.jpg","1","0","0","",""
"","feedback","","html-keyboard-response","117","207200","0.0-1.0-150.0-0.0","0","0","23673","","null","","","null","16","","","","","","","","","","","","","","","",""
"","time_out","","html-keyboard-response","118","209218","0.0-1.0-152.0-0.0","0","0","23673","","null","","","null","16","","","","","","","","","","","","","","","",""
"","ITI","","html-keyboard-response","119","210227","0.0-1.0-153.0","0","0","23673","","null","","","null","16","","","","","","","","","","","","","","","NaN",""
"","S1","","html-keyboard-response","120","210489","0.0-1.0-155.0","0","0","23673","","null","","","null","17","","","","","","","","","","","","","","","",""
"","ISI","","html-keyboard-response","121","211498","0.0-1.0-156.0","0","0","23673","","null","","","null","17","NaN","","","","","","","","","","","","","","",""
"","S2","","html-keyboard-response","122","211760","0.0-1.0-157.0","0","0","23673","","null","","","null","17","","NaN","","","","","","","","","","","","","",""
"","response","","html-keyboard-response","123","212265","0.0-1.0-158.0-0.0","0","0","23673","","504","","","68","17","","","1","17","training","adjacent","CD","3","4","Q.jpg","M.jpg","0","1","0","",""
"","feedback","","html-keyboard-response","124","213279","0.0-1.0-159.0-0.0","0","0","23673","","null","","","null","17","","","","","","","","","","","","","","","",""
"","time_out","","html-keyboard-response","125","215288","0.0-1.0-161.0-0.0","0","0","23673","","null","","","null","17","","","","","","","","","","","","","","","",""
"","ITI","","html-keyboard-response","126","216299","0.0-1.0-162.0","0","0","23673","","null","","","null","17","","","","","","","","","","","","","","","NaN",""
"","S1","","html-keyboard-response","127","216562","0.0-1.0-164.0","0","0","23673","","null","","","null","18","","","","","","","","","","","","","","","",""
"","ISI","","html-keyboard-response","128","217568","0.0-1.0-165.0","0","0","23673","","null","","","null","18","NaN","","","","","","","","","","","","","","",""
"","S2","","html-keyboard-response","129","217831","0.0-1.0-166.0","0","0","23673","","null","","","null","18","","NaN","","","","","","","","","","","","","",""
"","response","","html-keyboard-response","130","218483","0.0-1.0-167.0-0.0","0","0","23673","","649","","","68","18","","","1","18","training","adjacent","EF","5","6","N.jpg","R.jpg","0","1","0","",""
"","feedback","","html-keyboard-response","131","219488","0.0-1.0-168.0-0.0","0","0","23673","","null","","","null","18","","","","","","","","","","","","","","","",""
"","time_out","","html-keyboard-response","132","221502","0.0-1.0-170.0-0.0","0","0","23673","","null","","","null","18","","","","","","","","","","","","","","","",""
"","ITI","","html-keyboard-response","133","222509","0.0-1.0-171.0","0","0","23673","","null","","","null","18","","","","","","","","","","","","","","","NaN",""
"","S1","","html-keyboard-response","134","222773","0.0-1.0-173.0","0","0","23673","","null","","","null","19","","","","","","","","","","","","","","","",""
"","ISI","","html-keyboard-response","135","223780","0.0-1.0-174.0","0","0","23673","","null","","","null","19","NaN","","","","","","","","","","","","","","",""
"","S2","","html-keyboard-response","136","224044","0.0-1.0-175.0","0","0","23673","","null","","","null","19","","NaN","","","","","","","","","","","","","",""
"","response","","html-keyboard-response","137","224483","0.0-1.0-176.0-0.0","0","0","23673","","436","","","68","19","","","1","19","training","adjacent","GF","7","6","P.jpg","R.jpg","0","0","1","",""
"","feedback","","html-keyboard-response","138","225487","0.0-1.0-177.0-0.0","0","0","23673","","null","","","null","19","","","","","","","","","","","","","","","",""
"","ITI","","html-keyboard-response","139","226492","0.0-1.0-180.0","0","0","23673","","null","","","null","19","","","","","","","","","","","","","","","NaN",""
"","S1","","html-keyboard-response","140","226756","0.0-1.0-182.0","0","0","23673","","null","","","null","20","","","","","","","","","","","","","","","",""
"","ISI","","html-keyboard-response","141","227762","0.0-1.0-183.0","0","0","23673","","null","","","null","20","NaN","","","","","","","","","","","","","","",""
"","S2","","html-keyboard-response","142","228027","0.0-1.0-184.0","0","0","23673","","null","","","null","20","","NaN","","","","","","","","","","","","","",""
"","response","","html-keyboard-response","143","228632","0.0-1.0-185.0-0.0","0","0","23673","","600","","","68","20","","","1","20","training","adjacent","DE","4","5","M.jpg","N.jpg","0","1","0","",""
"","feedback","","html-keyboard-response","144","229642","0.0-1.0-186.0-0.0","0","0","23673","","null","","","null","20","","","","","","","","","","","","","","","",""
"","time_out","","html-keyboard-response","145","231646","0.0-1.0-188.0-0.0","0","0","23673","","null","","","null","20","","","","","","","","","","","","","","","",""
"","ITI","","html-keyboard-response","146","232657","0.0-1.0-189.0","0","0","23673","","null","","","null","20","","","","","","","","","","","","","","","NaN",""
"","S1","","html-keyboard-response","147","232920","0.0-1.0-191.0","0","0","23673","","null","","","null","21","","","","","","","","","","","","","","","",""
"","ISI","","html-keyboard-response","148","233926","0.0-1.0-192.0","0","0","23673","","null","","","null","21","NaN","","","","","","","","","","","","","","",""
"","S2","","html-keyboard-response","149","234188","0.0-1.0-193.0","0","0","23673","","null","","","null","21","","NaN","","","","","","","","","","","","","",""
"","response","","html-keyboard-response","150","234410","0.0-1.0-194.0-0.0","0","0","23673","","221","","","75","21","","","1","21","training","adjacent","BA","2","1","L.jpg","O.jpg","1","0","0","",""
"","feedback","","html-keyboard-response","151","235417","0.0-1.0-195.0-0.0","0","0","23673","","null","","","null","21","","","","","","","","","","","","","","","",""
"","time_out","","html-keyboard-response","152","237421","0.0-1.0-197.0-0.0","0","0","23673","","null","","","null","21","","","","","","","","","","","","","","","",""
"","ITI","","html-keyboard-response","153","238427","0.0-1.0-198.0","0","0","23673","","null","","","null","21","","","","","","","","","","","","","","","NaN",""
"","S1","","html-keyboard-response","154","238692","0.0-1.0-200.0","0","0","23673","","null","","","null","22","","","","","","","","","","","","","","","",""
"","ISI","","html-keyboard-response","155","239699","0.0-1.0-201.0","0","0","23673","","null","","","null","22","NaN","","","","","","","","","","","","","","",""
"","S2","","html-keyboard-response","156","239962","0.0-1.0-202.0","0","0","23673","","null","","","null","22","","NaN","","","","","","","","","","","","","",""
"","response","","html-keyboard-response","157","240228","0.0-1.0-203.0-0.0","0","0","23673","","262","","","68","22","","","1","22","training","adjacent","GF","7","6","P.jpg","R.jpg","0","0","1","",""
"","feedback","","html-keyboard-response","158","241234","0.0-1.0-204.0-0.0","0","0","23673","","null","","","null","22","","","","","","","","","","","","","","","",""
"","ITI","","html-keyboard-response","159","242240","0.0-1.0-207.0","0","0","23673","","null","","","null","22","","","","","","","","","","","","","","","NaN",""
"","S1","","html-keyboard-response","160","242503","0.0-1.0-209.0","0","0","23673","","null","","","null","23","","","","","","","","","","","","","","","",""
"","ISI","","html-keyboard-response","161","243512","0.0-1.0-210.0","0","0","23673","","null","","","null","23","NaN","","","","","","","","","","","","","","",""
"","S2","","html-keyboard-response","162","243779","0.0-1.0-211.0","0","0","23673","","null","","","null","23","","NaN","","","","","","","","","","","","","",""
"","response","","html-keyboard-response","163","244012","0.0-1.0-212.0-0.0","0","0","23673","","228","","","75","23","","","1","23","training","adjacent","FG","6","7","R.jpg","P.jpg","1","1","1","",""
"","feedback","","html-keyboard-response","164","245022","0.0-1.0-213.0-0.0","0","0","23673","","null","","","null","23","","","","","","","","","","","","","","","",""
"","ITI","","html-keyboard-response","165","246028","0.0-1.0-216.0","0","0","23673","","null","","","null","23","","","","","","","","","","","","","","","NaN",""
"","S1","","html-keyboard-response","166","246293","0.0-1.0-218.0","0","0","23673","","null","","","null","24","","","","","","","","","","","","","","","",""
"","ISI","","html-keyboard-response","167","247298","0.0-1.0-219.0","0","0","23673","","null","","","null","24","NaN","","","","","","","","","","","","","","",""
"","S2","","html-keyboard-response","168","247561","0.0-1.0-220.0","0","0","23673","","null","","","null","24","","NaN","","","","","","","","","","","","","",""
"","response","","html-keyboard-response","169","247805","0.0-1.0-221.0-0.0","0","0","23673","","242","","","68","24","","","1","24","training","adjacent","GF","7","6","P.jpg","R.jpg","0","0","1","",""
"","feedback","","html-keyboard-response","170","248817","0.0-1.0-222.0-0.0","0","0","23673","","null","","","null","24","","","","","","","","","","","","","","","",""
"","ITI","","html-keyboard-response","171","249828","0.0-1.0-225.0","0","0","23673","","null","","","null","24","","","","","","","","","","","","","","","NaN",""
"","S1","","html-keyboard-response","172","250092","0.0-1.0-227.0","0","0","23673","","null","","","null","25","","","","","","","","","","","","","","","",""
"","ISI","","html-keyboard-response","173","251101","0.0-1.0-228.0","0","0","23673","","null","","","null","25","NaN","","","","","","","","","","","","","","",""
"","S2","","html-keyboard-response","174","251363","0.0-1.0-229.0","0","0","23673","","null","","","null","25","","NaN","","","","","","","","","","","","","",""
"","response","","html-keyboard-response","175","251690","0.0-1.0-230.0-0.0","0","0","23673","","326","","","75","25","","","1","25","training","adjacent","ED","5","4","N.jpg","M.jpg","1","0","0","",""
"","feedback","","html-keyboard-response","176","252696","0.0-1.0-231.0-0.0","0","0","23673","","null","","","null","25","","","","","","","","","","","","","","","",""
"","time_out","","html-keyboard-response","177","254710","0.0-1.0-233.0-0.0","0","0","23673","","null","","","null","25","","","","","","","","","","","","","","","",""
"","ITI","","html-keyboard-response","178","255723","0.0-1.0-234.0","0","0","23673","","null","","","null","25","","","","","","","","","","","","","","","NaN",""
"","S1","","html-keyboard-response","179","255984","0.0-1.0-236.0","0","0","23673","","null","","","null","26","","","","","","","","","","","","","","","",""
"","ISI","","html-keyboard-response","180","256988","0.0-1.0-237.0","0","0","23673","","null","","","null","26","NaN","","","","","","","","","","","","","","",""
"","S2","","html-keyboard-response","181","257253","0.0-1.0-238.0","0","0","23673","","null","","","null","26","","NaN","","","","","","","","","","","","","",""
"","response","","html-keyboard-response","182","257510","0.0-1.0-239.0-0.0","0","0","23673","","254","","","75","26","","","1","26","training","adjacent","BC","2","3","L.jpg","Q.jpg","1","1","1","",""
"","feedback","","html-keyboard-response","183","258521","0.0-1.0-240.0-0.0","0","0","23673","","null","","","null","26","","","","","","","","","","","","","","","",""
"","ITI","","html-keyboard-response","184","259528","0.0-1.0-243.0","0","0","23673","","null","","","null","26","","","","","","","","","","","","","","","NaN",""
"","S1","","html-keyboard-response","185","259791","0.0-1.0-245.0","0","0","23673","","null","","","null","27","","","","","","","","","","","","","","","",""
"","ISI","","html-keyboard-response","186","260795","0.0-1.0-246.0","0","0","23673","","null","","","null","27","NaN","","","","","","","","","","","","","","",""
"","S2","","html-keyboard-response","187","261059","0.0-1.0-247.0","0","0","23673","","null","","","null","27","","NaN","","","","","","","","","","","","","",""
"","response","","html-keyboard-response","188","261247","0.0-1.0-248.0-0.0","0","0","23673","","184","","","75","27","","","1","27","training","adjacent","AB","1","2","O.jpg","L.jpg","1","1","1","",""
"","feedback","","html-keyboard-response","189","262254","0.0-1.0-249.0-0.0","0","0","23673","","null","","","null","27","","","","","","","","","","","","","","","",""
"","ITI","","html-keyboard-response","190","263259","0.0-1.0-252.0","0","0","23673","","null","","","null","27","","","","","","","","","","","","","","","NaN",""
"","S1","","html-keyboard-response","191","263522","0.0-1.0-254.0","0","0","23673","","null","","","null","28","","","","","","","","","","","","","","","",""
"","ISI","","html-keyboard-response","192","264529","0.0-1.0-255.0","0","0","23673","","null","","","null","28","NaN","","","","","","","","","","","","","","",""
"","S2","","html-keyboard-response","193","264794","0.0-1.0-256.0","0","0","23673","","null","","","null","28","","NaN","","","","","","","","","","","","","",""
"","response","","html-keyboard-response","194","264973","0.0-1.0-257.0-0.0","0","0","23673","","177","","","75","28","","","1","28","training","adjacent","AB","1","2","O.jpg","L.jpg","1","1","1","",""
"","feedback","","html-keyboard-response","195","265991","0.0-1.0-258.0-0.0","0","0","23673","","null","","","null","28","","","","","","","","","","","","","","","",""
"","ITI","","html-keyboard-response","196","267000","0.0-1.0-261.0","0","0","23673","","null","","","null","28","","","","","","","","","","","","","","","NaN",""
"","S1","","html-keyboard-response","197","267263","0.0-1.0-263.0","0","0","23673","","null","","","null","29","","","","","","","","","","","","","","","",""
"","ISI","","html-keyboard-response","198","268269","0.0-1.0-264.0","0","0","23673","","null","","","null","29","NaN","","","","","","","","","","","","","","",""
"","S2","","html-keyboard-response","199","268532","0.0-1.0-265.0","0","0","23673","","null","","","null","29","","NaN","","","","","","","","","","","","","",""
"","response","","html-keyboard-response","200","268802","0.0-1.0-266.0-0.0","0","0","23673","","266","","","75","29","","","1","29","training","adjacent","FE","6","5","R.jpg","N.jpg","1","0","0","",""
"","feedback","","html-keyboard-response","201","269818","0.0-1.0-267.0-0.0","0","0","23673","","null","","","null","29","","","","","","","","","","","","","","","",""
"","time_out","","html-keyboard-response","202","271831","0.0-1.0-269.0-0.0","0","0","23673","","null","","","null","29","","","","","","","","","","","","","","","",""
"","ITI","","html-keyboard-response","203","272836","0.0-1.0-270.0","0","0","23673","","null","","","null","29","","","","","","","","","","","","","","","NaN",""
"","S1","","html-keyboard-response","204","273100","0.0-1.0-272.0","0","0","23673","","null","","","null","30","","","","","","","","","","","","","","","",""
"","ISI","","html-keyboard-response","205","274107","0.0-1.0-273.0","0","0","23673","","null","","","null","30","NaN","","","","","","","","","","","","","","",""
"","S2","","html-keyboard-response","206","274372","0.0-1.0-274.0","0","0","23673","","null","","","null","30","","NaN","","","","","","","","","","","","","",""
"","response","","html-keyboard-response","207","274587","0.0-1.0-275.0-0.0","0","0","23673","","212","","","75","30","","","1","30","training","adjacent","FG","6","7","R.jpg","P.jpg","1","1","1","",""
"","feedback","","html-keyboard-response","208","275595","0.0-1.0-276.0-0.0","0","0","23673","","null","","","null","30","","","","","","","","","","","","","","","",""
"","ITI","","html-keyboard-response","209","276604","0.0-1.0-279.0","0","0","23673","","null","","","null","30","","","","","","","","","","","","","","","NaN",""
"","S1","","html-keyboard-response","210","276869","0.0-1.0-281.0","0","0","23673","","null","","","null","31","","","","","","","","","","","","","","","",""
"","ISI","","html-keyboard-response","211","277873","0.0-1.0-282.0","0","0","23673","","null","","","null","31","NaN","","","","","","","","","","","","","","",""
"","S2","","html-keyboard-response","212","278138","0.0-1.0-283.0","0","0","23673","","null","","","null","31","","NaN","","","","","","","","","","","","","",""
"","response","","html-keyboard-response","213","278359","0.0-1.0-284.0-0.0","0","0","23673","","219","","","75","31","","","1","31","training","adjacent","FE","6","5","R.jpg","N.jpg","1","0","0","",""
"","feedback","","html-keyboard-response","214","279377","0.0-1.0-285.0-0.0","0","0","23673","","null","","","null","31","","","","","","","","","","","","","","","",""
"","time_out","","html-keyboard-response","215","281395","0.0-1.0-287.0-0.0","0","0","23673","","null","","","null","31","","","","","","","","","","","","","","","",""
"","ITI","","html-keyboard-response","216","282414","0.0-1.0-288.0","0","0","23673","","null","","","null","31","","","","","","","","","","","","","","","NaN",""
"","S1","","html-keyboard-response","217","282679","0.0-1.0-290.0","0","0","23673","","null","","","null","32","","","","","","","","","","","","","","","",""
"","ISI","","html-keyboard-response","218","283687","0.0-1.0-291.0","0","0","23673","","null","","","null","32","NaN","","","","","","","","","","","","","","",""
"","S2","","html-keyboard-response","219","283949","0.0-1.0-292.0","0","0","23673","","null","","","null","32","","NaN","","","","","","","","","","","","","",""
"","response","","html-keyboard-response","220","284292","0.0-1.0-293.0-0.0","0","0","23673","","340","","","68","32","","","1","32","training","adjacent","DE","4","5","M.jpg","N.jpg","0","1","0","",""
"","feedback","","html-keyboard-response","221","285297","0.0-1.0-294.0-0.0","0","0","23673","","null","","","null","32","","","","","","","","","","","","","","","",""
"","time_out","","html-keyboard-response","222","287314","0.0-1.0-296.0-0.0","0","0","23673","","null","","","null","32","","","","","","","","","","","","","","","",""
"","ITI","","html-keyboard-response","223","288322","0.0-1.0-297.0","0","0","23673","","null","","","null","32","","","","","","","","","","","","","","","NaN",""
"","S1","","html-keyboard-response","224","288585","0.0-1.0-299.0","0","0","23673","","null","","","null","33","","","","","","","","","","","","","","","",""
"","ISI","","html-keyboard-response","225","289595","0.0-1.0-300.0","0","0","23673","","null","","","null","33","NaN","","","","","","","","","","","","","","",""
"","S2","","html-keyboard-response","226","289855","0.0-1.0-301.0","0","0","23673","","null","","","null","33","","NaN","","","","","","","","","","","","","",""
"","response","","html-keyboard-response","227","290089","0.0-1.0-302.0-0.0","0","0","23673","","231","","","75","33","","","1","33","training","adjacent","ED","5","4","N.jpg","M.jpg","1","0","0","",""
"","feedback","","html-keyboard-response","228","291096","0.0-1.0-303.0-0.0","0","0","23673","","null","","","null","33","","","","","","","","","","","","","","","",""
"","time_out","","html-keyboard-response","229","293107","0.0-1.0-305.0-0.0","0","0","23673","","null","","","null","33","","","","","","","","","","","","","","","",""
"","ITI","","html-keyboard-response","230","294113","0.0-1.0-306.0","0","0","23673","","null","","","null","33","","","","","","","","","","","","","","","NaN",""
"","S1","","html-keyboard-response","231","294375","0.0-1.0-308.0","0","0","23673","","null","","","null","34","","","","","","","","","","","","","","","",""
"","ISI","","html-keyboard-response","232","295386","0.0-1.0-309.0","0","0","23673","","null","","","null","34","NaN","","","","","","","","","","","","","","",""
"","S2","","html-keyboard-response","233","295648","0.0-1.0-310.0","0","0","23673","","null","","","null","34","","NaN","","","","","","","","","","","","","",""
"","response","","html-keyboard-response","234","296053","0.0-1.0-311.0-0.0","0","0","23673","","403","","","68","34","","","1","34","training","adjacent","BC","2","3","L.jpg","Q.jpg","0","1","0","",""
"","feedback","","html-keyboard-response","235","297059","0.0-1.0-312.0-0.0","0","0","23673","","null","","","null","34","","","","","","","","","","","","","","","",""
"","time_out","","html-keyboard-response","236","299072","0.0-1.0-314.0-0.0","0","0","23673","","null","","","null","34","","","","","","","","","","","","","","","",""
"","ITI","","html-keyboard-response","237","300080","0.0-1.0-315.0","0","0","23673","","null","","","null","34","","","","","","","","","","","","","","","NaN",""
"","S1","","html-keyboard-response","238","300345","0.0-1.0-317.0","0","0","23673","","null","","","null","35","","","","","","","","","","","","","","","",""
"","ISI","","html-keyboard-response","239","301350","0.0-1.0-318.0","0","0","23673","","null","","","null","35","NaN","","","","","","","","","","","","","","",""
"","S2","","html-keyboard-response","240","301613","0.0-1.0-319.0","0","0","23673","","null","","","null","35","","NaN","","","","","","","","","","","","","",""
"","response","","html-keyboard-response","241","301792","0.0-1.0-320.0-0.0","0","0","23673","","176","","","68","35","","","1","35","training","adjacent","ED","5","4","N.jpg","M.jpg","0","0","1","",""
"","feedback","","html-keyboard-response","242","302804","0.0-1.0-321.0-0.0","0","0","23673","","null","","","null","35","","","","","","","","","","","","","","","",""
"","ITI","","html-keyboard-response","243","303810","0.0-1.0-324.0","0","0","23673","","null","","","null","35","","","","","","","","","","","","","","","NaN",""
"","S1","","html-keyboard-response","244","304074","0.0-1.0-326.0","0","0","23673","","null","","","null","36","","","","","","","","","","","","","","","",""
"","ISI","","html-keyboard-response","245","305079","0.0-1.0-327.0","0","0","23673","","null","","","null","36","NaN","","","","","","","","","","","","","","",""
"","S2","","html-keyboard-response","246","305343","0.0-1.0-328.0","0","0","23673","","null","","","null","36","","NaN","","","","","","","","","","","","","",""
"","response","","html-keyboard-response","247","305678","0.0-1.0-329.0-0.0","0","0","23673","","334","","","68","36","","","1","36","training","adjacent","DE","4","5","M.jpg","N.jpg","0","1","0","",""
"","feedback","","html-keyboard-response","248","306689","0.0-1.0-330.0-0.0","0","0","23673","","null","","","null","36","","","","","","","","","","","","","","","",""
"","time_out","","html-keyboard-response","249","308702","0.0-1.0-332.0-0.0","0","0","23673","","null","","","null","36","","","","","","","","","","","","","","","",""
"","ITI","","html-keyboard-response","250","309711","0.0-1.0-333.0","0","0","23673","","null","","","null","36","","","","","","","","","","","","","","","NaN",""
"","S1","","html-keyboard-response","251","309976","0.0-1.0-335.0","0","0","23673","","null","","","null","37","","","","","","","","","","","","","","","",""
"","ISI","","html-keyboard-response","252","310983","0.0-1.0-336.0","0","0","23673","","null","","","null","37","NaN","","","","","","","","","","","","","","",""
"","S2","","html-keyboard-response","253","311248","0.0-1.0-337.0","0","0","23673","","null","","","null","37","","NaN","","","","","","","","","","","","","",""
"","response","","html-keyboard-response","254","311480","0.0-1.0-338.0-0.0","0","0","23673","","227","","","68","37","","","1","37","training","adjacent","CD","3","4","Q.jpg","M.jpg","0","1","0","",""
"","feedback","","html-keyboard-response","255","312487","0.0-1.0-339.0-0.0","0","0","23673","","null","","","null","37","","","","","","","","","","","","","","","",""
"","time_out","","html-keyboard-response","256","314503","0.0-1.0-341.0-0.0","0","0","23673","","null","","","null","37","","","","","","","","","","","","","","","",""
"","ITI","","html-keyboard-response","257","315510","0.0-1.0-342.0","0","0","23673","","null","","","null","37","","","","","","","","","","","","","","","NaN",""
"","S1","","html-keyboard-response","258","315773","0.0-1.0-344.0","0","0","23673","","null","","","null","38","","","","","","","","","","","","","","","",""
"","ISI","","html-keyboard-response","259","316784","0.0-1.0-345.0","0","0","23673","","null","","","null","38","NaN","","","","","","","","","","","","","","",""
"","S2","","html-keyboard-response","260","317047","0.0-1.0-346.0","0","0","23673","","null","","","null","38","","NaN","","","","","","","","","","","","","",""
"","response","","html-keyboard-response","261","317349","0.0-1.0-347.0-0.0","0","0","23673","","300","","","75","38","","","1","38","training","adjacent","EF","5","6","N.jpg","R.jpg","1","1","1","",""
"","feedback","","html-keyboard-response","262","318362","0.0-1.0-348.0-0.0","0","0","23673","","null","","","null","38","","","","","","","","","","","","","","","",""
"","ITI","","html-keyboard-response","263","319371","0.0-1.0-351.0","0","0","23673","","null","","","null","38","","","","","","","","","","","","","","","NaN",""
"","S1","","html-keyboard-response","264","319636","0.0-1.0-353.0","0","0","23673","","null","","","null","39","","","","","","","","","","","","","","","",""
"","ISI","","html-keyboard-response","265","320644","0.0-1.0-354.0","0","0","23673","","null","","","null","39","NaN","","","","","","","","","","","","","","",""
"","S2","","html-keyboard-response","266","320907","0.0-1.0-355.0","0","0","23673","","null","","","null","39","","NaN","","","","","","","","","","","","","",""
"","response","","html-keyboard-response","267","321311","0.0-1.0-356.0-0.0","0","0","23673","","403","","","68","39","","","1","39","training","adjacent","CB","3","2","Q.jpg","L.jpg","0","0","1","",""
"","feedback","","html-keyboard-response","268","322316","0.0-1.0-357.0-0.0","0","0","23673","","null","","","null","39","","","","","","","","","","","","","","","",""
"","ITI","","html-keyboard-response","269","323324","0.0-1.0-360.0","0","0","23673","","null","","","null","39","","","","","","","","","","","","","","","NaN",""
"","S1","","html-keyboard-response","270","323586","0.0-1.0-362.0","0","0","23673","","null","","","null","40","","","","","","","","","","","","","","","",""
"","ISI","","html-keyboard-response","271","324592","0.0-1.0-363.0","0","0","23673","","null","","","null","40","NaN","","","","","","","","","","","","","","",""
"","S2","","html-keyboard-response","272","324853","0.0-1.0-364.0","0","0","23673","","null","","","null","40","","NaN","","","","","","","","","","","","","",""
"","response","","html-keyboard-response","273","325210","0.0-1.0-365.0-0.0","0","0","23673","","354","","","68","40","","","1","40","training","adjacent","BA","2","1","L.jpg","O.jpg","0","0","1","",""
"","feedback","","html-keyboard-response","274","326221","0.0-1.0-366.0-0.0","0","0","23673","","null","","","null","40","","","","","","","","","","","","","","","",""
"","ITI","","html-keyboard-response","275","327232","0.0-1.0-369.0","0","0","23673","","null","","","null","40","","","","","","","","","","","","","","","NaN",""
"","S1","","html-keyboard-response","276","327495","0.0-1.0-371.0","0","0","23673","","null","","","null","41","","","","","","","","","","","","","","","",""
"","ISI","","html-keyboard-response","277","328505","0.0-1.0-372.0","0","0","23673","","null","","","null","41","NaN","","","","","","","","","","","","","","",""
"","S2","","html-keyboard-response","278","328768","0.0-1.0-373.0","0","0","23673","","null","","","null","41","","NaN","","","","","","","","","","","","","",""
"","response","","html-keyboard-response","279","328993","0.0-1.0-374.0-0.0","0","0","23673","","224","","","68","41","","","1","41","training","adjacent","CB","3","2","Q.jpg","L.jpg","0","0","1","",""
"","feedback","","html-keyboard-response","280","330011","0.0-1.0-375.0-0.0","0","0","23673","","null","","","null","41","","","","","","","","","","","","","","","",""
"","ITI","","html-keyboard-response","281","331021","0.0-1.0-378.0","0","0","23673","","null","","","null","41","","","","","","","","","","","","","","","NaN",""
"","S1","","html-keyboard-response","282","331287","0.0-1.0-380.0","0","0","23673","","null","","","null","42","","","","","","","","","","","","","","","",""
"","ISI","","html-keyboard-response","283","332292","0.0-1.0-381.0","0","0","23673","","null","","","null","42","NaN","","","","","","","","","","","","","","",""
"","S2","","html-keyboard-response","284","332556","0.0-1.0-382.0","0","0","23673","","null","","","null","42","","NaN","","","","","","","","","","","","","",""
"","response","","html-keyboard-response","285","332992","0.0-1.0-383.0-0.0","0","0","23673","","433","","","68","42","","","1","42","training","adjacent","BA","2","1","L.jpg","O.jpg","0","0","1","",""
"","feedback","","html-keyboard-response","286","333999","0.0-1.0-384.0-0.0","0","0","23673","","null","","","null","42","","","","","","","","","","","","","","","",""
"","ITI","","html-keyboard-response","287","335006","0.0-1.0-387.0","0","0","23673","","null","","","null","42","","","","","","","","","","","","","","","NaN",""
"","S1","","html-keyboard-response","288","335268","0.0-1.0-389.0","0","0","23673","","null","","","null","43","","","","","","","","","","","","","","","",""
"","ISI","","html-keyboard-response","289","336276","0.0-1.0-390.0","0","0","23673","","null","","","null","43","NaN","","","","","","","","","","","","","","",""
"","S2","","html-keyboard-response","290","336542","0.0-1.0-391.0","0","0","23673","","null","","","null","43","","NaN","","","","","","","","","","","","","",""
"","response","","html-keyboard-response","291","336760","0.0-1.0-392.0-0.0","0","0","23673","","216","","","68","43","","","1","43","training","adjacent","CD","3","4","Q.jpg","M.jpg","0","1","0","",""
"","feedback","","html-keyboard-response","292","337764","0.0-1.0-393.0-0.0","0","0","23673","","null","","","null","43","","","","","","","","","","","","","","","",""
"","time_out","","html-keyboard-response","293","339775","0.0-1.0-395.0-0.0","0","0","23673","","null","","","null","43","","","","","","","","","","","","","","","",""
"","ITI","","html-keyboard-response","294","340786","0.0-1.0-396.0","0","0","23673","","null","","","null","43","","","","","","","","","","","","","","","NaN",""
"","S1","","html-keyboard-response","295","341049","0.0-1.0-398.0","0","0","23673","","null","","","null","44","","","","","","","","","","","","","","","",""
"","ISI","","html-keyboard-response","296","342057","0.0-1.0-399.0","0","0","23673","","null","","","null","44","NaN","","","","","","","","","","","","","","",""
"","S2","","html-keyboard-response","297","342322","0.0-1.0-400.0","0","0","23673","","null","","","null","44","","NaN","","","","","","","","","","","","","",""
"","response","","html-keyboard-response","298","342427","0.0-1.0-401.0-0.0","0","0","23673","","103","","","68","44","","","1","44","training","adjacent","EF","5","6","N.jpg","R.jpg","0","1","0","",""
"","feedback","","html-keyboard-response","299","343435","0.0-1.0-402.0-0.0","0","0","23673","","null","","","null","44","","","","","","","","","","","","","","","",""
"","time_out","","html-keyboard-response","300","345451","0.0-1.0-404.0-0.0","0","0","23673","","null","","","null","44","","","","","","","","","","","","","","","",""
"","ITI","","html-keyboard-response","301","346454","0.0-1.0-405.0","0","0","23673","","null","","","null","44","","","","","","","","","","","","","","","NaN",""
"","S1","","html-keyboard-response","302","346719","0.0-1.0-407.0","0","0","23673","","null","","","null","45","","","","","","","","","","","","","","","",""
"","ISI","","html-keyboard-response","303","347729","0.0-1.0-408.0","0","0","23673","","null","","","null","45","NaN","","","","","","","","","","","","","","",""
"","S2","","html-keyboard-response","304","347990","0.0-1.0-409.0","0","0","23673","","null","","","null","45","","NaN","","","","","","","","","","","","","",""
"","response","","html-keyboard-response","305","348295","0.0-1.0-410.0-0.0","0","0","23673","","302","","","75","45","","","1","45","training","adjacent","ED","5","4","N.jpg","M.jpg","1","0","0","",""
"","feedback","","html-keyboard-response","306","349312","0.0-1.0-411.0-0.0","0","0","23673","","null","","","null","45","","","","","","","","","","","","","","","",""
"","time_out","","html-keyboard-response","307","351329","0.0-1.0-413.0-0.0","0","0","23673","","null","","","null","45","","","","","","","","","","","","","","","",""
"","ITI","","html-keyboard-response","308","352335","0.0-1.0-414.0","0","0","23673","","null","","","null","45","","","","","","","","","","","","","","","NaN",""
"","S1","","html-keyboard-response","309","352601","0.0-1.0-416.0","0","0","23673","","null","","","null","46","","","","","","","","","","","","","","","",""
"","ISI","","html-keyboard-response","310","353606","0.0-1.0-417.0","0","0","23673","","null","","","null","46","NaN","","","","","","","","","","","","","","",""
"","S2","","html-keyboard-response","311","353868","0.0-1.0-418.0","0","0","23673","","null","","","null","46","","NaN","","","","","","","","","","","","","",""
"","response","","html-keyboard-response","312","354037","0.0-1.0-419.0-0.0","0","0","23673","","167","","","75","46","","","1","46","training","adjacent","FE","6","5","R.jpg","N.jpg","1","0","0","",""
"","feedback","","html-keyboard-response","313","355046","0.0-1.0-420.0-0.0","0","0","23673","","null","","","null","46","","","","","","","","","","","","","","","",""
"","time_out","","html-keyboard-response","314","357061","0.0-1.0-422.0-0.0","0","0","23673","","null","","","null","46","","","","","","","","","","","","","","","",""
"","ITI","","html-keyboard-response","315","358069","0.0-1.0-423.0","0","0","23673","","null","","","null","46","","","","","","","","","","","","","","","NaN",""
"","S1","","html-keyboard-response","316","358330","0.0-1.0-425.0","0","0","23673","","null","","","null","47","","","","","","","","","","","","","","","",""
"","ISI","","html-keyboard-response","317","359338","0.0-1.0-426.0","0","0","23673","","null","","","null","47","NaN","","","","","","","","","","","","","","",""
"","S2","","html-keyboard-response","318","359600","0.0-1.0-427.0","0","0","23673","","null","","","null","47","","NaN","","","","","","","","","","","","","",""
"","response","","html-keyboard-response","319","359984","0.0-1.0-428.0-0.0","0","0","23673","","382","","","75","47","","","1","47","training","adjacent","FG","6","7","R.jpg","P.jpg","1","1","1","",""
"","feedback","","html-keyboard-response","320","360999","0.0-1.0-429.0-0.0","0","0","23673","","null","","","null","47","","","","","","","","","","","","","","","",""
"","ITI","","html-keyboard-response","321","362006","0.0-1.0-432.0","0","0","23673","","null","","","null","47","","","","","","","","","","","","","","","NaN",""
"","block_over","","html-keyboard-response","322","365259","0.0-1.0-433.0-0.0","0","0","23673","","3250","","","32","47","","","","","","","","","","","","","","","",""
"","S1","","html-keyboard-response","323","365514","0.0-1.0-434.0","0","0","23673","","null","","","null","48","","","","","","","","","","","","","","","",""
"","ISI","","html-keyboard-response","324","366525","0.0-1.0-435.0","0","0","23673","","null","","","null","48","NaN","","","","","","","","","","","","","","",""
"","S2","","html-keyboard-response","325","366787","0.0-1.0-436.0","0","0","23673","","null","","","null","48","","NaN","","","","","","","","","","","","","",""
"","response","","html-keyboard-response","326","367302","0.0-1.0-437.0-0.0","0","0","23673","","510","","","68","48","","","2","48","training","adjacent","BA","2","1","L.jpg","O.jpg","0","0","1","",""
"","feedback","","html-keyboard-response","327","368311","0.0-1.0-438.0-0.0","0","0","23673","","null","","","null","48","","","","","","","","","","","","","","","",""
"","ITI","","html-keyboard-response","328","369321","0.0-1.0-441.0","0","0","23673","","null","","","null","48","","","","","","","","","","","","","","","NaN",""
"","S1","","html-keyboard-response","329","369583","0.0-1.0-443.0","0","0","23673","","null","","","null","49","","","","","","","","","","","","","","","",""
"","ISI","","html-keyboard-response","330","370592","0.0-1.0-444.0","0","0","23673","","null","","","null","49","NaN","","","","","","","","","","","","","","",""
"","S2","","html-keyboard-response","331","370859","0.0-1.0-445.0","0","0","23673","","null","","","null","49","","NaN","","","","","","","","","","","","","",""
"","response","","html-keyboard-response","332","371267","0.0-1.0-446.0-0.0","0","0","23673","","406","","","68","49","","","2","49","training","adjacent","CB","3","2","Q.jpg","L.jpg","0","0","1","",""
"","feedback","","html-keyboard-response","333","372280","0.0-1.0-447.0-0.0","0","0","23673","","null","","","null","49","","","","","","","","","","","","","","","",""
"","ITI","","html-keyboard-response","334","373287","0.0-1.0-450.0","0","0","23673","","null","","","null","49","","","","","","","","","","","","","","","NaN",""
"","S1","","html-keyboard-response","335","373550","0.0-1.0-452.0","0","0","23673","","null","","","null","50","","","","","","","","","","","","","","","",""
"","ISI","","html-keyboard-response","336","374561","0.0-1.0-453.0","0","0","23673","","null","","","null","50","NaN","","","","","","","","","","","","","","",""
"","S2","","html-keyboard-response","337","374825","0.0-1.0-454.0","0","0","23673","","null","","","null","50","","NaN","","","","","","","","","","","","","",""
"","response","","html-keyboard-response","338","375057","0.0-1.0-455.0-0.0","0","0","23673","","228","","","75","50","","","2","50","training","adjacent","CD","3","4","Q.jpg","M.jpg","1","1","1","",""
"","feedback","","html-keyboard-response","339","376062","0.0-1.0-456.0-0.0","0","0","23673","","null","","","null","50","","","","","","","","","","","","","","","",""
"","ITI","","html-keyboard-response","340","377069","0.0-1.0-459.0","0","0","23673","","null","","","null","50","","","","","","","","","","","","","","","NaN",""
"","S1","","html-keyboard-response","341","377332","0.0-1.0-461.0","0","0","23673","","null","","","null","51","","","","","","","","","","","","","","","",""
"","ISI","","html-keyboard-response","342","378338","0.0-1.0-462.0","0","0","23673","","null","","","null","51","NaN","","","","","","","","","","","","","","",""
"","S2","","html-keyboard-response","343","378602","0.0-1.0-463.0","0","0","23673","","null","","","null","51","","NaN","","","","","","","","","","","","","",""
"","response","","html-keyboard-response","344","378914","0.0-1.0-464.0-0.0","0","0","23673","","311","","","75","51","","","2","51","training","adjacent","FG","6","7","R.jpg","P.jpg","1","1","1","",""
"","feedback","","html-keyboard-response","345","379931","0.0-1.0-465.0-0.0","0","0","23673","","null","","","null","51","","","","","","","","","","","","","","","",""
"","ITI","","html-keyboard-response","346","380937","0.0-1.0-468.0","0","0","23673","","null","","","null","51","","","","","","","","","","","","","","","NaN",""
"","S1","","html-keyboard-response","347","381202","0.0-1.0-470.0","0","0","23673","","null","","","null","52","","","","","","","","","","","","","","","",""
"","ISI","","html-keyboard-response","348","382203","0.0-1.0-471.0","0","0","23673","","null","","","null","52","NaN","","","","","","","","","","","","","","",""
"","S2","","html-keyboard-response","349","382468","0.0-1.0-472.0","0","0","23673","","null","","","null","52","","NaN","","","","","","","","","","","","","",""
"","response","","html-keyboard-response","350","382709","0.0-1.0-473.0-0.0","0","0","23673","","239","","","68","52","","","2","52","training","adjacent","EF","5","6","N.jpg","R.jpg","0","1","0","",""
"","feedback","","html-keyboard-response","351","383723","0.0-1.0-474.0-0.0","0","0","23673","","null","","","null","52","","","","","","","","","","","","","","","",""
"","time_out","","html-keyboard-response","352","385739","0.0-1.0-476.0-0.0","0","0","23673","","null","","","null","52","","","","","","","","","","","","","","","",""
"","ITI","","html-keyboard-response","353","386744","0.0-1.0-477.0","0","0","23673","","null","","","null","52","","","","","","","","","","","","","","","NaN",""
"","S1","","html-keyboard-response","354","387007","0.0-1.0-479.0","0","0","23673","","null","","","null","53","","","","","","","","","","","","","","","",""
"","ISI","","html-keyboard-response","355","388019","0.0-1.0-480.0","0","0","23673","","null","","","null","53","NaN","","","","","","","","","","","","","","",""
"","S2","","html-keyboard-response","356","388283","0.0-1.0-481.0","0","0","23673","","null","","","null","53","","NaN","","","","","","","","","","","","","",""
"","response","","html-keyboard-response","357","388433","0.0-1.0-482.0-0.0","0","0","23673","","146","","","68","53","","","2","53","training","adjacent","GF","7","6","P.jpg","R.jpg","0","0","1","",""
"","feedback","","html-keyboard-response","358","389450","0.0-1.0-483.0-0.0","0","0","23673","","null","","","null","53","","","","","","","","","","","","","","","",""
"","ITI","","html-keyboard-response","359","390460","0.0-1.0-486.0","0","0","23673","","null","","","null","53","","","","","","","","","","","","","","","NaN",""
"","S1","","html-keyboard-response","360","390723","0.0-1.0-488.0","0","0","23673","","null","","","null","54","","","","","","","","","","","","","","","",""
"","ISI","","html-keyboard-response","361","391733","0.0-1.0-489.0","0","0","23673","","null","","","null","54","NaN","","","","","","","","","","","","","","",""
"","S2","","html-keyboard-response","362","391998","0.0-1.0-490.0","0","0","23673","","null","","","null","54","","NaN","","","","","","","","","","","","","",""
"","response","","html-keyboard-response","363","392150","0.0-1.0-491.0-0.0","0","0","23673","","150","","","75","54","","","2","54","training","adjacent","AB","1","2","O.jpg","L.jpg","1","1","1","",""
"","feedback","","html-keyboard-response","364","393166","0.0-1.0-492.0-0.0","0","0","23673","","null","","","null","54","","","","","","","","","","","","","","","",""
"","ITI","","html-keyboard-response","365","394171","0.0-1.0-495.0","0","0","23673","","null","","","null","54","","","","","","","","","","","","","","","NaN",""
"","S1","","html-keyboard-response","366","394435","0.0-1.0-497.0","0","0","23673","","null","","","null","55","","","","","","","","","","","","","","","",""
"","ISI","","html-keyboard-response","367","395441","0.0-1.0-498.0","0","0","23673","","null","","","null","55","NaN","","","","","","","","","","","","","","",""
"","S2","","html-keyboard-response","368","395703","0.0-1.0-499.0","0","0","23673","","null","","","null","55","","NaN","","","","","","","","","","","","","",""
"","response","","html-keyboard-response","369","395968","0.0-1.0-500.0-0.0","0","0","23673","","261","","","75","55","","","2","55","training","adjacent","FG","6","7","R.jpg","P.jpg","1","1","1","",""
"","feedback","","html-keyboard-response","370","396982","0.0-1.0-501.0-0.0","0","0","23673","","null","","","null","55","","","","","","","","","","","","","","","",""
"","ITI","","html-keyboard-response","371","397991","0.0-1.0-504.0","0","0","23673","","null","","","null","55","","","","","","","","","","","","","","","NaN",""
"","S1","","html-keyboard-response","372","398253","0.0-1.0-506.0","0","0","23673","","null","","","null","56","","","","","","","","","","","","","","","",""
"","ISI","","html-keyboard-response","373","399258","0.0-1.0-507.0","0","0","23673","","null","","","null","56","NaN","","","","","","","","","","","","","","",""
"","S2","","html-keyboard-response","374","399521","0.0-1.0-508.0","0","0","23673","","null","","","null","56","","NaN","","","","","","","","","","","","","",""
"","response","","html-keyboard-response","375","399799","0.0-1.0-509.0-0.0","0","0","23673","","276","","","68","56","","","2","56","training","adjacent","CD","3","4","Q.jpg","M.jpg","0","1","0","",""
"","feedback","","html-keyboard-response","376","400810","0.0-1.0-510.0-0.0","0","0","23673","","null","","","null","56","","","","","","","","","","","","","","","",""
"","time_out","","html-keyboard-response","377","402827","0.0-1.0-512.0-0.0","0","0","23673","","null","","","null","56","","","","","","","","","","","","","","","",""
"","ITI","","html-keyboard-response","378","403833","0.0-1.0-513.0","0","0","23673","","null","","","null","56","","","","","","","","","","","","","","","NaN",""
"","S1","","html-keyboard-response","379","404095","0.0-1.0-515.0","0","0","23673","","null","","","null","57","","","","","","","","","","","","","","","",""
"","ISI","","html-keyboard-response","380","405106","0.0-1.0-516.0","0","0","23673","","null","","","null","57","NaN","","","","","","","","","","","","","","",""
"","S2","","html-keyboard-response","381","405371","0.0-1.0-517.0","0","0","23673","","null","","","null","57","","NaN","","","","","","","","","","","","","",""
"","response","","html-keyboard-response","382","405677","0.0-1.0-518.0-0.0","0","0","23673","","302","","","68","57","","","2","57","training","adjacent","BA","2","1","L.jpg","O.jpg","0","0","1","",""
"","feedback","","html-keyboard-response","383","406686","0.0-1.0-519.0-0.0","0","0","23673","","null","","","null","57","","","","","","","","","","","","","","","",""
"","ITI","","html-keyboard-response","384","407694","0.0-1.0-522.0","0","0","23673","","null","","","null","57","","","","","","","","","","","","","","","NaN",""
"","S1","","html-keyboard-response","385","407959","0.0-1.0-524.0","0","0","23673","","null","","","null","58","","","","","","","","","","","","","","","",""
"","ISI","","html-keyboard-response","386","408966","0.0-1.0-525.0","0","0","23673","","null","","","null","58","NaN","","","","","","","","","","","","","","",""
"","S2","","html-keyboard-response","387","409230","0.0-1.0-526.0","0","0","23673","","null","","","null","58","","NaN","","","","","","","","","","","","","",""
"","response","","html-keyboard-response","388","409635","0.0-1.0-527.0-0.0","0","0","23673","","402","","","75","58","","","2","58","training","adjacent","BC","2","3","L.jpg","Q.jpg","1","1","1","",""
"","feedback","","html-keyboard-response","389","410640","0.0-1.0-528.0-0.0","0","0","23673","","null","","","null","58","","","","","","","","","","","","","","","",""
"","ITI","","html-keyboard-response","390","411648","0.0-1.0-531.0","0","0","23673","","null","","","null","58","","","","","","","","","","","","","","","NaN",""
"","S1","","html-keyboard-response","391","411912","0.0-1.0-533.0","0","0","23673","","null","","","null","59","","","","","","","","","","","","","","","",""
"","ISI","","html-keyboard-response","392","412921","0.0-1.0-534.0","0","0","23673","","null","","","null","59","NaN","","","","","","","","","","","","","","",""
"","S2","","html-keyboard-response","393","413185","0.0-1.0-535.0","0","0","23673","","null","","","null","59","","NaN","","","","","","","","","","","","","",""
"","response","","html-keyboard-response","394","413923","0.0-1.0-536.0-0.0","0","0","23673","","735","","","75","59","","","2","59","training","adjacent","EF","5","6","N.jpg","R.jpg","1","1","1","",""
"","feedback","","html-keyboard-response","395","414942","0.0-1.0-537.0-0.0","0","0","23673","","null","","","null","59","","","","","","","","","","","","","","","",""
"","ITI","","html-keyboard-response","396","415950","0.0-1.0-540.0","0","0","23673","","null","","","null","59","","","","","","","","","","","","","","","NaN",""
"","S1","","html-keyboard-response","397","416210","0.0-1.0-542.0","0","0","23673","","null","","","null","60","","","","","","","","","","","","","","","",""
"","ISI","","html-keyboard-response","398","417220","0.0-1.0-543.0","0","0","23673","","null","","","null","60","NaN","","","","","","","","","","","","","","",""
"","S2","","html-keyboard-response","399","417484","0.0-1.0-544.0","0","0","23673","","null","","","null","60","","NaN","","","","","","","","","","","","","",""
"","response","","html-keyboard-response","400","417968","0.0-1.0-545.0-0.0","0","0","23673","","482","","","68","60","","","2","60","training","adjacent","FE","6","5","R.jpg","N.jpg","0","0","1","",""
"","feedback","","html-keyboard-response","401","418987","0.0-1.0-546.0-0.0","0","0","23673","","null","","","null","60","","","","","","","","","","","","","","","",""
"","ITI","","html-keyboard-response","402","419995","0.0-1.0-549.0","0","0","23673","","null","","","null","60","","","","","","","","","","","","","","","NaN",""
"","S1","","html-keyboard-response","403","420258","0.0-1.0-551.0","0","0","23673","","null","","","null","61","","","","","","","","","","","","","","","",""
"","ISI","","html-keyboard-response","404","421266","0.0-1.0-552.0","0","0","23673","","null","","","null","61","NaN","","","","","","","","","","","","","","",""
"","S2","","html-keyboard-response","405","421531","0.0-1.0-553.0","0","0","23673","","null","","","null","61","","NaN","","","","","","","","","","","","","",""
"","response","","html-keyboard-response","406","422001","0.0-1.0-554.0-0.0","0","0","23673","","466","","","68","61","","","2","61","training","adjacent","ED","5","4","N.jpg","M.jpg","0","0","1","",""
"","feedback","","html-keyboard-response","407","423004","0.0-1.0-555.0-0.0","0","0","23673","","null","","","null","61","","","","","","","","","","","","","","","",""
"","ITI","","html-keyboard-response","408","424012","0.0-1.0-558.0","0","0","23673","","null","","","null","61","","","","","","","","","","","","","","","NaN",""
"","S1","","html-keyboard-response","409","424275","0.0-1.0-560.0","0","0","23673","","null","","","null","62","","","","","","","","","","","","","","","",""
"","ISI","","html-keyboard-response","410","425284","0.0-1.0-561.0","0","0","23673","","null","","","null","62","NaN","","","","","","","","","","","","","","",""
"","S2","","html-keyboard-response","411","425547","0.0-1.0-562.0","0","0","23673","","null","","","null","62","","NaN","","","","","","","","","","","","","",""
"","response","","html-keyboard-response","412","426274","0.0-1.0-563.0-0.0","0","0","23673","","726","","","68","62","","","2","62","training","adjacent","BC","2","3","L.jpg","Q.jpg","0","1","0","",""
"","feedback","","html-keyboard-response","413","427280","0.0-1.0-564.0-0.0","0","0","23673","","null","","","null","62","","","","","","","","","","","","","","","",""
"","time_out","","html-keyboard-response","414","429295","0.0-1.0-566.0-0.0","0","0","23673","","null","","","null","62","","","","","","","","","","","","","","","",""
"","ITI","","html-keyboard-response","415","430305","0.0-1.0-567.0","0","0","23673","","null","","","null","62","","","","","","","","","","","","","","","NaN",""
"","S1","","html-keyboard-response","416","430569","0.0-1.0-569.0","0","0","23673","","null","","","null","63","","","","","","","","","","","","","","","",""
"","ISI","","html-keyboard-response","417","431576","0.0-1.0-570.0","0","0","23673","","null","","","null","63","NaN","","","","","","","","","","","","","","",""
"","S2","","html-keyboard-response","418","431840","0.0-1.0-571.0","0","0","23673","","null","","","null","63","","NaN","","","","","","","","","","","","","",""
"","response","","html-keyboard-response","419","432001","0.0-1.0-572.0-0.0","0","0","23673","","158","","","68","63","","","2","63","training","adjacent","EF","5","6","N.jpg","R.jpg","0","1","0","",""
"","feedback","","html-keyboard-response","420","433017","0.0-1.0-573.0-0.0","0","0","23673","","null","","","null","63","","","","","","","","","","","","","","","",""
"","time_out","","html-keyboard-response","421","435032","0.0-1.0-575.0-0.0","0","0","23673","","null","","","null","63","","","","","","","","","","","","","","","",""
"","ITI","","html-keyboard-response","422","436043","0.0-1.0-576.0","0","0","23673","","null","","","null","63","","","","","","","","","","","","","","","NaN",""
"","S1","","html-keyboard-response","423","436309","0.0-1.0-578.0","0","0","23673","","null","","","null","64","","","","","","","","","","","","","","","",""
"","ISI","","html-keyboard-response","424","437326","0.0-1.0-579.0","0","0","23673","","null","","","null","64","NaN","","","","","","","","","","","","","","",""
"","S2","","html-keyboard-response","425","437591","0.0-1.0-580.0","0","0","23673","","null","","","null","64","","NaN","","","","","","","","","","","","","",""
"","response","","html-keyboard-response","426","437873","0.0-1.0-581.0-0.0","0","0","23673","","278","","","75","64","","","2","64","training","adjacent","DC","4","3","M.jpg","Q.jpg","1","0","0","",""
"","feedback","","html-keyboard-response","427","438892","0.0-1.0-582.0-0.0","0","0","23673","","null","","","null","64","","","","","","","","","","","","","","","",""
"","time_out","","html-keyboard-response","428","440910","0.0-1.0-584.0-0.0","0","0","23673","","null","","","null","64","","","","","","","","","","","","","","","",""
"","ITI","","html-keyboard-response","429","441914","0.0-1.0-585.0","0","0","23673","","null","","","null","64","","","","","","","","","","","","","","","NaN",""
"","S1","","html-keyboard-response","430","442177","0.0-1.0-587.0","0","0","23673","","null","","","null","65","","","","","","","","","","","","","","","",""
"","ISI","","html-keyboard-response","431","443184","0.0-1.0-588.0","0","0","23673","","null","","","null","65","NaN","","","","","","","","","","","","","","",""
"","S2","","html-keyboard-response","432","443451","0.0-1.0-589.0","0","0","23673","","null","","","null","65","","NaN","","","","","","","","","","","","","",""
"","response","","html-keyboard-response","433","443761","0.0-1.0-590.0-0.0","0","0","23673","","307","","","75","65","","","2","65","training","adjacent","BC","2","3","L.jpg","Q.jpg","1","1","1","",""
"","feedback","","html-keyboard-response","434","444765","0.0-1.0-591.0-0.0","0","0","23673","","null","","","null","65","","","","","","","","","","","","","","","",""
"","ITI","","html-keyboard-response","435","445773","0.0-1.0-594.0","0","0","23673","","null","","","null","65","","","","","","","","","","","","","","","NaN",""
"","S1","","html-keyboard-response","436","446036","0.0-1.0-596.0","0","0","23673","","null","","","null","66","","","","","","","","","","","","","","","",""
"","ISI","","html-keyboard-response","437","447043","0.0-1.0-597.0","0","0","23673","","null","","","null","66","NaN","","","","","","","","","","","","","","",""
"","S2","","html-keyboard-response","438","447311","0.0-1.0-598.0","0","0","23673","","null","","","null","66","","NaN","","","","","","","","","","","","","",""
"","response","","html-keyboard-response","439","447921","0.0-1.0-599.0-0.0","0","0","23673","","606","","","75","66","","","2","66","training","adjacent","DE","4","5","M.jpg","N.jpg","1","1","1","",""
"","feedback","","html-keyboard-response","440","448935","0.0-1.0-600.0-0.0","0","0","23673","","null","","","null","66","","","","","","","","","","","","","","","",""
"","ITI","","html-keyboard-response","441","449944","0.0-1.0-603.0","0","0","23673","","null","","","null","66","","","","","","","","","","","","","","","NaN",""
"","S1","","html-keyboard-response","442","450207","0.0-1.0-605.0","0","0","23673","","null","","","null","67","","","","","","","","","","","","","","","",""
"","ISI","","html-keyboard-response","443","451213","0.0-1.0-606.0","0","0","23673","","null","","","null","67","NaN","","","","","","","","","","","","","","",""
"","S2","","html-keyboard-response","444","451476","0.0-1.0-607.0","0","0","23673","","null","","","null","67","","NaN","","","","","","","","","","","","","",""
"","response","","html-keyboard-response","445","452064","0.0-1.0-608.0-0.0","0","0","23673","","585","","","68","67","","","2","67","training","adjacent","CB","3","2","Q.jpg","L.jpg","0","0","1","",""
"","feedback","","html-keyboard-response","446","453074","0.0-1.0-609.0-0.0","0","0","23673","","null","","","null","67","","","","","","","","","","","","","","","",""
"","ITI","","html-keyboard-response","447","454080","0.0-1.0-612.0","0","0","23673","","null","","","null","67","","","","","","","","","","","","","","","NaN",""
"","S1","","html-keyboard-response","448","454346","0.0-1.0-614.0","0","0","23673","","null","","","null","68","","","","","","","","","","","","","","","",""
"","ISI","","html-keyboard-response","449","455352","0.0-1.0-615.0","0","0","23673","","null","","","null","68","NaN","","","","","","","","","","","","","","",""
"","S2","","html-keyboard-response","450","455617","0.0-1.0-616.0","0","0","23673","","null","","","null","68","","NaN","","","","","","","","","","","","","",""
"","response","","html-keyboard-response","451","455916","0.0-1.0-617.0-0.0","0","0","23673","","296","","","75","68","","","2","68","training","adjacent","FG","6","7","R.jpg","P.jpg","1","1","1","",""
"","feedback","","html-keyboard-response","452","456934","0.0-1.0-618.0-0.0","0","0","23673","","null","","","null","68","","","","","","","","","","","","","","","",""
"","ITI","","html-keyboard-response","453","457942","0.0-1.0-621.0","0","0","23673","","null","","","null","68","","","","","","","","","","","","","","","NaN",""
"","S1","","html-keyboard-response","454","458204","0.0-1.0-623.0","0","0","23673","","null","","","null","69","","","","","","","","","","","","","","","",""
"","ISI","","html-keyboard-response","455","459211","0.0-1.0-624.0","0","0","23673","","null","","","null","69","NaN","","","","","","","","","","","","","","",""
"","S2","","html-keyboard-response","456","459476","0.0-1.0-625.0","0","0","23673","","null","","","null","69","","NaN","","","","","","","","","","","","","",""
"","response","","html-keyboard-response","457","459764","0.0-1.0-626.0-0.0","0","0","23673","","286","","","75","69","","","2","69","training","adjacent","EF","5","6","N.jpg","R.jpg","1","1","1","",""
"","feedback","","html-keyboard-response","458","460776","0.0-1.0-627.0-0.0","0","0","23673","","null","","","null","69","","","","","","","","","","","","","","","",""
"","ITI","","html-keyboard-response","459","461784","0.0-1.0-630.0","0","0","23673","","null","","","null","69","","","","","","","","","","","","","","","NaN",""
"","S1","","html-keyboard-response","460","462048","0.0-1.0-632.0","0","0","23673","","null","","","null","70","","","","","","","","","","","","","","","",""
"","ISI","","html-keyboard-response","461","463054","0.0-1.0-633.0","0","0","23673","","null","","","null","70","NaN","","","","","","","","","","","","","","",""
"","S2","","html-keyboard-response","462","463319","0.0-1.0-634.0","0","0","23673","","null","","","null","70","","NaN","","","","","","","","","","","","","",""
"","response","","html-keyboard-response","463","463494","0.0-1.0-635.0-0.0","0","0","23673","","171","","","75","70","","","2","70","training","adjacent","AB","1","2","O.jpg","L.jpg","1","1","1","",""
"","feedback","","html-keyboard-response","464","464513","0.0-1.0-636.0-0.0","0","0","23673","","null","","","null","70","","","","","","","","","","","","","","","",""
"","ITI","","html-keyboard-response","465","465520","0.0-1.0-639.0","0","0","23673","","null","","","null","70","","","","","","","","","","","","","","","NaN",""
"","S1","","html-keyboard-response","466","465781","0.0-1.0-641.0","0","0","23673","","null","","","null","71","","","","","","","","","","","","","","","",""
"","ISI","","html-keyboard-response","467","466788","0.0-1.0-642.0","0","0","23673","","null","","","null","71","NaN","","","","","","","","","","","","","","",""
"","S2","","html-keyboard-response","468","467051","0.0-1.0-643.0","0","0","23673","","null","","","null","71","","NaN","","","","","","","","","","","","","",""
"","response","","html-keyboard-response","469","467210","0.0-1.0-644.0-0.0","0","0","23673","","156","","","68","71","","","2","71","training","adjacent","GF","7","6","P.jpg","R.jpg","0","0","1","",""
"","feedback","","html-keyboard-response","470","468217","0.0-1.0-645.0-0.0","0","0","23673","","null","","","null","71","","","","","","","","","","","","","","","",""
"","ITI","","html-keyboard-response","471","469229","0.0-1.0-648.0","0","0","23673","","null","","","null","71","","","","","","","","","","","","","","","NaN",""
"","S1","","html-keyboard-response","472","469491","0.0-1.0-650.0","0","0","23673","","null","","","null","72","","","","","","","","","","","","","","","",""
"","ISI","","html-keyboard-response","473","470499","0.0-1.0-651.0","0","0","23673","","null","","","null","72","NaN","","","","","","","","","","","","","","",""
"","S2","","html-keyboard-response","474","470763","0.0-1.0-652.0","0","0","23673","","null","","","null","72","","NaN","","","","","","","","","","","","","",""
"","response","","html-keyboard-response","475","471165","0.0-1.0-653.0-0.0","0","0","23673","","398","","","68","72","","","2","72","training","adjacent","FE","6","5","R.jpg","N.jpg","0","0","1","",""
"","feedback","","html-keyboard-response","476","472173","0.0-1.0-654.0-0.0","0","0","23673","","null","","","null","72","","","","","","","","","","","","","","","",""
"","ITI","","html-keyboard-response","477","473182","0.0-1.0-657.0","0","0","23673","","null","","","null","72","","","","","","","","","","","","","","","NaN",""
"","S1","","html-keyboard-response","478","473442","0.0-1.0-659.0","0","0","23673","","null","","","null","73","","","","","","","","","","","","","","","",""
"","ISI","","html-keyboard-response","479","474449","0.0-1.0-660.0","0","0","23673","","null","","","null","73","NaN","","","","","","","","","","","","","","",""
"","S2","","html-keyboard-response","480","474712","0.0-1.0-661.0","0","0","23673","","null","","","null","73","","NaN","","","","","","","","","","","","","",""
"","response","","html-keyboard-response","481","475153","0.0-1.0-662.0-0.0","0","0","23673","","439","","","75","73","","","2","73","training","adjacent","DE","4","5","M.jpg","N.jpg","1","1","1","",""
"","feedback","","html-keyboard-response","482","476156","0.0-1.0-663.0-0.0","0","0","23673","","null","","","null","73","","","","","","","","","","","","","","","",""
"","ITI","","html-keyboard-response","483","477163","0.0-1.0-666.0","0","0","23673","","null","","","null","73","","","","","","","","","","","","","","","NaN",""
"","S1","","html-keyboard-response","484","477428","0.0-1.0-668.0","0","0","23673","","null","","","null","74","","","","","","","","","","","","","","","",""
"","ISI","","html-keyboard-response","485","478435","0.0-1.0-669.0","0","0","23673","","null","","","null","74","NaN","","","","","","","","","","","","","","",""
"","S2","","html-keyboard-response","486","478699","0.0-1.0-670.0","0","0","23673","","null","","","null","74","","NaN","","","","","","","","","","","","","",""
"","response","","html-keyboard-response","487","479207","0.0-1.0-671.0-0.0","0","0","23673","","506","","","68","74","","","2","74","training","adjacent","DC","4","3","M.jpg","Q.jpg","0","0","1","",""
"","feedback","","html-keyboard-response","488","480212","0.0-1.0-672.0-0.0","0","0","23673","","null","","","null","74","","","","","","","","","","","","","","","",""
"","ITI","","html-keyboard-response","489","481220","0.0-1.0-675.0","0","0","23673","","null","","","null","74","","","","","","","","","","","","","","","NaN",""
"","S1","","html-keyboard-response","490","481485","0.0-1.0-677.0","0","0","23673","","null","","","null","75","","","","","","","","","","","","","","","",""
"","ISI","","html-keyboard-response","491","482490","0.0-1.0-678.0","0","0","23673","","null","","","null","75","NaN","","","","","","","","","","","","","","",""
"","S2","","html-keyboard-response","492","482755","0.0-1.0-679.0","0","0","23673","","null","","","null","75","","NaN","","","","","","","","","","","","","",""
"","response","","html-keyboard-response","493","483142","0.0-1.0-680.0-0.0","0","0","23673","","383","","","75","75","","","2","75","training","adjacent","ED","5","4","N.jpg","M.jpg","1","0","0","",""
"","feedback","","html-keyboard-response","494","484152","0.0-1.0-681.0-0.0","0","0","23673","","null","","","null","75","","","","","","","","","","","","","","","",""
"","time_out","","html-keyboard-response","495","486158","0.0-1.0-683.0-0.0","0","0","23673","","null","","","null","75","","","","","","","","","","","","","","","",""
"","ITI","","html-keyboard-response","496","487164","0.0-1.0-684.0","0","0","23673","","null","","","null","75","","","","","","","","","","","","","","","NaN",""
"","S1","","html-keyboard-response","497","487431","0.0-1.0-686.0","0","0","23673","","null","","","null","76","","","","","","","","","","","","","","","",""
"","ISI","","html-keyboard-response","498","488434","0.0-1.0-687.0","0","0","23673","","null","","","null","76","NaN","","","","","","","","","","","","","","",""
"","S2","","html-keyboard-response","499","488700","0.0-1.0-688.0","0","0","23673","","null","","","null","76","","NaN","","","","","","","","","","","","","",""
"","response","","html-keyboard-response","500","489007","0.0-1.0-689.0-0.0","0","0","23673","","306","","","68","76","","","2","76","training","adjacent","DC","4","3","M.jpg","Q.jpg","0","0","1","",""
"","feedback","","html-keyboard-response","501","490018","0.0-1.0-690.0-0.0","0","0","23673","","null","","","null","76","","","","","","","","","","","","","","","",""
"","ITI","","html-keyboard-response","502","491024","0.0-1.0-693.0","0","0","23673","","null","","","null","76","","","","","","","","","","","","","","","NaN",""
"","S1","","html-keyboard-response","503","491287","0.0-1.0-695.0","0","0","23673","","null","","","null","77","","","","","","","","","","","","","","","",""
"","ISI","","html-keyboard-response","504","492294","0.0-1.0-696.0","0","0","23673","","null","","","null","77","NaN","","","","","","","","","","","","","","",""
"","S2","","html-keyboard-response","505","492558","0.0-1.0-697.0","0","0","23673","","null","","","null","77","","NaN","","","","","","","","","","","","","",""
"","response","","html-keyboard-response","506","493088","0.0-1.0-698.0-0.0","0","0","23673","","527","","","68","77","","","2","77","training","adjacent","BA","2","1","L.jpg","O.jpg","0","0","1","",""
"","feedback","","html-keyboard-response","507","494094","0.0-1.0-699.0-0.0","0","0","23673","","null","","","null","77","","","","","","","","","","","","","","","",""
"","ITI","","html-keyboard-response","508","495101","0.0-1.0-702.0","0","0","23673","","null","","","null","77","","","","","","","","","","","","","","","NaN",""
"","S1","","html-keyboard-response","509","495364","0.0-1.0-704.0","0","0","23673","","null","","","null","78","","","","","","","","","","","","","","","",""
"","ISI","","html-keyboard-response","510","496378","0.0-1.0-705.0","0","0","23673","","null","","","null","78","NaN","","","","","","","","","","","","","","",""
"","S2","","html-keyboard-response","511","496641","0.0-1.0-706.0","0","0","23673","","null","","","null","78","","NaN","","","","","","","","","","","","","",""
"","response","","html-keyboard-response","512","497305","0.0-1.0-707.0-0.0","0","0","23673","","661","","","68","78","","","2","78","training","adjacent","ED","5","4","N.jpg","M.jpg","0","0","1","",""
"","feedback","","html-keyboard-response","513","498314","0.0-1.0-708.0-0.0","0","0","23673","","null","","","null","78","","","","","","","","","","","","","","","",""
"","ITI","","html-keyboard-response","514","499321","0.0-1.0-711.0","0","0","23673","","null","","","null","78","","","","","","","","","","","","","","","NaN",""
"","S1","","html-keyboard-response","515","499583","0.0-1.0-713.0","0","0","23673","","null","","","null","79","","","","","","","","","","","","","","","",""
"","ISI","","html-keyboard-response","516","500590","0.0-1.0-714.0","0","0","23673","","null","","","null","79","NaN","","","","","","","","","","","","","","",""
"","S2","","html-keyboard-response","517","500856","0.0-1.0-715.0","0","0","23673","","null","","","null","79","","NaN","","","","","","","","","","","","","",""
"","response","","html-keyboard-response","518","501391","0.0-1.0-716.0-0.0","0","0","23673","","530","","","75","79","","","2","79","training","adjacent","DE","4","5","M.jpg","N.jpg","1","1","1","",""
"","feedback","","html-keyboard-response","519","502405","0.0-1.0-717.0-0.0","0","0","23673","","null","","","null","79","","","","","","","","","","","","","","","",""
"","ITI","","html-keyboard-response","520","503413","0.0-1.0-720.0","0","0","23673","","null","","","null","79","","","","","","","","","","","","","","","NaN",""
"","S1","","html-keyboard-response","521","503677","0.0-1.0-722.0","0","0","23673","","null","","","null","80","","","","","","","","","","","","","","","",""
"","ISI","","html-keyboard-response","522","504685","0.0-1.0-723.0","0","0","23673","","null","","","null","80","NaN","","","","","","","","","","","","","","",""
"","S2","","html-keyboard-response","523","504948","0.0-1.0-724.0","0","0","23673","","null","","","null","80","","NaN","","","","","","","","","","","","","",""
"","response","","html-keyboard-response","524","505222","0.0-1.0-725.0-0.0","0","0","23673","","272","","","68","80","","","2","80","training","adjacent","CB","3","2","Q.jpg","L.jpg","0","0","1","",""
"","feedback","","html-keyboard-response","525","506236","0.0-1.0-726.0-0.0","0","0","23673","","null","","","null","80","","","","","","","","","","","","","","","",""
"","ITI","","html-keyboard-response","526","507244","0.0-1.0-729.0","0","0","23673","","null","","","null","80","","","","","","","","","","","","","","","NaN",""
"","S1","","html-keyboard-response","527","507507","0.0-1.0-731.0","0","0","23673","","null","","","null","81","","","","","","","","","","","","","","","",""
"","ISI","","html-keyboard-response","528","508516","0.0-1.0-732.0","0","0","23673","","null","","","null","81","NaN","","","","","","","","","","","","","","",""
"","S2","","html-keyboard-response","529","508781","0.0-1.0-733.0","0","0","23673","","null","","","null","81","","NaN","","","","","","","","","","","","","",""
"","response","","html-keyboard-response","530","509267","0.0-1.0-734.0-0.0","0","0","23673","","482","","","68","81","","","2","81","training","adjacent","ED","5","4","N.jpg","M.jpg","0","0","1","",""
"","feedback","","html-keyboard-response","531","510281","0.0-1.0-735.0-0.0","0","0","23673","","null","","","null","81","","","","","","","","","","","","","","","",""
"","ITI","","html-keyboard-response","532","511291","0.0-1.0-738.0","0","0","23673","","null","","","null","81","","","","","","","","","","","","","","","NaN",""
"","S1","","html-keyboard-response","533","511554","0.0-1.0-740.0","0","0","23673","","null","","","null","82","","","","","","","","","","","","","","","",""
"","ISI","","html-keyboard-response","534","512561","0.0-1.0-741.0","0","0","23673","","null","","","null","82","NaN","","","","","","","","","","","","","","",""
"","S2","","html-keyboard-response","535","512824","0.0-1.0-742.0","0","0","23673","","null","","","null","82","","NaN","","","","","","","","","","","","","",""
"","response","","html-keyboard-response","536","513158","0.0-1.0-743.0-0.0","0","0","23673","","330","","","68","82","","","2","82","training","adjacent","FE","6","5","R.jpg","N.jpg","0","0","1","",""
"","feedback","","html-keyboard-response","537","514173","0.0-1.0-744.0-0.0","0","0","23673","","null","","","null","82","","","","","","","","","","","","","","","",""
"","ITI","","html-keyboard-response","538","515184","0.0-1.0-747.0","0","0","23673","","null","","","null","82","","","","","","","","","","","","","","","NaN",""
"","S1","","html-keyboard-response","539","515445","0.0-1.0-749.0","0","0","23673","","null","","","null","83","","","","","","","","","","","","","","","",""
"","ISI","","html-keyboard-response","540","516452","0.0-1.0-750.0","0","0","23673","","null","","","null","83","NaN","","","","","","","","","","","","","","",""
"","S2","","html-keyboard-response","541","516716","0.0-1.0-751.0","0","0","23673","","null","","","null","83","","NaN","","","","","","","","","","","","","",""
"","response","","html-keyboard-response","542","517148","0.0-1.0-752.0-0.0","0","0","23673","","429","","","68","83","","","2","83","training","adjacent","DE","4","5","M.jpg","N.jpg","0","1","0","",""
"","feedback","","html-keyboard-response","543","518157","0.0-1.0-753.0-0.0","0","0","23673","","null","","","null","83","","","","","","","","","","","","","","","",""
"","time_out","","html-keyboard-response","544","520171","0.0-1.0-755.0-0.0","0","0","23673","","null","","","null","83","","","","","","","","","","","","","","","",""
"","ITI","","html-keyboard-response","545","521176","0.0-1.0-756.0","0","0","23673","","null","","","null","83","","","","","","","","","","","","","","","NaN",""
"","S1","","html-keyboard-response","546","521438","0.0-1.0-758.0","0","0","23673","","null","","","null","84","","","","","","","","","","","","","","","",""
"","ISI","","html-keyboard-response","547","522453","0.0-1.0-759.0","0","0","23673","","null","","","null","84","NaN","","","","","","","","","","","","","","",""
"","S2","","html-keyboard-response","548","522716","0.0-1.0-760.0","0","0","23673","","null","","","null","84","","NaN","","","","","","","","","","","","","",""
"","response","","html-keyboard-response","549","522875","0.0-1.0-761.0-0.0","0","0","23673","","155","","","68","84","","","2","84","training","adjacent","GF","7","6","P.jpg","R.jpg","0","0","1","",""
"","feedback","","html-keyboard-response","550","523882","0.0-1.0-762.0-0.0","0","0","23673","","null","","","null","84","","","","","","","","","","","","","","","",""
"","ITI","","html-keyboard-response","551","524887","0.0-1.0-765.0","0","0","23673","","null","","","null","84","","","","","","","","","","","","","","","NaN",""
"","S1","","html-keyboard-response","552","525149","0.0-1.0-767.0","0","0","23673","","null","","","null","85","","","","","","","","","","","","","","","",""
"","ISI","","html-keyboard-response","553","526161","0.0-1.0-768.0","0","0","23673","","null","","","null","85","NaN","","","","","","","","","","","","","","",""
"","S2","","html-keyboard-response","554","526366","0.0-1.0-769.0","0","0","23673","","201","","","75","85","","k","2","85","training","adjacent","AB","1","2","O.jpg","L.jpg","1","1","1","",""
"","feedback","","html-keyboard-response","555","527384","0.0-1.0-771.0-0.0","0","0","23673","","null","","","null","85","","","","","","","","","","","","","","","",""
"","ITI","","html-keyboard-response","556","528390","0.0-1.0-774.0","0","0","23673","","null","","","null","85","","","","","","","","","","","","","","","NaN",""
"","S1","","html-keyboard-response","557","528654","0.0-1.0-776.0","0","0","23673","","null","","","null","86","","","","","","","","","","","","","","","",""
"","ISI","","html-keyboard-response","558","529657","0.0-1.0-777.0","0","0","23673","","null","","","null","86","NaN","","","","","","","","","","","","","","",""
"","S2","","html-keyboard-response","559","529922","0.0-1.0-778.0","0","0","23673","","null","","","null","86","","NaN","","","","","","","","","","","","","",""
"","response","","html-keyboard-response","560","530310","0.0-1.0-779.0-0.0","0","0","23673","","384","","","68","86","","","2","86","training","adjacent","DC","4","3","M.jpg","Q.jpg","0","0","1","",""
"","feedback","","html-keyboard-response","561","531318","0.0-1.0-780.0-0.0","0","0","23673","","null","","","null","86","","","","","","","","","","","","","","","",""
"","ITI","","html-keyboard-response","562","532326","0.0-1.0-783.0","0","0","23673","","null","","","null","86","","","","","","","","","","","","","","","NaN",""
"","S1","","html-keyboard-response","563","532590","0.0-1.0-785.0","0","0","23673","","null","","","null","87","","","","","","","","","","","","","","","",""
"","ISI","","html-keyboard-response","564","533596","0.0-1.0-786.0","0","0","23673","","null","","","null","87","NaN","","","","","","","","","","","","","","",""
"","S2","","html-keyboard-response","565","533860","0.0-1.0-787.0","0","0","23673","","null","","","null","87","","NaN","","","","","","","","","","","","","",""
"","response","","html-keyboard-response","566","534108","0.0-1.0-788.0-0.0","0","0","23673","","244","","","75","87","","","2","87","training","adjacent","BC","2","3","L.jpg","Q.jpg","1","1","1","",""
"","feedback","","html-keyboard-response","567","535113","0.0-1.0-789.0-0.0","0","0","23673","","null","","","null","87","","","","","","","","","","","","","","","",""
"","ITI","","html-keyboard-response","568","536123","0.0-1.0-792.0","0","0","23673","","null","","","null","87","","","","","","","","","","","","","","","NaN",""
"","S1","","html-keyboard-response","569","536387","0.0-1.0-794.0","0","0","23673","","null","","","null","88","","","","","","","","","","","","","","","",""
"","ISI","","html-keyboard-response","570","537391","0.0-1.0-795.0","0","0","23673","","null","","","null","88","NaN","","","","","","","","","","","","","","",""
"","S2","","html-keyboard-response","571","537655","0.0-1.0-796.0","0","0","23673","","null","","","null","88","","NaN","","","","","","","","","","","","","",""
"","response","","html-keyboard-response","572","537886","0.0-1.0-797.0-0.0","0","0","23673","","228","","","68","88","","","2","88","training","adjacent","CD","3","4","Q.jpg","M.jpg","0","1","0","",""
"","feedback","","html-keyboard-response","573","538896","0.0-1.0-798.0-0.0","0","0","23673","","null","","","null","88","","","","","","","","","","","","","","","",""
"","time_out","","html-keyboard-response","574","540913","0.0-1.0-800.0-0.0","0","0","23673","","null","","","null","88","","","","","","","","","","","","","","","",""
"","ITI","","html-keyboard-response","575","541920","0.0-1.0-801.0","0","0","23673","","null","","","null","88","","","","","","","","","","","","","","","NaN",""
"","S1","","html-keyboard-response","576","542184","0.0-1.0-803.0","0","0","23673","","null","","","null","89","","","","","","","","","","","","","","","",""
"","ISI","","html-keyboard-response","577","543190","0.0-1.0-804.0","0","0","23673","","null","","","null","89","NaN","","","","","","","","","","","","","","",""
"","S2","","html-keyboard-response","578","543454","0.0-1.0-805.0","0","0","23673","","null","","","null","89","","NaN","","","","","","","","","","","","","",""
"","response","","html-keyboard-response","579","543939","0.0-1.0-806.0-0.0","0","0","23673","","483","","","68","89","","","2","89","training","adjacent","BA","2","1","L.jpg","O.jpg","0","0","1","",""
"","feedback","","html-keyboard-response","580","544943","0.0-1.0-807.0-0.0","0","0","23673","","null","","","null","89","","","","","","","","","","","","","","","",""
