"success","ttype","start_time","trial_type","trial_index","time_elapsed","internal_node_id","warning","missed_checkup","PID","view_history","rt","responses","repeat_instructions","key_press","index","keypress_isi","keypress_S2","block","trial_num","phase","group_type","pair_type","S1_stim","S2_stim","S1_img","S2_img","S1_chosen","S1_higher","accuracy","keypress_iti","total_bonus_tally"
"true","full_screen","d07292022hr2348","fullscreen","0","49277","0.0-0.0","0","0","83352","","","","","","","","","","","","","","","","","","","","","",""
"","instructions","","instructions","1","119137","0.0-1.0-0.0-0.0","0","0","83352","[{""page_index"":0,""viewing_time"":11924},{""page_index"":1,""viewing_time"":32385},{""page_index"":2,""viewing_time"":20992},{""page_index"":3,""viewing_time"":4557}]","69858","","","","","","","","","","","","","","","","","","","",""
"","comprehension_check","","survey-multi-choice","2","159487","0.0-1.0-0.0-1.0","0","0","83352","","40346","{""Q0"":""True"",""Q1"":""D"",""Q2"":""When you see the prompt 'MAKE A CHOICE' after the second image was presented"",""Q3"":""Green mark"",""Q4"":""either D or K""}","0","","","","","","","","","","","","","","","","","",""
"","start_exp","","html-keyboard-response","3","166454","0.0-1.0-1.0","0","0","83352","","6961","","","32","","","","","","","","","","","","","","","","",""
"","S1","","html-keyboard-response","4","166710","0.0-1.0-2.0","0","0","83352","","null","","","null","0","","","","","","","","","","","","","","","",""
"","ISI","","html-keyboard-response","5","168721","0.0-1.0-3.0","0","0","83352","","null","","","null","0","NaN","","","","","","","","","","","","","","",""
"","S2","","html-keyboard-response","6","168978","0.0-1.0-4.0","0","0","83352","","null","","","null","0","","NaN","","","","","","","","","","","","","",""
"","response","","html-keyboard-response","7","169579","0.0-1.0-5.0","0","0","83352","","598","","","75","0","","","1","0","training","adjacent","FE","6","5","O.jpg","N.jpg","0","0","1","",""
"","feedback","","html-keyboard-response","8","170597","0.0-1.0-6.0-0.0","0","0","83352","","null","","","null","0","","","","","","","","","","","","","","","",""
"","ITI","","html-keyboard-response","9","171615","0.0-1.0-9.0","0","0","83352","","null","","","null","0","","","","","","","","","","","","","","","NaN",""
"","S1","","html-keyboard-response","10","171882","0.0-1.0-11.0","0","0","83352","","null","","","null","1","","","","","","","","","","","","","","","",""
"","ISI","","html-keyboard-response","11","173888","0.0-1.0-12.0","0","0","83352","","null","","","null","1","NaN","","","","","","","","","","","","","","",""
"","S2","","html-keyboard-response","12","174152","0.0-1.0-13.0","0","0","83352","","null","","","null","1","","NaN","","","","","","","","","","","","","",""
"","response","","html-keyboard-response","13","174779","0.0-1.0-14.0","0","0","83352","","624","","","68","1","","","1","1","training","adjacent","FG","6","7","O.jpg","Q.jpg","1","1","1","",""
"","feedback","","html-keyboard-response","14","175795","0.0-1.0-15.0-0.0","0","0","83352","","null","","","null","1","","","","","","","","","","","","","","","",""
"","ITI","","html-keyboard-response","15","176811","0.0-1.0-18.0","0","0","83352","","null","","","null","1","","","","","","","","","","","","","","","NaN",""
"","S1","","html-keyboard-response","16","177082","0.0-1.0-20.0","0","0","83352","","null","","","null","2","","","","","","","","","","","","","","","",""
"","ISI","","html-keyboard-response","17","179089","0.0-1.0-21.0","0","0","83352","","null","","","null","2","NaN","","","","","","","","","","","","","","",""
"","S2","","html-keyboard-response","18","179351","0.0-1.0-22.0","0","0","83352","","null","","","null","2","","NaN","","","","","","","","","","","","","",""
"","response","","html-keyboard-response","19","179772","0.0-1.0-23.0","0","0","83352","","417","","","75","2","","","1","2","training","adjacent","CB","3","2","R.jpg","L.jpg","0","0","1","",""
"","feedback","","html-keyboard-response","20","180793","0.0-1.0-24.0-0.0","0","0","83352","","null","","","null","2","","","","","","","","","","","","","","","",""
"","ITI","","html-keyboard-response","21","181811","0.0-1.0-27.0","0","0","83352","","null","","","null","2","","","","","","","","","","","","","","","NaN",""
"","S1","","html-keyboard-response","22","182074","0.0-1.0-29.0","0","0","83352","","null","","","null","3","","","","","","","","","","","","","","","",""
"","ISI","","html-keyboard-response","23","184084","0.0-1.0-30.0","0","0","83352","","null","","","null","3","NaN","","","","","","","","","","","","","","",""
"","S2","","html-keyboard-response","24","184350","0.0-1.0-31.0","0","0","83352","","null","","","null","3","","NaN","","","","","","","","","","","","","",""
"","response","","html-keyboard-response","25","184972","0.0-1.0-32.0","0","0","83352","","621","","","68","3","","","1","3","training","adjacent","ED","5","4","N.jpg","M.jpg","1","0","0","",""
"","feedback","","html-keyboard-response","26","185983","0.0-1.0-33.0-0.0","0","0","83352","","null","","","null","3","","","","","","","","","","","","","","","",""
"","time_out","","html-keyboard-response","27","187989","0.0-1.0-35.0-0.0","0","0","83352","","null","","","null","3","","","","","","","","","","","","","","","",""
"","ITI","","html-keyboard-response","28","188991","0.0-1.0-36.0","0","0","83352","","null","","","null","3","","","","","","","","","","","","","","","NaN",""
"","S1","","html-keyboard-response","29","189247","0.0-1.0-38.0","0","0","83352","","null","","","null","4","","","","","","","","","","","","","","","",""
"","ISI","","html-keyboard-response","30","191252","0.0-1.0-39.0","0","0","83352","","null","","","null","4","NaN","","","","","","","","","","","","","","",""
"","S2","","html-keyboard-response","31","191506","0.0-1.0-40.0","0","0","83352","","null","","","null","4","","NaN","","","","","","","","","","","","","",""
"","response","","html-keyboard-response","32","191767","0.0-1.0-41.0","0","0","83352","","257","","","75","4","","","1","4","training","adjacent","CB","3","2","R.jpg","L.jpg","0","0","1","",""
"","feedback","","html-keyboard-response","33","192773","0.0-1.0-42.0-0.0","0","0","83352","","null","","","null","4","","","","","","","","","","","","","","","",""
"","ITI","","html-keyboard-response","34","193791","0.0-1.0-45.0","0","0","83352","","null","","","null","4","","","","","","","","","","","","","","","NaN",""
"","S1","","html-keyboard-response","35","194045","0.0-1.0-47.0","0","0","83352","","null","","","null","5","","","","","","","","","","","","","","","",""
"","ISI","","html-keyboard-response","36","196048","0.0-1.0-48.0","0","0","83352","","null","","","null","5","NaN","","","","","","","","","","","","","","",""
"","S2","","html-keyboard-response","37","196313","0.0-1.0-49.0","0","0","83352","","null","","","null","5","","NaN","","","","","","","","","","","","","",""
"","response","","html-keyboard-response","38","196948","0.0-1.0-50.0","0","0","83352","","634","","","68","5","","","1","5","training","adjacent","GF","7","6","Q.jpg","O.jpg","1","0","0","",""
"","feedback","","html-keyboard-response","39","197955","0.0-1.0-51.0-0.0","0","0","83352","","null","","","null","5","","","","","","","","","","","","","","","",""
"","time_out","","html-keyboard-response","40","199965","0.0-1.0-53.0-0.0","0","0","83352","","null","","","null","5","","","","","","","","","","","","","","","",""
"","ITI","","html-keyboard-response","41","200983","0.0-1.0-54.0","0","0","83352","","null","","","null","5","","","","","","","","","","","","","","","NaN",""
"","S1","","html-keyboard-response","42","201246","0.0-1.0-56.0","0","0","83352","","null","","","null","6","","","","","","","","","","","","","","","",""
"","ISI","","html-keyboard-response","43","203254","0.0-1.0-57.0","0","0","83352","","null","","","null","6","NaN","","","","","","","","","","","","","","",""
"","S2","","html-keyboard-response","44","203521","0.0-1.0-58.0","0","0","83352","","null","","","null","6","","NaN","","","","","","","","","","","","","",""
"","response","","html-keyboard-response","45","204110","0.0-1.0-59.0","0","0","83352","","584","","","75","6","","","1","6","training","adjacent","GF","7","6","Q.jpg","O.jpg","0","0","1","",""
"","feedback","","html-keyboard-response","46","205128","0.0-1.0-60.0-0.0","0","0","83352","","null","","","null","6","","","","","","","","","","","","","","","",""
"","ITI","","html-keyboard-response","47","206142","0.0-1.0-63.0","0","0","83352","","null","","","null","6","","","","","","","","","","","","","","","NaN",""
"","S1","","html-keyboard-response","48","206398","0.0-1.0-65.0","0","0","83352","","null","","","null","7","","","","","","","","","","","","","","","",""
"","ISI","","html-keyboard-response","49","208401","0.0-1.0-66.0","0","0","83352","","null","","","null","7","NaN","","","","","","","","","","","","","","",""
"","S2","","html-keyboard-response","50","208666","0.0-1.0-67.0","0","0","83352","","null","","","null","7","","NaN","","","","","","","","","","","","","",""
"","response","","html-keyboard-response","51","209393","0.0-1.0-68.0","0","0","83352","","724","","","68","7","","","1","7","training","adjacent","DC","4","3","M.jpg","R.jpg","1","0","0","",""
"","feedback","","html-keyboard-response","52","210409","0.0-1.0-69.0-0.0","0","0","83352","","null","","","null","7","","","","","","","","","","","","","","","",""
"","time_out","","html-keyboard-response","53","212414","0.0-1.0-71.0-0.0","0","0","83352","","null","","","null","7","","","","","","","","","","","","","","","",""
"","ITI","","html-keyboard-response","54","213432","0.0-1.0-72.0","0","0","83352","","null","","","null","7","","","","","","","","","","","","","","","NaN",""
"","S1","","html-keyboard-response","55","213702","0.0-1.0-74.0","0","0","83352","","null","","","null","8","","","","","","","","","","","","","","","",""
"","ISI","","html-keyboard-response","56","215706","0.0-1.0-75.0","0","0","83352","","null","","","null","8","NaN","","","","","","","","","","","","","","",""
"","S2","","html-keyboard-response","57","215969","0.0-1.0-76.0","0","0","83352","","null","","","null","8","","NaN","","","","","","","","","","","","","",""
"","response","","html-keyboard-response","58","216449","0.0-1.0-77.0","0","0","83352","","476","","","75","8","","","1","8","training","adjacent","AB","1","2","P.jpg","L.jpg","0","1","0","",""
"","feedback","","html-keyboard-response","59","217459","0.0-1.0-78.0-0.0","0","0","83352","","null","","","null","8","","","","","","","","","","","","","","","",""
"","time_out","","html-keyboard-response","60","219464","0.0-1.0-80.0-0.0","0","0","83352","","null","","","null","8","","","","","","","","","","","","","","","",""
"","ITI","","html-keyboard-response","61","220469","0.0-1.0-81.0","0","0","83352","","null","","","null","8","","","","","","","","","","","","","","","NaN",""
"","S1","","html-keyboard-response","62","220737","0.0-1.0-83.0","0","0","83352","","null","","","null","9","","","","","","","","","","","","","","","",""
"","ISI","","html-keyboard-response","63","222742","0.0-1.0-84.0","0","0","83352","","null","","","null","9","NaN","","","","","","","","","","","","","","",""
"","S2","","html-keyboard-response","64","223005","0.0-1.0-85.0","0","0","83352","","null","","","null","9","","NaN","","","","","","","","","","","","","",""
"","response","","html-keyboard-response","65","223581","0.0-1.0-86.0","0","0","83352","","573","","","75","9","","","1","9","training","adjacent","DC","4","3","M.jpg","R.jpg","0","0","1","",""
"","feedback","","html-keyboard-response","66","224598","0.0-1.0-87.0-0.0","0","0","83352","","null","","","null","9","","","","","","","","","","","","","","","",""
"","ITI","","html-keyboard-response","67","225616","0.0-1.0-90.0","0","0","83352","","null","","","null","9","","","","","","","","","","","","","","","NaN",""
"","S1","","html-keyboard-response","68","225870","0.0-1.0-92.0","0","0","83352","","null","","","null","10","","","","","","","","","","","","","","","",""
"","ISI","","html-keyboard-response","69","227876","0.0-1.0-93.0","0","0","83352","","null","","","null","10","NaN","","","","","","","","","","","","","","",""
"","S2","","html-keyboard-response","70","228142","0.0-1.0-94.0","0","0","83352","","null","","","null","10","","NaN","","","","","","","","","","","","","",""
"","response","","html-keyboard-response","71","228747","0.0-1.0-95.0","0","0","83352","","601","","","75","10","","","1","10","training","adjacent","EF","5","6","N.jpg","O.jpg","0","1","0","",""
"","feedback","","html-keyboard-response","72","229760","0.0-1.0-96.0-0.0","0","0","83352","","null","","","null","10","","","","","","","","","","","","","","","",""
"","time_out","","html-keyboard-response","73","231773","0.0-1.0-98.0-0.0","0","0","83352","","null","","","null","10","","","","","","","","","","","","","","","",""
"","ITI","","html-keyboard-response","74","232786","0.0-1.0-99.0","0","0","83352","","null","","","null","10","","","","","","","","","","","","","","","NaN",""
"","S1","","html-keyboard-response","75","233055","0.0-1.0-101.0","0","0","83352","","null","","","null","11","","","","","","","","","","","","","","","",""
"","ISI","","html-keyboard-response","76","235059","0.0-1.0-102.0","0","0","83352","","null","","","null","11","NaN","","","","","","","","","","","","","","",""
"","S2","","html-keyboard-response","77","235324","0.0-1.0-103.0","0","0","83352","","null","","","null","11","","NaN","","","","","","","","","","","","","",""
"","response","","html-keyboard-response","78","235919","0.0-1.0-104.0","0","0","83352","","592","","","75","11","","","1","11","training","adjacent","DE","4","5","M.jpg","N.jpg","0","1","0","",""
"","feedback","","html-keyboard-response","79","236928","0.0-1.0-105.0-0.0","0","0","83352","","null","","","null","11","","","","","","","","","","","","","","","",""
"","time_out","","html-keyboard-response","80","238933","0.0-1.0-107.0-0.0","0","0","83352","","null","","","null","11","","","","","","","","","","","","","","","",""
"","ITI","","html-keyboard-response","81","239940","0.0-1.0-108.0","0","0","83352","","null","","","null","11","","","","","","","","","","","","","","","NaN",""
"","S1","","html-keyboard-response","82","240195","0.0-1.0-110.0","0","0","83352","","null","","","null","12","","","","","","","","","","","","","","","",""
"","ISI","","html-keyboard-response","83","242198","0.0-1.0-111.0","0","0","83352","","null","","","null","12","NaN","","","","","","","","","","","","","","",""
"","S2","","html-keyboard-response","84","242463","0.0-1.0-112.0","0","0","83352","","null","","","null","12","","NaN","","","","","","","","","","","","","",""
"","response","","html-keyboard-response","85","243051","0.0-1.0-113.0","0","0","83352","","584","","","75","12","","","1","12","training","adjacent","CD","3","4","R.jpg","M.jpg","0","1","0","",""
"","feedback","","html-keyboard-response","86","244068","0.0-1.0-114.0-0.0","0","0","83352","","null","","","null","12","","","","","","","","","","","","","","","",""
"","time_out","","html-keyboard-response","87","246073","0.0-1.0-116.0-0.0","0","0","83352","","null","","","null","12","","","","","","","","","","","","","","","",""
"","ITI","","html-keyboard-response","88","247092","0.0-1.0-117.0","0","0","83352","","null","","","null","12","","","","","","","","","","","","","","","NaN",""
"","S1","","html-keyboard-response","89","247345","0.0-1.0-119.0","0","0","83352","","null","","","null","13","","","","","","","","","","","","","","","",""
"","ISI","","html-keyboard-response","90","249358","0.0-1.0-120.0","0","0","83352","","null","","","null","13","NaN","","","","","","","","","","","","","","",""
"","S2","","html-keyboard-response","91","249613","0.0-1.0-121.0","0","0","83352","","null","","","null","13","","NaN","","","","","","","","","","","","","",""
"","response","","html-keyboard-response","92","250256","0.0-1.0-122.0","0","0","83352","","641","","","68","13","","","1","13","training","adjacent","DC","4","3","M.jpg","R.jpg","1","0","0","",""
"","feedback","","html-keyboard-response","93","251265","0.0-1.0-123.0-0.0","0","0","83352","","null","","","null","13","","","","","","","","","","","","","","","",""
"","time_out","","html-keyboard-response","94","253268","0.0-1.0-125.0-0.0","0","0","83352","","null","","","null","13","","","","","","","","","","","","","","","",""
"","ITI","","html-keyboard-response","95","254277","0.0-1.0-126.0","0","0","83352","","null","","","null","13","","","","","","","","","","","","","","","NaN",""
"","S1","","html-keyboard-response","96","254542","0.0-1.0-128.0","0","0","83352","","null","","","null","14","","","","","","","","","","","","","","","",""
"","ISI","","html-keyboard-response","97","256547","0.0-1.0-129.0","0","0","83352","","null","","","null","14","NaN","","","","","","","","","","","","","","",""
"","S2","","html-keyboard-response","98","256811","0.0-1.0-130.0","0","0","83352","","null","","","null","14","","NaN","","","","","","","","","","","","","",""
"","response","","html-keyboard-response","99","257450","0.0-1.0-131.0","0","0","83352","","635","","","68","14","","","1","14","training","adjacent","CD","3","4","R.jpg","M.jpg","1","1","1","",""
"","feedback","","html-keyboard-response","100","258467","0.0-1.0-132.0-0.0","0","0","83352","","null","","","null","14","","","","","","","","","","","","","","","",""
"","ITI","","html-keyboard-response","101","259469","0.0-1.0-135.0","0","0","83352","","null","","","null","14","","","","","","","","","","","","","","","NaN",""
"","S1","","html-keyboard-response","102","259741","0.0-1.0-137.0","0","0","83352","","null","","","null","15","","","","","","","","","","","","","","","",""
"","ISI","","html-keyboard-response","103","261746","0.0-1.0-138.0","0","0","83352","","null","","","null","15","NaN","","","","","","","","","","","","","","",""
"","S2","","html-keyboard-response","104","262009","0.0-1.0-139.0","0","0","83352","","null","","","null","15","","NaN","","","","","","","","","","","","","",""
"","response","","html-keyboard-response","105","262533","0.0-1.0-140.0","0","0","83352","","523","","","68","15","","","1","15","training","adjacent","FE","6","5","O.jpg","N.jpg","1","0","0","",""
"","feedback","","html-keyboard-response","106","263548","0.0-1.0-141.0-0.0","0","0","83352","","null","","","null","15","","","","","","","","","","","","","","","",""
"","time_out","","html-keyboard-response","107","265553","0.0-1.0-143.0-0.0","0","0","83352","","null","","","null","15","","","","","","","","","","","","","","","",""
"","ITI","","html-keyboard-response","108","266559","0.0-1.0-144.0","0","0","83352","","null","","","null","15","","","","","","","","","","","","","","","NaN",""
"","S1","","html-keyboard-response","109","266822","0.0-1.0-146.0","0","0","83352","","null","","","null","16","","","","","","","","","","","","","","","",""
"","ISI","","html-keyboard-response","110","268826","0.0-1.0-147.0","0","0","83352","","null","","","null","16","NaN","","","","","","","","","","","","","","",""
"","S2","","html-keyboard-response","111","269082","0.0-1.0-148.0","0","0","83352","","null","","","null","16","","NaN","","","","","","","","","","","","","",""
"","response","","html-keyboard-response","112","269807","0.0-1.0-149.0","0","0","83352","","724","","","68","16","","","1","16","training","adjacent","BC","2","3","L.jpg","R.jpg","1","1","1","",""
"","feedback","","html-keyboard-response","113","270815","0.0-1.0-150.0-0.0","0","0","83352","","null","","","null","16","","","","","","","","","","","","","","","",""
"","ITI","","html-keyboard-response","114","271818","0.0-1.0-153.0","0","0","83352","","null","","","null","16","","","","","","","","","","","","","","","NaN",""
"","S1","","html-keyboard-response","115","272074","0.0-1.0-155.0","0","0","83352","","null","","","null","17","","","","","","","","","","","","","","","",""
"","ISI","","html-keyboard-response","116","274099","0.0-1.0-156.0","0","0","83352","","null","","","null","17","NaN","","","","","","","","","","","","","","",""
"","S2","","html-keyboard-response","117","274363","0.0-1.0-157.0","0","0","83352","","null","","","null","17","","NaN","","","","","","","","","","","","","",""
"","response","","html-keyboard-response","118","275162","0.0-1.0-158.0","0","0","83352","","798","","","75","17","","","1","17","training","adjacent","AB","1","2","P.jpg","L.jpg","0","1","0","",""
"","feedback","","html-keyboard-response","119","276166","0.0-1.0-159.0-0.0","0","0","83352","","null","","","null","17","","","","","","","","","","","","","","","",""
"","time_out","","html-keyboard-response","120","278173","0.0-1.0-161.0-0.0","0","0","83352","","null","","","null","17","","","","","","","","","","","","","","","",""
"","ITI","","html-keyboard-response","121","279181","0.0-1.0-162.0","0","0","83352","","null","","","null","17","","","","","","","","","","","","","","","NaN",""
"","S1","","html-keyboard-response","122","279436","0.0-1.0-164.0","0","0","83352","","null","","","null","18","","","","","","","","","","","","","","","",""
"","ISI","","html-keyboard-response","123","281442","0.0-1.0-165.0","0","0","83352","","null","","","null","18","NaN","","","","","","","","","","","","","","",""
"","S2","","html-keyboard-response","124","281704","0.0-1.0-166.0","0","0","83352","","null","","","null","18","","NaN","","","","","","","","","","","","","",""
"","response","","html-keyboard-response","125","282268","0.0-1.0-167.0","0","0","83352","","563","","","68","18","","","1","18","training","adjacent","ED","5","4","N.jpg","M.jpg","1","0","0","",""
"","feedback","","html-keyboard-response","126","283277","0.0-1.0-168.0-0.0","0","0","83352","","null","","","null","18","","","","","","","","","","","","","","","",""
"","time_out","","html-keyboard-response","127","285283","0.0-1.0-170.0-0.0","0","0","83352","","null","","","null","18","","","","","","","","","","","","","","","",""
"","ITI","","html-keyboard-response","128","286301","0.0-1.0-171.0","0","0","83352","","null","","","null","18","","","","","","","","","","","","","","","NaN",""
"","S1","","html-keyboard-response","129","286556","0.0-1.0-173.0","0","0","83352","","null","","","null","19","","","","","","","","","","","","","","","",""
"","ISI","","html-keyboard-response","130","288561","0.0-1.0-174.0","0","0","83352","","null","","","null","19","NaN","","","","","","","","","","","","","","",""
"","S2","","html-keyboard-response","131","288824","0.0-1.0-175.0","0","0","83352","","null","","","null","19","","NaN","","","","","","","","","","","","","",""
"","response","","html-keyboard-response","132","289542","0.0-1.0-176.0","0","0","83352","","716","","","68","19","","","1","19","training","adjacent","CD","3","4","R.jpg","M.jpg","1","1","1","",""
"","feedback","","html-keyboard-response","133","290565","0.0-1.0-177.0-0.0","0","0","83352","","null","","","null","19","","","","","","","","","","","","","","","",""
"","ITI","","html-keyboard-response","134","291570","0.0-1.0-180.0","0","0","83352","","null","","","null","19","","","","","","","","","","","","","","","NaN",""
"","S1","","html-keyboard-response","135","291831","0.0-1.0-182.0","0","0","83352","","null","","","null","20","","","","","","","","","","","","","","","",""
"","ISI","","html-keyboard-response","136","293838","0.0-1.0-183.0","0","0","83352","","null","","","null","20","NaN","","","","","","","","","","","","","","",""
"","S2","","html-keyboard-response","137","294092","0.0-1.0-184.0","0","0","83352","","null","","","null","20","","NaN","","","","","","","","","","","","","",""
"","response","","html-keyboard-response","138","294792","0.0-1.0-185.0","0","0","83352","","699","","","68","20","","","1","20","training","adjacent","EF","5","6","N.jpg","O.jpg","1","1","1","",""
"","feedback","","html-keyboard-response","139","295802","0.0-1.0-186.0-0.0","0","0","83352","","null","","","null","20","","","","","","","","","","","","","","","",""
"","ITI","","html-keyboard-response","140","296817","0.0-1.0-189.0","0","0","83352","","null","","","null","20","","","","","","","","","","","","","","","NaN",""
"","S1","","html-keyboard-response","141","297083","0.0-1.0-191.0","0","0","83352","","null","","","null","21","","","","","","","","","","","","","","","",""
"","ISI","","html-keyboard-response","142","299088","0.0-1.0-192.0","0","0","83352","","null","","","null","21","NaN","","","","","","","","","","","","","","",""
"","S2","","html-keyboard-response","143","299342","0.0-1.0-193.0","0","0","83352","","null","","","null","21","","NaN","","","","","","","","","","","","","",""
"","response","","html-keyboard-response","144","299625","0.0-1.0-194.0","0","0","83352","","278","","","75","21","","","1","21","training","adjacent","GF","7","6","Q.jpg","O.jpg","0","0","1","",""
"","feedback","","html-keyboard-response","145","300630","0.0-1.0-195.0-0.0","0","0","83352","","null","","","null","21","","","","","","","","","","","","","","","",""
"","ITI","","html-keyboard-response","146","301647","0.0-1.0-198.0","0","0","83352","","null","","","null","21","","","","","","","","","","","","","","","NaN",""
"","S1","","html-keyboard-response","147","301918","0.0-1.0-200.0","0","0","83352","","null","","","null","22","","","","","","","","","","","","","","","",""
"","ISI","","html-keyboard-response","148","303923","0.0-1.0-201.0","0","0","83352","","null","","","null","22","NaN","","","","","","","","","","","","","","",""
"","S2","","html-keyboard-response","149","304187","0.0-1.0-202.0","0","0","83352","","null","","","null","22","","NaN","","","","","","","","","","","","","",""
"","response","","html-keyboard-response","150","304770","0.0-1.0-203.0","0","0","83352","","581","","","75","22","","","1","22","training","adjacent","CB","3","2","R.jpg","L.jpg","0","0","1","",""
"","feedback","","html-keyboard-response","151","305776","0.0-1.0-204.0-0.0","0","0","83352","","null","","","null","22","","","","","","","","","","","","","","","",""
"","ITI","","html-keyboard-response","152","306792","0.0-1.0-207.0","0","0","83352","","null","","","null","22","","","","","","","","","","","","","","","NaN",""
"","S1","","html-keyboard-response","153","307047","0.0-1.0-209.0","0","0","83352","","null","","","null","23","","","","","","","","","","","","","","","",""
"","ISI","","html-keyboard-response","154","309053","0.0-1.0-210.0","0","0","83352","","null","","","null","23","NaN","","","","","","","","","","","","","","",""
"","S2","","html-keyboard-response","155","309317","0.0-1.0-211.0","0","0","83352","","null","","","null","23","","NaN","","","","","","","","","","","","","",""
"","response","","html-keyboard-response","156","309858","0.0-1.0-212.0","0","0","83352","","539","","","75","23","","","1","23","training","adjacent","DC","4","3","M.jpg","R.jpg","0","0","1","",""
"","feedback","","html-keyboard-response","157","310874","0.0-1.0-213.0-0.0","0","0","83352","","null","","","null","23","","","","","","","","","","","","","","","",""
"","ITI","","html-keyboard-response","158","311892","0.0-1.0-216.0","0","0","83352","","null","","","null","23","","","","","","","","","","","","","","","NaN",""
"","S1","","html-keyboard-response","159","312146","0.0-1.0-218.0","0","0","83352","","null","","","null","24","","","","","","","","","","","","","","","",""
"","ISI","","html-keyboard-response","160","314152","0.0-1.0-219.0","0","0","83352","","null","","","null","24","NaN","","","","","","","","","","","","","","",""
"","S2","","html-keyboard-response","161","314414","0.0-1.0-220.0","0","0","83352","","null","","","null","24","","NaN","","","","","","","","","","","","","",""
"","response","","html-keyboard-response","162","314783","0.0-1.0-221.0","0","0","83352","","364","","","75","24","","","1","24","training","adjacent","ED","5","4","N.jpg","M.jpg","0","0","1","",""
"","feedback","","html-keyboard-response","163","315788","0.0-1.0-222.0-0.0","0","0","83352","","null","","","null","24","","","","","","","","","","","","","","","",""
"","ITI","","html-keyboard-response","164","316806","0.0-1.0-225.0","0","0","83352","","null","","","null","24","","","","","","","","","","","","","","","NaN",""
"","S1","","html-keyboard-response","165","317059","0.0-1.0-227.0","0","0","83352","","null","","","null","25","","","","","","","","","","","","","","","",""
"","ISI","","html-keyboard-response","166","319066","0.0-1.0-228.0","0","0","83352","","null","","","null","25","NaN","","","","","","","","","","","","","","",""
"","S2","","html-keyboard-response","167","319327","0.0-1.0-229.0","0","0","83352","","null","","","null","25","","NaN","","","","","","","","","","","","","",""
"","response","","html-keyboard-response","168","319601","0.0-1.0-230.0","0","0","83352","","271","","","68","25","","","1","25","training","adjacent","FG","6","7","O.jpg","Q.jpg","1","1","1","",""
"","feedback","","html-keyboard-response","169","320617","0.0-1.0-231.0-0.0","0","0","83352","","null","","","null","25","","","","","","","","","","","","","","","",""
"","ITI","","html-keyboard-response","170","321635","0.0-1.0-234.0","0","0","83352","","null","","","null","25","","","","","","","","","","","","","","","NaN",""
"","S1","","html-keyboard-response","171","321889","0.0-1.0-236.0","0","0","83352","","null","","","null","26","","","","","","","","","","","","","","","",""
"","ISI","","html-keyboard-response","172","323895","0.0-1.0-237.0","0","0","83352","","null","","","null","26","NaN","","","","","","","","","","","","","","",""
"","S2","","html-keyboard-response","173","324158","0.0-1.0-238.0","0","0","83352","","null","","","null","26","","NaN","","","","","","","","","","","","","",""
"","response","","html-keyboard-response","174","324845","0.0-1.0-239.0","0","0","83352","","686","","","68","26","","","1","26","training","adjacent","BC","2","3","L.jpg","R.jpg","1","1","1","",""
"","feedback","","html-keyboard-response","175","325850","0.0-1.0-240.0-0.0","0","0","83352","","null","","","null","26","","","","","","","","","","","","","","","",""
"","ITI","","html-keyboard-response","176","326859","0.0-1.0-243.0","0","0","83352","","null","","","null","26","","","","","","","","","","","","","","","NaN",""
"","S1","","html-keyboard-response","177","327128","0.0-1.0-245.0","0","0","83352","","null","","","null","27","","","","","","","","","","","","","","","",""
"","ISI","","html-keyboard-response","178","329132","0.0-1.0-246.0","0","0","83352","","null","","","null","27","NaN","","","","","","","","","","","","","","",""
"","S2","","html-keyboard-response","179","329386","0.0-1.0-247.0","0","0","83352","","null","","","null","27","","NaN","","","","","","","","","","","","","",""
"","response","","html-keyboard-response","180","329775","0.0-1.0-248.0","0","0","83352","","385","","","68","27","","","1","27","training","adjacent","FG","6","7","O.jpg","Q.jpg","1","1","1","",""
"","feedback","","html-keyboard-response","181","330790","0.0-1.0-249.0-0.0","0","0","83352","","null","","","null","27","","","","","","","","","","","","","","","",""
"","ITI","","html-keyboard-response","182","331808","0.0-1.0-252.0","0","0","83352","","null","","","null","27","","","","","","","","","","","","","","","NaN",""
"","S1","","html-keyboard-response","183","332078","0.0-1.0-254.0","0","0","83352","","null","","","null","28","","","","","","","","","","","","","","","",""
"","ISI","","html-keyboard-response","184","334084","0.0-1.0-255.0","0","0","83352","","null","","","null","28","NaN","","","","","","","","","","","","","","",""
"","S2","","html-keyboard-response","185","334347","0.0-1.0-256.0","0","0","83352","","null","","","null","28","","NaN","","","","","","","","","","","","","",""
"","response","","html-keyboard-response","186","334982","0.0-1.0-257.0","0","0","83352","","634","","","68","28","","","1","28","training","adjacent","BC","2","3","L.jpg","R.jpg","1","1","1","",""
"","feedback","","html-keyboard-response","187","335987","0.0-1.0-258.0-0.0","0","0","83352","","null","","","null","28","","","","","","","","","","","","","","","",""
"","ITI","","html-keyboard-response","188","336989","0.0-1.0-261.0","0","0","83352","","null","","","null","28","","","","","","","","","","","","","","","NaN",""
"","S1","","html-keyboard-response","189","337254","0.0-1.0-263.0","0","0","83352","","null","","","null","29","","","","","","","","","","","","","","","",""
"","ISI","","html-keyboard-response","190","339260","0.0-1.0-264.0","0","0","83352","","null","","","null","29","NaN","","","","","","","","","","","","","","",""
"","S2","","html-keyboard-response","191","339529","0.0-1.0-265.0","0","0","83352","","null","","","null","29","","NaN","","","","","","","","","","","","","",""
"","response","","html-keyboard-response","192","339992","0.0-1.0-266.0","0","0","83352","","460","","","68","29","","","1","29","training","adjacent","BC","2","3","L.jpg","R.jpg","1","1","1","",""
"","feedback","","html-keyboard-response","193","341001","0.0-1.0-267.0-0.0","0","0","83352","","null","","","null","29","","","","","","","","","","","","","","","",""
"","ITI","","html-keyboard-response","194","342017","0.0-1.0-270.0","0","0","83352","","null","","","null","29","","","","","","","","","","","","","","","NaN",""
"","S1","","html-keyboard-response","195","342272","0.0-1.0-272.0","0","0","83352","","null","","","null","30","","","","","","","","","","","","","","","",""
"","ISI","","html-keyboard-response","196","344277","0.0-1.0-273.0","0","0","83352","","null","","","null","30","NaN","","","","","","","","","","","","","","",""
"","S2","","html-keyboard-response","197","344540","0.0-1.0-274.0","0","0","83352","","null","","","null","30","","NaN","","","","","","","","","","","","","",""
"","response","","html-keyboard-response","198","344985","0.0-1.0-275.0","0","0","83352","","440","","","75","30","","","1","30","training","adjacent","AB","1","2","P.jpg","L.jpg","0","1","0","",""
"","feedback","","html-keyboard-response","199","345997","0.0-1.0-276.0-0.0","0","0","83352","","null","","","null","30","","","","","","","","","","","","","","","",""
"","time_out","","html-keyboard-response","200","348002","0.0-1.0-278.0-0.0","0","0","83352","","null","","","null","30","","","","","","","","","","","","","","","",""
"","ITI","","html-keyboard-response","201","349020","0.0-1.0-279.0","0","0","83352","","null","","","null","30","","","","","","","","","","","","","","","NaN",""
"","S1","","html-keyboard-response","202","349291","0.0-1.0-281.0","0","0","83352","","null","","","null","31","","","","","","","","","","","","","","","",""
"","ISI","","html-keyboard-response","203","351295","0.0-1.0-282.0","0","0","83352","","null","","","null","31","NaN","","","","","","","","","","","","","","",""
"","S2","","html-keyboard-response","204","351549","0.0-1.0-283.0","0","0","83352","","null","","","null","31","","NaN","","","","","","","","","","","","","",""
"","response","","html-keyboard-response","205","352034","0.0-1.0-284.0","0","0","83352","","481","","","68","31","","","1","31","training","adjacent","DE","4","5","M.jpg","N.jpg","1","1","1","",""
"","feedback","","html-keyboard-response","206","353037","0.0-1.0-285.0-0.0","0","0","83352","","null","","","null","31","","","","","","","","","","","","","","","",""
"","ITI","","html-keyboard-response","207","354056","0.0-1.0-288.0","0","0","83352","","null","","","null","31","","","","","","","","","","","","","","","NaN",""
"","S1","","html-keyboard-response","208","354310","0.0-1.0-290.0","0","0","83352","","null","","","null","32","","","","","","","","","","","","","","","",""
"","ISI","","html-keyboard-response","209","356313","0.0-1.0-291.0","0","0","83352","","null","","","null","32","NaN","","","","","","","","","","","","","","",""
"","S2","","html-keyboard-response","210","356578","0.0-1.0-292.0","0","0","83352","","null","","","null","32","","NaN","","","","","","","","","","","","","",""
"","response","","html-keyboard-response","211","356984","0.0-1.0-293.0","0","0","83352","","402","","","75","32","","","1","32","training","adjacent","EF","5","6","N.jpg","O.jpg","0","1","0","",""
"","feedback","","html-keyboard-response","212","357998","0.0-1.0-294.0-0.0","0","0","83352","","null","","","null","32","","","","","","","","","","","","","","","",""
"","time_out","","html-keyboard-response","213","360003","0.0-1.0-296.0-0.0","0","0","83352","","null","","","null","32","","","","","","","","","","","","","","","",""
"","ITI","","html-keyboard-response","214","361019","0.0-1.0-297.0","0","0","83352","","null","","","null","32","","","","","","","","","","","","","","","NaN",""
"","S1","","html-keyboard-response","215","361275","0.0-1.0-299.0","0","0","83352","","null","","","null","33","","","","","","","","","","","","","","","",""
"","ISI","","html-keyboard-response","216","363280","0.0-1.0-300.0","0","0","83352","","null","","","null","33","NaN","","","","","","","","","","","","","","",""
"","S2","","html-keyboard-response","217","363551","0.0-1.0-301.0","0","0","83352","","null","","","null","33","","NaN","","","","","","","","","","","","","",""
"","response","","html-keyboard-response","218","363970","0.0-1.0-302.0","0","0","83352","","415","","","68","33","","","1","33","training","adjacent","FE","6","5","O.jpg","N.jpg","1","0","0","",""
"","feedback","","html-keyboard-response","219","364984","0.0-1.0-303.0-0.0","0","0","83352","","null","","","null","33","","","","","","","","","","","","","","","",""
"","time_out","","html-keyboard-response","220","366990","0.0-1.0-305.0-0.0","0","0","83352","","null","","","null","33","","","","","","","","","","","","","","","",""
"","ITI","","html-keyboard-response","221","367998","0.0-1.0-306.0","0","0","83352","","null","","","null","33","","","","","","","","","","","","","","","NaN",""
"","S1","","html-keyboard-response","222","368262","0.0-1.0-308.0","0","0","83352","","null","","","null","34","","","","","","","","","","","","","","","",""
"","ISI","","html-keyboard-response","223","370276","0.0-1.0-309.0","0","0","83352","","null","","","null","34","NaN","","","","","","","","","","","","","","",""
"","S2","","html-keyboard-response","224","370541","0.0-1.0-310.0","0","0","83352","","null","","","null","34","","NaN","","","","","","","","","","","","","",""
"","response","","html-keyboard-response","225","370901","0.0-1.0-311.0","0","0","83352","","357","","","68","34","","","1","34","training","adjacent","BA","2","1","L.jpg","P.jpg","1","0","0","",""
"","feedback","","html-keyboard-response","226","371913","0.0-1.0-312.0-0.0","0","0","83352","","null","","","null","34","","","","","","","","","","","","","","","",""
"","time_out","","html-keyboard-response","227","373919","0.0-1.0-314.0-0.0","0","0","83352","","null","","","null","34","","","","","","","","","","","","","","","",""
"","ITI","","html-keyboard-response","228","374937","0.0-1.0-315.0","0","0","83352","","null","","","null","34","","","","","","","","","","","","","","","NaN",""
"","S1","","html-keyboard-response","229","375199","0.0-1.0-317.0","0","0","83352","","null","","","null","35","","","","","","","","","","","","","","","",""
"","ISI","","html-keyboard-response","230","377207","0.0-1.0-318.0","0","0","83352","","null","","","null","35","NaN","","","","","","","","","","","","","","",""
"","S2","","html-keyboard-response","231","377476","0.0-1.0-319.0","0","0","83352","","null","","","null","35","","NaN","","","","","","","","","","","","","",""
"","response","","html-keyboard-response","232","378018","0.0-1.0-320.0","0","0","83352","","539","","","75","35","","","1","35","training","adjacent","DE","4","5","M.jpg","N.jpg","0","1","0","",""
"","feedback","","html-keyboard-response","233","379033","0.0-1.0-321.0-0.0","0","0","83352","","null","","","null","35","","","","","","","","","","","","","","","",""
"","time_out","","html-keyboard-response","234","381038","0.0-1.0-323.0-0.0","0","0","83352","","null","","","null","35","","","","","","","","","","","","","","","",""
"","ITI","","html-keyboard-response","235","382055","0.0-1.0-324.0","0","0","83352","","null","","","null","35","","","","","","","","","","","","","","","NaN",""
"","S1","","html-keyboard-response","236","382320","0.0-1.0-326.0","0","0","83352","","null","","","null","36","","","","","","","","","","","","","","","",""
"","ISI","","html-keyboard-response","237","384324","0.0-1.0-327.0","0","0","83352","","null","","","null","36","NaN","","","","","","","","","","","","","","",""
"","S2","","html-keyboard-response","238","384580","0.0-1.0-328.0","0","0","83352","","null","","","null","36","","NaN","","","","","","","","","","","","","",""
"","response","","html-keyboard-response","239","385048","0.0-1.0-329.0","0","0","83352","","465","","","75","36","","","1","36","training","adjacent","AB","1","2","P.jpg","L.jpg","0","1","0","",""
"","feedback","","html-keyboard-response","240","386052","0.0-1.0-330.0-0.0","0","0","83352","","null","","","null","36","","","","","","","","","","","","","","","",""
"","time_out","","html-keyboard-response","241","388058","0.0-1.0-332.0-0.0","0","0","83352","","null","","","null","36","","","","","","","","","","","","","","","",""
"","ITI","","html-keyboard-response","242","389076","0.0-1.0-333.0","0","0","83352","","null","","","null","36","","","","","","","","","","","","","","","NaN",""
"","S1","","html-keyboard-response","243","389337","0.0-1.0-335.0","0","0","83352","","null","","","null","37","","","","","","","","","","","","","","","",""
"","ISI","","html-keyboard-response","244","391344","0.0-1.0-336.0","0","0","83352","","null","","","null","37","NaN","","","","","","","","","","","","","","",""
"","S2","","html-keyboard-response","245","391598","0.0-1.0-337.0","0","0","83352","","null","","","null","37","","NaN","","","","","","","","","","","","","",""
"","response","","html-keyboard-response","246","392138","0.0-1.0-338.0","0","0","83352","","536","","","75","37","","","1","37","training","adjacent","ED","5","4","N.jpg","M.jpg","0","0","1","",""
"","feedback","","html-keyboard-response","247","393150","0.0-1.0-339.0-0.0","0","0","83352","","null","","","null","37","","","","","","","","","","","","","","","",""
"","ITI","","html-keyboard-response","248","394159","0.0-1.0-342.0","0","0","83352","","null","","","null","37","","","","","","","","","","","","","","","NaN",""
"","S1","","html-keyboard-response","249","394422","0.0-1.0-344.0","0","0","83352","","null","","","null","38","","","","","","","","","","","","","","","",""
"","ISI","","html-keyboard-response","250","396427","0.0-1.0-345.0","0","0","83352","","null","","","null","38","NaN","","","","","","","","","","","","","","",""
"","S2","","html-keyboard-response","251","396681","0.0-1.0-346.0","0","0","83352","","null","","","null","38","","NaN","","","","","","","","","","","","","",""
"","response","","html-keyboard-response","252","397207","0.0-1.0-347.0","0","0","83352","","522","","","75","38","","","1","38","training","adjacent","CB","3","2","R.jpg","L.jpg","0","0","1","",""
"","feedback","","html-keyboard-response","253","398215","0.0-1.0-348.0-0.0","0","0","83352","","null","","","null","38","","","","","","","","","","","","","","","",""
"","ITI","","html-keyboard-response","254","399219","0.0-1.0-351.0","0","0","83352","","null","","","null","38","","","","","","","","","","","","","","","NaN",""
"","S1","","html-keyboard-response","255","399487","0.0-1.0-353.0","0","0","83352","","null","","","null","39","","","","","","","","","","","","","","","",""
"","ISI","","html-keyboard-response","256","401494","0.0-1.0-354.0","0","0","83352","","null","","","null","39","NaN","","","","","","","","","","","","","","",""
"","S2","","html-keyboard-response","257","401757","0.0-1.0-355.0","0","0","83352","","null","","","null","39","","NaN","","","","","","","","","","","","","",""
"","response","","html-keyboard-response","258","402594","0.0-1.0-356.0","0","0","83352","","833","","","68","39","","","1","39","training","adjacent","EF","5","6","N.jpg","O.jpg","1","1","1","",""
"","feedback","","html-keyboard-response","259","403599","0.0-1.0-357.0-0.0","0","0","83352","","null","","","null","39","","","","","","","","","","","","","","","",""
"","ITI","","html-keyboard-response","260","404603","0.0-1.0-360.0","0","0","83352","","null","","","null","39","","","","","","","","","","","","","","","NaN",""
"","S1","","html-keyboard-response","261","404867","0.0-1.0-362.0","0","0","83352","","null","","","null","40","","","","","","","","","","","","","","","",""
"","ISI","","html-keyboard-response","262","406872","0.0-1.0-363.0","0","0","83352","","null","","","null","40","NaN","","","","","","","","","","","","","","",""
"","S2","","html-keyboard-response","263","407125","0.0-1.0-364.0","0","0","83352","","null","","","null","40","","NaN","","","","","","","","","","","","","",""
"","response","","html-keyboard-response","264","407507","0.0-1.0-365.0","0","0","83352","","379","","","75","40","","","1","40","training","adjacent","GF","7","6","Q.jpg","O.jpg","0","0","1","",""
"","feedback","","html-keyboard-response","265","408514","0.0-1.0-366.0-0.0","0","0","83352","","null","","","null","40","","","","","","","","","","","","","","","",""
"","ITI","","html-keyboard-response","266","409532","0.0-1.0-369.0","0","0","83352","","null","","","null","40","","","","","","","","","","","","","","","NaN",""
"","S1","","html-keyboard-response","267","409795","0.0-1.0-371.0","0","0","83352","","null","","","null","41","","","","","","","","","","","","","","","",""
"","ISI","","html-keyboard-response","268","411804","0.0-1.0-372.0","0","0","83352","","null","","","null","41","NaN","","","","","","","","","","","","","","",""
"","S2","","html-keyboard-response","269","412070","0.0-1.0-373.0","0","0","83352","","null","","","null","41","","NaN","","","","","","","","","","","","","",""
"","response","","html-keyboard-response","270","412694","0.0-1.0-374.0","0","0","83352","","622","","","75","41","","","1","41","training","adjacent","BA","2","1","L.jpg","P.jpg","0","0","1","",""
"","feedback","","html-keyboard-response","271","413711","0.0-1.0-375.0-0.0","0","0","83352","","null","","","null","41","","","","","","","","","","","","","","","",""
"","ITI","","html-keyboard-response","272","414727","0.0-1.0-378.0","0","0","83352","","null","","","null","41","","","","","","","","","","","","","","","NaN",""
"","S1","","html-keyboard-response","273","414983","0.0-1.0-380.0","0","0","83352","","null","","","null","42","","","","","","","","","","","","","","","",""
"","ISI","","html-keyboard-response","274","416987","0.0-1.0-381.0","0","0","83352","","null","","","null","42","NaN","","","","","","","","","","","","","","",""
"","S2","","html-keyboard-response","275","417258","0.0-1.0-382.0","0","0","83352","","null","","","null","42","","NaN","","","","","","","","","","","","","",""
"","response","","html-keyboard-response","276","417604","0.0-1.0-383.0","0","0","83352","","342","","","75","42","","","1","42","training","adjacent","BA","2","1","L.jpg","P.jpg","0","0","1","",""
"","feedback","","html-keyboard-response","277","418608","0.0-1.0-384.0-0.0","0","0","83352","","null","","","null","42","","","","","","","","","","","","","","","",""
"","ITI","","html-keyboard-response","278","419616","0.0-1.0-387.0","0","0","83352","","null","","","null","42","","","","","","","","","","","","","","","NaN",""
"","S1","","html-keyboard-response","279","419885","0.0-1.0-389.0","0","0","83352","","null","","","null","43","","","","","","","","","","","","","","","",""
"","ISI","","html-keyboard-response","280","421908","0.0-1.0-390.0","0","0","83352","","null","","","null","43","NaN","","","","","","","","","","","","","","",""
"","S2","","html-keyboard-response","281","422173","0.0-1.0-391.0","0","0","83352","","null","","","null","43","","NaN","","","","","","","","","","","","","",""
"","response","","html-keyboard-response","282","422649","0.0-1.0-392.0","0","0","83352","","473","","","75","43","","","1","43","training","adjacent","FE","6","5","O.jpg","N.jpg","0","0","1","",""
"","feedback","","html-keyboard-response","283","423663","0.0-1.0-393.0-0.0","0","0","83352","","null","","","null","43","","","","","","","","","","","","","","","",""
"","ITI","","html-keyboard-response","284","424681","0.0-1.0-396.0","0","0","83352","","null","","","null","43","","","","","","","","","","","","","","","NaN",""
"","S1","","html-keyboard-response","285","424949","0.0-1.0-398.0","0","0","83352","","null","","","null","44","","","","","","","","","","","","","","","",""
"","ISI","","html-keyboard-response","286","426965","0.0-1.0-399.0","0","0","83352","","null","","","null","44","NaN","","","","","","","","","","","","","","",""
"","S2","","html-keyboard-response","287","427228","0.0-1.0-400.0","0","0","83352","","null","","","null","44","","NaN","","","","","","","","","","","","","",""
"","response","","html-keyboard-response","288","427883","0.0-1.0-401.0","0","0","83352","","651","","","75","44","","","1","44","training","adjacent","DE","4","5","M.jpg","N.jpg","0","1","0","",""
"","feedback","","html-keyboard-response","289","428902","0.0-1.0-402.0-0.0","0","0","83352","","null","","","null","44","","","","","","","","","","","","","","","",""
"","time_out","","html-keyboard-response","290","430910","0.0-1.0-404.0-0.0","0","0","83352","","null","","","null","44","","","","","","","","","","","","","","","",""
"","ITI","","html-keyboard-response","291","431919","0.0-1.0-405.0","0","0","83352","","null","","","null","44","","","","","","","","","","","","","","","NaN",""
"","S1","","html-keyboard-response","292","432182","0.0-1.0-407.0","0","0","83352","","null","","","null","45","","","","","","","","","","","","","","","",""
"","ISI","","html-keyboard-response","293","434188","0.0-1.0-408.0","0","0","83352","","null","","","null","45","NaN","","","","","","","","","","","","","","",""
"","S2","","html-keyboard-response","294","434442","0.0-1.0-409.0","0","0","83352","","null","","","null","45","","NaN","","","","","","","","","","","","","",""
"","response","","html-keyboard-response","295","434958","0.0-1.0-410.0","0","0","83352","","512","","","75","45","","","1","45","training","adjacent","BA","2","1","L.jpg","P.jpg","0","0","1","",""
"","feedback","","html-keyboard-response","296","435961","0.0-1.0-411.0-0.0","0","0","83352","","null","","","null","45","","","","","","","","","","","","","","","",""
"","ITI","","html-keyboard-response","297","436979","0.0-1.0-414.0","0","0","83352","","null","","","null","45","","","","","","","","","","","","","","","NaN",""
"","S1","","html-keyboard-response","298","437244","0.0-1.0-416.0","0","0","83352","","null","","","null","46","","","","","","","","","","","","","","","",""
"","ISI","","html-keyboard-response","299","439249","0.0-1.0-417.0","0","0","83352","","null","","","null","46","NaN","","","","","","","","","","","","","","",""
"","S2","","html-keyboard-response","300","439503","0.0-1.0-418.0","0","0","83352","","null","","","null","46","","NaN","","","","","","","","","","","","","",""
"","response","","html-keyboard-response","301","440001","0.0-1.0-419.0","0","0","83352","","494","","","68","46","","","1","46","training","adjacent","FG","6","7","O.jpg","Q.jpg","1","1","1","",""
"","feedback","","html-keyboard-response","302","441011","0.0-1.0-420.0-0.0","0","0","83352","","null","","","null","46","","","","","","","","","","","","","","","",""
"","ITI","","html-keyboard-response","303","442030","0.0-1.0-423.0","0","0","83352","","null","","","null","46","","","","","","","","","","","","","","","NaN",""
"","S1","","html-keyboard-response","304","442301","0.0-1.0-425.0","0","0","83352","","null","","","null","47","","","","","","","","","","","","","","","",""
"","ISI","","html-keyboard-response","305","444305","0.0-1.0-426.0","0","0","83352","","null","","","null","47","NaN","","","","","","","","","","","","","","",""
"","S2","","html-keyboard-response","306","444568","0.0-1.0-427.0","0","0","83352","","null","","","null","47","","NaN","","","","","","","","","","","","","",""
"","response","","html-keyboard-response","307","445089","0.0-1.0-428.0","0","0","83352","","520","","","75","47","","","1","47","training","adjacent","CD","3","4","R.jpg","M.jpg","0","1","0","",""
"","feedback","","html-keyboard-response","308","446109","0.0-1.0-429.0-0.0","0","0","83352","","null","","","null","47","","","","","","","","","","","","","","","",""
"","time_out","","html-keyboard-response","309","448117","0.0-1.0-431.0-0.0","0","0","83352","","null","","","null","47","","","","","","","","","","","","","","","",""
"","ITI","","html-keyboard-response","310","449134","0.0-1.0-432.0","0","0","83352","","null","","","null","47","","","","","","","","","","","","","","","NaN",""
"","block_over","","html-keyboard-response","311","458632","0.0-1.0-433.0-0.0","0","0","83352","","9493","","","32","47","","","","","","","","","","","","","","","",""
"","S1","","html-keyboard-response","312","458906","0.0-1.0-434.0","0","0","83352","","null","","","null","48","","","","","","","","","","","","","","","",""
"","ISI","","html-keyboard-response","313","460909","0.0-1.0-435.0","0","0","83352","","null","","","null","48","NaN","","","","","","","","","","","","","","",""
"","S2","","html-keyboard-response","314","461174","0.0-1.0-436.0","0","0","83352","","null","","","null","48","","NaN","","","","","","","","","","","","","",""
"","response","","html-keyboard-response","315","461858","0.0-1.0-437.0","0","0","83352","","681","","","75","48","","","2","48","training","adjacent","ED","5","4","N.jpg","M.jpg","0","0","1","",""
"","feedback","","html-keyboard-response","316","462863","0.0-1.0-438.0-0.0","0","0","83352","","null","","","null","48","","","","","","","","","","","","","","","",""
"","ITI","","html-keyboard-response","317","463870","0.0-1.0-441.0","0","0","83352","","null","","","null","48","","","","","","","","","","","","","","","NaN",""
"","S1","","html-keyboard-response","318","464139","0.0-1.0-443.0","0","0","83352","","null","","","null","49","","","","","","","","","","","","","","","",""
"","ISI","","html-keyboard-response","319","466146","0.0-1.0-444.0","0","0","83352","","null","","","null","49","NaN","","","","","","","","","","","","","","",""
"","S2","","html-keyboard-response","320","466407","0.0-1.0-445.0","0","0","83352","","null","","","null","49","","NaN","","","","","","","","","","","","","",""
"","response","","html-keyboard-response","321","466858","0.0-1.0-446.0","0","0","83352","","447","","","68","49","","","2","49","training","adjacent","FG","6","7","O.jpg","Q.jpg","1","1","1","",""
"","feedback","","html-keyboard-response","322","467865","0.0-1.0-447.0-0.0","0","0","83352","","null","","","null","49","","","","","","","","","","","","","","","",""
"","ITI","","html-keyboard-response","323","468883","0.0-1.0-450.0","0","0","83352","","null","","","null","49","","","","","","","","","","","","","","","NaN",""
"","S1","","html-keyboard-response","324","469153","0.0-1.0-452.0","0","0","83352","","null","","","null","50","","","","","","","","","","","","","","","",""
"","ISI","","html-keyboard-response","325","471160","0.0-1.0-453.0","0","0","83352","","null","","","null","50","NaN","","","","","","","","","","","","","","",""
"","S2","","html-keyboard-response","326","471426","0.0-1.0-454.0","0","0","83352","","null","","","null","50","","NaN","","","","","","","","","","","","","",""
"","response","","html-keyboard-response","327","471885","0.0-1.0-455.0","0","0","83352","","456","","","68","50","","","2","50","training","adjacent","CD","3","4","R.jpg","M.jpg","1","1","1","",""
"","feedback","","html-keyboard-response","328","472899","0.0-1.0-456.0-0.0","0","0","83352","","null","","","null","50","","","","","","","","","","","","","","","",""
"","ITI","","html-keyboard-response","329","473903","0.0-1.0-459.0","0","0","83352","","null","","","null","50","","","","","","","","","","","","","","","NaN",""
"","S1","","html-keyboard-response","330","474165","0.0-1.0-461.0","0","0","83352","","null","","","null","51","","","","","","","","","","","","","","","",""
"","ISI","","html-keyboard-response","331","476177","0.0-1.0-462.0","0","0","83352","","null","","","null","51","NaN","","","","","","","","","","","","","","",""
"","S2","","html-keyboard-response","332","476444","0.0-1.0-463.0","0","0","83352","","null","","","null","51","","NaN","","","","","","","","","","","","","",""
"","response","","html-keyboard-response","333","477100","0.0-1.0-464.0","0","0","83352","","653","","","75","51","","","2","51","training","adjacent","EF","5","6","N.jpg","O.jpg","0","1","0","",""
"","feedback","","html-keyboard-response","334","478117","0.0-1.0-465.0-0.0","0","0","83352","","null","","","null","51","","","","","","","","","","","","","","","",""
"","time_out","","html-keyboard-response","335","480135","0.0-1.0-467.0-0.0","0","0","83352","","null","","","null","51","","","","","","","","","","","","","","","",""
"","ITI","","html-keyboard-response","336","481154","0.0-1.0-468.0","0","0","83352","","null","","","null","51","","","","","","","","","","","","","","","NaN",""
"","S1","","html-keyboard-response","337","481416","0.0-1.0-470.0","0","0","83352","","null","","","null","52","","","","","","","","","","","","","","","",""
"","ISI","","html-keyboard-response","338","483426","0.0-1.0-471.0","0","0","83352","","null","","","null","52","NaN","","","","","","","","","","","","","","",""
"","S2","","html-keyboard-response","339","483681","0.0-1.0-472.0","0","0","83352","","null","","","null","52","","NaN","","","","","","","","","","","","","",""
"","response","","html-keyboard-response","340","484109","0.0-1.0-473.0","0","0","83352","","425","","","68","52","","","2","52","training","adjacent","BC","2","3","L.jpg","R.jpg","1","1","1","",""
"","feedback","","html-keyboard-response","341","485115","0.0-1.0-474.0-0.0","0","0","83352","","null","","","null","52","","","","","","","","","","","","","","","",""
"","ITI","","html-keyboard-response","342","486134","0.0-1.0-477.0","0","0","83352","","null","","","null","52","","","","","","","","","","","","","","","NaN",""
"","S1","","html-keyboard-response","343","486404","0.0-1.0-479.0","0","0","83352","","null","","","null","53","","","","","","","","","","","","","","","",""
"","ISI","","html-keyboard-response","344","488414","0.0-1.0-480.0","0","0","83352","","null","","","null","53","NaN","","","","","","","","","","","","","","",""
"","S2","","html-keyboard-response","345","488678","0.0-1.0-481.0","0","0","83352","","null","","","null","53","","NaN","","","","","","","","","","","","","",""
"","response","","html-keyboard-response","346","489221","0.0-1.0-482.0","0","0","83352","","541","","","75","53","","","2","53","training","adjacent","DE","4","5","M.jpg","N.jpg","0","1","0","",""
"","feedback","","html-keyboard-response","347","490229","0.0-1.0-483.0-0.0","0","0","83352","","null","","","null","53","","","","","","","","","","","","","","","",""
"","time_out","","html-keyboard-response","348","492232","0.0-1.0-485.0-0.0","0","0","83352","","null","","","null","53","","","","","","","","","","","","","","","",""
"","ITI","","html-keyboard-response","349","493241","0.0-1.0-486.0","0","0","83352","","null","","","null","53","","","","","","","","","","","","","","","NaN",""
"","S1","","html-keyboard-response","350","493507","0.0-1.0-488.0","0","0","83352","","null","","","null","54","","","","","","","","","","","","","","","",""
"","ISI","","html-keyboard-response","351","495512","0.0-1.0-489.0","0","0","83352","","null","","","null","54","NaN","","","","","","","","","","","","","","",""
"","S2","","html-keyboard-response","352","495775","0.0-1.0-490.0","0","0","83352","","null","","","null","54","","NaN","","","","","","","","","","","","","",""
"","response","","html-keyboard-response","353","496315","0.0-1.0-491.0","0","0","83352","","538","","","75","54","","","2","54","training","adjacent","CB","3","2","R.jpg","L.jpg","0","0","1","",""
"","feedback","","html-keyboard-response","354","497333","0.0-1.0-492.0-0.0","0","0","83352","","null","","","null","54","","","","","","","","","","","","","","","",""
"","ITI","","html-keyboard-response","355","498340","0.0-1.0-495.0","0","0","83352","","null","","","null","54","","","","","","","","","","","","","","","NaN",""
"","S1","","html-keyboard-response","356","498604","0.0-1.0-497.0","0","0","83352","","null","","","null","55","","","","","","","","","","","","","","","",""
"","ISI","","html-keyboard-response","357","500623","0.0-1.0-498.0","0","0","83352","","null","","","null","55","NaN","","","","","","","","","","","","","","",""
"","S2","","html-keyboard-response","358","500892","0.0-1.0-499.0","0","0","83352","","null","","","null","55","","NaN","","","","","","","","","","","","","",""
"","response","","html-keyboard-response","359","501625","0.0-1.0-500.0","0","0","83352","","732","","","75","55","","","2","55","training","adjacent","DC","4","3","M.jpg","R.jpg","0","0","1","",""
"","feedback","","html-keyboard-response","360","502644","0.0-1.0-501.0-0.0","0","0","83352","","null","","","null","55","","","","","","","","","","","","","","","",""
"","ITI","","html-keyboard-response","361","503661","0.0-1.0-504.0","0","0","83352","","null","","","null","55","","","","","","","","","","","","","","","NaN",""
"","S1","","html-keyboard-response","362","503916","0.0-1.0-506.0","0","0","83352","","null","","","null","56","","","","","","","","","","","","","","","",""
"","ISI","","html-keyboard-response","363","505922","0.0-1.0-507.0","0","0","83352","","null","","","null","56","NaN","","","","","","","","","","","","","","",""
"","S2","","html-keyboard-response","364","506184","0.0-1.0-508.0","0","0","83352","","null","","","null","56","","NaN","","","","","","","","","","","","","",""
"","response","","html-keyboard-response","365","506691","0.0-1.0-509.0","0","0","83352","","502","","","68","56","","","2","56","training","adjacent","EF","5","6","N.jpg","O.jpg","1","1","1","",""
"","feedback","","html-keyboard-response","366","507711","0.0-1.0-510.0-0.0","0","0","83352","","null","","","null","56","","","","","","","","","","","","","","","",""
"","ITI","","html-keyboard-response","367","508729","0.0-1.0-513.0","0","0","83352","","null","","","null","56","","","","","","","","","","","","","","","NaN",""
"","S1","","html-keyboard-response","368","508991","0.0-1.0-515.0","0","0","83352","","null","","","null","57","","","","","","","","","","","","","","","",""
"","ISI","","html-keyboard-response","369","511013","0.0-1.0-516.0","0","0","83352","","null","","","null","57","NaN","","","","","","","","","","","","","","",""
"","S2","","html-keyboard-response","370","511267","0.0-1.0-517.0","0","0","83352","","null","","","null","57","","NaN","","","","","","","","","","","","","",""
"","response","","html-keyboard-response","371","511898","0.0-1.0-518.0","0","0","83352","","630","","","68","57","","","2","57","training","adjacent","EF","5","6","N.jpg","O.jpg","1","1","1","",""
"","feedback","","html-keyboard-response","372","512902","0.0-1.0-519.0-0.0","0","0","83352","","null","","","null","57","","","","","","","","","","","","","","","",""
"","ITI","","html-keyboard-response","373","513921","0.0-1.0-522.0","0","0","83352","","null","","","null","57","","","","","","","","","","","","","","","NaN",""
"","S1","","html-keyboard-response","374","514175","0.0-1.0-524.0","0","0","83352","","null","","","null","58","","","","","","","","","","","","","","","",""
"","ISI","","html-keyboard-response","375","516185","0.0-1.0-525.0","0","0","83352","","null","","","null","58","NaN","","","","","","","","","","","","","","",""
"","S2","","html-keyboard-response","376","516448","0.0-1.0-526.0","0","0","83352","","null","","","null","58","","NaN","","","","","","","","","","","","","",""
"","response","","html-keyboard-response","377","516893","0.0-1.0-527.0","0","0","83352","","442","","","75","58","","","2","58","training","adjacent","DE","4","5","M.jpg","N.jpg","0","1","0","",""
"","feedback","","html-keyboard-response","378","517905","0.0-1.0-528.0-0.0","0","0","83352","","null","","","null","58","","","","","","","","","","","","","","","",""
"","time_out","","html-keyboard-response","379","519914","0.0-1.0-530.0-0.0","0","0","83352","","null","","","null","58","","","","","","","","","","","","","","","",""
"","ITI","","html-keyboard-response","380","520932","0.0-1.0-531.0","0","0","83352","","null","","","null","58","","","","","","","","","","","","","","","NaN",""
"","S1","","html-keyboard-response","381","521196","0.0-1.0-533.0","0","0","83352","","null","","","null","59","","","","","","","","","","","","","","","",""
"","ISI","","html-keyboard-response","382","523206","0.0-1.0-534.0","0","0","83352","","null","","","null","59","NaN","","","","","","","","","","","","","","",""
"","S2","","html-keyboard-response","383","523459","0.0-1.0-535.0","0","0","83352","","null","","","null","59","","NaN","","","","","","","","","","","","","",""
"","response","","html-keyboard-response","384","524006","0.0-1.0-536.0","0","0","83352","","542","","","75","59","","","2","59","training","adjacent","CD","3","4","R.jpg","M.jpg","0","1","0","",""
"","feedback","","html-keyboard-response","385","525011","0.0-1.0-537.0-0.0","0","0","83352","","null","","","null","59","","","","","","","","","","","","","","","",""
"","time_out","","html-keyboard-response","386","527020","0.0-1.0-539.0-0.0","0","0","83352","","null","","","null","59","","","","","","","","","","","","","","","",""
"","ITI","","html-keyboard-response","387","528034","0.0-1.0-540.0","0","0","83352","","null","","","null","59","","","","","","","","","","","","","","","NaN",""
"","S1","","html-keyboard-response","388","528289","0.0-1.0-542.0","0","0","83352","","null","","","null","60","","","","","","","","","","","","","","","",""
"","ISI","","html-keyboard-response","389","530294","0.0-1.0-543.0","0","0","83352","","null","","","null","60","NaN","","","","","","","","","","","","","","",""
"","S2","","html-keyboard-response","390","530564","0.0-1.0-544.0","0","0","83352","","null","","","null","60","","NaN","","","","","","","","","","","","","",""
"","response","","html-keyboard-response","391","530895","0.0-1.0-545.0","0","0","83352","","328","","","75","60","","","2","60","training","adjacent","BA","2","1","L.jpg","P.jpg","0","0","1","",""
"","feedback","","html-keyboard-response","392","531898","0.0-1.0-546.0-0.0","0","0","83352","","null","","","null","60","","","","","","","","","","","","","","","",""
"","ITI","","html-keyboard-response","393","532916","0.0-1.0-549.0","0","0","83352","","null","","","null","60","","","","","","","","","","","","","","","NaN",""
"","S1","","html-keyboard-response","394","533170","0.0-1.0-551.0","0","0","83352","","null","","","null","61","","","","","","","","","","","","","","","",""
"","ISI","","html-keyboard-response","395","535173","0.0-1.0-552.0","0","0","83352","","null","","","null","61","NaN","","","","","","","","","","","","","","",""
"","S2","","html-keyboard-response","396","535439","0.0-1.0-553.0","0","0","83352","","null","","","null","61","","NaN","","","","","","","","","","","","","",""
"","response","","html-keyboard-response","397","536156","0.0-1.0-554.0","0","0","83352","","716","","","68","61","","","2","61","training","adjacent","CB","3","2","R.jpg","L.jpg","1","0","0","",""
"","feedback","","html-keyboard-response","398","537181","0.0-1.0-555.0-0.0","0","0","83352","","null","","","null","61","","","","","","","","","","","","","","","",""
"","time_out","","html-keyboard-response","399","539185","0.0-1.0-557.0-0.0","0","0","83352","","null","","","null","61","","","","","","","","","","","","","","","",""
"","ITI","","html-keyboard-response","400","540189","0.0-1.0-558.0","0","0","83352","","null","","","null","61","","","","","","","","","","","","","","","NaN",""
"","S1","","html-keyboard-response","401","540452","0.0-1.0-560.0","0","0","83352","","null","","","null","62","","","","","","","","","","","","","","","",""
"","ISI","","html-keyboard-response","402","542457","0.0-1.0-561.0","0","0","83352","","null","","","null","62","NaN","","","","","","","","","","","","","","",""
"","S2","","html-keyboard-response","403","542712","0.0-1.0-562.0","0","0","83352","","null","","","null","62","","NaN","","","","","","","","","","","","","",""
"","response","","html-keyboard-response","404","543334","0.0-1.0-563.0","0","0","83352","","620","","","75","62","","","2","62","training","adjacent","FE","6","5","O.jpg","N.jpg","0","0","1","",""
"","feedback","","html-keyboard-response","405","544345","0.0-1.0-564.0-0.0","0","0","83352","","null","","","null","62","","","","","","","","","","","","","","","",""
"","ITI","","html-keyboard-response","406","545350","0.0-1.0-567.0","0","0","83352","","null","","","null","62","","","","","","","","","","","","","","","NaN",""
"","S1","","html-keyboard-response","407","545604","0.0-1.0-569.0","0","0","83352","","null","","","null","63","","","","","","","","","","","","","","","",""
"","ISI","","html-keyboard-response","408","547609","0.0-1.0-570.0","0","0","83352","","null","","","null","63","NaN","","","","","","","","","","","","","","",""
"","S2","","html-keyboard-response","409","547873","0.0-1.0-571.0","0","0","83352","","null","","","null","63","","NaN","","","","","","","","","","","","","",""
"","response","","html-keyboard-response","410","548376","0.0-1.0-572.0","0","0","83352","","502","","","68","63","","","2","63","training","adjacent","FG","6","7","O.jpg","Q.jpg","1","1","1","",""
"","feedback","","html-keyboard-response","411","549392","0.0-1.0-573.0-0.0","0","0","83352","","null","","","null","63","","","","","","","","","","","","","","","",""
"","ITI","","html-keyboard-response","412","550399","0.0-1.0-576.0","0","0","83352","","null","","","null","63","","","","","","","","","","","","","","","NaN",""
"","S1","","html-keyboard-response","413","550665","0.0-1.0-578.0","0","0","83352","","null","","","null","64","","","","","","","","","","","","","","","",""
"","ISI","","html-keyboard-response","414","552670","0.0-1.0-579.0","0","0","83352","","null","","","null","64","NaN","","","","","","","","","","","","","","",""
"","S2","","html-keyboard-response","415","552924","0.0-1.0-580.0","0","0","83352","","null","","","null","64","","NaN","","","","","","","","","","","","","",""
"","response","","html-keyboard-response","416","553450","0.0-1.0-581.0","0","0","83352","","524","","","75","64","","","2","64","training","adjacent","DC","4","3","M.jpg","R.jpg","0","0","1","",""
"","feedback","","html-keyboard-response","417","554458","0.0-1.0-582.0-0.0","0","0","83352","","null","","","null","64","","","","","","","","","","","","","","","",""
"","ITI","","html-keyboard-response","418","555462","0.0-1.0-585.0","0","0","83352","","null","","","null","64","","","","","","","","","","","","","","","NaN",""
"","S1","","html-keyboard-response","419","555732","0.0-1.0-587.0","0","0","83352","","null","","","null","65","","","","","","","","","","","","","","","",""
"","ISI","","html-keyboard-response","420","557737","0.0-1.0-588.0","0","0","83352","","null","","","null","65","NaN","","","","","","","","","","","","","","",""
"","S2","","html-keyboard-response","421","558001","0.0-1.0-589.0","0","0","83352","","null","","","null","65","","NaN","","","","","","","","","","","","","",""
"","response","","html-keyboard-response","422","558317","0.0-1.0-590.0","0","0","83352","","313","","","75","65","","","2","65","training","adjacent","GF","7","6","Q.jpg","O.jpg","0","0","1","",""
"","feedback","","html-keyboard-response","423","559344","0.0-1.0-591.0-0.0","0","0","83352","","null","","","null","65","","","","","","","","","","","","","","","",""
"","ITI","","html-keyboard-response","424","560359","0.0-1.0-594.0","0","0","83352","","null","","","null","65","","","","","","","","","","","","","","","NaN",""
"","S1","","html-keyboard-response","425","560624","0.0-1.0-596.0","0","0","83352","","null","","","null","66","","","","","","","","","","","","","","","",""
"","ISI","","html-keyboard-response","426","562627","0.0-1.0-597.0","0","0","83352","","null","","","null","66","NaN","","","","","","","","","","","","","","",""
"","S2","","html-keyboard-response","427","562882","0.0-1.0-598.0","0","0","83352","","null","","","null","66","","NaN","","","","","","","","","","","","","",""
"","response","","html-keyboard-response","428","563299","0.0-1.0-599.0","0","0","83352","","413","","","68","66","","","2","66","training","adjacent","BC","2","3","L.jpg","R.jpg","1","1","1","",""
"","feedback","","html-keyboard-response","429","564306","0.0-1.0-600.0-0.0","0","0","83352","","null","","","null","66","","","","","","","","","","","","","","","",""
"","ITI","","html-keyboard-response","430","565326","0.0-1.0-603.0","0","0","83352","","null","","","null","66","","","","","","","","","","","","","","","NaN",""
"","S1","","html-keyboard-response","431","565594","0.0-1.0-605.0","0","0","83352","","null","","","null","67","","","","","","","","","","","","","","","",""
"","ISI","","html-keyboard-response","432","567600","0.0-1.0-606.0","0","0","83352","","null","","","null","67","NaN","","","","","","","","","","","","","","",""
"","S2","","html-keyboard-response","433","567863","0.0-1.0-607.0","0","0","83352","","null","","","null","67","","NaN","","","","","","","","","","","","","",""
"","response","","html-keyboard-response","434","568223","0.0-1.0-608.0","0","0","83352","","358","","","68","67","","","2","67","training","adjacent","FG","6","7","O.jpg","Q.jpg","1","1","1","",""
"","feedback","","html-keyboard-response","435","569240","0.0-1.0-609.0-0.0","0","0","83352","","null","","","null","67","","","","","","","","","","","","","","","",""
"","ITI","","html-keyboard-response","436","570254","0.0-1.0-612.0","0","0","83352","","null","","","null","67","","","","","","","","","","","","","","","NaN",""
"","S1","","html-keyboard-response","437","570507","0.0-1.0-614.0","0","0","83352","","null","","","null","68","","","","","","","","","","","","","","","",""
"","ISI","","html-keyboard-response","438","572513","0.0-1.0-615.0","0","0","83352","","null","","","null","68","NaN","","","","","","","","","","","","","","",""
"","S2","","html-keyboard-response","439","572776","0.0-1.0-616.0","0","0","83352","","null","","","null","68","","NaN","","","","","","","","","","","","","",""
"","response","","html-keyboard-response","440","573335","0.0-1.0-617.0","0","0","83352","","555","","","75","68","","","2","68","training","adjacent","DC","4","3","M.jpg","R.jpg","0","0","1","",""
"","feedback","","html-keyboard-response","441","574349","0.0-1.0-618.0-0.0","0","0","83352","","null","","","null","68","","","","","","","","","","","","","","","",""
"","ITI","","html-keyboard-response","442","575367","0.0-1.0-621.0","0","0","83352","","null","","","null","68","","","","","","","","","","","","","","","NaN",""
"","S1","","html-keyboard-response","443","575621","0.0-1.0-623.0","0","0","83352","","null","","","null","69","","","","","","","","","","","","","","","",""
"","ISI","","html-keyboard-response","444","577631","0.0-1.0-624.0","0","0","83352","","null","","","null","69","NaN","","","","","","","","","","","","","","",""
"","S2","","html-keyboard-response","445","577895","0.0-1.0-625.0","0","0","83352","","null","","","null","69","","NaN","","","","","","","","","","","","","",""
"","response","","html-keyboard-response","446","578422","0.0-1.0-626.0","0","0","83352","","523","","","75","69","","","2","69","training","adjacent","CD","3","4","R.jpg","M.jpg","0","1","0","",""
"","feedback","","html-keyboard-response","447","579436","0.0-1.0-627.0-0.0","0","0","83352","","null","","","null","69","","","","","","","","","","","","","","","",""
"","time_out","","html-keyboard-response","448","581444","0.0-1.0-629.0-0.0","0","0","83352","","null","","","null","69","","","","","","","","","","","","","","","",""
"","ITI","","html-keyboard-response","449","582451","0.0-1.0-630.0","0","0","83352","","null","","","null","69","","","","","","","","","","","","","","","NaN",""
"","S1","","html-keyboard-response","450","582716","0.0-1.0-632.0","0","0","83352","","null","","","null","70","","","","","","","","","","","","","","","",""
"","ISI","","html-keyboard-response","451","584722","0.0-1.0-633.0","0","0","83352","","null","","","null","70","NaN","","","","","","","","","","","","","","",""
"","S2","","html-keyboard-response","452","584991","0.0-1.0-634.0","0","0","83352","","null","","","null","70","","NaN","","","","","","","","","","","","","",""
"","response","","html-keyboard-response","453","585467","0.0-1.0-635.0","0","0","83352","","471","","","68","70","","","2","70","training","adjacent","BC","2","3","L.jpg","R.jpg","1","1","1","",""
"","feedback","","html-keyboard-response","454","586473","0.0-1.0-636.0-0.0","0","0","83352","","null","","","null","70","","","","","","","","","","","","","","","",""
"","ITI","","html-keyboard-response","455","587498","0.0-1.0-639.0","0","0","83352","","null","","","null","70","","","","","","","","","","","","","","","NaN",""
"","S1","","html-keyboard-response","456","587761","0.0-1.0-641.0","0","0","83352","","null","","","null","71","","","","","","","","","","","","","","","",""
"","ISI","","html-keyboard-response","457","589767","0.0-1.0-642.0","0","0","83352","","null","","","null","71","NaN","","","","","","","","","","","","","","",""
"","S2","","html-keyboard-response","458","590021","0.0-1.0-643.0","0","0","83352","","null","","","null","71","","NaN","","","","","","","","","","","","","",""
"","response","","html-keyboard-response","459","590534","0.0-1.0-644.0","0","0","83352","","513","","","75","71","","","2","71","training","adjacent","FE","6","5","O.jpg","N.jpg","0","0","1","",""
"","feedback","","html-keyboard-response","460","591538","0.0-1.0-645.0-0.0","0","0","83352","","null","","","null","71","","","","","","","","","","","","","","","",""
"","ITI","","html-keyboard-response","461","592543","0.0-1.0-648.0","0","0","83352","","null","","","null","71","","","","","","","","","","","","","","","NaN",""
"","S1","","html-keyboard-response","462","592813","0.0-1.0-650.0","0","0","83352","","null","","","null","72","","","","","","","","","","","","","","","",""
"","ISI","","html-keyboard-response","463","594838","0.0-1.0-651.0","0","0","83352","","null","","","null","72","NaN","","","","","","","","","","","","","","",""
"","S2","","html-keyboard-response","464","595101","0.0-1.0-652.0","0","0","83352","","null","","","null","72","","NaN","","","","","","","","","","","","","",""
"","response","","html-keyboard-response","465","595421","0.0-1.0-653.0","0","0","83352","","317","","","75","72","","","2","72","training","adjacent","GF","7","6","Q.jpg","O.jpg","0","0","1","",""
"","feedback","","html-keyboard-response","466","596441","0.0-1.0-654.0-0.0","0","0","83352","","null","","","null","72","","","","","","","","","","","","","","","",""
"","ITI","","html-keyboard-response","467","597444","0.0-1.0-657.0","0","0","83352","","null","","","null","72","","","","","","","","","","","","","","","NaN",""
"","S1","","html-keyboard-response","468","597709","0.0-1.0-659.0","0","0","83352","","null","","","null","73","","","","","","","","","","","","","","","",""
"","ISI","","html-keyboard-response","469","599723","0.0-1.0-660.0","0","0","83352","","null","","","null","73","NaN","","","","","","","","","","","","","","",""
"","S2","","html-keyboard-response","470","599992","0.0-1.0-661.0","0","0","83352","","null","","","null","73","","NaN","","","","","","","","","","","","","",""
"","response","","html-keyboard-response","471","600509","0.0-1.0-662.0","0","0","83352","","513","","","75","73","","","2","73","training","adjacent","EF","5","6","N.jpg","O.jpg","0","1","0","",""
"","feedback","","html-keyboard-response","472","601528","0.0-1.0-663.0-0.0","0","0","83352","","null","","","null","73","","","","","","","","","","","","","","","",""
"","time_out","","html-keyboard-response","473","603532","0.0-1.0-665.0-0.0","0","0","83352","","null","","","null","73","","","","","","","","","","","","","","","",""
"","ITI","","html-keyboard-response","474","604534","0.0-1.0-666.0","0","0","83352","","null","","","null","73","","","","","","","","","","","","","","","NaN",""
"","S1","","html-keyboard-response","475","604805","0.0-1.0-668.0","0","0","83352","","null","","","null","74","","","","","","","","","","","","","","","",""
"","ISI","","html-keyboard-response","476","606811","0.0-1.0-669.0","0","0","83352","","null","","","null","74","NaN","","","","","","","","","","","","","","",""
"","S2","","html-keyboard-response","477","607074","0.0-1.0-670.0","0","0","83352","","null","","","null","74","","NaN","","","","","","","","","","","","","",""
"","response","","html-keyboard-response","478","607737","0.0-1.0-671.0","0","0","83352","","661","","","75","74","","","2","74","training","adjacent","DE","4","5","M.jpg","N.jpg","0","1","0","",""
"","feedback","","html-keyboard-response","479","608747","0.0-1.0-672.0-0.0","0","0","83352","","null","","","null","74","","","","","","","","","","","","","","","",""
"","time_out","","html-keyboard-response","480","610753","0.0-1.0-674.0-0.0","0","0","83352","","null","","","null","74","","","","","","","","","","","","","","","",""
"","ITI","","html-keyboard-response","481","611771","0.0-1.0-675.0","0","0","83352","","null","","","null","74","","","","","","","","","","","","","","","NaN",""
"","S1","","html-keyboard-response","482","612041","0.0-1.0-677.0","0","0","83352","","null","","","null","75","","","","","","","","","","","","","","","",""
"","ISI","","html-keyboard-response","483","614047","0.0-1.0-678.0","0","0","83352","","null","","","null","75","NaN","","","","","","","","","","","","","","",""
"","S2","","html-keyboard-response","484","614310","0.0-1.0-679.0","0","0","83352","","null","","","null","75","","NaN","","","","","","","","","","","","","",""
"","response","","html-keyboard-response","485","614867","0.0-1.0-680.0","0","0","83352","","553","","","68","75","","","2","75","training","adjacent","AB","1","2","P.jpg","L.jpg","1","1","1","",""
"","feedback","","html-keyboard-response","486","615882","0.0-1.0-681.0-0.0","0","0","83352","","null","","","null","75","","","","","","","","","","","","","","","",""
"","ITI","","html-keyboard-response","487","616899","0.0-1.0-684.0","0","0","83352","","null","","","null","75","","","","","","","","","","","","","","","NaN",""
"","S1","","html-keyboard-response","488","617155","0.0-1.0-686.0","0","0","83352","","null","","","null","76","","","","","","","","","","","","","","","",""
"","ISI","","html-keyboard-response","489","619166","0.0-1.0-687.0","0","0","83352","","null","","","null","76","NaN","","","","","","","","","","","","","","",""
"","S2","","html-keyboard-response","490","619433","0.0-1.0-688.0","0","0","83352","","null","","","null","76","","NaN","","","","","","","","","","","","","",""
"","response","","html-keyboard-response","491","620114","0.0-1.0-689.0","0","0","83352","","679","","","68","76","","","2","76","training","adjacent","ED","5","4","N.jpg","M.jpg","1","0","0","",""
"","feedback","","html-keyboard-response","492","621122","0.0-1.0-690.0-0.0","0","0","83352","","null","","","null","76","","","","","","","","","","","","","","","",""
"","time_out","","html-keyboard-response","493","623127","0.0-1.0-692.0-0.0","0","0","83352","","null","","","null","76","","","","","","","","","","","","","","","",""
"","ITI","","html-keyboard-response","494","624146","0.0-1.0-693.0","0","0","83352","","null","","","null","76","","","","","","","","","","","","","","","NaN",""
"","S1","","html-keyboard-response","495","624401","0.0-1.0-695.0","0","0","83352","","null","","","null","77","","","","","","","","","","","","","","","",""
"","ISI","","html-keyboard-response","496","626423","0.0-1.0-696.0","0","0","83352","","null","","","null","77","NaN","","","","","","","","","","","","","","",""
"","S2","","html-keyboard-response","497","626691","0.0-1.0-697.0","0","0","83352","","null","","","null","77","","NaN","","","","","","","","","","","","","",""
"","response","","html-keyboard-response","498","626929","0.0-1.0-698.0","0","0","83352","","234","","","75","77","","","2","77","training","adjacent","GF","7","6","Q.jpg","O.jpg","0","0","1","",""
"","feedback","","html-keyboard-response","499","627938","0.0-1.0-699.0-0.0","0","0","83352","","null","","","null","77","","","","","","","","","","","","","","","",""
"","ITI","","html-keyboard-response","500","628943","0.0-1.0-702.0","0","0","83352","","null","","","null","77","","","","","","","","","","","","","","","NaN",""
"","S1","","html-keyboard-response","501","629213","0.0-1.0-704.0","0","0","83352","","null","","","null","78","","","","","","","","","","","","","","","",""
"","ISI","","html-keyboard-response","502","631218","0.0-1.0-705.0","0","0","83352","","null","","","null","78","NaN","","","","","","","","","","","","","","",""
"","S2","","html-keyboard-response","503","631473","0.0-1.0-706.0","0","0","83352","","null","","","null","78","","NaN","","","","","","","","","","","","","",""
"","response","","html-keyboard-response","504","632209","0.0-1.0-707.0","0","0","83352","","735","","","68","78","","","2","78","training","adjacent","DC","4","3","M.jpg","R.jpg","1","0","0","",""
"","feedback","","html-keyboard-response","505","633213","0.0-1.0-708.0-0.0","0","0","83352","","null","","","null","78","","","","","","","","","","","","","","","",""
"","time_out","","html-keyboard-response","506","635230","0.0-1.0-710.0-0.0","0","0","83352","","null","","","null","78","","","","","","","","","","","","","","","",""
"","ITI","","html-keyboard-response","507","636249","0.0-1.0-711.0","0","0","83352","","null","","","null","78","","","","","","","","","","","","","","","NaN",""
"","S1","","html-keyboard-response","508","636518","0.0-1.0-713.0","0","0","83352","","null","","","null","79","","","","","","","","","","","","","","","",""
"","ISI","","html-keyboard-response","509","638523","0.0-1.0-714.0","0","0","83352","","null","","","null","79","NaN","","","","","","","","","","","","","","",""
"","S2","","html-keyboard-response","510","638793","0.0-1.0-715.0","0","0","83352","","null","","","null","79","","NaN","","","","","","","","","","","","","",""
"","response","","html-keyboard-response","511","638979","0.0-1.0-716.0","0","0","83352","","184","","","75","79","","","2","79","training","adjacent","GF","7","6","Q.jpg","O.jpg","0","0","1","",""
"","feedback","","html-keyboard-response","512","639993","0.0-1.0-717.0-0.0","0","0","83352","","null","","","null","79","","","","","","","","","","","","","","","",""
"","ITI","","html-keyboard-response","513","640995","0.0-1.0-720.0","0","0","83352","","null","","","null","79","","","","","","","","","","","","","","","NaN",""
"","S1","","html-keyboard-response","514","641251","0.0-1.0-722.0","0","0","83352","","null","","","null","80","","","","","","","","","","","","","","","",""
"","ISI","","html-keyboard-response","515","643260","0.0-1.0-723.0","0","0","83352","","null","","","null","80","NaN","","","","","","","","","","","","","","",""
"","S2","","html-keyboard-response","516","643527","0.0-1.0-724.0","0","0","83352","","null","","","null","80","","NaN","","","","","","","","","","","","","",""
"","response","","html-keyboard-response","517","644122","0.0-1.0-725.0","0","0","83352","","591","","","68","80","","","2","80","training","adjacent","CD","3","4","R.jpg","M.jpg","1","1","1","",""
"","feedback","","html-keyboard-response","518","645128","0.0-1.0-726.0-0.0","0","0","83352","","null","","","null","80","","","","","","","","","","","","","","","",""
"","ITI","","html-keyboard-response","519","646136","0.0-1.0-729.0","0","0","83352","","null","","","null","80","","","","","","","","","","","","","","","NaN",""
"","S1","","html-keyboard-response","520","646401","0.0-1.0-731.0","0","0","83352","","null","","","null","81","","","","","","","","","","","","","","","",""
"","ISI","","html-keyboard-response","521","648406","0.0-1.0-732.0","0","0","83352","","null","","","null","81","NaN","","","","","","","","","","","","","","",""
"","S2","","html-keyboard-response","522","648674","0.0-1.0-733.0","0","0","83352","","null","","","null","81","","NaN","","","","","","","","","","","","","",""
"","response","","html-keyboard-response","523","648948","0.0-1.0-734.0","0","0","83352","","271","","","75","81","","","2","81","training","adjacent","AB","1","2","P.jpg","L.jpg","0","1","0","",""
"","feedback","","html-keyboard-response","524","649963","0.0-1.0-735.0-0.0","0","0","83352","","null","","","null","81","","","","","","","","","","","","","","","",""
"","time_out","","html-keyboard-response","525","651968","0.0-1.0-737.0-0.0","0","0","83352","","null","","","null","81","","","","","","","","","","","","","","","",""
"","ITI","","html-keyboard-response","526","652991","0.0-1.0-738.0","0","0","83352","","null","","","null","81","","","","","","","","","","","","","","","NaN",""
"","S1","","html-keyboard-response","527","653255","0.0-1.0-740.0","0","0","83352","","null","","","null","82","","","","","","","","","","","","","","","",""
"","ISI","","html-keyboard-response","528","655258","0.0-1.0-741.0","0","0","83352","","null","","","null","82","NaN","","","","","","","","","","","","","","",""
"","S2","","html-keyboard-response","529","655514","0.0-1.0-742.0","0","0","83352","","null","","","null","82","","NaN","","","","","","","","","","","","","",""
"","response","","html-keyboard-response","530","655937","0.0-1.0-743.0","0","0","83352","","419","","","75","82","","","2","82","training","adjacent","BA","2","1","L.jpg","P.jpg","0","0","1","",""
"","feedback","","html-keyboard-response","531","656950","0.0-1.0-744.0-0.0","0","0","83352","","null","","","null","82","","","","","","","","","","","","","","","",""
"","ITI","","html-keyboard-response","532","657957","0.0-1.0-747.0","0","0","83352","","null","","","null","82","","","","","","","","","","","","","","","NaN",""
"","S1","","html-keyboard-response","533","658227","0.0-1.0-749.0","0","0","83352","","null","","","null","83","","","","","","","","","","","","","","","",""
"","ISI","","html-keyboard-response","534","660232","0.0-1.0-750.0","0","0","83352","","null","","","null","83","NaN","","","","","","","","","","","","","","",""
"","S2","","html-keyboard-response","535","660494","0.0-1.0-751.0","0","0","83352","","null","","","null","83","","NaN","","","","","","","","","","","","","",""
"","response","","html-keyboard-response","536","661077","0.0-1.0-752.0","0","0","83352","","578","","","68","83","","","2","83","training","adjacent","CB","3","2","R.jpg","L.jpg","1","0","0","",""
"","feedback","","html-keyboard-response","537","662084","0.0-1.0-753.0-0.0","0","0","83352","","null","","","null","83","","","","","","","","","","","","","","","",""
"","time_out","","html-keyboard-response","538","664089","0.0-1.0-755.0-0.0","0","0","83352","","null","","","null","83","","","","","","","","","","","","","","","",""
"","ITI","","html-keyboard-response","539","665107","0.0-1.0-756.0","0","0","83352","","null","","","null","83","","","","","","","","","","","","","","","NaN",""
"","S1","","html-keyboard-response","540","665362","0.0-1.0-758.0","0","0","83352","","null","","","null","84","","","","","","","","","","","","","","","",""
"","ISI","","html-keyboard-response","541","667367","0.0-1.0-759.0","0","0","83352","","null","","","null","84","NaN","","","","","","","","","","","","","","",""
"","S2","","html-keyboard-response","542","667630","0.0-1.0-760.0","0","0","83352","","null","","","null","84","","NaN","","","","","","","","","","","","","",""
"","response","","html-keyboard-response","543","667986","0.0-1.0-761.0","0","0","83352","","353","","","68","84","","","2","84","training","adjacent","FG","6","7","O.jpg","Q.jpg","1","1","1","",""
"","feedback","","html-keyboard-response","544","668991","0.0-1.0-762.0-0.0","0","0","83352","","null","","","null","84","","","","","","","","","","","","","","","",""
"","ITI","","html-keyboard-response","545","670009","0.0-1.0-765.0","0","0","83352","","null","","","null","84","","","","","","","","","","","","","","","NaN",""
"","S1","","html-keyboard-response","546","670275","0.0-1.0-767.0","0","0","83352","","null","","","null","85","","","","","","","","","","","","","","","",""
"","ISI","","html-keyboard-response","547","672289","0.0-1.0-768.0","0","0","83352","","null","","","null","85","NaN","","","","","","","","","","","","","","",""
"","S2","","html-keyboard-response","548","672556","0.0-1.0-769.0","0","0","83352","","null","","","null","85","","NaN","","","","","","","","","","","","","",""
"","response","","html-keyboard-response","549","673159","0.0-1.0-770.0","0","0","83352","","598","","","75","85","","","2","85","training","adjacent","BA","2","1","L.jpg","P.jpg","0","0","1","",""
"","feedback","","html-keyboard-response","550","674177","0.0-1.0-771.0-0.0","0","0","83352","","null","","","null","85","","","","","","","","","","","","","","","",""
"","ITI","","html-keyboard-response","551","675194","0.0-1.0-774.0","0","0","83352","","null","","","null","85","","","","","","","","","","","","","","","NaN",""
"","S1","","html-keyboard-response","552","675450","0.0-1.0-776.0","0","0","83352","","null","","","null","86","","","","","","","","","","","","","","","",""
"","ISI","","html-keyboard-response","553","677455","0.0-1.0-777.0","0","0","83352","","null","","","null","86","NaN","","","","","","","","","","","","","","",""
"","S2","","html-keyboard-response","554","677716","0.0-1.0-778.0","0","0","83352","","null","","","null","86","","NaN","","","","","","","","","","","","","",""
"","response","","html-keyboard-response","555","678323","0.0-1.0-779.0","0","0","83352","","604","","","68","86","","","2","86","training","adjacent","AB","1","2","P.jpg","L.jpg","1","1","1","",""
"","feedback","","html-keyboard-response","556","679344","0.0-1.0-780.0-0.0","0","0","83352","","null","","","null","86","","","","","","","","","","","","","","","",""
"","ITI","","html-keyboard-response","557","680361","0.0-1.0-783.0","0","0","83352","","null","","","null","86","","","","","","","","","","","","","","","NaN",""
"","S1","","html-keyboard-response","558","680625","0.0-1.0-785.0","0","0","83352","","null","","","null","87","","","","","","","","","","","","","","","",""
"","ISI","","html-keyboard-response","559","682634","0.0-1.0-786.0","0","0","83352","","null","","","null","87","NaN","","","","","","","","","","","","","","",""
"","S2","","html-keyboard-response","560","682901","0.0-1.0-787.0","0","0","83352","","null","","","null","87","","NaN","","","","","","","","","","","","","",""
"","response","","html-keyboard-response","561","683491","0.0-1.0-788.0","0","0","83352","","586","","","68","87","","","2","87","training","adjacent","FE","6","5","O.jpg","N.jpg","1","0","0","",""
"","feedback","","html-keyboard-response","562","684505","0.0-1.0-789.0-0.0","0","0","83352","","null","","","null","87","","","","","","","","","","","","","","","",""
"","time_out","","html-keyboard-response","563","686511","0.0-1.0-791.0-0.0","0","0","83352","","null","","","null","87","","","","","","","","","","","","","","","",""
"","ITI","","html-keyboard-response","564","687528","0.0-1.0-792.0","0","0","83352","","null","","","null","87","","","","","","","","","","","","","","","NaN",""
"","S1","","html-keyboard-response","565","687798","0.0-1.0-794.0","0","0","83352","","null","","","null","88","","","","","","","","","","","","","","","",""
"","ISI","","html-keyboard-response","566","689804","0.0-1.0-795.0","0","0","83352","","null","","","null","88","NaN","","","","","","","","","","","","","","",""
"","S2","","html-keyboard-response","567","690074","0.0-1.0-796.0","0","0","83352","","null","","","null","88","","NaN","","","","","","","","","","","","","",""
"","response","","html-keyboard-response","568","690702","0.0-1.0-797.0","0","0","83352","","627","","","75","88","","","2","88","training","adjacent","BC","2","3","L.jpg","R.jpg","0","1","0","",""
"","feedback","","html-keyboard-response","569","691714","0.0-1.0-798.0-0.0","0","0","83352","","null","","","null","88","","","","","","","","","","","","","","","",""
"","time_out","","html-keyboard-response","570","693718","0.0-1.0-800.0-0.0","0","0","83352","","null","","","null","88","","","","","","","","","","","","","","","",""
"","ITI","","html-keyboard-response","571","694726","0.0-1.0-801.0","0","0","83352","","null","","","null","88","","","","","","","","","","","","","","","NaN",""
"","S1","","html-keyboard-response","572","694991","0.0-1.0-803.0","0","0","83352","","null","","","null","89","","","","","","","","","","","","","","","",""
"","ISI","","html-keyboard-response","573","696996","0.0-1.0-804.0","0","0","83352","","null","","","null","89","NaN","","","","","","","","","","","","","","",""
"","S2","","html-keyboard-response","574","697267","0.0-1.0-805.0","0","0","83352","","null","","","null","89","","NaN","","","","","","","","","","","","","",""
"","response","","html-keyboard-response","575","697895","0.0-1.0-806.0","0","0","83352","","625","","","68","89","","","2","89","training","adjacent","DE","4","5","M.jpg","N.jpg","1","1","1","",""
"","feedback","","html-keyboard-response","576","698903","0.0-1.0-807.0-0.0","0","0","83352","","null","","","null","89","","","","","","","","","","","","","","","",""
"","ITI","","html-keyboard-response","577","699919","0.0-1.0-810.0","0","0","83352","","null","","","null","89","","","","","","","","","","","","","","","NaN",""
"","S1","","html-keyboard-response","578","700175","0.0-1.0-812.0","0","0","83352","","null","","","null","90","","","","","","","","","","","","","","","",""
"","ISI","","html-keyboard-response","579","702180","0.0-1.0-813.0","0","0","83352","","null","","","null","90","NaN","","","","","","","","","","","","","","",""
"","S2","","html-keyboard-response","580","702444","0.0-1.0-814.0","0","0","83352","","null","","","null","90","","NaN","","","","","","","","","","","","","",""
"","response","","html-keyboard-response","581","703107","0.0-1.0-815.0","0","0","83352","","661","","","75","90","","","2","90","training","adjacent","ED","5","4","N.jpg","M.jpg","0","0","1","",""
"","feedback","","html-keyboard-response","582","704117","0.0-1.0-816.0-0.0","0","0","83352","","null","","","null","90","","","","","","","","","","","","","","","",""
"","ITI","","html-keyboard-response","583","705136","0.0-1.0-819.0","0","0","83352","","null","","","null","90","","","","","","","","","","","","","","","NaN",""
"","S1","","html-keyboard-response","584","705405","0.0-1.0-821.0","0","0","83352","","null","","","null","91","","","","","","","","","","","","","","","",""
