"success","ttype","start_time","trial_type","trial_index","time_elapsed","internal_node_id","warning","missed_checkup","PID","view_history","rt","responses","repeat_instructions","key_press","index","keypress_isi","keypress_S2","block","trial_num","phase","group_type","pair_type","S1_stim","S2_stim","S1_img","S2_img","S1_chosen","S1_higher","accuracy","keypress_iti","total_bonus_tally"
"true","full_screen","d07282022hr1725","fullscreen","0","5613","0.0-0.0","0","0","60575","","","","","","","","","","","","","","","","","","","","","",""
"","instructions","","instructions","1","21916","0.0-1.0-0.0-0.0","0","0","60575","[{""page_index"":0,""viewing_time"":5883},{""page_index"":1,""viewing_time"":7656},{""page_index"":2,""viewing_time"":1809},{""page_index"":3,""viewing_time"":953}]","16302","","","","","","","","","","","","","","","","","","","",""
"","comprehension_check","","survey-multi-choice","2","74978","0.0-1.0-0.0-1.0","0","0","60575","","53055","{""Q0"":""True"",""Q1"":""True"",""Q2"":""When you see the prompt 'MAKE A CHOICE' after the second image was presented"",""Q3"":""Green mark"",""Q4"":""either D or K""}","0","","","","","","","","","","","","","","","","","",""
"","start_exp","","html-keyboard-response","3","76892","0.0-1.0-1.0","0","0","60575","","1911","","","32","","","","","","","","","","","","","","","","",""
"","S1","","html-keyboard-response","4","77146","0.0-1.0-2.0","0","0","60575","","null","","","null","0","","","","","","","","","","","","","","","",""
"","ISI","","html-keyboard-response","5","79149","0.0-1.0-3.0","0","0","60575","","null","","","null","0","NaN","","","","","","","","","","","","","","",""
"","S2","","html-keyboard-response","6","79404","0.0-1.0-4.0","0","0","60575","","null","","","null","0","","NaN","","","","","","","","","","","","","",""
"","response","","html-keyboard-response","7","79526","0.0-1.0-5.0","0","0","60575","","119","","","68","0","","","1","0","training","adjacent","BC","2","3","L.jpg","O.jpg","0","1","0","",""
"","feedback","","html-keyboard-response","8","80529","0.0-1.0-6.0-0.0","0","0","60575","","null","","","null","0","","","","","","","","","","","","","","","",""
"","time_out","","html-keyboard-response","9","82532","0.0-1.0-8.0-0.0","0","0","60575","","null","","","null","0","","","","","","","","","","","","","","","",""
"","ITI","","html-keyboard-response","10","83535","0.0-1.0-9.0","0","0","60575","","null","","","null","0","","","","","","","","","","","","","","","NaN",""
"","S1","","html-keyboard-response","11","83788","0.0-1.0-11.0","0","0","60575","","null","","","null","1","","","","","","","","","","","","","","","",""
"","ISI","","html-keyboard-response","12","85792","0.0-1.0-12.0","0","0","60575","","null","","","null","1","NaN","","","","","","","","","","","","","","",""
"","S2","","html-keyboard-response","13","86044","0.0-1.0-13.0","0","0","60575","","null","","","null","1","","NaN","","","","","","","","","","","","","",""
"","response","","html-keyboard-response","14","88009","0.0-1.0-14.0","0","0","60575","","1962","","","75","1","","","1","1","training","adjacent","GF","7","6","R.jpg","P.jpg","1","0","0","",""
"","feedback","","html-keyboard-response","15","89013","0.0-1.0-15.0-0.0","0","0","60575","","null","","","null","1","","","","","","","","","","","","","","","",""
"","time_out","","html-keyboard-response","16","91016","0.0-1.0-17.0-0.0","0","0","60575","","null","","","null","1","","","","","","","","","","","","","","","",""
"","ITI","","html-keyboard-response","17","92019","0.0-1.0-18.0","0","0","60575","","178","","","75","1","","","","","","","","","","","","","","","k",""
"","S1","","html-keyboard-response","18","92274","0.0-1.0-20.0","0","0","60575","","null","","","null","2","","","","","","","","","","","","","","","",""
"","ISI","","html-keyboard-response","19","94276","0.0-1.0-21.0","0","0","60575","","127","","","75","2","k","","","","","","","","","","","","","","",""
"","S2","","html-keyboard-response","20","94528","0.0-1.0-22.0","0","0","60575","","48","","","75","2","","k","","","","","","","","","","","","","",""
"","response","","html-keyboard-response","21","94723","0.0-1.0-23.0","0","0","60575","","192","","","75","2","","","1","2","training","adjacent","BC","2","3","L.jpg","O.jpg","1","1","1","",""
"","feedback","","html-keyboard-response","22","95726","0.0-1.0-24.0-0.0","0","0","60575","","null","","","null","2","","","","","","","","","","","","","","","",""
"","ITI","","html-keyboard-response","23","96729","0.0-1.0-27.0","0","0","60575","","2","","","75","2","","","","","","","","","","","","","","","k",""
"","S1","","html-keyboard-response","24","96982","0.0-1.0-29.0","0","0","60575","","null","","","null","3","","","","","","","","","","","","","","","",""
"","ISI","","html-keyboard-response","25","98984","0.0-1.0-30.0","0","0","60575","","35","","","71","3","g","","","","","","","","","","","","","","",""
"","S2","","html-keyboard-response","26","99237","0.0-1.0-31.0","0","0","60575","","95","","","71","3","","g","","","","","","","","","","","","","",""
"","response","","html-keyboard-response","27","99317","0.0-1.0-32.0","0","0","60575","","79","","","75","3","","","1","3","training","adjacent","FE","6","5","P.jpg","M.jpg","1","0","0","",""
"","feedback","","html-keyboard-response","28","100319","0.0-1.0-33.0-0.0","0","0","60575","","null","","","null","3","","","","","","","","","","","","","","","",""
"","time_out","","html-keyboard-response","29","102323","0.0-1.0-35.0-0.0","0","0","60575","","null","","","null","3","","","","","","","","","","","","","","","",""
"","ITI","","html-keyboard-response","30","103326","0.0-1.0-36.0","0","0","60575","","42","","","75","3","","","","","","","","","","","","","","","k",""
"","S1","","html-keyboard-response","31","103580","0.0-1.0-38.0","0","0","60575","","null","","","null","4","","","","","","","","","","","","","","","",""
"","ISI","","html-keyboard-response","32","105583","0.0-1.0-39.0","0","0","60575","","68","","","71","4","g","","","","","","","","","","","","","","",""
"","S2","","html-keyboard-response","33","105836","0.0-1.0-40.0","0","0","60575","","null","","","null","4","","NaN","","","","","","","","","","","","","",""
"","response","","html-keyboard-response","34","107839","0.0-1.0-41.0","0","0","60575","","null","","","null","4","","","1","4","training","adjacent","DE","4","5","N.jpg","M.jpg","NaN","1","0","",""
"","too_slow_prompt","","html-keyboard-response","35","108841","0.0-1.0-43.0-0.0","1","0","60575","","null","","","null","","","","","","","","","","","","","","","","",""
"","time_out","","html-keyboard-response","36","110844","0.0-1.0-44.0-0.0","0","0","60575","","null","","","null","4","","","","","","","","","","","","","","","",""
"","ITI","","html-keyboard-response","37","111846","0.0-1.0-45.0","0","0","60575","","null","","","null","4","","","","","","","","","","","","","","","NaN",""
"","S1","","html-keyboard-response","38","112098","0.0-1.0-47.0","0","0","60575","","null","","","null","5","","","","","","","","","","","","","","","",""
"","ISI","","html-keyboard-response","39","114100","0.0-1.0-48.0","0","0","60575","","null","","","null","5","NaN","","","","","","","","","","","","","","",""
"","S2","","html-keyboard-response","40","114353","0.0-1.0-49.0","0","0","60575","","null","","","null","5","","NaN","","","","","","","","","","","","","",""
"","response","","html-keyboard-response","41","116355","0.0-1.0-50.0","0","0","60575","","null","","","null","5","","","1","5","training","adjacent","FG","6","7","P.jpg","R.jpg","NaN","1","0","",""
"","too_slow_prompt","","html-keyboard-response","42","117358","0.0-1.0-52.0-0.0","1","0","60575","","null","","","null","","","","","","","","","","","","","","","","",""
"","time_out","","html-keyboard-response","43","119364","0.0-1.0-53.0-0.0","0","0","60575","","null","","","null","5","","","","","","","","","","","","","","","",""
"","ITI","","html-keyboard-response","44","120367","0.0-1.0-54.0","0","0","60575","","null","","","null","5","","","","","","","","","","","","","","","NaN",""
"","S1","","html-keyboard-response","45","120619","0.0-1.0-56.0","0","0","60575","","null","","","null","6","","","","","","","","","","","","","","","",""
"","ISI","","html-keyboard-response","46","122623","0.0-1.0-57.0","0","0","60575","","null","","","null","6","NaN","","","","","","","","","","","","","","",""
"","S2","","html-keyboard-response","47","122876","0.0-1.0-58.0","0","0","60575","","null","","","null","6","","NaN","","","","","","","","","","","","","",""
"","response","","html-keyboard-response","48","124878","0.0-1.0-59.0","0","0","60575","","null","","","null","6","","","1","6","training","adjacent","CD","3","4","O.jpg","N.jpg","NaN","1","0","",""
"","too_slow_prompt","","html-keyboard-response","49","125880","0.0-1.0-61.0-0.0","1","0","60575","","null","","","null","","","","","","","","","","","","","","","","",""
"","time_out","","html-keyboard-response","50","127882","0.0-1.0-62.0-0.0","0","0","60575","","null","","","null","6","","","","","","","","","","","","","","","",""
"","ITI","","html-keyboard-response","51","128887","0.0-1.0-63.0","0","0","60575","","163","","","75","6","","","","","","","","","","","","","","","k",""
"","S1","","html-keyboard-response","52","129139","0.0-1.0-65.0","0","0","60575","","null","","","null","7","","","","","","","","","","","","","","","",""
"","ISI","","html-keyboard-response","53","131142","0.0-1.0-66.0","0","0","60575","","6","","","75","7","k","","","","","","","","","","","","","","",""
"","S2","","html-keyboard-response","54","131395","0.0-1.0-67.0","0","0","60575","","213","","","75","7","","k","","","","","","","","","","","","","",""
"","response","","html-keyboard-response","55","131601","0.0-1.0-68.0","0","0","60575","","205","","","68","7","","","1","7","training","adjacent","DC","4","3","N.jpg","O.jpg","0","0","1","",""
"","feedback","","html-keyboard-response","56","132604","0.0-1.0-69.0-0.0","0","0","60575","","null","","","null","7","","","","","","","","","","","","","","","",""
"","ITI","","html-keyboard-response","57","133607","0.0-1.0-72.0","0","0","60575","","37","","","75","7","","","","","","","","","","","","","","","k",""
"","S1","","html-keyboard-response","58","133861","0.0-1.0-74.0","0","0","60575","","null","","","null","8","","","","","","","","","","","","","","","",""
"","ISI","","html-keyboard-response","59","135863","0.0-1.0-75.0","0","0","60575","","25","","","68","8","d","","","","","","","","","","","","","","",""
"","S2","","html-keyboard-response","60","136116","0.0-1.0-76.0","0","0","60575","","86","","","74","8","","j","","","","","","","","","","","","","",""
"","response","","html-keyboard-response","61","136767","0.0-1.0-77.0","0","0","60575","","648","","","75","8","","","1","8","training","adjacent","ED","5","4","M.jpg","N.jpg","1","0","0","",""
"","feedback","","html-keyboard-response","62","137770","0.0-1.0-78.0-0.0","0","0","60575","","null","","","null","8","","","","","","","","","","","","","","","",""
"","time_out","","html-keyboard-response","63","139773","0.0-1.0-80.0-0.0","0","0","60575","","null","","","null","8","","","","","","","","","","","","","","","",""
"","ITI","","html-keyboard-response","64","140777","0.0-1.0-81.0","0","0","60575","","69","","","75","8","","","","","","","","","","","","","","","k",""
"","S1","","html-keyboard-response","65","141032","0.0-1.0-83.0","0","0","60575","","null","","","null","9","","","","","","","","","","","","","","","",""
"","ISI","","html-keyboard-response","66","143035","0.0-1.0-84.0","0","0","60575","","501","","","75","9","k","","","","","","","","","","","","","","",""
"","S2","","html-keyboard-response","67","143290","0.0-1.0-85.0","0","0","60575","","191","","","68","9","","d","","","","","","","","","","","","","",""
"","response","","html-keyboard-response","68","143489","0.0-1.0-86.0","0","0","60575","","198","","","75","9","","","1","9","training","adjacent","AB","1","2","Q.jpg","L.jpg","1","1","1","",""
"","feedback","","html-keyboard-response","69","144492","0.0-1.0-87.0-0.0","0","0","60575","","null","","","null","9","","","","","","","","","","","","","","","",""
"","ITI","","html-keyboard-response","70","145495","0.0-1.0-90.0","0","0","60575","","210","","","68","9","","","","","","","","","","","","","","","d",""
"","S1","","html-keyboard-response","71","145747","0.0-1.0-92.0","0","0","60575","","null","","","null","10","","","","","","","","","","","","","","","",""
"","ISI","","html-keyboard-response","72","147750","0.0-1.0-93.0","0","0","60575","","315","","","68","10","d","","","","","","","","","","","","","","",""
"","S2","","html-keyboard-response","73","148005","0.0-1.0-94.0","0","0","60575","","138","","","68","10","","d","","","","","","","","","","","","","",""
"","response","","html-keyboard-response","74","148116","0.0-1.0-95.0","0","0","60575","","109","","","75","10","","","1","10","training","adjacent","BA","2","1","L.jpg","Q.jpg","1","0","0","",""
"","feedback","","html-keyboard-response","75","149119","0.0-1.0-96.0-0.0","0","0","60575","","null","","","null","10","","","","","","","","","","","","","","","",""
"","time_out","","html-keyboard-response","76","151121","0.0-1.0-98.0-0.0","0","0","60575","","null","","","null","10","","","","","","","","","","","","","","","",""
"","ITI","","html-keyboard-response","77","152123","0.0-1.0-99.0","0","0","60575","","185","","","68","10","","","","","","","","","","","","","","","d",""
"","S1","","html-keyboard-response","78","152375","0.0-1.0-101.0","0","0","60575","","null","","","null","11","","","","","","","","","","","","","","","",""
"","ISI","","html-keyboard-response","79","154377","0.0-1.0-102.0","0","0","60575","","6","","","75","11","k","","","","","","","","","","","","","","",""
"","S2","","html-keyboard-response","80","154631","0.0-1.0-103.0","0","0","60575","","null","","","null","11","","NaN","","","","","","","","","","","","","",""
"","response","","html-keyboard-response","81","154714","0.0-1.0-104.0","0","0","60575","","81","","","75","11","","","1","11","training","adjacent","CD","3","4","O.jpg","N.jpg","1","1","1","",""
"","feedback","","html-keyboard-response","82","155717","0.0-1.0-105.0-0.0","0","0","60575","","null","","","null","11","","","","","","","","","","","","","","","",""
"","ITI","","html-keyboard-response","83","156720","0.0-1.0-108.0","0","0","60575","","44","","","68","11","","","","","","","","","","","","","","","d",""
"","S1","","html-keyboard-response","84","156973","0.0-1.0-110.0","0","0","60575","","null","","","null","12","","","","","","","","","","","","","","","",""
"","ISI","","html-keyboard-response","85","158976","0.0-1.0-111.0","0","0","60575","","211","","","68","12","d","","","","","","","","","","","","","","",""
"","S2","","html-keyboard-response","86","159229","0.0-1.0-112.0","0","0","60575","","28","","","75","12","","k","","","","","","","","","","","","","",""
"","response","","html-keyboard-response","87","159497","0.0-1.0-113.0","0","0","60575","","265","","","75","12","","","1","12","training","adjacent","FG","6","7","P.jpg","R.jpg","1","1","1","",""
"","feedback","","html-keyboard-response","88","160502","0.0-1.0-114.0-0.0","0","0","60575","","null","","","null","12","","","","","","","","","","","","","","","",""
"","ITI","","html-keyboard-response","89","161505","0.0-1.0-117.0","0","0","60575","","null","","","null","12","","","","","","","","","","","","","","","NaN",""
"","S1","","html-keyboard-response","90","161759","0.0-1.0-119.0","0","0","60575","","null","","","null","13","","","","","","","","","","","","","","","",""
"","ISI","","html-keyboard-response","91","163761","0.0-1.0-120.0","0","0","60575","","null","","","null","13","NaN","","","","","","","","","","","","","","",""
"","S2","","html-keyboard-response","92","164014","0.0-1.0-121.0","0","0","60575","","null","","","null","13","","NaN","","","","","","","","","","","","","",""
"","response","","html-keyboard-response","93","166017","0.0-1.0-122.0","0","0","60575","","null","","","null","13","","","1","13","training","adjacent","CB","3","2","O.jpg","L.jpg","NaN","0","0","",""
"","too_slow_prompt","","html-keyboard-response","94","167019","0.0-1.0-124.0-0.0","1","0","60575","","null","","","null","","","","","","","","","","","","","","","","",""
"","time_out","","html-keyboard-response","95","169021","0.0-1.0-125.0-0.0","0","0","60575","","null","","","null","13","","","","","","","","","","","","","","","",""
"","ITI","","html-keyboard-response","96","170031","0.0-1.0-126.0","0","0","60575","","null","","","null","13","","","","","","","","","","","","","","","NaN",""
"","S1","","html-keyboard-response","97","170285","0.0-1.0-128.0","0","0","60575","","null","","","null","14","","","","","","","","","","","","","","","",""
"","ISI","","html-keyboard-response","98","172288","0.0-1.0-129.0","0","0","60575","","null","","","null","14","NaN","","","","","","","","","","","","","","",""
"","S2","","html-keyboard-response","99","172541","0.0-1.0-130.0","0","0","60575","","null","","","null","14","","NaN","","","","","","","","","","","","","",""
"","response","","html-keyboard-response","100","174544","0.0-1.0-131.0","0","0","60575","","null","","","null","14","","","1","14","training","adjacent","BA","2","1","L.jpg","Q.jpg","NaN","0","0","",""
"","too_slow_prompt","","html-keyboard-response","101","175546","0.0-1.0-133.0-0.0","1","0","60575","","null","","","null","","","","","","","","","","","","","","","","",""
"","time_out","","html-keyboard-response","102","177549","0.0-1.0-134.0-0.0","0","0","60575","","null","","","null","14","","","","","","","","","","","","","","","",""
"","ITI","","html-keyboard-response","103","178552","0.0-1.0-135.0","0","0","60575","","305","","","68","14","","","","","","","","","","","","","","","d",""
"","S1","","html-keyboard-response","104","178806","0.0-1.0-137.0","0","0","60575","","null","","","null","15","","","","","","","","","","","","","","","",""
"","ISI","","html-keyboard-response","105","180808","0.0-1.0-138.0","0","0","60575","","null","","","null","15","NaN","","","","","","","","","","","","","","",""
"","S2","","html-keyboard-response","106","181061","0.0-1.0-139.0","0","0","60575","","238","","","75","15","","k","","","","","","","","","","","","","",""
"","response","","html-keyboard-response","107","181094","0.0-1.0-140.0","0","0","60575","","29","","","68","15","","","1","15","training","adjacent","BA","2","1","L.jpg","Q.jpg","0","0","1","",""
"","feedback","","html-keyboard-response","108","182097","0.0-1.0-141.0-0.0","0","0","60575","","null","","","null","15","","","","","","","","","","","","","","","",""
"","ITI","","html-keyboard-response","109","183099","0.0-1.0-144.0","0","0","60575","","4","","","75","15","","","","","","","","","","","","","","","k",""
"","S1","","html-keyboard-response","110","183353","0.0-1.0-146.0","0","0","60575","","null","","","null","16","","","","","","","","","","","","","","","",""
"","ISI","","html-keyboard-response","111","185355","0.0-1.0-147.0","0","0","60575","","56","","","68","16","d","","","","","","","","","","","","","","",""
"","S2","","html-keyboard-response","112","185607","0.0-1.0-148.0","0","0","60575","","43","","","68","16","","d","","","","","","","","","","","","","",""
"","response","","html-keyboard-response","113","185723","0.0-1.0-149.0","0","0","60575","","113","","","75","16","","","1","16","training","adjacent","CD","3","4","O.jpg","N.jpg","1","1","1","",""
"","feedback","","html-keyboard-response","114","186726","0.0-1.0-150.0-0.0","0","0","60575","","null","","","null","16","","","","","","","","","","","","","","","",""
"","ITI","","html-keyboard-response","115","187729","0.0-1.0-153.0","0","0","60575","","7","","","75","16","","","","","","","","","","","","","","","k",""
"","S1","","html-keyboard-response","116","187981","0.0-1.0-155.0","0","0","60575","","null","","","null","17","","","","","","","","","","","","","","","",""
"","ISI","","html-keyboard-response","117","189984","0.0-1.0-156.0","0","0","60575","","null","","","null","17","NaN","","","","","","","","","","","","","","",""
"","S2","","html-keyboard-response","118","190238","0.0-1.0-157.0","0","0","60575","","null","","","null","17","","NaN","","","","","","","","","","","","","",""
"","response","","html-keyboard-response","119","192241","0.0-1.0-158.0","0","0","60575","","null","","","null","17","","","1","17","training","adjacent","DE","4","5","N.jpg","M.jpg","NaN","1","0","",""
"","too_slow_prompt","","html-keyboard-response","120","193244","0.0-1.0-160.0-0.0","1","0","60575","","null","","","null","","","","","","","","","","","","","","","","",""
"","time_out","","html-keyboard-response","121","195247","0.0-1.0-161.0-0.0","0","0","60575","","null","","","null","17","","","","","","","","","","","","","","","",""
"","ITI","","html-keyboard-response","122","196249","0.0-1.0-162.0","0","0","60575","","2","","","68","17","","","","","","","","","","","","","","","d",""
"","S1","","html-keyboard-response","123","196501","0.0-1.0-164.0","0","0","60575","","null","","","null","18","","","","","","","","","","","","","","","",""
"","ISI","","html-keyboard-response","124","198505","0.0-1.0-165.0","0","0","60575","","19","","","75","18","k","","","","","","","","","","","","","","",""
"","S2","","html-keyboard-response","125","198758","0.0-1.0-166.0","0","0","60575","","15","","","75","18","","k","","","","","","","","","","","","","",""
"","response","","html-keyboard-response","126","198850","0.0-1.0-167.0","0","0","60575","","91","","","68","18","","","1","18","training","adjacent","BA","2","1","L.jpg","Q.jpg","0","0","1","",""
"","feedback","","html-keyboard-response","127","199855","0.0-1.0-168.0-0.0","0","0","60575","","null","","","null","18","","","","","","","","","","","","","","","",""
"","ITI","","html-keyboard-response","128","200858","0.0-1.0-171.0","0","0","60575","","45","","","75","18","","","","","","","","","","","","","","","k",""
"","S1","","html-keyboard-response","129","201110","0.0-1.0-173.0","0","0","60575","","null","","","null","19","","","","","","","","","","","","","","","",""
"","ISI","","html-keyboard-response","130","203112","0.0-1.0-174.0","0","0","60575","","null","","","null","19","NaN","","","","","","","","","","","","","","",""
"","S2","","html-keyboard-response","131","203366","0.0-1.0-175.0","0","0","60575","","null","","","null","19","","NaN","","","","","","","","","","","","","",""
"","response","","html-keyboard-response","132","203810","0.0-1.0-176.0","0","0","60575","","443","","","75","19","","","1","19","training","adjacent","FE","6","5","P.jpg","M.jpg","1","0","0","",""
"","feedback","","html-keyboard-response","133","204813","0.0-1.0-177.0-0.0","0","0","60575","","null","","","null","19","","","","","","","","","","","","","","","",""
"","time_out","","html-keyboard-response","134","206816","0.0-1.0-179.0-0.0","0","0","60575","","null","","","null","19","","","","","","","","","","","","","","","",""
"","ITI","","html-keyboard-response","135","207819","0.0-1.0-180.0","0","0","60575","","140","","","68","19","","","","","","","","","","","","","","","d",""
"","S1","","html-keyboard-response","136","208072","0.0-1.0-182.0","0","0","60575","","null","","","null","20","","","","","","","","","","","","","","","",""
"","ISI","","html-keyboard-response","137","210076","0.0-1.0-183.0","0","0","60575","","1801","","","75","20","k","","","","","","","","","","","","","","",""
"","S2","","html-keyboard-response","138","210329","0.0-1.0-184.0","0","0","60575","","53","","","68","20","","d","","","","","","","","","","","","","",""
"","response","","html-keyboard-response","139","210433","0.0-1.0-185.0","0","0","60575","","103","","","75","20","","","1","20","training","adjacent","BC","2","3","L.jpg","O.jpg","1","1","1","",""
"","feedback","","html-keyboard-response","140","211436","0.0-1.0-186.0-0.0","0","0","60575","","null","","","null","20","","","","","","","","","","","","","","","",""
"","ITI","","html-keyboard-response","141","212440","0.0-1.0-189.0","0","0","60575","","76","","","68","20","","","","","","","","","","","","","","","d",""
"","S1","","html-keyboard-response","142","212692","0.0-1.0-191.0","0","0","60575","","null","","","null","21","","","","","","","","","","","","","","","",""
"","ISI","","html-keyboard-response","143","214695","0.0-1.0-192.0","0","0","60575","","32","","","75","21","k","","","","","","","","","","","","","","",""
"","S2","","html-keyboard-response","144","214948","0.0-1.0-193.0","0","0","60575","","60","","","75","21","","k","","","","","","","","","","","","","",""
"","response","","html-keyboard-response","145","214963","0.0-1.0-194.0","0","0","60575","","13","","","75","21","","","1","21","training","adjacent","DE","4","5","N.jpg","M.jpg","1","1","1","",""
"","feedback","","html-keyboard-response","146","215966","0.0-1.0-195.0-0.0","0","0","60575","","null","","","null","21","","","","","","","","","","","","","","","",""
"","ITI","","html-keyboard-response","147","216968","0.0-1.0-198.0","0","0","60575","","80","","","68","21","","","","","","","","","","","","","","","d",""
"","S1","","html-keyboard-response","148","217220","0.0-1.0-200.0","0","0","60575","","null","","","null","22","","","","","","","","","","","","","","","",""
"","ISI","","html-keyboard-response","149","219223","0.0-1.0-201.0","0","0","60575","","57","","","68","22","d","","","","","","","","","","","","","","",""
"","S2","","html-keyboard-response","150","219476","0.0-1.0-202.0","0","0","60575","","null","","","null","22","","NaN","","","","","","","","","","","","","",""
"","response","","html-keyboard-response","151","221479","0.0-1.0-203.0","0","0","60575","","null","","","null","22","","","1","22","training","adjacent","DC","4","3","N.jpg","O.jpg","NaN","0","0","",""
"","too_slow_prompt","","html-keyboard-response","152","222481","0.0-1.0-205.0-0.0","1","0","60575","","null","","","null","","","","","","","","","","","","","","","","",""
"","time_out","","html-keyboard-response","153","224483","0.0-1.0-206.0-0.0","0","0","60575","","null","","","null","22","","","","","","","","","","","","","","","",""
"","ITI","","html-keyboard-response","154","225487","0.0-1.0-207.0","0","0","60575","","null","","","null","22","","","","","","","","","","","","","","","NaN",""
"","S1","","html-keyboard-response","155","225740","0.0-1.0-209.0","0","0","60575","","null","","","null","23","","","","","","","","","","","","","","","",""
"","ISI","","html-keyboard-response","156","227742","0.0-1.0-210.0","0","0","60575","","null","","","null","23","NaN","","","","","","","","","","","","","","",""
"","S2","","html-keyboard-response","157","227994","0.0-1.0-211.0","0","0","60575","","null","","","null","23","","NaN","","","","","","","","","","","","","",""
"","response","","html-keyboard-response","158","229998","0.0-1.0-212.0","0","0","60575","","null","","","null","23","","","1","23","training","adjacent","AB","1","2","Q.jpg","L.jpg","NaN","1","0","",""
"","too_slow_prompt","","html-keyboard-response","159","231000","0.0-1.0-214.0-0.0","1","0","60575","","null","","","null","","","","","","","","","","","","","","","","",""
"","time_out","","html-keyboard-response","160","233004","0.0-1.0-215.0-0.0","0","0","60575","","null","","","null","23","","","","","","","","","","","","","","","",""
"","ITI","","html-keyboard-response","161","234007","0.0-1.0-216.0","0","0","60575","","null","","","null","23","","","","","","","","","","","","","","","NaN",""
"","S1","","html-keyboard-response","162","234260","0.0-1.0-218.0","0","0","60575","","null","","","null","24","","","","","","","","","","","","","","","",""
"","ISI","","html-keyboard-response","163","236263","0.0-1.0-219.0","0","0","60575","","null","","","null","24","NaN","","","","","","","","","","","","","","",""
"","S2","","html-keyboard-response","164","236516","0.0-1.0-220.0","0","0","60575","","null","","","null","24","","NaN","","","","","","","","","","","","","",""
"","response","","html-keyboard-response","165","238519","0.0-1.0-221.0","0","0","60575","","null","","","null","24","","","1","24","training","adjacent","ED","5","4","M.jpg","N.jpg","NaN","0","0","",""
"","too_slow_prompt","","html-keyboard-response","166","239521","0.0-1.0-223.0-0.0","1","0","60575","","null","","","null","","","","","","","","","","","","","","","","",""
"","time_out","","html-keyboard-response","167","241524","0.0-1.0-224.0-0.0","0","0","60575","","null","","","null","24","","","","","","","","","","","","","","","",""
"","ITI","","html-keyboard-response","168","242527","0.0-1.0-225.0","0","0","60575","","null","","","null","24","","","","","","","","","","","","","","","NaN",""
"","S1","","html-keyboard-response","169","242779","0.0-1.0-227.0","0","0","60575","","null","","","null","25","","","","","","","","","","","","","","","",""
"","ISI","","html-keyboard-response","170","244782","0.0-1.0-228.0","0","0","60575","","null","","","null","25","NaN","","","","","","","","","","","","","","",""
"","S2","","html-keyboard-response","171","245036","0.0-1.0-229.0","0","0","60575","","null","","","null","25","","NaN","","","","","","","","","","","","","",""
"","response","","html-keyboard-response","172","247078","0.0-1.0-230.0","0","0","60575","","null","","","null","25","","","1","25","training","adjacent","FE","6","5","P.jpg","M.jpg","NaN","0","0","",""
"","too_slow_prompt","","html-keyboard-response","173","248081","0.0-1.0-232.0-0.0","1","0","60575","","null","","","null","","","","","","","","","","","","","","","","",""
"","time_out","","html-keyboard-response","174","250084","0.0-1.0-233.0-0.0","0","0","60575","","null","","","null","25","","","","","","","","","","","","","","","",""
"","ITI","","html-keyboard-response","175","251087","0.0-1.0-234.0","0","0","60575","","null","","","null","25","","","","","","","","","","","","","","","NaN",""
"","S1","","html-keyboard-response","176","251341","0.0-1.0-236.0","0","0","60575","","null","","","null","26","","","","","","","","","","","","","","","",""
"","ISI","","html-keyboard-response","177","253343","0.0-1.0-237.0","0","0","60575","","null","","","null","26","NaN","","","","","","","","","","","","","","",""
"","S2","","html-keyboard-response","178","253596","0.0-1.0-238.0","0","0","60575","","null","","","null","26","","NaN","","","","","","","","","","","","","",""
"","response","","html-keyboard-response","179","255598","0.0-1.0-239.0","0","0","60575","","null","","","null","26","","","1","26","training","adjacent","DC","4","3","N.jpg","O.jpg","NaN","0","0","",""
"","too_slow_prompt","","html-keyboard-response","180","256601","0.0-1.0-241.0-0.0","1","0","60575","","null","","","null","","","","","","","","","","","","","","","","",""
"","time_out","","html-keyboard-response","181","258603","0.0-1.0-242.0-0.0","0","0","60575","","null","","","null","26","","","","","","","","","","","","","","","",""
"","ITI","","html-keyboard-response","182","259606","0.0-1.0-243.0","0","0","60575","","null","","","null","26","","","","","","","","","","","","","","","NaN",""
"","S1","","html-keyboard-response","183","259860","0.0-1.0-245.0","0","0","60575","","null","","","null","27","","","","","","","","","","","","","","","",""
"","ISI","","html-keyboard-response","184","261862","0.0-1.0-246.0","0","0","60575","","null","","","null","27","NaN","","","","","","","","","","","","","","",""
"","S2","","html-keyboard-response","185","262116","0.0-1.0-247.0","0","0","60575","","null","","","null","27","","NaN","","","","","","","","","","","","","",""
"","response","","html-keyboard-response","186","264119","0.0-1.0-248.0","0","0","60575","","null","","","null","27","","","1","27","training","adjacent","EF","5","6","M.jpg","P.jpg","NaN","1","0","",""
"","too_slow_prompt","","html-keyboard-response","187","265122","0.0-1.0-250.0-0.0","1","0","60575","","null","","","null","","","","","","","","","","","","","","","","",""
"","time_out","","html-keyboard-response","188","267124","0.0-1.0-251.0-0.0","0","0","60575","","null","","","null","27","","","","","","","","","","","","","","","",""
"","ITI","","html-keyboard-response","189","268126","0.0-1.0-252.0","0","0","60575","","null","","","null","27","","","","","","","","","","","","","","","NaN",""
"","S1","","html-keyboard-response","190","268381","0.0-1.0-254.0","0","0","60575","","null","","","null","28","","","","","","","","","","","","","","","",""
"","ISI","","html-keyboard-response","191","270383","0.0-1.0-255.0","0","0","60575","","null","","","null","28","NaN","","","","","","","","","","","","","","",""
"","S2","","html-keyboard-response","192","270635","0.0-1.0-256.0","0","0","60575","","null","","","null","28","","NaN","","","","","","","","","","","","","",""
"","response","","html-keyboard-response","193","272637","0.0-1.0-257.0","0","0","60575","","null","","","null","28","","","1","28","training","adjacent","GF","7","6","R.jpg","P.jpg","NaN","0","0","",""
"","too_slow_prompt","","html-keyboard-response","194","273640","0.0-1.0-259.0-0.0","1","0","60575","","null","","","null","","","","","","","","","","","","","","","","",""
"","time_out","","html-keyboard-response","195","275643","0.0-1.0-260.0-0.0","0","0","60575","","null","","","null","28","","","","","","","","","","","","","","","",""
"","ITI","","html-keyboard-response","196","276646","0.0-1.0-261.0","0","0","60575","","null","","","null","28","","","","","","","","","","","","","","","NaN",""
"","S1","","html-keyboard-response","197","276900","0.0-1.0-263.0","0","0","60575","","null","","","null","29","","","","","","","","","","","","","","","",""
"","ISI","","html-keyboard-response","198","278903","0.0-1.0-264.0","0","0","60575","","null","","","null","29","NaN","","","","","","","","","","","","","","",""
"","S2","","html-keyboard-response","199","279156","0.0-1.0-265.0","0","0","60575","","null","","","null","29","","NaN","","","","","","","","","","","","","",""
"","response","","html-keyboard-response","200","281159","0.0-1.0-266.0","0","0","60575","","null","","","null","29","","","1","29","training","adjacent","BC","2","3","L.jpg","O.jpg","NaN","1","0","",""
"","too_slow_prompt","","html-keyboard-response","201","282162","0.0-1.0-268.0-0.0","1","0","60575","","null","","","null","","","","","","","","","","","","","","","","",""
"","time_out","","html-keyboard-response","202","284165","0.0-1.0-269.0-0.0","0","0","60575","","null","","","null","29","","","","","","","","","","","","","","","",""
"","ITI","","html-keyboard-response","203","285167","0.0-1.0-270.0","0","0","60575","","null","","","null","29","","","","","","","","","","","","","","","NaN",""
"","S1","","html-keyboard-response","204","285420","0.0-1.0-272.0","0","0","60575","","null","","","null","30","","","","","","","","","","","","","","","",""
"","ISI","","html-keyboard-response","205","287421","0.0-1.0-273.0","0","0","60575","","null","","","null","30","NaN","","","","","","","","","","","","","","",""
"","S2","","html-keyboard-response","206","287674","0.0-1.0-274.0","0","0","60575","","null","","","null","30","","NaN","","","","","","","","","","","","","",""
"","response","","html-keyboard-response","207","289677","0.0-1.0-275.0","0","0","60575","","null","","","null","30","","","1","30","training","adjacent","CB","3","2","O.jpg","L.jpg","NaN","0","0","",""
"","too_slow_prompt","","html-keyboard-response","208","290680","0.0-1.0-277.0-0.0","1","0","60575","","null","","","null","","","","","","","","","","","","","","","","",""
"","time_out","","html-keyboard-response","209","292683","0.0-1.0-278.0-0.0","0","0","60575","","null","","","null","30","","","","","","","","","","","","","","","",""
"","ITI","","html-keyboard-response","210","293686","0.0-1.0-279.0","0","0","60575","","null","","","null","30","","","","","","","","","","","","","","","NaN",""
"","S1","","html-keyboard-response","211","293938","0.0-1.0-281.0","0","0","60575","","null","","","null","31","","","","","","","","","","","","","","","",""
"","ISI","","html-keyboard-response","212","295941","0.0-1.0-282.0","0","0","60575","","null","","","null","31","NaN","","","","","","","","","","","","","","",""
"","S2","","html-keyboard-response","213","296194","0.0-1.0-283.0","0","0","60575","","null","","","null","31","","NaN","","","","","","","","","","","","","",""
"","response","","html-keyboard-response","214","298196","0.0-1.0-284.0","0","0","60575","","null","","","null","31","","","1","31","training","adjacent","CB","3","2","O.jpg","L.jpg","NaN","0","0","",""
"","too_slow_prompt","","html-keyboard-response","215","299198","0.0-1.0-286.0-0.0","1","0","60575","","null","","","null","","","","","","","","","","","","","","","","",""
"","time_out","","html-keyboard-response","216","301202","0.0-1.0-287.0-0.0","0","0","60575","","null","","","null","31","","","","","","","","","","","","","","","",""
"","ITI","","html-keyboard-response","217","302205","0.0-1.0-288.0","0","0","60575","","null","","","null","31","","","","","","","","","","","","","","","NaN",""
"","S1","","html-keyboard-response","218","302459","0.0-1.0-290.0","0","0","60575","","null","","","null","32","","","","","","","","","","","","","","","",""
"","ISI","","html-keyboard-response","219","304461","0.0-1.0-291.0","0","0","60575","","null","","","null","32","NaN","","","","","","","","","","","","","","",""
"","S2","","html-keyboard-response","220","304714","0.0-1.0-292.0","0","0","60575","","null","","","null","32","","NaN","","","","","","","","","","","","","",""
"","response","","html-keyboard-response","221","306717","0.0-1.0-293.0","0","0","60575","","null","","","null","32","","","1","32","training","adjacent","GF","7","6","R.jpg","P.jpg","NaN","0","0","",""
"","too_slow_prompt","","html-keyboard-response","222","307722","0.0-1.0-295.0-0.0","1","0","60575","","null","","","null","","","","","","","","","","","","","","","","",""
"","time_out","","html-keyboard-response","223","309727","0.0-1.0-296.0-0.0","0","0","60575","","null","","","null","32","","","","","","","","","","","","","","","",""
"","ITI","","html-keyboard-response","224","310731","0.0-1.0-297.0","0","0","60575","","null","","","null","32","","","","","","","","","","","","","","","NaN",""
"","S1","","html-keyboard-response","225","310983","0.0-1.0-299.0","0","0","60575","","null","","","null","33","","","","","","","","","","","","","","","",""
"","ISI","","html-keyboard-response","226","312986","0.0-1.0-300.0","0","0","60575","","null","","","null","33","NaN","","","","","","","","","","","","","","",""
"","S2","","html-keyboard-response","227","313238","0.0-1.0-301.0","0","0","60575","","null","","","null","33","","NaN","","","","","","","","","","","","","",""
"","response","","html-keyboard-response","228","315241","0.0-1.0-302.0","0","0","60575","","null","","","null","33","","","1","33","training","adjacent","EF","5","6","M.jpg","P.jpg","NaN","1","0","",""
"","too_slow_prompt","","html-keyboard-response","229","316244","0.0-1.0-304.0-0.0","1","0","60575","","null","","","null","","","","","","","","","","","","","","","","",""
"","time_out","","html-keyboard-response","230","318248","0.0-1.0-305.0-0.0","0","0","60575","","null","","","null","33","","","","","","","","","","","","","","","",""
"","ITI","","html-keyboard-response","231","319250","0.0-1.0-306.0","0","0","60575","","null","","","null","33","","","","","","","","","","","","","","","NaN",""
"","S1","","html-keyboard-response","232","319502","0.0-1.0-308.0","0","0","60575","","null","","","null","34","","","","","","","","","","","","","","","",""
"","ISI","","html-keyboard-response","233","321506","0.0-1.0-309.0","0","0","60575","","null","","","null","34","NaN","","","","","","","","","","","","","","",""
"","S2","","html-keyboard-response","234","321759","0.0-1.0-310.0","0","0","60575","","null","","","null","34","","NaN","","","","","","","","","","","","","",""
"","response","","html-keyboard-response","235","323763","0.0-1.0-311.0","0","0","60575","","null","","","null","34","","","1","34","training","adjacent","AB","1","2","Q.jpg","L.jpg","NaN","1","0","",""
"","too_slow_prompt","","html-keyboard-response","236","324765","0.0-1.0-313.0-0.0","1","0","60575","","null","","","null","","","","","","","","","","","","","","","","",""
"","time_out","","html-keyboard-response","237","326767","0.0-1.0-314.0-0.0","0","0","60575","","null","","","null","34","","","","","","","","","","","","","","","",""
"","ITI","","html-keyboard-response","238","327771","0.0-1.0-315.0","0","0","60575","","null","","","null","34","","","","","","","","","","","","","","","NaN",""
"","S1","","html-keyboard-response","239","328024","0.0-1.0-317.0","0","0","60575","","null","","","null","35","","","","","","","","","","","","","","","",""
"","ISI","","html-keyboard-response","240","330028","0.0-1.0-318.0","0","0","60575","","null","","","null","35","NaN","","","","","","","","","","","","","","",""
"","S2","","html-keyboard-response","241","330281","0.0-1.0-319.0","0","0","60575","","null","","","null","35","","NaN","","","","","","","","","","","","","",""
"","response","","html-keyboard-response","242","332284","0.0-1.0-320.0","0","0","60575","","null","","","null","35","","","1","35","training","adjacent","AB","1","2","Q.jpg","L.jpg","NaN","1","0","",""
"","too_slow_prompt","","html-keyboard-response","243","333286","0.0-1.0-322.0-0.0","1","0","60575","","null","","","null","","","","","","","","","","","","","","","","",""
"","time_out","","html-keyboard-response","244","335289","0.0-1.0-323.0-0.0","0","0","60575","","null","","","null","35","","","","","","","","","","","","","","","",""
"","ITI","","html-keyboard-response","245","336292","0.0-1.0-324.0","0","0","60575","","null","","","null","35","","","","","","","","","","","","","","","NaN",""
"","S1","","html-keyboard-response","246","336545","0.0-1.0-326.0","0","0","60575","","null","","","null","36","","","","","","","","","","","","","","","",""
"","ISI","","html-keyboard-response","247","338547","0.0-1.0-327.0","0","0","60575","","null","","","null","36","NaN","","","","","","","","","","","","","","",""
"","S2","","html-keyboard-response","248","338799","0.0-1.0-328.0","0","0","60575","","null","","","null","36","","NaN","","","","","","","","","","","","","",""
"","response","","html-keyboard-response","249","340805","0.0-1.0-329.0","0","0","60575","","null","","","null","36","","","1","36","training","adjacent","FG","6","7","P.jpg","R.jpg","NaN","1","0","",""
"","too_slow_prompt","","html-keyboard-response","250","341808","0.0-1.0-331.0-0.0","1","0","60575","","null","","","null","","","","","","","","","","","","","","","","",""
"","time_out","","html-keyboard-response","251","343811","0.0-1.0-332.0-0.0","0","0","60575","","null","","","null","36","","","","","","","","","","","","","","","",""
"","ITI","","html-keyboard-response","252","344815","0.0-1.0-333.0","0","0","60575","","null","","","null","36","","","","","","","","","","","","","","","NaN",""
"","S1","","html-keyboard-response","253","345068","0.0-1.0-335.0","0","0","60575","","null","","","null","37","","","","","","","","","","","","","","","",""
"","ISI","","html-keyboard-response","254","347070","0.0-1.0-336.0","0","0","60575","","null","","","null","37","NaN","","","","","","","","","","","","","","",""
"","S2","","html-keyboard-response","255","347322","0.0-1.0-337.0","0","0","60575","","null","","","null","37","","NaN","","","","","","","","","","","","","",""
"","response","","html-keyboard-response","256","349325","0.0-1.0-338.0","0","0","60575","","null","","","null","37","","","1","37","training","adjacent","CB","3","2","O.jpg","L.jpg","NaN","0","0","",""
"","too_slow_prompt","","html-keyboard-response","257","350328","0.0-1.0-340.0-0.0","1","0","60575","","null","","","null","","","","","","","","","","","","","","","","",""
"","time_out","","html-keyboard-response","258","352331","0.0-1.0-341.0-0.0","0","0","60575","","null","","","null","37","","","","","","","","","","","","","","","",""
"","ITI","","html-keyboard-response","259","353334","0.0-1.0-342.0","0","0","60575","","null","","","null","37","","","","","","","","","","","","","","","NaN",""
"","S1","","html-keyboard-response","260","353587","0.0-1.0-344.0","0","0","60575","","null","","","null","38","","","","","","","","","","","","","","","",""
"","ISI","","html-keyboard-response","261","355590","0.0-1.0-345.0","0","0","60575","","null","","","null","38","NaN","","","","","","","","","","","","","","",""
"","S2","","html-keyboard-response","262","355842","0.0-1.0-346.0","0","0","60575","","null","","","null","38","","NaN","","","","","","","","","","","","","",""
"","response","","html-keyboard-response","263","357844","0.0-1.0-347.0","0","0","60575","","null","","","null","38","","","1","38","training","adjacent","EF","5","6","M.jpg","P.jpg","NaN","1","0","",""
"","too_slow_prompt","","html-keyboard-response","264","358855","0.0-1.0-349.0-0.0","1","0","60575","","null","","","null","","","","","","","","","","","","","","","","",""
"","time_out","","html-keyboard-response","265","360858","0.0-1.0-350.0-0.0","0","0","60575","","null","","","null","38","","","","","","","","","","","","","","","",""
"","ITI","","html-keyboard-response","266","361863","0.0-1.0-351.0","0","0","60575","","null","","","null","38","","","","","","","","","","","","","","","NaN",""
"","S1","","html-keyboard-response","267","362116","0.0-1.0-353.0","0","0","60575","","null","","","null","39","","","","","","","","","","","","","","","",""
"","ISI","","html-keyboard-response","268","364125","0.0-1.0-354.0","0","0","60575","","null","","","null","39","NaN","","","","","","","","","","","","","","",""
"","S2","","html-keyboard-response","269","364378","0.0-1.0-355.0","0","0","60575","","null","","","null","39","","NaN","","","","","","","","","","","","","",""
"","response","","html-keyboard-response","270","366382","0.0-1.0-356.0","0","0","60575","","null","","","null","39","","","1","39","training","adjacent","ED","5","4","M.jpg","N.jpg","NaN","0","0","",""
"","too_slow_prompt","","html-keyboard-response","271","367384","0.0-1.0-358.0-0.0","1","0","60575","","null","","","null","","","","","","","","","","","","","","","","",""
"","time_out","","html-keyboard-response","272","369386","0.0-1.0-359.0-0.0","0","0","60575","","null","","","null","39","","","","","","","","","","","","","","","",""
"","ITI","","html-keyboard-response","273","370390","0.0-1.0-360.0","0","0","60575","","null","","","null","39","","","","","","","","","","","","","","","NaN",""
"","block_over","","html-keyboard-response","274","388282","0.0-1.0-361.0-0.0","0","0","60575","","17890","","","32","39","","","","","","","","","","","","","","","",""
"","S1","","html-keyboard-response","275","388536","0.0-1.0-362.0","0","0","60575","","null","","","null","40","","","","","","","","","","","","","","","",""
"","ISI","","html-keyboard-response","276","390538","0.0-1.0-363.0","0","0","60575","","null","","","null","40","NaN","","","","","","","","","","","","","","",""
"","S2","","html-keyboard-response","277","390791","0.0-1.0-364.0","0","0","60575","","null","","","null","40","","NaN","","","","","","","","","","","","","",""
"","response","","html-keyboard-response","278","392794","0.0-1.0-365.0","0","0","60575","","null","","","null","40","","","2","40","training","adjacent","ED","5","4","M.jpg","N.jpg","NaN","0","0","",""
"","too_slow_prompt","","html-keyboard-response","279","393797","0.0-1.0-367.0-0.0","1","0","60575","","null","","","null","","","","","","","","","","","","","","","","",""
"","time_out","","html-keyboard-response","280","395799","0.0-1.0-368.0-0.0","0","0","60575","","null","","","null","40","","","","","","","","","","","","","","","",""
"","ITI","","html-keyboard-response","281","396801","0.0-1.0-369.0","0","0","60575","","null","","","null","40","","","","","","","","","","","","","","","NaN",""
"","S1","","html-keyboard-response","282","397068","0.0-1.0-371.0","0","0","60575","","null","","","null","41","","","","","","","","","","","","","","","",""
"","ISI","","html-keyboard-response","283","399071","0.0-1.0-372.0","0","0","60575","","null","","","null","41","NaN","","","","","","","","","","","","","","",""
"","S2","","html-keyboard-response","284","399323","0.0-1.0-373.0","0","0","60575","","null","","","null","41","","NaN","","","","","","","","","","","","","",""
"","response","","html-keyboard-response","285","401326","0.0-1.0-374.0","0","0","60575","","null","","","null","41","","","2","41","training","adjacent","ED","5","4","M.jpg","N.jpg","NaN","0","0","",""
"","too_slow_prompt","","html-keyboard-response","286","402328","0.0-1.0-376.0-0.0","1","0","60575","","null","","","null","","","","","","","","","","","","","","","","",""
"","time_out","","html-keyboard-response","287","404330","0.0-1.0-377.0-0.0","0","0","60575","","null","","","null","41","","","","","","","","","","","","","","","",""
"","ITI","","html-keyboard-response","288","405333","0.0-1.0-378.0","0","0","60575","","null","","","null","41","","","","","","","","","","","","","","","NaN",""
"","S1","","html-keyboard-response","289","405585","0.0-1.0-380.0","0","0","60575","","null","","","null","42","","","","","","","","","","","","","","","",""
"","ISI","","html-keyboard-response","290","407588","0.0-1.0-381.0","0","0","60575","","null","","","null","42","NaN","","","","","","","","","","","","","","",""
"","S2","","html-keyboard-response","291","407841","0.0-1.0-382.0","0","0","60575","","null","","","null","42","","NaN","","","","","","","","","","","","","",""
"","response","","html-keyboard-response","292","409849","0.0-1.0-383.0","0","0","60575","","null","","","null","42","","","2","42","training","adjacent","BA","2","1","L.jpg","Q.jpg","NaN","0","0","",""
"","too_slow_prompt","","html-keyboard-response","293","410851","0.0-1.0-385.0-0.0","1","0","60575","","null","","","null","","","","","","","","","","","","","","","","",""
"","time_out","","html-keyboard-response","294","412854","0.0-1.0-386.0-0.0","0","0","60575","","null","","","null","42","","","","","","","","","","","","","","","",""
"","ITI","","html-keyboard-response","295","413857","0.0-1.0-387.0","0","0","60575","","null","","","null","42","","","","","","","","","","","","","","","NaN",""
"","S1","","html-keyboard-response","296","414110","0.0-1.0-389.0","0","0","60575","","null","","","null","43","","","","","","","","","","","","","","","",""
"","ISI","","html-keyboard-response","297","416113","0.0-1.0-390.0","0","0","60575","","null","","","null","43","NaN","","","","","","","","","","","","","","",""
"","S2","","html-keyboard-response","298","416367","0.0-1.0-391.0","0","0","60575","","null","","","null","43","","NaN","","","","","","","","","","","","","",""
"","response","","html-keyboard-response","299","418370","0.0-1.0-392.0","0","0","60575","","null","","","null","43","","","2","43","training","adjacent","CB","3","2","O.jpg","L.jpg","NaN","0","0","",""
"","too_slow_prompt","","html-keyboard-response","300","419373","0.0-1.0-394.0-0.0","1","0","60575","","null","","","null","","","","","","","","","","","","","","","","",""
"","time_out","","html-keyboard-response","301","421376","0.0-1.0-395.0-0.0","0","0","60575","","null","","","null","43","","","","","","","","","","","","","","","",""
"","ITI","","html-keyboard-response","302","422379","0.0-1.0-396.0","0","0","60575","","null","","","null","43","","","","","","","","","","","","","","","NaN",""
"","S1","","html-keyboard-response","303","422631","0.0-1.0-398.0","0","0","60575","","null","","","null","44","","","","","","","","","","","","","","","",""
"","ISI","","html-keyboard-response","304","424635","0.0-1.0-399.0","0","0","60575","","null","","","null","44","NaN","","","","","","","","","","","","","","",""
"","S2","","html-keyboard-response","305","424888","0.0-1.0-400.0","0","0","60575","","null","","","null","44","","NaN","","","","","","","","","","","","","",""
"","response","","html-keyboard-response","306","426890","0.0-1.0-401.0","0","0","60575","","null","","","null","44","","","2","44","training","adjacent","EF","5","6","M.jpg","P.jpg","NaN","1","0","",""
"","too_slow_prompt","","html-keyboard-response","307","427894","0.0-1.0-403.0-0.0","1","0","60575","","null","","","null","","","","","","","","","","","","","","","","",""
"","time_out","","html-keyboard-response","308","429898","0.0-1.0-404.0-0.0","0","0","60575","","null","","","null","44","","","","","","","","","","","","","","","",""
"","ITI","","html-keyboard-response","309","430901","0.0-1.0-405.0","0","0","60575","","null","","","null","44","","","","","","","","","","","","","","","NaN",""
"","S1","","html-keyboard-response","310","431154","0.0-1.0-407.0","0","0","60575","","null","","","null","45","","","","","","","","","","","","","","","",""
"","ISI","","html-keyboard-response","311","433157","0.0-1.0-408.0","0","0","60575","","null","","","null","45","NaN","","","","","","","","","","","","","","",""
"","S2","","html-keyboard-response","312","433409","0.0-1.0-409.0","0","0","60575","","null","","","null","45","","NaN","","","","","","","","","","","","","",""
"","response","","html-keyboard-response","313","435412","0.0-1.0-410.0","0","0","60575","","null","","","null","45","","","2","45","training","adjacent","DC","4","3","N.jpg","O.jpg","NaN","0","0","",""
"","too_slow_prompt","","html-keyboard-response","314","436414","0.0-1.0-412.0-0.0","1","0","60575","","null","","","null","","","","","","","","","","","","","","","","",""
"","time_out","","html-keyboard-response","315","438417","0.0-1.0-413.0-0.0","0","0","60575","","null","","","null","45","","","","","","","","","","","","","","","",""
"","ITI","","html-keyboard-response","316","439419","0.0-1.0-414.0","0","0","60575","","null","","","null","45","","","","","","","","","","","","","","","NaN",""
"","S1","","html-keyboard-response","317","439673","0.0-1.0-416.0","0","0","60575","","null","","","null","46","","","","","","","","","","","","","","","",""
"","ISI","","html-keyboard-response","318","441676","0.0-1.0-417.0","0","0","60575","","null","","","null","46","NaN","","","","","","","","","","","","","","",""
"","S2","","html-keyboard-response","319","441928","0.0-1.0-418.0","0","0","60575","","null","","","null","46","","NaN","","","","","","","","","","","","","",""
"","response","","html-keyboard-response","320","443931","0.0-1.0-419.0","0","0","60575","","null","","","null","46","","","2","46","training","adjacent","BC","2","3","L.jpg","O.jpg","NaN","1","0","",""
"","too_slow_prompt","","html-keyboard-response","321","444933","0.0-1.0-421.0-0.0","1","0","60575","","null","","","null","","","","","","","","","","","","","","","","",""
"","time_out","","html-keyboard-response","322","446935","0.0-1.0-422.0-0.0","0","0","60575","","null","","","null","46","","","","","","","","","","","","","","","",""
"","ITI","","html-keyboard-response","323","447938","0.0-1.0-423.0","0","0","60575","","null","","","null","46","","","","","","","","","","","","","","","NaN",""
"","S1","","html-keyboard-response","324","448192","0.0-1.0-425.0","0","0","60575","","null","","","null","47","","","","","","","","","","","","","","","",""
"","ISI","","html-keyboard-response","325","450194","0.0-1.0-426.0","0","0","60575","","null","","","null","47","NaN","","","","","","","","","","","","","","",""
"","S2","","html-keyboard-response","326","450447","0.0-1.0-427.0","0","0","60575","","null","","","null","47","","NaN","","","","","","","","","","","","","",""
"","response","","html-keyboard-response","327","452451","0.0-1.0-428.0","0","0","60575","","null","","","null","47","","","2","47","training","adjacent","FE","6","5","P.jpg","M.jpg","NaN","0","0","",""
"","too_slow_prompt","","html-keyboard-response","328","453454","0.0-1.0-430.0-0.0","1","0","60575","","null","","","null","","","","","","","","","","","","","","","","",""
"","time_out","","html-keyboard-response","329","455458","0.0-1.0-431.0-0.0","0","0","60575","","null","","","null","47","","","","","","","","","","","","","","","",""
"","ITI","","html-keyboard-response","330","456461","0.0-1.0-432.0","0","0","60575","","null","","","null","47","","","","","","","","","","","","","","","NaN",""
"","S1","","html-keyboard-response","331","456713","0.0-1.0-434.0","0","0","60575","","null","","","null","48","","","","","","","","","","","","","","","",""
"","ISI","","html-keyboard-response","332","458717","0.0-1.0-435.0","0","0","60575","","null","","","null","48","NaN","","","","","","","","","","","","","","",""
"","S2","","html-keyboard-response","333","458971","0.0-1.0-436.0","0","0","60575","","null","","","null","48","","NaN","","","","","","","","","","","","","",""
"","response","","html-keyboard-response","334","460974","0.0-1.0-437.0","0","0","60575","","null","","","null","48","","","2","48","training","adjacent","CD","3","4","O.jpg","N.jpg","NaN","1","0","",""
"","too_slow_prompt","","html-keyboard-response","335","461977","0.0-1.0-439.0-0.0","1","0","60575","","null","","","null","","","","","","","","","","","","","","","","",""
"","time_out","","html-keyboard-response","336","463980","0.0-1.0-440.0-0.0","0","0","60575","","null","","","null","48","","","","","","","","","","","","","","","",""
"","ITI","","html-keyboard-response","337","464983","0.0-1.0-441.0","0","0","60575","","null","","","null","48","","","","","","","","","","","","","","","NaN",""
"","S1","","html-keyboard-response","338","465235","0.0-1.0-443.0","0","0","60575","","null","","","null","49","","","","","","","","","","","","","","","",""
"","ISI","","html-keyboard-response","339","467240","0.0-1.0-444.0","0","0","60575","","null","","","null","49","NaN","","","","","","","","","","","","","","",""
"","S2","","html-keyboard-response","340","467494","0.0-1.0-445.0","0","0","60575","","null","","","null","49","","NaN","","","","","","","","","","","","","",""
"","response","","html-keyboard-response","341","469497","0.0-1.0-446.0","0","0","60575","","null","","","null","49","","","2","49","training","adjacent","ED","5","4","M.jpg","N.jpg","NaN","0","0","",""
"","too_slow_prompt","","html-keyboard-response","342","470499","0.0-1.0-448.0-0.0","1","0","60575","","null","","","null","","","","","","","","","","","","","","","","",""
"","time_out","","html-keyboard-response","343","472502","0.0-1.0-449.0-0.0","0","0","60575","","null","","","null","49","","","","","","","","","","","","","","","",""
"","ITI","","html-keyboard-response","344","473505","0.0-1.0-450.0","0","0","60575","","null","","","null","49","","","","","","","","","","","","","","","NaN",""
"","S1","","html-keyboard-response","345","473759","0.0-1.0-452.0","0","0","60575","","null","","","null","50","","","","","","","","","","","","","","","",""
"","ISI","","html-keyboard-response","346","475762","0.0-1.0-453.0","0","0","60575","","null","","","null","50","NaN","","","","","","","","","","","","","","",""
"","S2","","html-keyboard-response","347","476015","0.0-1.0-454.0","0","0","60575","","null","","","null","50","","NaN","","","","","","","","","","","","","",""
"","response","","html-keyboard-response","348","478017","0.0-1.0-455.0","0","0","60575","","null","","","null","50","","","2","50","training","adjacent","FE","6","5","P.jpg","M.jpg","NaN","0","0","",""
"","too_slow_prompt","","html-keyboard-response","349","479021","0.0-1.0-457.0-0.0","1","0","60575","","null","","","null","","","","","","","","","","","","","","","","",""
"","time_out","","html-keyboard-response","350","481024","0.0-1.0-458.0-0.0","0","0","60575","","null","","","null","50","","","","","","","","","","","","","","","",""
"","ITI","","html-keyboard-response","351","482028","0.0-1.0-459.0","0","0","60575","","null","","","null","50","","","","","","","","","","","","","","","NaN",""
"","S1","","html-keyboard-response","352","482282","0.0-1.0-461.0","0","0","60575","","null","","","null","51","","","","","","","","","","","","","","","",""
"","ISI","","html-keyboard-response","353","484285","0.0-1.0-462.0","0","0","60575","","null","","","null","51","NaN","","","","","","","","","","","","","","",""
"","S2","","html-keyboard-response","354","484537","0.0-1.0-463.0","0","0","60575","","null","","","null","51","","NaN","","","","","","","","","","","","","",""
"","response","","html-keyboard-response","355","486540","0.0-1.0-464.0","0","0","60575","","null","","","null","51","","","2","51","training","adjacent","FG","6","7","P.jpg","R.jpg","NaN","1","0","",""
"","too_slow_prompt","","html-keyboard-response","356","487544","0.0-1.0-466.0-0.0","1","0","60575","","null","","","null","","","","","","","","","","","","","","","","",""
"","time_out","","html-keyboard-response","357","489547","0.0-1.0-467.0-0.0","0","0","60575","","null","","","null","51","","","","","","","","","","","","","","","",""
"","ITI","","html-keyboard-response","358","490550","0.0-1.0-468.0","0","0","60575","","null","","","null","51","","","","","","","","","","","","","","","NaN",""
"","S1","","html-keyboard-response","359","490804","0.0-1.0-470.0","0","0","60575","","null","","","null","52","","","","","","","","","","","","","","","",""
"","ISI","","html-keyboard-response","360","492806","0.0-1.0-471.0","0","0","60575","","null","","","null","52","NaN","","","","","","","","","","","","","","",""
"","S2","","html-keyboard-response","361","493058","0.0-1.0-472.0","0","0","60575","","null","","","null","52","","NaN","","","","","","","","","","","","","",""
"","response","","html-keyboard-response","362","495062","0.0-1.0-473.0","0","0","60575","","null","","","null","52","","","2","52","training","adjacent","AB","1","2","Q.jpg","L.jpg","NaN","1","0","",""
"","too_slow_prompt","","html-keyboard-response","363","496066","0.0-1.0-475.0-0.0","1","0","60575","","null","","","null","","","","","","","","","","","","","","","","",""
"","time_out","","html-keyboard-response","364","498069","0.0-1.0-476.0-0.0","0","0","60575","","null","","","null","52","","","","","","","","","","","","","","","",""
"","ITI","","html-keyboard-response","365","499071","0.0-1.0-477.0","0","0","60575","","null","","","null","52","","","","","","","","","","","","","","","NaN",""
"","S1","","html-keyboard-response","366","499324","0.0-1.0-479.0","0","0","60575","","null","","","null","53","","","","","","","","","","","","","","","",""
"","ISI","","html-keyboard-response","367","501326","0.0-1.0-480.0","0","0","60575","","null","","","null","53","NaN","","","","","","","","","","","","","","",""
"","S2","","html-keyboard-response","368","501579","0.0-1.0-481.0","0","0","60575","","null","","","null","53","","NaN","","","","","","","","","","","","","",""
"","response","","html-keyboard-response","369","503582","0.0-1.0-482.0","0","0","60575","","null","","","null","53","","","2","53","training","adjacent","GF","7","6","R.jpg","P.jpg","NaN","0","0","",""
"","too_slow_prompt","","html-keyboard-response","370","504585","0.0-1.0-484.0-0.0","1","0","60575","","null","","","null","","","","","","","","","","","","","","","","",""
"","time_out","","html-keyboard-response","371","506587","0.0-1.0-485.0-0.0","0","0","60575","","null","","","null","53","","","","","","","","","","","","","","","",""
"","ITI","","html-keyboard-response","372","507589","0.0-1.0-486.0","0","0","60575","","null","","","null","53","","","","","","","","","","","","","","","NaN",""
"","S1","","html-keyboard-response","373","507843","0.0-1.0-488.0","0","0","60575","","null","","","null","54","","","","","","","","","","","","","","","",""
"","ISI","","html-keyboard-response","374","509845","0.0-1.0-489.0","0","0","60575","","null","","","null","54","NaN","","","","","","","","","","","","","","",""
"","S2","","html-keyboard-response","375","510145","0.0-1.0-490.0","0","0","60575","","null","","","null","54","","NaN","","","","","","","","","","","","","",""
"","response","","html-keyboard-response","376","512148","0.0-1.0-491.0","0","0","60575","","null","","","null","54","","","2","54","training","adjacent","CD","3","4","O.jpg","N.jpg","NaN","1","0","",""
"","too_slow_prompt","","html-keyboard-response","377","513155","0.0-1.0-493.0-0.0","1","0","60575","","null","","","null","","","","","","","","","","","","","","","","",""
"","time_out","","html-keyboard-response","378","515158","0.0-1.0-494.0-0.0","0","0","60575","","null","","","null","54","","","","","","","","","","","","","","","",""
"","ITI","","html-keyboard-response","379","516160","0.0-1.0-495.0","0","0","60575","","null","","","null","54","","","","","","","","","","","","","","","NaN",""
"","S1","","html-keyboard-response","380","516414","0.0-1.0-497.0","0","0","60575","","null","","","null","55","","","","","","","","","","","","","","","",""
"","ISI","","html-keyboard-response","381","518463","0.0-1.0-498.0","0","0","60575","","null","","","null","55","NaN","","","","","","","","","","","","","","",""
"","S2","","html-keyboard-response","382","518718","0.0-1.0-499.0","0","0","60575","","null","","","null","55","","NaN","","","","","","","","","","","","","",""
"","response","","html-keyboard-response","383","520722","0.0-1.0-500.0","0","0","60575","","null","","","null","55","","","2","55","training","adjacent","DC","4","3","N.jpg","O.jpg","NaN","0","0","",""
"","too_slow_prompt","","html-keyboard-response","384","521727","0.0-1.0-502.0-0.0","1","0","60575","","null","","","null","","","","","","","","","","","","","","","","",""
"","time_out","","html-keyboard-response","385","523743","0.0-1.0-503.0-0.0","0","0","60575","","null","","","null","55","","","","","","","","","","","","","","","",""
"","ITI","","html-keyboard-response","386","524746","0.0-1.0-504.0","0","0","60575","","null","","","null","55","","","","","","","","","","","","","","","NaN",""
"","S1","","html-keyboard-response","387","524999","0.0-1.0-506.0","0","0","60575","","null","","","null","56","","","","","","","","","","","","","","","",""
"","ISI","","html-keyboard-response","388","527002","0.0-1.0-507.0","0","0","60575","","null","","","null","56","NaN","","","","","","","","","","","","","","",""
"","S2","","html-keyboard-response","389","527255","0.0-1.0-508.0","0","0","60575","","null","","","null","56","","NaN","","","","","","","","","","","","","",""
"","response","","html-keyboard-response","390","529257","0.0-1.0-509.0","0","0","60575","","null","","","null","56","","","2","56","training","adjacent","ED","5","4","M.jpg","N.jpg","NaN","0","0","",""
"","too_slow_prompt","","html-keyboard-response","391","530260","0.0-1.0-511.0-0.0","1","0","60575","","null","","","null","","","","","","","","","","","","","","","","",""
"","time_out","","html-keyboard-response","392","532262","0.0-1.0-512.0-0.0","0","0","60575","","null","","","null","56","","","","","","","","","","","","","","","",""
"","ITI","","html-keyboard-response","393","533264","0.0-1.0-513.0","0","0","60575","","null","","","null","56","","","","","","","","","","","","","","","NaN",""
"","S1","","html-keyboard-response","394","533517","0.0-1.0-515.0","0","0","60575","","null","","","null","57","","","","","","","","","","","","","","","",""
"","ISI","","html-keyboard-response","395","535520","0.0-1.0-516.0","0","0","60575","","null","","","null","57","NaN","","","","","","","","","","","","","","",""
"","S2","","html-keyboard-response","396","535772","0.0-1.0-517.0","0","0","60575","","null","","","null","57","","NaN","","","","","","","","","","","","","",""
"","response","","html-keyboard-response","397","537775","0.0-1.0-518.0","0","0","60575","","null","","","null","57","","","2","57","training","adjacent","BA","2","1","L.jpg","Q.jpg","NaN","0","0","",""
"","too_slow_prompt","","html-keyboard-response","398","538777","0.0-1.0-520.0-0.0","1","0","60575","","null","","","null","","","","","","","","","","","","","","","","",""
"","time_out","","html-keyboard-response","399","540780","0.0-1.0-521.0-0.0","0","0","60575","","null","","","null","57","","","","","","","","","","","","","","","",""
"","ITI","","html-keyboard-response","400","541783","0.0-1.0-522.0","0","0","60575","","null","","","null","57","","","","","","","","","","","","","","","NaN",""
"","S1","","html-keyboard-response","401","542035","0.0-1.0-524.0","0","0","60575","","null","","","null","58","","","","","","","","","","","","","","","",""
"","ISI","","html-keyboard-response","402","544036","0.0-1.0-525.0","0","0","60575","","null","","","null","58","NaN","","","","","","","","","","","","","","",""
"","S2","","html-keyboard-response","403","544288","0.0-1.0-526.0","0","0","60575","","null","","","null","58","","NaN","","","","","","","","","","","","","",""
"","response","","html-keyboard-response","404","546291","0.0-1.0-527.0","0","0","60575","","null","","","null","58","","","2","58","training","adjacent","BC","2","3","L.jpg","O.jpg","NaN","1","0","",""
"","too_slow_prompt","","html-keyboard-response","405","547294","0.0-1.0-529.0-0.0","1","0","60575","","null","","","null","","","","","","","","","","","","","","","","",""
"","time_out","","html-keyboard-response","406","549297","0.0-1.0-530.0-0.0","0","0","60575","","null","","","null","58","","","","","","","","","","","","","","","",""
"","ITI","","html-keyboard-response","407","550300","0.0-1.0-531.0","0","0","60575","","null","","","null","58","","","","","","","","","","","","","","","NaN",""
"","S1","","html-keyboard-response","408","550552","0.0-1.0-533.0","0","0","60575","","null","","","null","59","","","","","","","","","","","","","","","",""
"","ISI","","html-keyboard-response","409","552555","0.0-1.0-534.0","0","0","60575","","null","","","null","59","NaN","","","","","","","","","","","","","","",""
"","S2","","html-keyboard-response","410","552807","0.0-1.0-535.0","0","0","60575","","null","","","null","59","","NaN","","","","","","","","","","","","","",""
"","response","","html-keyboard-response","411","554810","0.0-1.0-536.0","0","0","60575","","null","","","null","59","","","2","59","training","adjacent","DE","4","5","N.jpg","M.jpg","NaN","1","0","",""
"","too_slow_prompt","","html-keyboard-response","412","555812","0.0-1.0-538.0-0.0","1","0","60575","","null","","","null","","","","","","","","","","","","","","","","",""
"","time_out","","html-keyboard-response","413","557816","0.0-1.0-539.0-0.0","0","0","60575","","null","","","null","59","","","","","","","","","","","","","","","",""
"","ITI","","html-keyboard-response","414","558818","0.0-1.0-540.0","0","0","60575","","null","","","null","59","","","","","","","","","","","","","","","NaN",""
"","S1","","html-keyboard-response","415","559070","0.0-1.0-542.0","0","0","60575","","null","","","null","60","","","","","","","","","","","","","","","",""
"","ISI","","html-keyboard-response","416","561073","0.0-1.0-543.0","0","0","60575","","null","","","null","60","NaN","","","","","","","","","","","","","","",""
"","S2","","html-keyboard-response","417","561326","0.0-1.0-544.0","0","0","60575","","null","","","null","60","","NaN","","","","","","","","","","","","","",""
"","response","","html-keyboard-response","418","563328","0.0-1.0-545.0","0","0","60575","","null","","","null","60","","","2","60","training","adjacent","DC","4","3","N.jpg","O.jpg","NaN","0","0","",""
"","too_slow_prompt","","html-keyboard-response","419","564330","0.0-1.0-547.0-0.0","1","0","60575","","null","","","null","","","","","","","","","","","","","","","","",""
"","time_out","","html-keyboard-response","420","566333","0.0-1.0-548.0-0.0","0","0","60575","","null","","","null","60","","","","","","","","","","","","","","","",""
"","ITI","","html-keyboard-response","421","567336","0.0-1.0-549.0","0","0","60575","","null","","","null","60","","","","","","","","","","","","","","","NaN",""
"","S1","","html-keyboard-response","422","567589","0.0-1.0-551.0","0","0","60575","","null","","","null","61","","","","","","","","","","","","","","","",""
"","ISI","","html-keyboard-response","423","569593","0.0-1.0-552.0","0","0","60575","","null","","","null","61","NaN","","","","","","","","","","","","","","",""
"","S2","","html-keyboard-response","424","569846","0.0-1.0-553.0","0","0","60575","","null","","","null","61","","NaN","","","","","","","","","","","","","",""
"","response","","html-keyboard-response","425","571848","0.0-1.0-554.0","0","0","60575","","null","","","null","61","","","2","61","training","adjacent","GF","7","6","R.jpg","P.jpg","NaN","0","0","",""
"","too_slow_prompt","","html-keyboard-response","426","572850","0.0-1.0-556.0-0.0","1","0","60575","","null","","","null","","","","","","","","","","","","","","","","",""
"","time_out","","html-keyboard-response","427","574854","0.0-1.0-557.0-0.0","0","0","60575","","null","","","null","61","","","","","","","","","","","","","","","",""
"","ITI","","html-keyboard-response","428","575857","0.0-1.0-558.0","0","0","60575","","null","","","null","61","","","","","","","","","","","","","","","NaN",""
"","S1","","html-keyboard-response","429","576110","0.0-1.0-560.0","0","0","60575","","null","","","null","62","","","","","","","","","","","","","","","",""
"","ISI","","html-keyboard-response","430","578113","0.0-1.0-561.0","0","0","60575","","null","","","null","62","NaN","","","","","","","","","","","","","","",""
"","S2","","html-keyboard-response","431","578366","0.0-1.0-562.0","0","0","60575","","null","","","null","62","","NaN","","","","","","","","","","","","","",""
"","response","","html-keyboard-response","432","580369","0.0-1.0-563.0","0","0","60575","","null","","","null","62","","","2","62","training","adjacent","EF","5","6","M.jpg","P.jpg","NaN","1","0","",""
"","too_slow_prompt","","html-keyboard-response","433","581372","0.0-1.0-565.0-0.0","1","0","60575","","null","","","null","","","","","","","","","","","","","","","","",""
"","time_out","","html-keyboard-response","434","583375","0.0-1.0-566.0-0.0","0","0","60575","","null","","","null","62","","","","","","","","","","","","","","","",""
"","ITI","","html-keyboard-response","435","584378","0.0-1.0-567.0","0","0","60575","","null","","","null","62","","","","","","","","","","","","","","","NaN",""
"","S1","","html-keyboard-response","436","584631","0.0-1.0-569.0","0","0","60575","","null","","","null","63","","","","","","","","","","","","","","","",""
"","ISI","","html-keyboard-response","437","586634","0.0-1.0-570.0","0","0","60575","","null","","","null","63","NaN","","","","","","","","","","","","","","",""
"","S2","","html-keyboard-response","438","586887","0.0-1.0-571.0","0","0","60575","","null","","","null","63","","NaN","","","","","","","","","","","","","",""
"","response","","html-keyboard-response","439","588890","0.0-1.0-572.0","0","0","60575","","null","","","null","63","","","2","63","training","adjacent","DE","4","5","N.jpg","M.jpg","NaN","1","0","",""
"","too_slow_prompt","","html-keyboard-response","440","589892","0.0-1.0-574.0-0.0","1","0","60575","","null","","","null","","","","","","","","","","","","","","","","",""
"","time_out","","html-keyboard-response","441","591896","0.0-1.0-575.0-0.0","0","0","60575","","null","","","null","63","","","","","","","","","","","","","","","",""
"","ITI","","html-keyboard-response","442","592899","0.0-1.0-576.0","0","0","60575","","null","","","null","63","","","","","","","","","","","","","","","NaN",""
"","S1","","html-keyboard-response","443","593152","0.0-1.0-578.0","0","0","60575","","null","","","null","64","","","","","","","","","","","","","","","",""
"","ISI","","html-keyboard-response","444","595154","0.0-1.0-579.0","0","0","60575","","null","","","null","64","NaN","","","","","","","","","","","","","","",""
"","S2","","html-keyboard-response","445","595406","0.0-1.0-580.0","0","0","60575","","null","","","null","64","","NaN","","","","","","","","","","","","","",""
"","response","","html-keyboard-response","446","597408","0.0-1.0-581.0","0","0","60575","","null","","","null","64","","","2","64","training","adjacent","DC","4","3","N.jpg","O.jpg","NaN","0","0","",""
"","too_slow_prompt","","html-keyboard-response","447","598412","0.0-1.0-583.0-0.0","1","0","60575","","null","","","null","","","","","","","","","","","","","","","","",""
"","time_out","","html-keyboard-response","448","600414","0.0-1.0-584.0-0.0","0","0","60575","","null","","","null","64","","","","","","","","","","","","","","","",""
"","ITI","","html-keyboard-response","449","601417","0.0-1.0-585.0","0","0","60575","","null","","","null","64","","","","","","","","","","","","","","","NaN",""
"","S1","","html-keyboard-response","450","601670","0.0-1.0-587.0","0","0","60575","","null","","","null","65","","","","","","","","","","","","","","","",""
"","ISI","","html-keyboard-response","451","603672","0.0-1.0-588.0","0","0","60575","","null","","","null","65","NaN","","","","","","","","","","","","","","",""
"","S2","","html-keyboard-response","452","603923","0.0-1.0-589.0","0","0","60575","","null","","","null","65","","NaN","","","","","","","","","","","","","",""
"","response","","html-keyboard-response","453","605926","0.0-1.0-590.0","0","0","60575","","null","","","null","65","","","2","65","training","adjacent","CB","3","2","O.jpg","L.jpg","NaN","0","0","",""
"","too_slow_prompt","","html-keyboard-response","454","606929","0.0-1.0-592.0-0.0","1","0","60575","","null","","","null","","","","","","","","","","","","","","","","",""
"","time_out","","html-keyboard-response","455","608959","0.0-1.0-593.0-0.0","0","0","60575","","null","","","null","65","","","","","","","","","","","","","","","",""
"","ITI","","html-keyboard-response","456","609962","0.0-1.0-594.0","0","0","60575","","null","","","null","65","","","","","","","","","","","","","","","NaN",""
"","S1","","html-keyboard-response","457","610215","0.0-1.0-596.0","0","0","60575","","null","","","null","66","","","","","","","","","","","","","","","",""
"","ISI","","html-keyboard-response","458","612218","0.0-1.0-597.0","0","0","60575","","null","","","null","66","NaN","","","","","","","","","","","","","","",""
"","S2","","html-keyboard-response","459","612471","0.0-1.0-598.0","0","0","60575","","null","","","null","66","","NaN","","","","","","","","","","","","","",""
"","response","","html-keyboard-response","460","614474","0.0-1.0-599.0","0","0","60575","","null","","","null","66","","","2","66","training","adjacent","BA","2","1","L.jpg","Q.jpg","NaN","0","0","",""
"","too_slow_prompt","","html-keyboard-response","461","615476","0.0-1.0-601.0-0.0","1","0","60575","","null","","","null","","","","","","","","","","","","","","","","",""
"","time_out","","html-keyboard-response","462","617477","0.0-1.0-602.0-0.0","0","0","60575","","null","","","null","66","","","","","","","","","","","","","","","",""
"","ITI","","html-keyboard-response","463","618480","0.0-1.0-603.0","0","0","60575","","null","","","null","66","","","","","","","","","","","","","","","NaN",""
"","S1","","html-keyboard-response","464","618734","0.0-1.0-605.0","0","0","60575","","null","","","null","67","","","","","","","","","","","","","","","",""
"","ISI","","html-keyboard-response","465","620736","0.0-1.0-606.0","0","0","60575","","null","","","null","67","NaN","","","","","","","","","","","","","","",""
"","S2","","html-keyboard-response","466","620989","0.0-1.0-607.0","0","0","60575","","null","","","null","67","","NaN","","","","","","","","","","","","","",""
"","response","","html-keyboard-response","467","622992","0.0-1.0-608.0","0","0","60575","","null","","","null","67","","","2","67","training","adjacent","GF","7","6","R.jpg","P.jpg","NaN","0","0","",""
"","too_slow_prompt","","html-keyboard-response","468","623994","0.0-1.0-610.0-0.0","1","0","60575","","null","","","null","","","","","","","","","","","","","","","","",""
"","time_out","","html-keyboard-response","469","625997","0.0-1.0-611.0-0.0","0","0","60575","","null","","","null","67","","","","","","","","","","","","","","","",""
"","ITI","","html-keyboard-response","470","626999","0.0-1.0-612.0","0","0","60575","","null","","","null","67","","","","","","","","","","","","","","","NaN",""
"","S1","","html-keyboard-response","471","627251","0.0-1.0-614.0","0","0","60575","","null","","","null","68","","","","","","","","","","","","","","","",""
"","ISI","","html-keyboard-response","472","629254","0.0-1.0-615.0","0","0","60575","","null","","","null","68","NaN","","","","","","","","","","","","","","",""
"","S2","","html-keyboard-response","473","629508","0.0-1.0-616.0","0","0","60575","","null","","","null","68","","NaN","","","","","","","","","","","","","",""
"","response","","html-keyboard-response","474","631510","0.0-1.0-617.0","0","0","60575","","null","","","null","68","","","2","68","training","adjacent","AB","1","2","Q.jpg","L.jpg","NaN","1","0","",""
"","too_slow_prompt","","html-keyboard-response","475","632513","0.0-1.0-619.0-0.0","1","0","60575","","null","","","null","","","","","","","","","","","","","","","","",""
"","time_out","","html-keyboard-response","476","634515","0.0-1.0-620.0-0.0","0","0","60575","","null","","","null","68","","","","","","","","","","","","","","","",""
"","ITI","","html-keyboard-response","477","635517","0.0-1.0-621.0","0","0","60575","","null","","","null","68","","","","","","","","","","","","","","","NaN",""
"","S1","","html-keyboard-response","478","635771","0.0-1.0-623.0","0","0","60575","","null","","","null","69","","","","","","","","","","","","","","","",""
"","ISI","","html-keyboard-response","479","637773","0.0-1.0-624.0","0","0","60575","","null","","","null","69","NaN","","","","","","","","","","","","","","",""
"","S2","","html-keyboard-response","480","638024","0.0-1.0-625.0","0","0","60575","","null","","","null","69","","NaN","","","","","","","","","","","","","",""
"","response","","html-keyboard-response","481","640027","0.0-1.0-626.0","0","0","60575","","null","","","null","69","","","2","69","training","adjacent","DE","4","5","N.jpg","M.jpg","NaN","1","0","",""
"","too_slow_prompt","","html-keyboard-response","482","641030","0.0-1.0-628.0-0.0","1","0","60575","","null","","","null","","","","","","","","","","","","","","","","",""
"","time_out","","html-keyboard-response","483","643034","0.0-1.0-629.0-0.0","0","0","60575","","null","","","null","69","","","","","","","","","","","","","","","",""
"","ITI","","html-keyboard-response","484","644037","0.0-1.0-630.0","0","0","60575","","null","","","null","69","","","","","","","","","","","","","","","NaN",""
"","S1","","html-keyboard-response","485","644290","0.0-1.0-632.0","0","0","60575","","null","","","null","70","","","","","","","","","","","","","","","",""
"","ISI","","html-keyboard-response","486","646292","0.0-1.0-633.0","0","0","60575","","null","","","null","70","NaN","","","","","","","","","","","","","","",""
"","S2","","html-keyboard-response","487","646545","0.0-1.0-634.0","0","0","60575","","null","","","null","70","","NaN","","","","","","","","","","","","","",""
"","response","","html-keyboard-response","488","648547","0.0-1.0-635.0","0","0","60575","","null","","","null","70","","","2","70","training","adjacent","FE","6","5","P.jpg","M.jpg","NaN","0","0","",""
"","too_slow_prompt","","html-keyboard-response","489","649550","0.0-1.0-637.0-0.0","1","0","60575","","null","","","null","","","","","","","","","","","","","","","","",""
"","time_out","","html-keyboard-response","490","651552","0.0-1.0-638.0-0.0","0","0","60575","","null","","","null","70","","","","","","","","","","","","","","","",""
"","ITI","","html-keyboard-response","491","652554","0.0-1.0-639.0","0","0","60575","","null","","","null","70","","","","","","","","","","","","","","","NaN",""
"","S1","","html-keyboard-response","492","652807","0.0-1.0-641.0","0","0","60575","","null","","","null","71","","","","","","","","","","","","","","","",""
"","ISI","","html-keyboard-response","493","654811","0.0-1.0-642.0","0","0","60575","","null","","","null","71","NaN","","","","","","","","","","","","","","",""
"","S2","","html-keyboard-response","494","655064","0.0-1.0-643.0","0","0","60575","","null","","","null","71","","NaN","","","","","","","","","","","","","",""
"","response","","html-keyboard-response","495","657068","0.0-1.0-644.0","0","0","60575","","null","","","null","71","","","2","71","training","adjacent","FG","6","7","P.jpg","R.jpg","NaN","1","0","",""
"","too_slow_prompt","","html-keyboard-response","496","658071","0.0-1.0-646.0-0.0","1","0","60575","","null","","","null","","","","","","","","","","","","","","","","",""
"","time_out","","html-keyboard-response","497","660075","0.0-1.0-647.0-0.0","0","0","60575","","null","","","null","71","","","","","","","","","","","","","","","",""
"","ITI","","html-keyboard-response","498","661079","0.0-1.0-648.0","0","0","60575","","null","","","null","71","","","","","","","","","","","","","","","NaN",""
"","S1","","html-keyboard-response","499","661331","0.0-1.0-650.0","0","0","60575","","null","","","null","72","","","","","","","","","","","","","","","",""
"","ISI","","html-keyboard-response","500","663334","0.0-1.0-651.0","0","0","60575","","null","","","null","72","NaN","","","","","","","","","","","","","","",""
"","S2","","html-keyboard-response","501","663587","0.0-1.0-652.0","0","0","60575","","null","","","null","72","","NaN","","","","","","","","","","","","","",""
"","response","","html-keyboard-response","502","665589","0.0-1.0-653.0","0","0","60575","","null","","","null","72","","","2","72","training","adjacent","EF","5","6","M.jpg","P.jpg","NaN","1","0","",""
"","too_slow_prompt","","html-keyboard-response","503","666592","0.0-1.0-655.0-0.0","1","0","60575","","null","","","null","","","","","","","","","","","","","","","","",""
"","time_out","","html-keyboard-response","504","668594","0.0-1.0-656.0-0.0","0","0","60575","","null","","","null","72","","","","","","","","","","","","","","","",""
"","ITI","","html-keyboard-response","505","669598","0.0-1.0-657.0","0","0","60575","","null","","","null","72","","","","","","","","","","","","","","","NaN",""
"","S1","","html-keyboard-response","506","669850","0.0-1.0-659.0","0","0","60575","","null","","","null","73","","","","","","","","","","","","","","","",""
"","ISI","","html-keyboard-response","507","671854","0.0-1.0-660.0","0","0","60575","","null","","","null","73","NaN","","","","","","","","","","","","","","",""
"","S2","","html-keyboard-response","508","672106","0.0-1.0-661.0","0","0","60575","","null","","","null","73","","NaN","","","","","","","","","","","","","",""
"","response","","html-keyboard-response","509","674109","0.0-1.0-662.0","0","0","60575","","null","","","null","73","","","2","73","training","adjacent","FG","6","7","P.jpg","R.jpg","NaN","1","0","",""
"","too_slow_prompt","","html-keyboard-response","510","675113","0.0-1.0-664.0-0.0","1","0","60575","","null","","","null","","","","","","","","","","","","","","","","",""
"","time_out","","html-keyboard-response","511","677115","0.0-1.0-665.0-0.0","0","0","60575","","null","","","null","73","","","","","","","","","","","","","","","",""
"","ITI","","html-keyboard-response","512","678117","0.0-1.0-666.0","0","0","60575","","null","","","null","73","","","","","","","","","","","","","","","NaN",""
"","S1","","html-keyboard-response","513","678371","0.0-1.0-668.0","0","0","60575","","null","","","null","74","","","","","","","","","","","","","","","",""
"","ISI","","html-keyboard-response","514","680374","0.0-1.0-669.0","0","0","60575","","null","","","null","74","NaN","","","","","","","","","","","","","","",""
"","S2","","html-keyboard-response","515","680628","0.0-1.0-670.0","0","0","60575","","null","","","null","74","","NaN","","","","","","","","","","","","","",""
"","response","","html-keyboard-response","516","682631","0.0-1.0-671.0","0","0","60575","","null","","","null","74","","","2","74","training","adjacent","CD","3","4","O.jpg","N.jpg","NaN","1","0","",""
"","too_slow_prompt","","html-keyboard-response","517","683635","0.0-1.0-673.0-0.0","1","0","60575","","null","","","null","","","","","","","","","","","","","","","","",""
"","time_out","","html-keyboard-response","518","685638","0.0-1.0-674.0-0.0","0","0","60575","","null","","","null","74","","","","","","","","","","","","","","","",""
"","ITI","","html-keyboard-response","519","686640","0.0-1.0-675.0","0","0","60575","","null","","","null","74","","","","","","","","","","","","","","","NaN",""
"","S1","","html-keyboard-response","520","686892","0.0-1.0-677.0","0","0","60575","","null","","","null","75","","","","","","","","","","","","","","","",""
"","ISI","","html-keyboard-response","521","688895","0.0-1.0-678.0","0","0","60575","","null","","","null","75","NaN","","","","","","","","","","","","","","",""
"","S2","","html-keyboard-response","522","689149","0.0-1.0-679.0","0","0","60575","","null","","","null","75","","NaN","","","","","","","","","","","","","",""
"","response","","html-keyboard-response","523","691152","0.0-1.0-680.0","0","0","60575","","null","","","null","75","","","2","75","training","adjacent","BC","2","3","L.jpg","O.jpg","NaN","1","0","",""
"","too_slow_prompt","","html-keyboard-response","524","692154","0.0-1.0-682.0-0.0","1","0","60575","","null","","","null","","","","","","","","","","","","","","","","",""
"","time_out","","html-keyboard-response","525","694157","0.0-1.0-683.0-0.0","0","0","60575","","null","","","null","75","","","","","","","","","","","","","","","",""
"","ITI","","html-keyboard-response","526","695160","0.0-1.0-684.0","0","0","60575","","null","","","null","75","","","","","","","","","","","","","","","NaN",""
"","S1","","html-keyboard-response","527","695413","0.0-1.0-686.0","0","0","60575","","null","","","null","76","","","","","","","","","","","","","","","",""
"","ISI","","html-keyboard-response","528","697415","0.0-1.0-687.0","0","0","60575","","null","","","null","76","NaN","","","","","","","","","","","","","","",""
"","S2","","html-keyboard-response","529","697667","0.0-1.0-688.0","0","0","60575","","null","","","null","76","","NaN","","","","","","","","","","","","","",""
"","response","","html-keyboard-response","530","699671","0.0-1.0-689.0","0","0","60575","","null","","","null","76","","","2","76","training","adjacent","AB","1","2","Q.jpg","L.jpg","NaN","1","0","",""
"","too_slow_prompt","","html-keyboard-response","531","700675","0.0-1.0-691.0-0.0","1","0","60575","","null","","","null","","","","","","","","","","","","","","","","",""
"","time_out","","html-keyboard-response","532","702678","0.0-1.0-692.0-0.0","0","0","60575","","null","","","null","76","","","","","","","","","","","","","","","",""
"","ITI","","html-keyboard-response","533","703680","0.0-1.0-693.0","0","0","60575","","null","","","null","76","","","","","","","","","","","","","","","NaN",""
"","S1","","html-keyboard-response","534","703932","0.0-1.0-695.0","0","0","60575","","null","","","null","77","","","","","","","","","","","","","","","",""
"","ISI","","html-keyboard-response","535","705934","0.0-1.0-696.0","0","0","60575","","null","","","null","77","NaN","","","","","","","","","","","","","","",""
"","S2","","html-keyboard-response","536","706188","0.0-1.0-697.0","0","0","60575","","null","","","null","77","","NaN","","","","","","","","","","","","","",""
"","response","","html-keyboard-response","537","708190","0.0-1.0-698.0","0","0","60575","","null","","","null","77","","","2","77","training","adjacent","CD","3","4","O.jpg","N.jpg","NaN","1","0","",""
"","too_slow_prompt","","html-keyboard-response","538","709194","0.0-1.0-700.0-0.0","1","0","60575","","null","","","null","","","","","","","","","","","","","","","","",""
"","time_out","","html-keyboard-response","539","711196","0.0-1.0-701.0-0.0","0","0","60575","","null","","","null","77","","","","","","","","","","","","","","","",""
"","ITI","","html-keyboard-response","540","712199","0.0-1.0-702.0","0","0","60575","","null","","","null","77","","","","","","","","","","","","","","","NaN",""
"","S1","","html-keyboard-response","541","712453","0.0-1.0-704.0","0","0","60575","","null","","","null","78","","","","","","","","","","","","","","","",""
"","ISI","","html-keyboard-response","542","714455","0.0-1.0-705.0","0","0","60575","","null","","","null","78","NaN","","","","","","","","","","","","","","",""
"","S2","","html-keyboard-response","543","714708","0.0-1.0-706.0","0","0","60575","","null","","","null","78","","NaN","","","","","","","","","","","","","",""
"","response","","html-keyboard-response","544","716710","0.0-1.0-707.0","0","0","60575","","null","","","null","78","","","2","78","training","adjacent","DE","4","5","N.jpg","M.jpg","NaN","1","0","",""
"","too_slow_prompt","","html-keyboard-response","545","717712","0.0-1.0-709.0-0.0","1","0","60575","","null","","","null","","","","","","","","","","","","","","","","",""
"","time_out","","html-keyboard-response","546","719716","0.0-1.0-710.0-0.0","0","0","60575","","null","","","null","78","","","","","","","","","","","","","","","",""
"","ITI","","html-keyboard-response","547","720718","0.0-1.0-711.0","0","0","60575","","null","","","null","78","","","","","","","","","","","","","","","NaN",""
"","S1","","html-keyboard-response","548","720971","0.0-1.0-713.0","0","0","60575","","null","","","null","79","","","","","","","","","","","","","","","",""
"","ISI","","html-keyboard-response","549","722974","0.0-1.0-714.0","0","0","60575","","null","","","null","79","NaN","","","","","","","","","","","","","","",""
"","S2","","html-keyboard-response","550","723240","0.0-1.0-715.0","0","0","60575","","null","","","null","79","","NaN","","","","","","","","","","","","","",""
"","response","","html-keyboard-response","551","725243","0.0-1.0-716.0","0","0","60575","","null","","","null","79","","","2","79","training","adjacent","CB","3","2","O.jpg","L.jpg","NaN","0","0","",""
"","too_slow_prompt","","html-keyboard-response","552","726246","0.0-1.0-718.0-0.0","1","0","60575","","null","","","null","","","","","","","","","","","","","","","","",""
"","time_out","","html-keyboard-response","553","728249","0.0-1.0-719.0-0.0","0","0","60575","","null","","","null","79","","","","","","","","","","","","","","","",""
"","ITI","","html-keyboard-response","554","729252","0.0-1.0-720.0","0","0","60575","","null","","","null","79","","","","","","","","","","","","","","","NaN",""
"","block_over","","html-keyboard-response","555","871095","0.0-1.0-721.0-0.0","0","0","60575","","141841","","","32","79","","","","","","","","","","","","","","","",""
"","S1","","html-keyboard-response","556","871348","0.0-1.0-722.0","0","0","60575","","null","","","null","80","","","","","","","","","","","","","","","",""
"","ISI","","html-keyboard-response","557","873350","0.0-1.0-723.0","0","0","60575","","null","","","null","80","NaN","","","","","","","","","","","","","","",""
"","S2","","html-keyboard-response","558","873604","0.0-1.0-724.0","0","0","60575","","null","","","null","80","","NaN","","","","","","","","","","","","","",""
"","response","","html-keyboard-response","559","875608","0.0-1.0-725.0","0","0","60575","","null","","","null","80","","","3","80","training","adjacent","BA","2","1","L.jpg","Q.jpg","NaN","0","0","",""
"","too_slow_prompt","","html-keyboard-response","560","876610","0.0-1.0-727.0-0.0","1","0","60575","","null","","","null","","","","","","","","","","","","","","","","",""
"","time_out","","html-keyboard-response","561","878613","0.0-1.0-728.0-0.0","0","0","60575","","null","","","null","80","","","","","","","","","","","","","","","",""
"","ITI","","html-keyboard-response","562","879616","0.0-1.0-729.0","0","0","60575","","null","","","null","80","","","","","","","","","","","","","","","NaN",""
"","S1","","html-keyboard-response","563","879869","0.0-1.0-731.0","0","0","60575","","null","","","null","81","","","","","","","","","","","","","","","",""
"","ISI","","html-keyboard-response","564","881872","0.0-1.0-732.0","0","0","60575","","null","","","null","81","NaN","","","","","","","","","","","","","","",""
"","S2","","html-keyboard-response","565","882125","0.0-1.0-733.0","0","0","60575","","null","","","null","81","","NaN","","","","","","","","","","","","","",""
"","response","","html-keyboard-response","566","884129","0.0-1.0-734.0","0","0","60575","","null","","","null","81","","","3","81","training","adjacent","FG","6","7","P.jpg","R.jpg","NaN","1","0","",""
"","too_slow_prompt","","html-keyboard-response","567","885132","0.0-1.0-736.0-0.0","1","0","60575","","null","","","null","","","","","","","","","","","","","","","","",""
"","time_out","","html-keyboard-response","568","887133","0.0-1.0-737.0-0.0","0","0","60575","","null","","","null","81","","","","","","","","","","","","","","","",""
"","ITI","","html-keyboard-response","569","888137","0.0-1.0-738.0","0","0","60575","","null","","","null","81","","","","","","","","","","","","","","","NaN",""
"","S1","","html-keyboard-response","570","888389","0.0-1.0-740.0","0","0","60575","","null","","","null","82","","","","","","","","","","","","","","","",""
"","ISI","","html-keyboard-response","571","890394","0.0-1.0-741.0","0","0","60575","","null","","","null","82","NaN","","","","","","","","","","","","","","",""
"","S2","","html-keyboard-response","572","890647","0.0-1.0-742.0","0","0","60575","","null","","","null","82","","NaN","","","","","","","","","","","","","",""
"","response","","html-keyboard-response","573","892649","0.0-1.0-743.0","0","0","60575","","null","","","null","82","","","3","82","training","adjacent","FE","6","5","P.jpg","M.jpg","NaN","0","0","",""
"","too_slow_prompt","","html-keyboard-response","574","893653","0.0-1.0-745.0-0.0","1","0","60575","","null","","","null","","","","","","","","","","","","","","","","",""
"","time_out","","html-keyboard-response","575","895654","0.0-1.0-746.0-0.0","0","0","60575","","null","","","null","82","","","","","","","","","","","","","","","",""
"","ITI","","html-keyboard-response","576","896656","0.0-1.0-747.0","0","0","60575","","null","","","null","82","","","","","","","","","","","","","","","NaN",""
"","S1","","html-keyboard-response","577","896910","0.0-1.0-749.0","0","0","60575","","null","","","null","83","","","","","","","","","","","","","","","",""
"","ISI","","html-keyboard-response","578","898914","0.0-1.0-750.0","0","0","60575","","null","","","null","83","NaN","","","","","","","","","","","","","","",""
"","S2","","html-keyboard-response","579","899166","0.0-1.0-751.0","0","0","60575","","null","","","null","83","","NaN","","","","","","","","","","","","","",""
"","response","","html-keyboard-response","580","901169","0.0-1.0-752.0","0","0","60575","","null","","","null","83","","","3","83","training","adjacent","AB","1","2","Q.jpg","L.jpg","NaN","1","0","",""
"","too_slow_prompt","","html-keyboard-response","581","902171","0.0-1.0-754.0-0.0","1","0","60575","","null","","","null","","","","","","","","","","","","","","","","",""
"","time_out","","html-keyboard-response","582","904174","0.0-1.0-755.0-0.0","0","0","60575","","null","","","null","83","","","","","","","","","","","","","","","",""
