"success","ttype","start_time","trial_type","trial_index","time_elapsed","internal_node_id","warning","missed_checkup","PID","view_history","rt","responses","repeat_instructions","key_press","index","keypress_isi","keypress_S2","block","trial_num","phase","group_type","pair_type","S1_stim","S2_stim","S1_img","S2_img","S1_chosen","S1_higher","accuracy","keypress_iti","total_bonus_tally"
"true","full_screen","d04062023hr1853","fullscreen","0","3008","0.0-0.0","0","0","61939","","","","","","","","","","","","","","","","","","","","","",""
"","instructions","","instructions","1","16451","0.0-1.0-0.0-0.0","0","0","61939","[{""page_index"":0,""viewing_time"":3048},{""page_index"":1,""viewing_time"":5075},{""page_index"":2,""viewing_time"":3943},{""page_index"":3,""viewing_time"":1369}]","13436","","","","","","","","","","","","","","","","","","","",""
"","comprehension_check","","survey-multi-choice","2","30296","0.0-1.0-0.0-1.0","0","0","61939","","13815","{""Q0"":""True"",""Q1"":""D"",""Q2"":""Only when the screen 'MAKE A CHOICE' is shown"",""Q3"":""Green mark"",""Q4"":""either D or K""}","1","","","","","","","","","","","","","","","","","",""
"","missed_instruction_checkup","","html-keyboard-response","3","32135","0.0-1.0-0.0-2.0-0.0","0","1","61939","","1827","","","32","","","","","","","","","","","","","","","","",""
"","instructions","","instructions","4","38277","0.0-1.0-0.1-0.1","0","0","61939","[{""page_index"":0,""viewing_time"":2554},{""page_index"":1,""viewing_time"":1702},{""page_index"":2,""viewing_time"":987},{""page_index"":3,""viewing_time"":890}]","6134","","","","","","","","","","","","","","","","","","","",""
"","comprehension_check","","survey-multi-choice","5","60451","0.0-1.0-0.1-1.1","0","0","61939","","22156","{""Q0"":""True"",""Q1"":""D"",""Q2"":""Once the second image appears and while the screen 'MAKE A CHOICE' is shown"",""Q3"":""Green mark"",""Q4"":""either D or K""}","1","","","","","","","","","","","","","","","","","",""
"","missed_instruction_checkup","","html-keyboard-response","6","61719","0.0-1.0-0.1-2.1-0.1","0","1","61939","","1259","","","32","","","","","","","","","","","","","","","","",""
"","instructions","","instructions","7","71039","0.0-1.0-0.2-0.2","0","0","61939","[{""page_index"":0,""viewing_time"":2407},{""page_index"":1,""viewing_time"":4646},{""page_index"":2,""viewing_time"":1253},{""page_index"":3,""viewing_time"":1009}]","9315","","","","","","","","","","","","","","","","","","","",""
"","comprehension_check","","survey-multi-choice","8","81867","0.0-1.0-0.2-1.2","0","0","61939","","10808","{""Q0"":""True"",""Q1"":""K"",""Q2"":""Only when the screen 'MAKE A CHOICE' is shown"",""Q3"":""Green mark"",""Q4"":""either D or K""}","1","","","","","","","","","","","","","","","","","",""
"","missed_instruction_checkup","","html-keyboard-response","9","82886","0.0-1.0-0.2-2.2-0.2","0","1","61939","","1011","","","32","","","","","","","","","","","","","","","","",""
"","instructions","","instructions","10","88851","0.0-1.0-0.3-0.3","0","0","61939","[{""page_index"":0,""viewing_time"":1544},{""page_index"":1,""viewing_time"":2749},{""page_index"":2,""viewing_time"":923},{""page_index"":3,""viewing_time"":738}]","5955","","","","","","","","","","","","","","","","","","","",""
"","comprehension_check","","survey-multi-choice","11","99070","0.0-1.0-0.3-1.3","0","0","61939","","10198","{""Q0"":""True"",""Q1"":""K"",""Q2"":""Once the second image appears and while the screen 'MAKE A CHOICE' is shown"",""Q3"":""Green mark"",""Q4"":""either D or K""}","0","","","","","","","","","","","","","","","","","",""
"","start_exp","","html-keyboard-response","12","100215","0.0-1.0-1.0","0","0","61939","","1136","","","32","","","","","","","","","","","","","","","","",""
"","S1","","html-keyboard-response","13","100373","0.0-1.0-2.0","0","0","61939","","null","","","null","0","","","","","","","","","","","","","","","",""
"","ISI","","html-keyboard-response","14","102393","0.0-1.0-3.0","0","0","61939","","null","","","null","0","NaN","","","","","","","","","","","","","","",""
"","S2","","html-keyboard-response","15","102562","0.0-1.0-4.0","0","0","61939","","null","","","null","0","","NaN","","","","","","","","","","","","","",""
"","response","","html-keyboard-response","16","103232","0.0-1.0-5.0-0.0","0","0","61939","","661","","","75","0","","","1","0","training","adjacent","AB","1","2","Q.jpg","M.jpg","1","1","1","",""
"","feedback","","html-keyboard-response","17","104246","0.0-1.0-6.0-0.0","0","0","61939","","null","","","null","0","","","","","","","","","","","","","","","",""
"","ITI","","html-keyboard-response","18","105257","0.0-1.0-9.0","0","0","61939","","null","","","null","0","","","","","","","","","","","","","","","NaN",""
"","S1","","html-keyboard-response","19","105415","0.0-1.0-11.0","0","0","61939","","null","","","null","1","","","","","","","","","","","","","","","",""
"","ISI","","html-keyboard-response","20","107431","0.0-1.0-12.0","0","0","61939","","null","","","null","1","NaN","","","","","","","","","","","","","","",""
"","S2","","html-keyboard-response","21","107591","0.0-1.0-13.0","0","0","61939","","null","","","null","1","","NaN","","","","","","","","","","","","","",""
"","response","","html-keyboard-response","22","107845","0.0-1.0-14.0-0.0","0","0","61939","","248","","","68","1","","","1","1","training","adjacent","CB","3","2","R.jpg","M.jpg","0","0","1","",""
"","feedback","","html-keyboard-response","23","108859","0.0-1.0-15.0-0.0","0","0","61939","","null","","","null","1","","","","","","","","","","","","","","","",""
"","ITI","","html-keyboard-response","24","109867","0.0-1.0-18.0","0","0","61939","","null","","","null","1","","","","","","","","","","","","","","","NaN",""
"","S1","","html-keyboard-response","25","110024","0.0-1.0-20.0","0","0","61939","","null","","","null","2","","","","","","","","","","","","","","","",""
"","ISI","","html-keyboard-response","26","112037","0.0-1.0-21.0","0","0","61939","","null","","","null","2","NaN","","","","","","","","","","","","","","",""
"","S2","","html-keyboard-response","27","112195","0.0-1.0-22.0","0","0","61939","","null","","","null","2","","NaN","","","","","","","","","","","","","",""
"","response","","html-keyboard-response","28","112469","0.0-1.0-23.0-0.0","0","0","61939","","268","","","68","2","","","1","2","training","adjacent","GF","7","6","N.jpg","O.jpg","0","0","1","",""
"","feedback","","html-keyboard-response","29","113477","0.0-1.0-24.0-0.0","0","0","61939","","null","","","null","2","","","","","","","","","","","","","","","",""
"","ITI","","html-keyboard-response","30","114493","0.0-1.0-27.0","0","0","61939","","null","","","null","2","","","","","","","","","","","","","","","NaN",""
"","S1","","html-keyboard-response","31","114654","0.0-1.0-29.0","0","0","61939","","null","","","null","3","","","","","","","","","","","","","","","",""
"","ISI","","html-keyboard-response","32","116673","0.0-1.0-30.0","0","0","61939","","null","","","null","3","NaN","","","","","","","","","","","","","","",""
"","S2","","html-keyboard-response","33","116836","0.0-1.0-31.0","0","0","61939","","null","","","null","3","","NaN","","","","","","","","","","","","","",""
"","response","","html-keyboard-response","34","117068","0.0-1.0-32.0-0.0","0","0","61939","","227","","","75","3","","","1","3","training","adjacent","BA","2","1","M.jpg","Q.jpg","1","0","0","",""
"","feedback","","html-keyboard-response","35","118077","0.0-1.0-33.0-0.0","0","0","61939","","null","","","null","3","","","","","","","","","","","","","","","",""
"","time_out","","html-keyboard-response","36","120089","0.0-1.0-35.0-0.0","0","0","61939","","null","","","null","3","","","","","","","","","","","","","","","",""
"","ITI","","html-keyboard-response","37","121102","0.0-1.0-36.0","0","0","61939","","null","","","null","3","","","","","","","","","","","","","","","NaN",""
"","S1","","html-keyboard-response","38","121263","0.0-1.0-38.0","0","0","61939","","null","","","null","4","","","","","","","","","","","","","","","",""
"","ISI","","html-keyboard-response","39","123275","0.0-1.0-39.0","0","0","61939","","null","","","null","4","NaN","","","","","","","","","","","","","","",""
"","S2","","html-keyboard-response","40","123439","0.0-1.0-40.0","0","0","61939","","null","","","null","4","","NaN","","","","","","","","","","","","","",""
"","response","","html-keyboard-response","41","123505","0.0-1.0-41.0-0.0","0","0","61939","","60","","","75","4","","","1","4","training","adjacent","AB","1","2","Q.jpg","M.jpg","1","1","1","",""
"","feedback","","html-keyboard-response","42","124515","0.0-1.0-42.0-0.0","0","0","61939","","null","","","null","4","","","","","","","","","","","","","","","",""
"","ITI","","html-keyboard-response","43","125526","0.0-1.0-45.0","0","0","61939","","null","","","null","4","","","","","","","","","","","","","","","NaN",""
"","S1","","html-keyboard-response","44","125686","0.0-1.0-47.0","0","0","61939","","null","","","null","5","","","","","","","","","","","","","","","",""
"","ISI","","html-keyboard-response","45","127695","0.0-1.0-48.0","0","0","61939","","null","","","null","5","NaN","","","","","","","","","","","","","","",""
"","S2","","html-keyboard-response","46","127859","0.0-1.0-49.0","0","0","61939","","null","","","null","5","","NaN","","","","","","","","","","","","","",""
"","response","","html-keyboard-response","47","127925","0.0-1.0-50.0-0.0","0","0","61939","","61","","","68","5","","","1","5","training","adjacent","DC","4","3","L.jpg","R.jpg","0","0","1","",""
"","feedback","","html-keyboard-response","48","128935","0.0-1.0-51.0-0.0","0","0","61939","","null","","","null","5","","","","","","","","","","","","","","","",""
"","ITI","","html-keyboard-response","49","129945","0.0-1.0-54.0","0","0","61939","","null","","","null","5","","","","","","","","","","","","","","","NaN",""
"","S1","","html-keyboard-response","50","130107","0.0-1.0-56.0","0","0","61939","","null","","","null","6","","","","","","","","","","","","","","","",""
"","ISI","","html-keyboard-response","51","132113","0.0-1.0-57.0","0","0","61939","","null","","","null","6","NaN","","","","","","","","","","","","","","",""
"","S2","","html-keyboard-response","52","132275","0.0-1.0-58.0","0","0","61939","","null","","","null","6","","NaN","","","","","","","","","","","","","",""
"","response","","html-keyboard-response","53","133744","0.0-1.0-59.0-0.0","0","0","61939","","1462","","","75","6","","","1","6","training","adjacent","BC","2","3","M.jpg","R.jpg","1","1","1","",""
"","feedback","","html-keyboard-response","54","134756","0.0-1.0-60.0-0.0","0","0","61939","","null","","","null","6","","","","","","","","","","","","","","","",""
"","ITI","","html-keyboard-response","55","135770","0.0-1.0-63.0","0","0","61939","","null","","","null","6","","","","","","","","","","","","","","","NaN",""
"","S1","","html-keyboard-response","56","135928","0.0-1.0-65.0","0","0","61939","","null","","","null","7","","","","","","","","","","","","","","","",""
"","ISI","","html-keyboard-response","57","137941","0.0-1.0-66.0","0","0","61939","","1872","","","68","7","d","","","","","","","","","","","","","","",""
"","S2","","html-keyboard-response","58","138103","0.0-1.0-67.0","0","0","61939","","null","","","null","7","","NaN","","","","","","","","","","","","","",""
"","response","","html-keyboard-response","59","138227","0.0-1.0-68.0-0.0","0","0","61939","","118","","","68","7","","","1","7","training","adjacent","EF","5","6","P.jpg","O.jpg","0","1","0","",""
"","feedback","","html-keyboard-response","60","139241","0.0-1.0-69.0-0.0","0","0","61939","","null","","","null","7","","","","","","","","","","","","","","","",""
"","time_out","","html-keyboard-response","61","141249","0.0-1.0-71.0-0.0","0","0","61939","","null","","","null","7","","","","","","","","","","","","","","","",""
"","ITI","","html-keyboard-response","62","142261","0.0-1.0-72.0","0","0","61939","","null","","","null","7","","","","","","","","","","","","","","","NaN",""
"","S1","","html-keyboard-response","63","142424","0.0-1.0-74.0","0","0","61939","","null","","","null","8","","","","","","","","","","","","","","","",""
"","ISI","","html-keyboard-response","64","144432","0.0-1.0-75.0","0","0","61939","","null","","","null","8","NaN","","","","","","","","","","","","","","",""
"","S2","","html-keyboard-response","65","144595","0.0-1.0-76.0","0","0","61939","","null","","","null","8","","NaN","","","","","","","","","","","","","",""
"","response","","html-keyboard-response","66","144793","0.0-1.0-77.0-0.0","0","0","61939","","191","","","68","8","","","1","8","training","adjacent","EF","5","6","P.jpg","O.jpg","0","1","0","",""
"","feedback","","html-keyboard-response","67","145804","0.0-1.0-78.0-0.0","0","0","61939","","null","","","null","8","","","","","","","","","","","","","","","",""
"","time_out","","html-keyboard-response","68","147815","0.0-1.0-80.0-0.0","0","0","61939","","null","","","null","8","","","","","","","","","","","","","","","",""
"","ITI","","html-keyboard-response","69","148826","0.0-1.0-81.0","0","0","61939","","null","","","null","8","","","","","","","","","","","","","","","NaN",""
"","S1","","html-keyboard-response","70","148988","0.0-1.0-83.0","0","0","61939","","null","","","null","9","","","","","","","","","","","","","","","",""
"","ISI","","html-keyboard-response","71","150994","0.0-1.0-84.0","0","0","61939","","null","","","null","9","NaN","","","","","","","","","","","","","","",""
"","S2","","html-keyboard-response","72","151157","0.0-1.0-85.0","0","0","61939","","null","","","null","9","","NaN","","","","","","","","","","","","","",""
"","response","","html-keyboard-response","73","151252","0.0-1.0-86.0-0.0","0","0","61939","","89","","","75","9","","","1","9","training","adjacent","DE","4","5","L.jpg","P.jpg","1","1","1","",""
"","feedback","","html-keyboard-response","74","152265","0.0-1.0-87.0-0.0","0","0","61939","","null","","","null","9","","","","","","","","","","","","","","","",""
"","ITI","","html-keyboard-response","75","153276","0.0-1.0-90.0","0","0","61939","","null","","","null","9","","","","","","","","","","","","","","","NaN",""
"","S1","","html-keyboard-response","76","153438","0.0-1.0-92.0","0","0","61939","","null","","","null","10","","","","","","","","","","","","","","","",""
"","ISI","","html-keyboard-response","77","155447","0.0-1.0-93.0","0","0","61939","","null","","","null","10","NaN","","","","","","","","","","","","","","",""
"","S2","","html-keyboard-response","78","155611","0.0-1.0-94.0","0","0","61939","","null","","","null","10","","NaN","","","","","","","","","","","","","",""
"","response","","html-keyboard-response","79","155748","0.0-1.0-95.0-0.0","0","0","61939","","131","","","68","10","","","1","10","training","adjacent","DC","4","3","L.jpg","R.jpg","0","0","1","",""
"","feedback","","html-keyboard-response","80","156755","0.0-1.0-96.0-0.0","0","0","61939","","null","","","null","10","","","","","","","","","","","","","","","",""
"","ITI","","html-keyboard-response","81","157769","0.0-1.0-99.0","0","0","61939","","null","","","null","10","","","","","","","","","","","","","","","NaN",""
"","S1","","html-keyboard-response","82","157932","0.0-1.0-101.0","0","0","61939","","null","","","null","11","","","","","","","","","","","","","","","",""
"","ISI","","html-keyboard-response","83","159940","0.0-1.0-102.0","0","0","61939","","1799","","","75","11","k","","","","","","","","","","","","","","",""
"","S2","","html-keyboard-response","84","160111","0.0-1.0-103.0","0","0","61939","","null","","","null","11","","NaN","","","","","","","","","","","","","",""
"","response","","html-keyboard-response","85","160266","0.0-1.0-104.0-0.0","0","0","61939","","150","","","75","11","","","1","11","training","adjacent","CD","3","4","R.jpg","L.jpg","1","1","1","",""
"","feedback","","html-keyboard-response","86","161277","0.0-1.0-105.0-0.0","0","0","61939","","null","","","null","11","","","","","","","","","","","","","","","",""
"","ITI","","html-keyboard-response","87","162289","0.0-1.0-108.0","0","0","61939","","null","","","null","11","","","","","","","","","","","","","","","NaN",""
"","S1","","html-keyboard-response","88","162445","0.0-1.0-110.0","0","0","61939","","null","","","null","12","","","","","","","","","","","","","","","",""
"","ISI","","html-keyboard-response","89","164461","0.0-1.0-111.0","0","0","61939","","null","","","null","12","NaN","","","","","","","","","","","","","","",""
"","S2","","html-keyboard-response","90","164625","0.0-1.0-112.0","0","0","61939","","null","","","null","12","","NaN","","","","","","","","","","","","","",""
"","response","","html-keyboard-response","91","164924","0.0-1.0-113.0-0.0","0","0","61939","","293","","","68","12","","","1","12","training","adjacent","DE","4","5","L.jpg","P.jpg","0","1","0","",""
"","feedback","","html-keyboard-response","92","165938","0.0-1.0-114.0-0.0","0","0","61939","","null","","","null","12","","","","","","","","","","","","","","","",""
"","time_out","","html-keyboard-response","93","167956","0.0-1.0-116.0-0.0","0","0","61939","","null","","","null","12","","","","","","","","","","","","","","","",""
"","ITI","","html-keyboard-response","94","168964","0.0-1.0-117.0","0","0","61939","","null","","","null","12","","","","","","","","","","","","","","","NaN",""
"","S1","","html-keyboard-response","95","169128","0.0-1.0-119.0","0","0","61939","","null","","","null","13","","","","","","","","","","","","","","","",""
"","ISI","","html-keyboard-response","96","171135","0.0-1.0-120.0","0","0","61939","","null","","","null","13","NaN","","","","","","","","","","","","","","",""
"","S2","","html-keyboard-response","97","171295","0.0-1.0-121.0","0","0","61939","","null","","","null","13","","NaN","","","","","","","","","","","","","",""
"","response","","html-keyboard-response","98","171374","0.0-1.0-122.0-0.0","0","0","61939","","73","","","68","13","","","1","13","training","adjacent","FE","6","5","O.jpg","P.jpg","0","0","1","",""
"","feedback","","html-keyboard-response","99","172386","0.0-1.0-123.0-0.0","0","0","61939","","null","","","null","13","","","","","","","","","","","","","","","",""
"","ITI","","html-keyboard-response","100","173397","0.0-1.0-126.0","0","0","61939","","null","","","null","13","","","","","","","","","","","","","","","NaN",""
"","S1","","html-keyboard-response","101","173560","0.0-1.0-128.0","0","0","61939","","null","","","null","14","","","","","","","","","","","","","","","",""
"","ISI","","html-keyboard-response","102","175567","0.0-1.0-129.0","0","0","61939","","null","","","null","14","NaN","","","","","","","","","","","","","","",""
"","S2","","html-keyboard-response","103","175730","0.0-1.0-130.0","0","0","61939","","null","","","null","14","","NaN","","","","","","","","","","","","","",""
"","response","","html-keyboard-response","104","175834","0.0-1.0-131.0-0.0","0","0","61939","","98","","","75","14","","","1","14","training","adjacent","CD","3","4","R.jpg","L.jpg","1","1","1","",""
"","feedback","","html-keyboard-response","105","176847","0.0-1.0-132.0-0.0","0","0","61939","","null","","","null","14","","","","","","","","","","","","","","","",""
"","ITI","","html-keyboard-response","106","177859","0.0-1.0-135.0","0","0","61939","","null","","","null","14","","","","","","","","","","","","","","","NaN",""
"","S1","","html-keyboard-response","107","178022","0.0-1.0-137.0","0","0","61939","","null","","","null","15","","","","","","","","","","","","","","","",""
"","ISI","","html-keyboard-response","108","180031","0.0-1.0-138.0","0","0","61939","","null","","","null","15","NaN","","","","","","","","","","","","","","",""
"","S2","","html-keyboard-response","109","180193","0.0-1.0-139.0","0","0","61939","","null","","","null","15","","NaN","","","","","","","","","","","","","",""
"","response","","html-keyboard-response","110","180506","0.0-1.0-140.0-0.0","0","0","61939","","306","","","75","15","","","1","15","training","adjacent","BA","2","1","M.jpg","Q.jpg","1","0","0","",""
"","feedback","","html-keyboard-response","111","181527","0.0-1.0-141.0-0.0","0","0","61939","","null","","","null","15","","","","","","","","","","","","","","","",""
"","time_out","","html-keyboard-response","112","183538","0.0-1.0-143.0-0.0","0","0","61939","","null","","","null","15","","","","","","","","","","","","","","","",""
"","ITI","","html-keyboard-response","113","184551","0.0-1.0-144.0","0","0","61939","","null","","","null","15","","","","","","","","","","","","","","","NaN",""
"","S1","","html-keyboard-response","114","184713","0.0-1.0-146.0","0","0","61939","","null","","","null","16","","","","","","","","","","","","","","","",""
"","ISI","","html-keyboard-response","115","186723","0.0-1.0-147.0","0","0","61939","","null","","","null","16","NaN","","","","","","","","","","","","","","",""
"","S2","","html-keyboard-response","116","186887","0.0-1.0-148.0","0","0","61939","","null","","","null","16","","NaN","","","","","","","","","","","","","",""
"","response","","html-keyboard-response","117","186977","0.0-1.0-149.0-0.0","0","0","61939","","84","","","68","16","","","1","16","training","adjacent","DC","4","3","L.jpg","R.jpg","0","0","1","",""
"","feedback","","html-keyboard-response","118","187989","0.0-1.0-150.0-0.0","0","0","61939","","null","","","null","16","","","","","","","","","","","","","","","",""
"","ITI","","html-keyboard-response","119","188999","0.0-1.0-153.0","0","0","61939","","null","","","null","16","","","","","","","","","","","","","","","NaN",""
"","S1","","html-keyboard-response","120","189161","0.0-1.0-155.0","0","0","61939","","null","","","null","17","","","","","","","","","","","","","","","",""
"","ISI","","html-keyboard-response","121","191168","0.0-1.0-156.0","0","0","61939","","null","","","null","17","NaN","","","","","","","","","","","","","","",""
"","S2","","html-keyboard-response","122","191330","0.0-1.0-157.0","0","0","61939","","null","","","null","17","","NaN","","","","","","","","","","","","","",""
"","response","","html-keyboard-response","123","193192","0.0-1.0-158.0-0.0","0","0","61939","","null","","","null","17","","","1","17","training","adjacent","CB","3","2","R.jpg","M.jpg","NaN","0","0","",""
"","too_slow_prompt","","html-keyboard-response","124","194206","0.0-1.0-160.0-0.0","1","0","61939","","null","","","null","","","","","","","","","","","","","","","","",""
"","time_out","","html-keyboard-response","125","196220","0.0-1.0-161.0-0.0","0","0","61939","","null","","","null","17","","","","","","","","","","","","","","","",""
"","ITI","","html-keyboard-response","126","197232","0.0-1.0-162.0","0","0","61939","","null","","","null","17","","","","","","","","","","","","","","","NaN",""
"","S1","","html-keyboard-response","127","197394","0.0-1.0-164.0","0","0","61939","","null","","","null","18","","","","","","","","","","","","","","","",""
"","ISI","","html-keyboard-response","128","199403","0.0-1.0-165.0","0","0","61939","","null","","","null","18","NaN","","","","","","","","","","","","","","",""
"","S2","","html-keyboard-response","129","199565","0.0-1.0-166.0","0","0","61939","","null","","","null","18","","NaN","","","","","","","","","","","","","",""
"","response","","html-keyboard-response","130","199672","0.0-1.0-167.0-0.0","0","0","61939","","100","","","75","18","","","1","18","training","adjacent","FE","6","5","O.jpg","P.jpg","1","0","0","",""
"","feedback","","html-keyboard-response","131","200684","0.0-1.0-168.0-0.0","0","0","61939","","null","","","null","18","","","","","","","","","","","","","","","",""
"","time_out","","html-keyboard-response","132","202701","0.0-1.0-170.0-0.0","0","0","61939","","null","","","null","18","","","","","","","","","","","","","","","",""
"","ITI","","html-keyboard-response","133","203714","0.0-1.0-171.0","0","0","61939","","null","","","null","18","","","","","","","","","","","","","","","NaN",""
"","S1","","html-keyboard-response","134","203877","0.0-1.0-173.0","0","0","61939","","null","","","null","19","","","","","","","","","","","","","","","",""
"","ISI","","html-keyboard-response","135","205889","0.0-1.0-174.0","0","0","61939","","null","","","null","19","NaN","","","","","","","","","","","","","","",""
"","S2","","html-keyboard-response","136","206050","0.0-1.0-175.0","0","0","61939","","null","","","null","19","","NaN","","","","","","","","","","","","","",""
"","response","","html-keyboard-response","137","206080","0.0-1.0-176.0-0.0","0","0","61939","","24","","","68","19","","","1","19","training","adjacent","CD","3","4","R.jpg","L.jpg","0","1","0","",""
"","feedback","","html-keyboard-response","138","207088","0.0-1.0-177.0-0.0","0","0","61939","","null","","","null","19","","","","","","","","","","","","","","","",""
"","time_out","","html-keyboard-response","139","209101","0.0-1.0-179.0-0.0","0","0","61939","","null","","","null","19","","","","","","","","","","","","","","","",""
"","ITI","","html-keyboard-response","140","210113","0.0-1.0-180.0","0","0","61939","","null","","","null","19","","","","","","","","","","","","","","","NaN",""
"","S1","","html-keyboard-response","141","210277","0.0-1.0-182.0","0","0","61939","","null","","","null","20","","","","","","","","","","","","","","","",""
"","ISI","","html-keyboard-response","142","212286","0.0-1.0-183.0","0","0","61939","","320","","","68","20","d","","","","","","","","","","","","","","",""
"","S2","","html-keyboard-response","143","212448","0.0-1.0-184.0","0","0","61939","","null","","","null","20","","NaN","","","","","","","","","","","","","",""
"","response","","html-keyboard-response","144","212576","0.0-1.0-185.0-0.0","0","0","61939","","121","","","68","20","","","1","20","training","adjacent","FE","6","5","O.jpg","P.jpg","0","0","1","",""
"","feedback","","html-keyboard-response","145","213590","0.0-1.0-186.0-0.0","0","0","61939","","null","","","null","20","","","","","","","","","","","","","","","",""
"","ITI","","html-keyboard-response","146","214601","0.0-1.0-189.0","0","0","61939","","null","","","null","20","","","","","","","","","","","","","","","NaN",""
"","S1","","html-keyboard-response","147","214762","0.0-1.0-191.0","0","0","61939","","null","","","null","21","","","","","","","","","","","","","","","",""
"","ISI","","html-keyboard-response","148","216774","0.0-1.0-192.0","0","0","61939","","null","","","null","21","NaN","","","","","","","","","","","","","","",""
"","S2","","html-keyboard-response","149","216937","0.0-1.0-193.0","0","0","61939","","null","","","null","21","","NaN","","","","","","","","","","","","","",""
"","response","","html-keyboard-response","150","217039","0.0-1.0-194.0-0.0","0","0","61939","","96","","","75","21","","","1","21","training","adjacent","DC","4","3","L.jpg","R.jpg","1","0","0","",""
"","feedback","","html-keyboard-response","151","218061","0.0-1.0-195.0-0.0","0","0","61939","","null","","","null","21","","","","","","","","","","","","","","","",""
"","time_out","","html-keyboard-response","152","220067","0.0-1.0-197.0-0.0","0","0","61939","","null","","","null","21","","","","","","","","","","","","","","","",""
"","ITI","","html-keyboard-response","153","221077","0.0-1.0-198.0","0","0","61939","","null","","","null","21","","","","","","","","","","","","","","","NaN",""
"","S1","","html-keyboard-response","154","221239","0.0-1.0-200.0","0","0","61939","","null","","","null","22","","","","","","","","","","","","","","","",""
"","ISI","","html-keyboard-response","155","223249","0.0-1.0-201.0","0","0","61939","","null","","","null","22","NaN","","","","","","","","","","","","","","",""
"","S2","","html-keyboard-response","156","223412","0.0-1.0-202.0","0","0","61939","","null","","","null","22","","NaN","","","","","","","","","","","","","",""
"","response","","html-keyboard-response","157","223520","0.0-1.0-203.0-0.0","0","0","61939","","101","","","68","22","","","1","22","training","adjacent","FG","6","7","O.jpg","N.jpg","0","1","0","",""
"","feedback","","html-keyboard-response","158","224528","0.0-1.0-204.0-0.0","0","0","61939","","null","","","null","22","","","","","","","","","","","","","","","",""
"","time_out","","html-keyboard-response","159","226541","0.0-1.0-206.0-0.0","0","0","61939","","null","","","null","22","","","","","","","","","","","","","","","",""
"","ITI","","html-keyboard-response","160","227553","0.0-1.0-207.0","0","0","61939","","null","","","null","22","","","","","","","","","","","","","","","NaN",""
"","S1","","html-keyboard-response","161","227716","0.0-1.0-209.0","0","0","61939","","null","","","null","23","","","","","","","","","","","","","","","",""
"","ISI","","html-keyboard-response","162","229738","0.0-1.0-210.0","0","0","61939","","286","","","75","23","k","","","","","","","","","","","","","","",""
"","S2","","html-keyboard-response","163","229904","0.0-1.0-211.0","0","0","61939","","null","","","null","23","","NaN","","","","","","","","","","","","","",""
"","response","","html-keyboard-response","164","229983","0.0-1.0-212.0-0.0","0","0","61939","","74","","","75","23","","","1","23","training","adjacent","BA","2","1","M.jpg","Q.jpg","1","0","0","",""
"","feedback","","html-keyboard-response","165","230996","0.0-1.0-213.0-0.0","0","0","61939","","null","","","null","23","","","","","","","","","","","","","","","",""
"","time_out","","html-keyboard-response","166","233008","0.0-1.0-215.0-0.0","0","0","61939","","null","","","null","23","","","","","","","","","","","","","","","",""
"","ITI","","html-keyboard-response","167","234017","0.0-1.0-216.0","0","0","61939","","null","","","null","23","","","","","","","","","","","","","","","NaN",""
"","S1","","html-keyboard-response","168","234180","0.0-1.0-218.0","0","0","61939","","null","","","null","24","","","","","","","","","","","","","","","",""
"","ISI","","html-keyboard-response","169","236195","0.0-1.0-219.0","0","0","61939","","158","","","68","24","d","","","","","","","","","","","","","","",""
"","S2","","html-keyboard-response","170","236356","0.0-1.0-220.0","0","0","61939","","null","","","null","24","","NaN","","","","","","","","","","","","","",""
"","response","","html-keyboard-response","171","236403","0.0-1.0-221.0-0.0","0","0","61939","","40","","","68","24","","","1","24","training","adjacent","ED","5","4","P.jpg","L.jpg","0","0","1","",""
"","feedback","","html-keyboard-response","172","237412","0.0-1.0-222.0-0.0","0","0","61939","","null","","","null","24","","","","","","","","","","","","","","","",""
"","ITI","","html-keyboard-response","173","238421","0.0-1.0-225.0","0","0","61939","","null","","","null","24","","","","","","","","","","","","","","","NaN",""
"","S1","","html-keyboard-response","174","238583","0.0-1.0-227.0","0","0","61939","","null","","","null","25","","","","","","","","","","","","","","","",""
"","ISI","","html-keyboard-response","175","240595","0.0-1.0-228.0","0","0","61939","","null","","","null","25","NaN","","","","","","","","","","","","","","",""
"","S2","","html-keyboard-response","176","240756","0.0-1.0-229.0","0","0","61939","","null","","","null","25","","NaN","","","","","","","","","","","","","",""
"","response","","html-keyboard-response","177","242192","0.0-1.0-230.0-0.0","0","0","61939","","1430","","","68","25","","","1","25","training","adjacent","EF","5","6","P.jpg","O.jpg","0","1","0","",""
"","feedback","","html-keyboard-response","178","243202","0.0-1.0-231.0-0.0","0","0","61939","","null","","","null","25","","","","","","","","","","","","","","","",""
"","time_out","","html-keyboard-response","179","245212","0.0-1.0-233.0-0.0","0","0","61939","","null","","","null","25","","","","","","","","","","","","","","","",""
"","ITI","","html-keyboard-response","180","246221","0.0-1.0-234.0","0","0","61939","","null","","","null","25","","","","","","","","","","","","","","","NaN",""
"","S1","","html-keyboard-response","181","246385","0.0-1.0-236.0","0","0","61939","","null","","","null","26","","","","","","","","","","","","","","","",""
"","ISI","","html-keyboard-response","182","248393","0.0-1.0-237.0","0","0","61939","","1652","","","68","26","d","","","","","","","","","","","","","","",""
"","S2","","html-keyboard-response","183","248556","0.0-1.0-238.0","0","0","61939","","null","","","null","26","","NaN","","","","","","","","","","","","","",""
"","response","","html-keyboard-response","184","248632","0.0-1.0-239.0-0.0","0","0","61939","","70","","","68","26","","","1","26","training","adjacent","CD","3","4","R.jpg","L.jpg","0","1","0","",""
"","feedback","","html-keyboard-response","185","249640","0.0-1.0-240.0-0.0","0","0","61939","","null","","","null","26","","","","","","","","","","","","","","","",""
"","time_out","","html-keyboard-response","186","251653","0.0-1.0-242.0-0.0","0","0","61939","","null","","","null","26","","","","","","","","","","","","","","","",""
"","ITI","","html-keyboard-response","187","252667","0.0-1.0-243.0","0","0","61939","","null","","","null","26","","","","","","","","","","","","","","","NaN",""
"","S1","","html-keyboard-response","188","252830","0.0-1.0-245.0","0","0","61939","","null","","","null","27","","","","","","","","","","","","","","","",""
"","ISI","","html-keyboard-response","189","254839","0.0-1.0-246.0","0","0","61939","","null","","","null","27","NaN","","","","","","","","","","","","","","",""
"","S2","","html-keyboard-response","190","255003","0.0-1.0-247.0","0","0","61939","","null","","","null","27","","NaN","","","","","","","","","","","","","",""
"","response","","html-keyboard-response","191","255070","0.0-1.0-248.0-0.0","0","0","61939","","62","","","68","27","","","1","27","training","adjacent","FG","6","7","O.jpg","N.jpg","0","1","0","",""
"","feedback","","html-keyboard-response","192","256082","0.0-1.0-249.0-0.0","0","0","61939","","null","","","null","27","","","","","","","","","","","","","","","",""
"","time_out","","html-keyboard-response","193","258092","0.0-1.0-251.0-0.0","0","0","61939","","null","","","null","27","","","","","","","","","","","","","","","",""
"","ITI","","html-keyboard-response","194","259100","0.0-1.0-252.0","0","0","61939","","null","","","null","27","","","","","","","","","","","","","","","NaN",""
"","S1","","html-keyboard-response","195","259263","0.0-1.0-254.0","0","0","61939","","null","","","null","28","","","","","","","","","","","","","","","",""
"","ISI","","html-keyboard-response","196","261269","0.0-1.0-255.0","0","0","61939","","null","","","null","28","NaN","","","","","","","","","","","","","","",""
"","S2","","html-keyboard-response","197","261430","0.0-1.0-256.0","0","0","61939","","null","","","null","28","","NaN","","","","","","","","","","","","","",""
"","response","","html-keyboard-response","198","261527","0.0-1.0-257.0-0.0","0","0","61939","","92","","","75","28","","","1","28","training","adjacent","ED","5","4","P.jpg","L.jpg","1","0","0","",""
"","feedback","","html-keyboard-response","199","262539","0.0-1.0-258.0-0.0","0","0","61939","","null","","","null","28","","","","","","","","","","","","","","","",""
"","time_out","","html-keyboard-response","200","264550","0.0-1.0-260.0-0.0","0","0","61939","","null","","","null","28","","","","","","","","","","","","","","","",""
"","ITI","","html-keyboard-response","201","265556","0.0-1.0-261.0","0","0","61939","","null","","","null","28","","","","","","","","","","","","","","","NaN",""
"","S1","","html-keyboard-response","202","265720","0.0-1.0-263.0","0","0","61939","","null","","","null","29","","","","","","","","","","","","","","","",""
"","ISI","","html-keyboard-response","203","267730","0.0-1.0-264.0","0","0","61939","","1941","","","75","29","k","","","","","","","","","","","","","","",""
"","S2","","html-keyboard-response","204","267901","0.0-1.0-265.0","0","0","61939","","null","","","null","29","","NaN","","","","","","","","","","","","","",""
"","response","","html-keyboard-response","205","268262","0.0-1.0-266.0-0.0","0","0","61939","","355","","","75","29","","","1","29","training","adjacent","AB","1","2","Q.jpg","M.jpg","1","1","1","",""
"","feedback","","html-keyboard-response","206","269277","0.0-1.0-267.0-0.0","0","0","61939","","null","","","null","29","","","","","","","","","","","","","","","",""
"","ITI","","html-keyboard-response","207","270292","0.0-1.0-270.0","0","0","61939","","null","","","null","29","","","","","","","","","","","","","","","NaN",""
"","S1","","html-keyboard-response","208","270453","0.0-1.0-272.0","0","0","61939","","null","","","null","30","","","","","","","","","","","","","","","",""
"","ISI","","html-keyboard-response","209","272465","0.0-1.0-273.0","0","0","61939","","null","","","null","30","NaN","","","","","","","","","","","","","","",""
"","S2","","html-keyboard-response","210","272628","0.0-1.0-274.0","0","0","61939","","null","","","null","30","","NaN","","","","","","","","","","","","","",""
"","response","","html-keyboard-response","211","274491","0.0-1.0-275.0-0.0","0","0","61939","","null","","","null","30","","","1","30","training","adjacent","DE","4","5","L.jpg","P.jpg","NaN","1","0","",""
"","too_slow_prompt","","html-keyboard-response","212","275504","0.0-1.0-277.0-0.0","1","0","61939","","null","","","null","","","","","","","","","","","","","","","","",""
"","time_out","","html-keyboard-response","213","277516","0.0-1.0-278.0-0.0","0","0","61939","","null","","","null","30","","","","","","","","","","","","","","","",""
"","ITI","","html-keyboard-response","214","278524","0.0-1.0-279.0","0","0","61939","","null","","","null","30","","","","","","","","","","","","","","","NaN",""
"","S1","","html-keyboard-response","215","278696","0.0-1.0-281.0","0","0","61939","","null","","","null","31","","","","","","","","","","","","","","","",""
"","ISI","","html-keyboard-response","216","280709","0.0-1.0-282.0","0","0","61939","","457","","","75","31","k","","","","","","","","","","","","","","",""
"","S2","","html-keyboard-response","217","280873","0.0-1.0-283.0","0","0","61939","","null","","","null","31","","NaN","","","","","","","","","","","","","",""
"","response","","html-keyboard-response","218","281001","0.0-1.0-284.0-0.0","0","0","61939","","121","","","75","31","","","1","31","training","adjacent","BC","2","3","M.jpg","R.jpg","1","1","1","",""
"","feedback","","html-keyboard-response","219","282014","0.0-1.0-285.0-0.0","0","0","61939","","null","","","null","31","","","","","","","","","","","","","","","",""
"","ITI","","html-keyboard-response","220","283021","0.0-1.0-288.0","0","0","61939","","null","","","null","31","","","","","","","","","","","","","","","NaN",""
"","S1","","html-keyboard-response","221","283185","0.0-1.0-290.0","0","0","61939","","null","","","null","32","","","","","","","","","","","","","","","",""
"","ISI","","html-keyboard-response","222","285195","0.0-1.0-291.0","0","0","61939","","null","","","null","32","NaN","","","","","","","","","","","","","","",""
"","S2","","html-keyboard-response","223","285358","0.0-1.0-292.0","0","0","61939","","null","","","null","32","","NaN","","","","","","","","","","","","","",""
"","response","","html-keyboard-response","224","285453","0.0-1.0-293.0-0.0","0","0","61939","","88","","","68","32","","","1","32","training","adjacent","GF","7","6","N.jpg","O.jpg","0","0","1","",""
"","feedback","","html-keyboard-response","225","286462","0.0-1.0-294.0-0.0","0","0","61939","","null","","","null","32","","","","","","","","","","","","","","","",""
"","ITI","","html-keyboard-response","226","287476","0.0-1.0-297.0","0","0","61939","","null","","","null","32","","","","","","","","","","","","","","","NaN",""
"","S1","","html-keyboard-response","227","287639","0.0-1.0-299.0","0","0","61939","","null","","","null","33","","","","","","","","","","","","","","","",""
"","ISI","","html-keyboard-response","228","289650","0.0-1.0-300.0","0","0","61939","","null","","","null","33","NaN","","","","","","","","","","","","","","",""
"","S2","","html-keyboard-response","229","289815","0.0-1.0-301.0","0","0","61939","","null","","","null","33","","NaN","","","","","","","","","","","","","",""
"","response","","html-keyboard-response","230","289905","0.0-1.0-302.0-0.0","0","0","61939","","83","","","68","33","","","1","33","training","adjacent","EF","5","6","P.jpg","O.jpg","0","1","0","",""
"","feedback","","html-keyboard-response","231","290915","0.0-1.0-303.0-0.0","0","0","61939","","null","","","null","33","","","","","","","","","","","","","","","",""
"","time_out","","html-keyboard-response","232","292938","0.0-1.0-305.0-0.0","0","0","61939","","null","","","null","33","","","","","","","","","","","","","","","",""
"","ITI","","html-keyboard-response","233","293951","0.0-1.0-306.0","0","0","61939","","null","","","null","33","","","","","","","","","","","","","","","NaN",""
"","S1","","html-keyboard-response","234","294115","0.0-1.0-308.0","0","0","61939","","null","","","null","34","","","","","","","","","","","","","","","",""
"","ISI","","html-keyboard-response","235","296125","0.0-1.0-309.0","0","0","61939","","156","","","75","34","k","","","","","","","","","","","","","","",""
"","S2","","html-keyboard-response","236","296296","0.0-1.0-310.0","0","0","61939","","null","","","null","34","","NaN","","","","","","","","","","","","","",""
"","response","","html-keyboard-response","237","296638","0.0-1.0-311.0-0.0","0","0","61939","","336","","","75","34","","","1","34","training","adjacent","ED","5","4","P.jpg","L.jpg","1","0","0","",""
"","feedback","","html-keyboard-response","238","297650","0.0-1.0-312.0-0.0","0","0","61939","","null","","","null","34","","","","","","","","","","","","","","","",""
"","time_out","","html-keyboard-response","239","299662","0.0-1.0-314.0-0.0","0","0","61939","","null","","","null","34","","","","","","","","","","","","","","","",""
"","ITI","","html-keyboard-response","240","300673","0.0-1.0-315.0","0","0","61939","","null","","","null","34","","","","","","","","","","","","","","","NaN",""
"","S1","","html-keyboard-response","241","300835","0.0-1.0-317.0","0","0","61939","","null","","","null","35","","","","","","","","","","","","","","","",""
"","ISI","","html-keyboard-response","242","302851","0.0-1.0-318.0","0","0","61939","","1152","","","68","35","d","","","","","","","","","","","","","","",""
"","S2","","html-keyboard-response","243","303014","0.0-1.0-319.0","0","0","61939","","null","","","null","35","","NaN","","","","","","","","","","","","","",""
"","response","","html-keyboard-response","244","303457","0.0-1.0-320.0-0.0","0","0","61939","","435","","","68","35","","","1","35","training","adjacent","GF","7","6","N.jpg","O.jpg","0","0","1","",""
"","feedback","","html-keyboard-response","245","304472","0.0-1.0-321.0-0.0","0","0","61939","","null","","","null","35","","","","","","","","","","","","","","","",""
"","ITI","","html-keyboard-response","246","305485","0.0-1.0-324.0","0","0","61939","","null","","","null","35","","","","","","","","","","","","","","","NaN",""
"","S1","","html-keyboard-response","247","305648","0.0-1.0-326.0","0","0","61939","","null","","","null","36","","","","","","","","","","","","","","","",""
"","ISI","","html-keyboard-response","248","307657","0.0-1.0-327.0","0","0","61939","","null","","","null","36","NaN","","","","","","","","","","","","","","",""
"","S2","","html-keyboard-response","249","307820","0.0-1.0-328.0","0","0","61939","","null","","","null","36","","NaN","","","","","","","","","","","","","",""
"","response","","html-keyboard-response","250","308439","0.0-1.0-329.0-0.0","0","0","61939","","613","","","68","36","","","1","36","training","adjacent","AB","1","2","Q.jpg","M.jpg","0","1","0","",""
"","feedback","","html-keyboard-response","251","309447","0.0-1.0-330.0-0.0","0","0","61939","","null","","","null","36","","","","","","","","","","","","","","","",""
"","time_out","","html-keyboard-response","252","311453","0.0-1.0-332.0-0.0","0","0","61939","","null","","","null","36","","","","","","","","","","","","","","","",""
"","ITI","","html-keyboard-response","253","312462","0.0-1.0-333.0","0","0","61939","","null","","","null","36","","","","","","","","","","","","","","","NaN",""
"","S1","","html-keyboard-response","254","312623","0.0-1.0-335.0","0","0","61939","","null","","","null","37","","","","","","","","","","","","","","","",""
"","ISI","","html-keyboard-response","255","314639","0.0-1.0-336.0","0","0","61939","","null","","","null","37","NaN","","","","","","","","","","","","","","",""
"","S2","","html-keyboard-response","256","314801","0.0-1.0-337.0","0","0","61939","","null","","","null","37","","NaN","","","","","","","","","","","","","",""
"","response","","html-keyboard-response","257","314871","0.0-1.0-338.0-0.0","0","0","61939","","63","","","68","37","","","1","37","training","adjacent","ED","5","4","P.jpg","L.jpg","0","0","1","",""
"","feedback","","html-keyboard-response","258","315879","0.0-1.0-339.0-0.0","0","0","61939","","null","","","null","37","","","","","","","","","","","","","","","",""
"","ITI","","html-keyboard-response","259","316886","0.0-1.0-342.0","0","0","61939","","null","","","null","37","","","","","","","","","","","","","","","NaN",""
"","S1","","html-keyboard-response","260","317048","0.0-1.0-344.0","0","0","61939","","null","","","null","38","","","","","","","","","","","","","","","",""
"","ISI","","html-keyboard-response","261","319068","0.0-1.0-345.0","0","0","61939","","null","","","null","38","NaN","","","","","","","","","","","","","","",""
"","S2","","html-keyboard-response","262","319230","0.0-1.0-346.0","0","0","61939","","null","","","null","38","","NaN","","","","","","","","","","","","","",""
"","response","","html-keyboard-response","263","319367","0.0-1.0-347.0-0.0","0","0","61939","","129","","","75","38","","","1","38","training","adjacent","FG","6","7","O.jpg","N.jpg","1","1","1","",""
"","feedback","","html-keyboard-response","264","320379","0.0-1.0-348.0-0.0","0","0","61939","","null","","","null","38","","","","","","","","","","","","","","","",""
"","ITI","","html-keyboard-response","265","321391","0.0-1.0-351.0","0","0","61939","","null","","","null","38","","","","","","","","","","","","","","","NaN",""
"","S1","","html-keyboard-response","266","321555","0.0-1.0-353.0","0","0","61939","","null","","","null","39","","","","","","","","","","","","","","","",""
"","ISI","","html-keyboard-response","267","323569","0.0-1.0-354.0","0","0","61939","","null","","","null","39","NaN","","","","","","","","","","","","","","",""
"","S2","","html-keyboard-response","268","323733","0.0-1.0-355.0","0","0","61939","","null","","","null","39","","NaN","","","","","","","","","","","","","",""
"","response","","html-keyboard-response","269","323800","0.0-1.0-356.0-0.0","0","0","61939","","60","","","75","39","","","1","39","training","adjacent","DE","4","5","L.jpg","P.jpg","1","1","1","",""
"","feedback","","html-keyboard-response","270","324811","0.0-1.0-357.0-0.0","0","0","61939","","null","","","null","39","","","","","","","","","","","","","","","",""
"","ITI","","html-keyboard-response","271","325825","0.0-1.0-360.0","0","0","61939","","null","","","null","39","","","","","","","","","","","","","","","NaN",""
"","S1","","html-keyboard-response","272","325988","0.0-1.0-362.0","0","0","61939","","null","","","null","40","","","","","","","","","","","","","","","",""
"","ISI","","html-keyboard-response","273","327995","0.0-1.0-363.0","0","0","61939","","null","","","null","40","NaN","","","","","","","","","","","","","","",""
"","S2","","html-keyboard-response","274","328155","0.0-1.0-364.0","0","0","61939","","null","","","null","40","","NaN","","","","","","","","","","","","","",""
"","response","","html-keyboard-response","275","328289","0.0-1.0-365.0-0.0","0","0","61939","","128","","","68","40","","","1","40","training","adjacent","BC","2","3","M.jpg","R.jpg","0","1","0","",""
"","feedback","","html-keyboard-response","276","329303","0.0-1.0-366.0-0.0","0","0","61939","","null","","","null","40","","","","","","","","","","","","","","","",""
"","time_out","","html-keyboard-response","277","331313","0.0-1.0-368.0-0.0","0","0","61939","","null","","","null","40","","","","","","","","","","","","","","","",""
"","ITI","","html-keyboard-response","278","332326","0.0-1.0-369.0","0","0","61939","","null","","","null","40","","","","","","","","","","","","","","","NaN",""
"","S1","","html-keyboard-response","279","332487","0.0-1.0-371.0","0","0","61939","","null","","","null","41","","","","","","","","","","","","","","","",""
"","ISI","","html-keyboard-response","280","334497","0.0-1.0-372.0","0","0","61939","","null","","","null","41","NaN","","","","","","","","","","","","","","",""
"","S2","","html-keyboard-response","281","334661","0.0-1.0-373.0","0","0","61939","","null","","","null","41","","NaN","","","","","","","","","","","","","",""
"","response","","html-keyboard-response","282","334732","0.0-1.0-374.0-0.0","0","0","61939","","66","","","75","41","","","1","41","training","adjacent","FE","6","5","O.jpg","P.jpg","1","0","0","",""
"","feedback","","html-keyboard-response","283","335745","0.0-1.0-375.0-0.0","0","0","61939","","null","","","null","41","","","","","","","","","","","","","","","",""
"","time_out","","html-keyboard-response","284","337756","0.0-1.0-377.0-0.0","0","0","61939","","null","","","null","41","","","","","","","","","","","","","","","",""
"","ITI","","html-keyboard-response","285","338771","0.0-1.0-378.0","0","0","61939","","null","","","null","41","","","","","","","","","","","","","","","NaN",""
"","S1","","html-keyboard-response","286","338931","0.0-1.0-380.0","0","0","61939","","null","","","null","42","","","","","","","","","","","","","","","",""
"","ISI","","html-keyboard-response","287","340943","0.0-1.0-381.0","0","0","61939","","null","","","null","42","NaN","","","","","","","","","","","","","","",""
"","S2","","html-keyboard-response","288","341107","0.0-1.0-382.0","0","0","61939","","null","","","null","42","","NaN","","","","","","","","","","","","","",""
"","response","","html-keyboard-response","289","341129","0.0-1.0-383.0-0.0","0","0","61939","","15","","","68","42","","","1","42","training","adjacent","BA","2","1","M.jpg","Q.jpg","0","0","1","",""
"","feedback","","html-keyboard-response","290","342144","0.0-1.0-384.0-0.0","0","0","61939","","null","","","null","42","","","","","","","","","","","","","","","",""
"","ITI","","html-keyboard-response","291","343158","0.0-1.0-387.0","0","0","61939","","null","","","null","42","","","","","","","","","","","","","","","NaN",""
"","S1","","html-keyboard-response","292","343321","0.0-1.0-389.0","0","0","61939","","null","","","null","43","","","","","","","","","","","","","","","",""
"","ISI","","html-keyboard-response","293","345326","0.0-1.0-390.0","0","0","61939","","null","","","null","43","NaN","","","","","","","","","","","","","","",""
"","S2","","html-keyboard-response","294","345490","0.0-1.0-391.0","0","0","61939","","null","","","null","43","","NaN","","","","","","","","","","","","","",""
"","response","","html-keyboard-response","295","347253","0.0-1.0-392.0-0.0","0","0","61939","","1756","","","75","43","","","1","43","training","adjacent","GF","7","6","N.jpg","O.jpg","1","0","0","",""
"","feedback","","html-keyboard-response","296","348266","0.0-1.0-393.0-0.0","0","0","61939","","null","","","null","43","","","","","","","","","","","","","","","",""
"","time_out","","html-keyboard-response","297","350280","0.0-1.0-395.0-0.0","0","0","61939","","null","","","null","43","","","","","","","","","","","","","","","",""
"","ITI","","html-keyboard-response","298","351289","0.0-1.0-396.0","0","0","61939","","null","","","null","43","","","","","","","","","","","","","","","NaN",""
"","S1","","html-keyboard-response","299","351450","0.0-1.0-398.0","0","0","61939","","null","","","null","44","","","","","","","","","","","","","","","",""
"","ISI","","html-keyboard-response","300","353461","0.0-1.0-399.0","0","0","61939","","null","","","null","44","NaN","","","","","","","","","","","","","","",""
"","S2","","html-keyboard-response","301","353625","0.0-1.0-400.0","0","0","61939","","null","","","null","44","","NaN","","","","","","","","","","","","","",""
"","response","","html-keyboard-response","302","353797","0.0-1.0-401.0-0.0","0","0","61939","","166","","","75","44","","","1","44","training","adjacent","BC","2","3","M.jpg","R.jpg","1","1","1","",""
"","feedback","","html-keyboard-response","303","354813","0.0-1.0-402.0-0.0","0","0","61939","","null","","","null","44","","","","","","","","","","","","","","","",""
"","ITI","","html-keyboard-response","304","355825","0.0-1.0-405.0","0","0","61939","","null","","","null","44","","","","","","","","","","","","","","","NaN",""
"","S1","","html-keyboard-response","305","355990","0.0-1.0-407.0","0","0","61939","","null","","","null","45","","","","","","","","","","","","","","","",""
"","ISI","","html-keyboard-response","306","357998","0.0-1.0-408.0","0","0","61939","","null","","","null","45","NaN","","","","","","","","","","","","","","",""
"","S2","","html-keyboard-response","307","358164","0.0-1.0-409.0","0","0","61939","","null","","","null","45","","NaN","","","","","","","","","","","","","",""
"","response","","html-keyboard-response","308","358541","0.0-1.0-410.0-0.0","0","0","61939","","369","","","75","45","","","1","45","training","adjacent","CB","3","2","R.jpg","M.jpg","1","0","0","",""
"","feedback","","html-keyboard-response","309","359552","0.0-1.0-411.0-0.0","0","0","61939","","null","","","null","45","","","","","","","","","","","","","","","",""
"","time_out","","html-keyboard-response","310","361566","0.0-1.0-413.0-0.0","0","0","61939","","null","","","null","45","","","","","","","","","","","","","","","",""
"","ITI","","html-keyboard-response","311","362575","0.0-1.0-414.0","0","0","61939","","null","","","null","45","","","","","","","","","","","","","","","NaN",""
"","S1","","html-keyboard-response","312","362738","0.0-1.0-416.0","0","0","61939","","null","","","null","46","","","","","","","","","","","","","","","",""
"","ISI","","html-keyboard-response","313","364748","0.0-1.0-417.0","0","0","61939","","null","","","null","46","NaN","","","","","","","","","","","","","","",""
"","S2","","html-keyboard-response","314","364910","0.0-1.0-418.0","0","0","61939","","null","","","null","46","","NaN","","","","","","","","","","","","","",""
"","response","","html-keyboard-response","315","364974","0.0-1.0-419.0-0.0","0","0","61939","","56","","","68","46","","","1","46","training","adjacent","FG","6","7","O.jpg","N.jpg","0","1","0","",""
"","feedback","","html-keyboard-response","316","365988","0.0-1.0-420.0-0.0","0","0","61939","","null","","","null","46","","","","","","","","","","","","","","","",""
"","time_out","","html-keyboard-response","317","368002","0.0-1.0-422.0-0.0","0","0","61939","","null","","","null","46","","","","","","","","","","","","","","","",""
"","ITI","","html-keyboard-response","318","369015","0.0-1.0-423.0","0","0","61939","","null","","","null","46","","","","","","","","","","","","","","","NaN",""
"","S1","","html-keyboard-response","319","369178","0.0-1.0-425.0","0","0","61939","","null","","","null","47","","","","","","","","","","","","","","","",""
"","ISI","","html-keyboard-response","320","371186","0.0-1.0-426.0","0","0","61939","","385","","","68","47","d","","","","","","","","","","","","","","",""
"","S2","","html-keyboard-response","321","371349","0.0-1.0-427.0","0","0","61939","","null","","","null","47","","NaN","","","","","","","","","","","","","",""
"","response","","html-keyboard-response","322","371695","0.0-1.0-428.0-0.0","0","0","61939","","339","","","68","47","","","1","47","training","adjacent","CB","3","2","R.jpg","M.jpg","0","0","1","",""
"","feedback","","html-keyboard-response","323","372710","0.0-1.0-429.0-0.0","0","0","61939","","null","","","null","47","","","","","","","","","","","","","","","",""
"","ITI","","html-keyboard-response","324","373724","0.0-1.0-432.0","0","0","61939","","null","","","null","47","","","","","","","","","","","","","","","NaN",""
"","block_over","","html-keyboard-response","325","380807","0.0-1.0-433.0-0.0","0","0","61939","","7074","","","32","47","","","","","","","","","","","","","","","",""
"","S1","","html-keyboard-response","326","380979","0.0-1.0-434.0","0","0","61939","","null","","","null","48","","","","","","","","","","","","","","","",""
"","ISI","","html-keyboard-response","327","382988","0.0-1.0-435.0","0","0","61939","","null","","","null","48","NaN","","","","","","","","","","","","","","",""
"","S2","","html-keyboard-response","328","383149","0.0-1.0-436.0","0","0","61939","","null","","","null","48","","NaN","","","","","","","","","","","","","",""
"","response","","html-keyboard-response","329","383590","0.0-1.0-437.0-0.0","0","0","61939","","434","","","68","48","","","2","48","training","adjacent","FG","6","7","O.jpg","N.jpg","0","1","0","",""
"","feedback","","html-keyboard-response","330","384612","0.0-1.0-438.0-0.0","0","0","61939","","null","","","null","48","","","","","","","","","","","","","","","",""
"","time_out","","html-keyboard-response","331","386622","0.0-1.0-440.0-0.0","0","0","61939","","null","","","null","48","","","","","","","","","","","","","","","",""
"","ITI","","html-keyboard-response","332","387632","0.0-1.0-441.0","0","0","61939","","null","","","null","48","","","","","","","","","","","","","","","NaN",""
"","S1","","html-keyboard-response","333","387796","0.0-1.0-443.0","0","0","61939","","null","","","null","49","","","","","","","","","","","","","","","",""
"","ISI","","html-keyboard-response","334","389804","0.0-1.0-444.0","0","0","61939","","null","","","null","49","NaN","","","","","","","","","","","","","","",""
"","S2","","html-keyboard-response","335","389966","0.0-1.0-445.0","0","0","61939","","null","","","null","49","","NaN","","","","","","","","","","","","","",""
"","response","","html-keyboard-response","336","390100","0.0-1.0-446.0-0.0","0","0","61939","","127","","","75","49","","","2","49","training","adjacent","BA","2","1","M.jpg","Q.jpg","1","0","0","",""
"","feedback","","html-keyboard-response","337","391109","0.0-1.0-447.0-0.0","0","0","61939","","null","","","null","49","","","","","","","","","","","","","","","",""
"","time_out","","html-keyboard-response","338","393119","0.0-1.0-449.0-0.0","0","0","61939","","null","","","null","49","","","","","","","","","","","","","","","",""
"","ITI","","html-keyboard-response","339","394128","0.0-1.0-450.0","0","0","61939","","null","","","null","49","","","","","","","","","","","","","","","NaN",""
"","S1","","html-keyboard-response","340","394292","0.0-1.0-452.0","0","0","61939","","null","","","null","50","","","","","","","","","","","","","","","",""
"","ISI","","html-keyboard-response","341","396302","0.0-1.0-453.0","0","0","61939","","null","","","null","50","NaN","","","","","","","","","","","","","","",""
"","S2","","html-keyboard-response","342","396466","0.0-1.0-454.0","0","0","61939","","null","","","null","50","","NaN","","","","","","","","","","","","","",""
"","response","","html-keyboard-response","343","396811","0.0-1.0-455.0-0.0","0","0","61939","","337","","","75","50","","","2","50","training","adjacent","GF","7","6","N.jpg","O.jpg","1","0","0","",""
"","feedback","","html-keyboard-response","344","397824","0.0-1.0-456.0-0.0","0","0","61939","","null","","","null","50","","","","","","","","","","","","","","","",""
"","time_out","","html-keyboard-response","345","399836","0.0-1.0-458.0-0.0","0","0","61939","","null","","","null","50","","","","","","","","","","","","","","","",""
"","ITI","","html-keyboard-response","346","400844","0.0-1.0-459.0","0","0","61939","","null","","","null","50","","","","","","","","","","","","","","","NaN",""
"","S1","","html-keyboard-response","347","401005","0.0-1.0-461.0","0","0","61939","","null","","","null","51","","","","","","","","","","","","","","","",""
"","ISI","","html-keyboard-response","348","403016","0.0-1.0-462.0","0","0","61939","","1147","","","68","51","d","","","","","","","","","","","","","","",""
"","S2","","html-keyboard-response","349","403178","0.0-1.0-463.0","0","0","61939","","null","","","null","51","","NaN","","","","","","","","","","","","","",""
"","response","","html-keyboard-response","350","403705","0.0-1.0-464.0-0.0","0","0","61939","","520","","","75","51","","","2","51","training","adjacent","AB","1","2","Q.jpg","M.jpg","1","1","1","",""
"","feedback","","html-keyboard-response","351","404713","0.0-1.0-465.0-0.0","0","0","61939","","null","","","null","51","","","","","","","","","","","","","","","",""
"","ITI","","html-keyboard-response","352","405724","0.0-1.0-468.0","0","0","61939","","null","","","null","51","","","","","","","","","","","","","","","NaN",""
"","S1","","html-keyboard-response","353","405888","0.0-1.0-470.0","0","0","61939","","null","","","null","52","","","","","","","","","","","","","","","",""
"","ISI","","html-keyboard-response","354","407895","0.0-1.0-471.0","0","0","61939","","null","","","null","52","NaN","","","","","","","","","","","","","","",""
"","S2","","html-keyboard-response","355","408058","0.0-1.0-472.0","0","0","61939","","null","","","null","52","","NaN","","","","","","","","","","","","","",""
"","response","","html-keyboard-response","356","408926","0.0-1.0-473.0-0.0","0","0","61939","","861","","","68","52","","","2","52","training","adjacent","ED","5","4","P.jpg","L.jpg","0","0","1","",""
"","feedback","","html-keyboard-response","357","409942","0.0-1.0-474.0-0.0","0","0","61939","","null","","","null","52","","","","","","","","","","","","","","","",""
"","ITI","","html-keyboard-response","358","410957","0.0-1.0-477.0","0","0","61939","","null","","","null","52","","","","","","","","","","","","","","","NaN",""
"","S1","","html-keyboard-response","359","411120","0.0-1.0-479.0","0","0","61939","","null","","","null","53","","","","","","","","","","","","","","","",""
"","ISI","","html-keyboard-response","360","413131","0.0-1.0-480.0","0","0","61939","","null","","","null","53","NaN","","","","","","","","","","","","","","",""
"","S2","","html-keyboard-response","361","413293","0.0-1.0-481.0","0","0","61939","","null","","","null","53","","NaN","","","","","","","","","","","","","",""
"","response","","html-keyboard-response","362","413673","0.0-1.0-482.0-0.0","0","0","61939","","373","","","68","53","","","2","53","training","adjacent","GF","7","6","N.jpg","O.jpg","0","0","1","",""
"","feedback","","html-keyboard-response","363","414695","0.0-1.0-483.0-0.0","0","0","61939","","null","","","null","53","","","","","","","","","","","","","","","",""
"","ITI","","html-keyboard-response","364","415704","0.0-1.0-486.0","0","0","61939","","null","","","null","53","","","","","","","","","","","","","","","NaN",""
"","S1","","html-keyboard-response","365","415867","0.0-1.0-488.0","0","0","61939","","null","","","null","54","","","","","","","","","","","","","","","",""
"","ISI","","html-keyboard-response","366","417878","0.0-1.0-489.0","0","0","61939","","null","","","null","54","NaN","","","","","","","","","","","","","","",""
"","S2","","html-keyboard-response","367","418040","0.0-1.0-490.0","0","0","61939","","null","","","null","54","","NaN","","","","","","","","","","","","","",""
"","response","","html-keyboard-response","368","418259","0.0-1.0-491.0-0.0","0","0","61939","","212","","","75","54","","","2","54","training","adjacent","CB","3","2","R.jpg","M.jpg","1","0","0","",""
"","feedback","","html-keyboard-response","369","419280","0.0-1.0-492.0-0.0","0","0","61939","","null","","","null","54","","","","","","","","","","","","","","","",""
"","time_out","","html-keyboard-response","370","421288","0.0-1.0-494.0-0.0","0","0","61939","","null","","","null","54","","","","","","","","","","","","","","","",""
"","ITI","","html-keyboard-response","371","422302","0.0-1.0-495.0","0","0","61939","","null","","","null","54","","","","","","","","","","","","","","","NaN",""
"","S1","","html-keyboard-response","372","422466","0.0-1.0-497.0","0","0","61939","","null","","","null","55","","","","","","","","","","","","","","","",""
"","ISI","","html-keyboard-response","373","424477","0.0-1.0-498.0","0","0","61939","","null","","","null","55","NaN","","","","","","","","","","","","","","",""
"","S2","","html-keyboard-response","374","424641","0.0-1.0-499.0","0","0","61939","","null","","","null","55","","NaN","","","","","","","","","","","","","",""
"","response","","html-keyboard-response","375","425347","0.0-1.0-500.0-0.0","0","0","61939","","699","","","68","55","","","2","55","training","adjacent","EF","5","6","P.jpg","O.jpg","0","1","0","",""
"","feedback","","html-keyboard-response","376","426359","0.0-1.0-501.0-0.0","0","0","61939","","null","","","null","55","","","","","","","","","","","","","","","",""
"","time_out","","html-keyboard-response","377","428366","0.0-1.0-503.0-0.0","0","0","61939","","null","","","null","55","","","","","","","","","","","","","","","",""
"","ITI","","html-keyboard-response","378","429374","0.0-1.0-504.0","0","0","61939","","null","","","null","55","","","","","","","","","","","","","","","NaN",""
"","S1","","html-keyboard-response","379","429536","0.0-1.0-506.0","0","0","61939","","null","","","null","56","","","","","","","","","","","","","","","",""
"","ISI","","html-keyboard-response","380","431544","0.0-1.0-507.0","0","0","61939","","null","","","null","56","NaN","","","","","","","","","","","","","","",""
"","S2","","html-keyboard-response","381","431706","0.0-1.0-508.0","0","0","61939","","null","","","null","56","","NaN","","","","","","","","","","","","","",""
"","response","","html-keyboard-response","382","431806","0.0-1.0-509.0-0.0","0","0","61939","","94","","","75","56","","","2","56","training","adjacent","ED","5","4","P.jpg","L.jpg","1","0","0","",""
"","feedback","","html-keyboard-response","383","432819","0.0-1.0-510.0-0.0","0","0","61939","","null","","","null","56","","","","","","","","","","","","","","","",""
"","time_out","","html-keyboard-response","384","434833","0.0-1.0-512.0-0.0","0","0","61939","","null","","","null","56","","","","","","","","","","","","","","","",""
"","ITI","","html-keyboard-response","385","435854","0.0-1.0-513.0","0","0","61939","","null","","","null","56","","","","","","","","","","","","","","","NaN",""
"","S1","","html-keyboard-response","386","436017","0.0-1.0-515.0","0","0","61939","","null","","","null","57","","","","","","","","","","","","","","","",""
"","ISI","","html-keyboard-response","387","438026","0.0-1.0-516.0","0","0","61939","","349","","","68","57","d","","","","","","","","","","","","","","",""
"","S2","","html-keyboard-response","388","438189","0.0-1.0-517.0","0","0","61939","","null","","","null","57","","NaN","","","","","","","","","","","","","",""
"","response","","html-keyboard-response","389","438292","0.0-1.0-518.0-0.0","0","0","61939","","96","","","68","57","","","2","57","training","adjacent","CB","3","2","R.jpg","M.jpg","0","0","1","",""
"","feedback","","html-keyboard-response","390","439300","0.0-1.0-519.0-0.0","0","0","61939","","null","","","null","57","","","","","","","","","","","","","","","",""
"","ITI","","html-keyboard-response","391","440310","0.0-1.0-522.0","0","0","61939","","null","","","null","57","","","","","","","","","","","","","","","NaN",""
"","S1","","html-keyboard-response","392","440473","0.0-1.0-524.0","0","0","61939","","null","","","null","58","","","","","","","","","","","","","","","",""
"","ISI","","html-keyboard-response","393","442486","0.0-1.0-525.0","0","0","61939","","null","","","null","58","NaN","","","","","","","","","","","","","","",""
"","S2","","html-keyboard-response","394","442648","0.0-1.0-526.0","0","0","61939","","null","","","null","58","","NaN","","","","","","","","","","","","","",""
"","response","","html-keyboard-response","395","443111","0.0-1.0-527.0-0.0","0","0","61939","","456","","","68","58","","","2","58","training","adjacent","GF","7","6","N.jpg","O.jpg","0","0","1","",""
"","feedback","","html-keyboard-response","396","444123","0.0-1.0-528.0-0.0","0","0","61939","","null","","","null","58","","","","","","","","","","","","","","","",""
"","ITI","","html-keyboard-response","397","445137","0.0-1.0-531.0","0","0","61939","","null","","","null","58","","","","","","","","","","","","","","","NaN",""
"","S1","","html-keyboard-response","398","445301","0.0-1.0-533.0","0","0","61939","","null","","","null","59","","","","","","","","","","","","","","","",""
"","ISI","","html-keyboard-response","399","447313","0.0-1.0-534.0","0","0","61939","","null","","","null","59","NaN","","","","","","","","","","","","","","",""
"","S2","","html-keyboard-response","400","447474","0.0-1.0-535.0","0","0","61939","","null","","","null","59","","NaN","","","","","","","","","","","","","",""
"","response","","html-keyboard-response","401","447668","0.0-1.0-536.0-0.0","0","0","61939","","189","","","75","59","","","2","59","training","adjacent","ED","5","4","P.jpg","L.jpg","1","0","0","",""
"","feedback","","html-keyboard-response","402","448690","0.0-1.0-537.0-0.0","0","0","61939","","null","","","null","59","","","","","","","","","","","","","","","",""
"","time_out","","html-keyboard-response","403","450698","0.0-1.0-539.0-0.0","0","0","61939","","null","","","null","59","","","","","","","","","","","","","","","",""
"","ITI","","html-keyboard-response","404","451711","0.0-1.0-540.0","0","0","61939","","null","","","null","59","","","","","","","","","","","","","","","NaN",""
"","S1","","html-keyboard-response","405","451874","0.0-1.0-542.0","0","0","61939","","null","","","null","60","","","","","","","","","","","","","","","",""
"","ISI","","html-keyboard-response","406","453884","0.0-1.0-543.0","0","0","61939","","null","","","null","60","NaN","","","","","","","","","","","","","","",""
"","S2","","html-keyboard-response","407","454048","0.0-1.0-544.0","0","0","61939","","null","","","null","60","","NaN","","","","","","","","","","","","","",""
"","response","","html-keyboard-response","408","454393","0.0-1.0-545.0-0.0","0","0","61939","","339","","","75","60","","","2","60","training","adjacent","CD","3","4","R.jpg","L.jpg","1","1","1","",""
"","feedback","","html-keyboard-response","409","455408","0.0-1.0-546.0-0.0","0","0","61939","","null","","","null","60","","","","","","","","","","","","","","","",""
"","ITI","","html-keyboard-response","410","456421","0.0-1.0-549.0","0","0","61939","","null","","","null","60","","","","","","","","","","","","","","","NaN",""
"","S1","","html-keyboard-response","411","456583","0.0-1.0-551.0","0","0","61939","","null","","","null","61","","","","","","","","","","","","","","","",""
"","ISI","","html-keyboard-response","412","458596","0.0-1.0-552.0","0","0","61939","","null","","","null","61","NaN","","","","","","","","","","","","","","",""
"","S2","","html-keyboard-response","413","458760","0.0-1.0-553.0","0","0","61939","","null","","","null","61","","NaN","","","","","","","","","","","","","",""
"","response","","html-keyboard-response","414","459278","0.0-1.0-554.0-0.0","0","0","61939","","511","","","75","61","","","2","61","training","adjacent","DE","4","5","L.jpg","P.jpg","1","1","1","",""
"","feedback","","html-keyboard-response","415","460295","0.0-1.0-555.0-0.0","0","0","61939","","null","","","null","61","","","","","","","","","","","","","","","",""
"","ITI","","html-keyboard-response","416","461317","0.0-1.0-558.0","0","0","61939","","null","","","null","61","","","","","","","","","","","","","","","NaN",""
"","S1","","html-keyboard-response","417","461480","0.0-1.0-560.0","0","0","61939","","null","","","null","62","","","","","","","","","","","","","","","",""
"","ISI","","html-keyboard-response","418","463499","0.0-1.0-561.0","0","0","61939","","null","","","null","62","NaN","","","","","","","","","","","","","","",""
"","S2","","html-keyboard-response","419","463662","0.0-1.0-562.0","0","0","61939","","null","","","null","62","","NaN","","","","","","","","","","","","","",""
"","response","","html-keyboard-response","420","464031","0.0-1.0-563.0-0.0","0","0","61939","","363","","","68","62","","","2","62","training","adjacent","DE","4","5","L.jpg","P.jpg","0","1","0","",""
"","feedback","","html-keyboard-response","421","465053","0.0-1.0-564.0-0.0","0","0","61939","","null","","","null","62","","","","","","","","","","","","","","","",""
"","time_out","","html-keyboard-response","422","467066","0.0-1.0-566.0-0.0","0","0","61939","","null","","","null","62","","","","","","","","","","","","","","","",""
"","ITI","","html-keyboard-response","423","468079","0.0-1.0-567.0","0","0","61939","","null","","","null","62","","","","","","","","","","","","","","","NaN",""
"","S1","","html-keyboard-response","424","468242","0.0-1.0-569.0","0","0","61939","","null","","","null","63","","","","","","","","","","","","","","","",""
"","ISI","","html-keyboard-response","425","470250","0.0-1.0-570.0","0","0","61939","","null","","","null","63","NaN","","","","","","","","","","","","","","",""
"","S2","","html-keyboard-response","426","470414","0.0-1.0-571.0","0","0","61939","","null","","","null","63","","NaN","","","","","","","","","","","","","",""
"","response","","html-keyboard-response","427","470671","0.0-1.0-572.0-0.0","0","0","61939","","252","","","68","63","","","2","63","training","adjacent","BC","2","3","M.jpg","R.jpg","0","1","0","",""
"","feedback","","html-keyboard-response","428","471685","0.0-1.0-573.0-0.0","0","0","61939","","null","","","null","63","","","","","","","","","","","","","","","",""
"","time_out","","html-keyboard-response","429","473699","0.0-1.0-575.0-0.0","0","0","61939","","null","","","null","63","","","","","","","","","","","","","","","",""
"","ITI","","html-keyboard-response","430","474706","0.0-1.0-576.0","0","0","61939","","null","","","null","63","","","","","","","","","","","","","","","NaN",""
"","S1","","html-keyboard-response","431","474869","0.0-1.0-578.0","0","0","61939","","null","","","null","64","","","","","","","","","","","","","","","",""
"","ISI","","html-keyboard-response","432","476879","0.0-1.0-579.0","0","0","61939","","null","","","null","64","NaN","","","","","","","","","","","","","","",""
"","S2","","html-keyboard-response","433","477042","0.0-1.0-580.0","0","0","61939","","null","","","null","64","","NaN","","","","","","","","","","","","","",""
"","response","","html-keyboard-response","434","477193","0.0-1.0-581.0-0.0","0","0","61939","","144","","","75","64","","","2","64","training","adjacent","CD","3","4","R.jpg","L.jpg","1","1","1","",""
"","feedback","","html-keyboard-response","435","478204","0.0-1.0-582.0-0.0","0","0","61939","","null","","","null","64","","","","","","","","","","","","","","","",""
"","ITI","","html-keyboard-response","436","479213","0.0-1.0-585.0","0","0","61939","","null","","","null","64","","","","","","","","","","","","","","","NaN",""
"","S1","","html-keyboard-response","437","479377","0.0-1.0-587.0","0","0","61939","","null","","","null","65","","","","","","","","","","","","","","","",""
"","ISI","","html-keyboard-response","438","481395","0.0-1.0-588.0","0","0","61939","","null","","","null","65","NaN","","","","","","","","","","","","","","",""
"","S2","","html-keyboard-response","439","481559","0.0-1.0-589.0","0","0","61939","","null","","","null","65","","NaN","","","","","","","","","","","","","",""
"","response","","html-keyboard-response","440","481794","0.0-1.0-590.0-0.0","0","0","61939","","228","","","68","65","","","2","65","training","adjacent","FG","6","7","O.jpg","N.jpg","0","1","0","",""
"","feedback","","html-keyboard-response","441","482815","0.0-1.0-591.0-0.0","0","0","61939","","null","","","null","65","","","","","","","","","","","","","","","",""
"","time_out","","html-keyboard-response","442","484828","0.0-1.0-593.0-0.0","0","0","61939","","null","","","null","65","","","","","","","","","","","","","","","",""
"","ITI","","html-keyboard-response","443","485834","0.0-1.0-594.0","0","0","61939","","null","","","null","65","","","","","","","","","","","","","","","NaN",""
"","S1","","html-keyboard-response","444","485995","0.0-1.0-596.0","0","0","61939","","null","","","null","66","","","","","","","","","","","","","","","",""
"","ISI","","html-keyboard-response","445","488006","0.0-1.0-597.0","0","0","61939","","null","","","null","66","NaN","","","","","","","","","","","","","","",""
"","S2","","html-keyboard-response","446","488170","0.0-1.0-598.0","0","0","61939","","null","","","null","66","","NaN","","","","","","","","","","","","","",""
"","response","","html-keyboard-response","447","488274","0.0-1.0-599.0-0.0","0","0","61939","","98","","","68","66","","","2","66","training","adjacent","FE","6","5","O.jpg","P.jpg","0","0","1","",""
"","feedback","","html-keyboard-response","448","489287","0.0-1.0-600.0-0.0","0","0","61939","","null","","","null","66","","","","","","","","","","","","","","","",""
"","ITI","","html-keyboard-response","449","490301","0.0-1.0-603.0","0","0","61939","","null","","","null","66","","","","","","","","","","","","","","","NaN",""
"","S1","","html-keyboard-response","450","490463","0.0-1.0-605.0","0","0","61939","","null","","","null","67","","","","","","","","","","","","","","","",""
"","ISI","","html-keyboard-response","451","492475","0.0-1.0-606.0","0","0","61939","","null","","","null","67","NaN","","","","","","","","","","","","","","",""
"","S2","","html-keyboard-response","452","492640","0.0-1.0-607.0","0","0","61939","","null","","","null","67","","NaN","","","","","","","","","","","","","",""
"","response","","html-keyboard-response","453","493878","0.0-1.0-608.0-0.0","0","0","61939","","1231","","","68","67","","","2","67","training","adjacent","CB","3","2","R.jpg","M.jpg","0","0","1","",""
"","feedback","","html-keyboard-response","454","494899","0.0-1.0-609.0-0.0","0","0","61939","","null","","","null","67","","","","","","","","","","","","","","","",""
"","ITI","","html-keyboard-response","455","495907","0.0-1.0-612.0","0","0","61939","","null","","","null","67","","","","","","","","","","","","","","","NaN",""
"","S1","","html-keyboard-response","456","496071","0.0-1.0-614.0","0","0","61939","","null","","","null","68","","","","","","","","","","","","","","","",""
"","ISI","","html-keyboard-response","457","498078","0.0-1.0-615.0","0","0","61939","","null","","","null","68","NaN","","","","","","","","","","","","","","",""
"","S2","","html-keyboard-response","458","498241","0.0-1.0-616.0","0","0","61939","","null","","","null","68","","NaN","","","","","","","","","","","","","",""
"","response","","html-keyboard-response","459","500098","0.0-1.0-617.0-0.0","0","0","61939","","null","","","null","68","","","2","68","training","adjacent","BC","2","3","M.jpg","R.jpg","NaN","1","0","",""
"","too_slow_prompt","","html-keyboard-response","460","501117","0.0-1.0-619.0-0.0","1","0","61939","","null","","","null","","","","","","","","","","","","","","","","",""
"","time_out","","html-keyboard-response","461","503131","0.0-1.0-620.0-0.0","0","0","61939","","null","","","null","68","","","","","","","","","","","","","","","",""
"","ITI","","html-keyboard-response","462","504142","0.0-1.0-621.0","0","0","61939","","null","","","null","68","","","","","","","","","","","","","","","NaN",""
"","S1","","html-keyboard-response","463","504303","0.0-1.0-623.0","0","0","61939","","null","","","null","69","","","","","","","","","","","","","","","",""
"","ISI","","html-keyboard-response","464","506316","0.0-1.0-624.0","0","0","61939","","197","","","75","69","k","","","","","","","","","","","","","","",""
"","S2","","html-keyboard-response","465","506480","0.0-1.0-625.0","0","0","61939","","null","","","null","69","","NaN","","","","","","","","","","","","","",""
"","response","","html-keyboard-response","466","506593","0.0-1.0-626.0-0.0","0","0","61939","","105","","","75","69","","","2","69","training","adjacent","CB","3","2","R.jpg","M.jpg","1","0","0","",""
"","feedback","","html-keyboard-response","467","507613","0.0-1.0-627.0-0.0","0","0","61939","","null","","","null","69","","","","","","","","","","","","","","","",""
"","time_out","","html-keyboard-response","468","509623","0.0-1.0-629.0-0.0","0","0","61939","","null","","","null","69","","","","","","","","","","","","","","","",""
"","ITI","","html-keyboard-response","469","510637","0.0-1.0-630.0","0","0","61939","","null","","","null","69","","","","","","","","","","","","","","","NaN",""
"","S1","","html-keyboard-response","470","510799","0.0-1.0-632.0","0","0","61939","","null","","","null","70","","","","","","","","","","","","","","","",""
"","ISI","","html-keyboard-response","471","512810","0.0-1.0-633.0","0","0","61939","","null","","","null","70","NaN","","","","","","","","","","","","","","",""
"","S2","","html-keyboard-response","472","512973","0.0-1.0-634.0","0","0","61939","","null","","","null","70","","NaN","","","","","","","","","","","","","",""
"","response","","html-keyboard-response","473","513092","0.0-1.0-635.0-0.0","0","0","61939","","113","","","68","70","","","2","70","training","adjacent","BA","2","1","M.jpg","Q.jpg","0","0","1","",""
"","feedback","","html-keyboard-response","474","514102","0.0-1.0-636.0-0.0","0","0","61939","","null","","","null","70","","","","","","","","","","","","","","","",""
"","ITI","","html-keyboard-response","475","515116","0.0-1.0-639.0","0","0","61939","","null","","","null","70","","","","","","","","","","","","","","","NaN",""
"","S1","","html-keyboard-response","476","515279","0.0-1.0-641.0","0","0","61939","","null","","","null","71","","","","","","","","","","","","","","","",""
"","ISI","","html-keyboard-response","477","517299","0.0-1.0-642.0","0","0","61939","","null","","","null","71","NaN","","","","","","","","","","","","","","",""
"","S2","","html-keyboard-response","478","517461","0.0-1.0-643.0","0","0","61939","","null","","","null","71","","NaN","","","","","","","","","","","","","",""
"","response","","html-keyboard-response","479","519320","0.0-1.0-644.0-0.0","0","0","61939","","null","","","null","71","","","2","71","training","adjacent","CD","3","4","R.jpg","L.jpg","NaN","1","0","",""
"","too_slow_prompt","","html-keyboard-response","480","520333","0.0-1.0-646.0-0.0","1","0","61939","","null","","","null","","","","","","","","","","","","","","","","",""
"","time_out","","html-keyboard-response","481","522355","0.0-1.0-647.0-0.0","0","0","61939","","null","","","null","71","","","","","","","","","","","","","","","",""
"","ITI","","html-keyboard-response","482","523374","0.0-1.0-648.0","0","0","61939","","null","","","null","71","","","","","","","","","","","","","","","NaN",""
"","S1","","html-keyboard-response","483","523539","0.0-1.0-650.0","0","0","61939","","null","","","null","72","","","","","","","","","","","","","","","",""
"","ISI","","html-keyboard-response","484","525550","0.0-1.0-651.0","0","0","61939","","null","","","null","72","NaN","","","","","","","","","","","","","","",""
"","S2","","html-keyboard-response","485","525713","0.0-1.0-652.0","0","0","61939","","null","","","null","72","","NaN","","","","","","","","","","","","","",""
"","response","","html-keyboard-response","486","527032","0.0-1.0-653.0-0.0","0","0","61939","","1313","","","75","72","","","2","72","training","adjacent","DC","4","3","L.jpg","R.jpg","1","0","0","",""
"","feedback","","html-keyboard-response","487","528046","0.0-1.0-654.0-0.0","0","0","61939","","null","","","null","72","","","","","","","","","","","","","","","",""
"","time_out","","html-keyboard-response","488","530053","0.0-1.0-656.0-0.0","0","0","61939","","null","","","null","72","","","","","","","","","","","","","","","",""
"","ITI","","html-keyboard-response","489","531063","0.0-1.0-657.0","0","0","61939","","null","","","null","72","","","","","","","","","","","","","","","NaN",""
"","S1","","html-keyboard-response","490","531225","0.0-1.0-659.0","0","0","61939","","null","","","null","73","","","","","","","","","","","","","","","",""
"","ISI","","html-keyboard-response","491","533232","0.0-1.0-660.0","0","0","61939","","null","","","null","73","NaN","","","","","","","","","","","","","","",""
"","S2","","html-keyboard-response","492","533393","0.0-1.0-661.0","0","0","61939","","null","","","null","73","","NaN","","","","","","","","","","","","","",""
"","response","","html-keyboard-response","493","533709","0.0-1.0-662.0-0.0","0","0","61939","","309","","","75","73","","","2","73","training","adjacent","AB","1","2","Q.jpg","M.jpg","1","1","1","",""
"","feedback","","html-keyboard-response","494","534722","0.0-1.0-663.0-0.0","0","0","61939","","null","","","null","73","","","","","","","","","","","","","","","",""
"","ITI","","html-keyboard-response","495","535731","0.0-1.0-666.0","0","0","61939","","null","","","null","73","","","","","","","","","","","","","","","NaN",""
"","S1","","html-keyboard-response","496","535893","0.0-1.0-668.0","0","0","61939","","null","","","null","74","","","","","","","","","","","","","","","",""
"","ISI","","html-keyboard-response","497","537910","0.0-1.0-669.0","0","0","61939","","null","","","null","74","NaN","","","","","","","","","","","","","","",""
"","S2","","html-keyboard-response","498","538079","0.0-1.0-670.0","0","0","61939","","null","","","null","74","","NaN","","","","","","","","","","","","","",""
"","response","","html-keyboard-response","499","538780","0.0-1.0-671.0-0.0","0","0","61939","","694","","","68","74","","","2","74","training","adjacent","BA","2","1","M.jpg","Q.jpg","0","0","1","",""
"","feedback","","html-keyboard-response","500","539795","0.0-1.0-672.0-0.0","0","0","61939","","null","","","null","74","","","","","","","","","","","","","","","",""
"","ITI","","html-keyboard-response","501","540809","0.0-1.0-675.0","0","0","61939","","null","","","null","74","","","","","","","","","","","","","","","NaN",""
"","S1","","html-keyboard-response","502","540975","0.0-1.0-677.0","0","0","61939","","null","","","null","75","","","","","","","","","","","","","","","",""
"","ISI","","html-keyboard-response","503","542980","0.0-1.0-678.0","0","0","61939","","null","","","null","75","NaN","","","","","","","","","","","","","","",""
"","S2","","html-keyboard-response","504","543140","0.0-1.0-679.0","0","0","61939","","null","","","null","75","","NaN","","","","","","","","","","","","","",""
"","response","","html-keyboard-response","505","543264","0.0-1.0-680.0-0.0","0","0","61939","","120","","","75","75","","","2","75","training","adjacent","AB","1","2","Q.jpg","M.jpg","1","1","1","",""
"","feedback","","html-keyboard-response","506","544275","0.0-1.0-681.0-0.0","0","0","61939","","null","","","null","75","","","","","","","","","","","","","","","",""
"","ITI","","html-keyboard-response","507","545289","0.0-1.0-684.0","0","0","61939","","null","","","null","75","","","","","","","","","","","","","","","NaN",""
"","S1","","html-keyboard-response","508","545451","0.0-1.0-686.0","0","0","61939","","null","","","null","76","","","","","","","","","","","","","","","",""
"","ISI","","html-keyboard-response","509","547460","0.0-1.0-687.0","0","0","61939","","null","","","null","76","NaN","","","","","","","","","","","","","","",""
"","S2","","html-keyboard-response","510","547623","0.0-1.0-688.0","0","0","61939","","null","","","null","76","","NaN","","","","","","","","","","","","","",""
"","response","","html-keyboard-response","511","548077","0.0-1.0-689.0-0.0","0","0","61939","","447","","","68","76","","","2","76","training","adjacent","EF","5","6","P.jpg","O.jpg","0","1","0","",""
"","feedback","","html-keyboard-response","512","549091","0.0-1.0-690.0-0.0","0","0","61939","","null","","","null","76","","","","","","","","","","","","","","","",""
"","time_out","","html-keyboard-response","513","551099","0.0-1.0-692.0-0.0","0","0","61939","","null","","","null","76","","","","","","","","","","","","","","","",""
"","ITI","","html-keyboard-response","514","552119","0.0-1.0-693.0","0","0","61939","","null","","","null","76","","","","","","","","","","","","","","","NaN",""
"","S1","","html-keyboard-response","515","552281","0.0-1.0-695.0","0","0","61939","","null","","","null","77","","","","","","","","","","","","","","","",""
"","ISI","","html-keyboard-response","516","554292","0.0-1.0-696.0","0","0","61939","","null","","","null","77","NaN","","","","","","","","","","","","","","",""
"","S2","","html-keyboard-response","517","554454","0.0-1.0-697.0","0","0","61939","","null","","","null","77","","NaN","","","","","","","","","","","","","",""
"","response","","html-keyboard-response","518","554611","0.0-1.0-698.0-0.0","0","0","61939","","150","","","68","77","","","2","77","training","adjacent","EF","5","6","P.jpg","O.jpg","0","1","0","",""
"","feedback","","html-keyboard-response","519","555625","0.0-1.0-699.0-0.0","0","0","61939","","null","","","null","77","","","","","","","","","","","","","","","",""
"","time_out","","html-keyboard-response","520","557648","0.0-1.0-701.0-0.0","0","0","61939","","null","","","null","77","","","","","","","","","","","","","","","",""
"","ITI","","html-keyboard-response","521","558662","0.0-1.0-702.0","0","0","61939","","null","","","null","77","","","","","","","","","","","","","","","NaN",""
"","S1","","html-keyboard-response","522","558827","0.0-1.0-704.0","0","0","61939","","null","","","null","78","","","","","","","","","","","","","","","",""
"","ISI","","html-keyboard-response","523","560835","0.0-1.0-705.0","0","0","61939","","null","","","null","78","NaN","","","","","","","","","","","","","","",""
"","S2","","html-keyboard-response","524","560999","0.0-1.0-706.0","0","0","61939","","null","","","null","78","","NaN","","","","","","","","","","","","","",""
"","response","","html-keyboard-response","525","561376","0.0-1.0-707.0-0.0","0","0","61939","","369","","","68","78","","","2","78","training","adjacent","DE","4","5","L.jpg","P.jpg","0","1","0","",""
"","feedback","","html-keyboard-response","526","562394","0.0-1.0-708.0-0.0","0","0","61939","","null","","","null","78","","","","","","","","","","","","","","","",""
"","time_out","","html-keyboard-response","527","564404","0.0-1.0-710.0-0.0","0","0","61939","","null","","","null","78","","","","","","","","","","","","","","","",""
"","ITI","","html-keyboard-response","528","565413","0.0-1.0-711.0","0","0","61939","","null","","","null","78","","","","","","","","","","","","","","","NaN",""
"","S1","","html-keyboard-response","529","565576","0.0-1.0-713.0","0","0","61939","","null","","","null","79","","","","","","","","","","","","","","","",""
"","ISI","","html-keyboard-response","530","567589","0.0-1.0-714.0","0","0","61939","","null","","","null","79","NaN","","","","","","","","","","","","","","",""
"","S2","","html-keyboard-response","531","567752","0.0-1.0-715.0","0","0","61939","","null","","","null","79","","NaN","","","","","","","","","","","","","",""
"","response","","html-keyboard-response","532","567868","0.0-1.0-716.0-0.0","0","0","61939","","109","","","68","79","","","2","79","training","adjacent","BC","2","3","M.jpg","R.jpg","0","1","0","",""
"","feedback","","html-keyboard-response","533","568879","0.0-1.0-717.0-0.0","0","0","61939","","null","","","null","79","","","","","","","","","","","","","","","",""
"","time_out","","html-keyboard-response","534","570890","0.0-1.0-719.0-0.0","0","0","61939","","null","","","null","79","","","","","","","","","","","","","","","",""
"","ITI","","html-keyboard-response","535","571899","0.0-1.0-720.0","0","0","61939","","null","","","null","79","","","","","","","","","","","","","","","NaN",""
"","S1","","html-keyboard-response","536","572062","0.0-1.0-722.0","0","0","61939","","null","","","null","80","","","","","","","","","","","","","","","",""
"","ISI","","html-keyboard-response","537","574070","0.0-1.0-723.0","0","0","61939","","null","","","null","80","NaN","","","","","","","","","","","","","","",""
"","S2","","html-keyboard-response","538","574228","0.0-1.0-724.0","0","0","61939","","null","","","null","80","","NaN","","","","","","","","","","","","","",""
"","response","","html-keyboard-response","539","574357","0.0-1.0-725.0-0.0","0","0","61939","","123","","","68","80","","","2","80","training","adjacent","FG","6","7","O.jpg","N.jpg","0","1","0","",""
"","feedback","","html-keyboard-response","540","575371","0.0-1.0-726.0-0.0","0","0","61939","","null","","","null","80","","","","","","","","","","","","","","","",""
"","time_out","","html-keyboard-response","541","577379","0.0-1.0-728.0-0.0","0","0","61939","","null","","","null","80","","","","","","","","","","","","","","","",""
"","ITI","","html-keyboard-response","542","578387","0.0-1.0-729.0","0","0","61939","","null","","","null","80","","","","","","","","","","","","","","","NaN",""
"","S1","","html-keyboard-response","543","578549","0.0-1.0-731.0","0","0","61939","","null","","","null","81","","","","","","","","","","","","","","","",""
"","ISI","","html-keyboard-response","544","580556","0.0-1.0-732.0","0","0","61939","","null","","","null","81","NaN","","","","","","","","","","","","","","",""
"","S2","","html-keyboard-response","545","580720","0.0-1.0-733.0","0","0","61939","","null","","","null","81","","NaN","","","","","","","","","","","","","",""
"","response","","html-keyboard-response","546","581489","0.0-1.0-734.0-0.0","0","0","61939","","764","","","68","81","","","2","81","training","adjacent","DC","4","3","L.jpg","R.jpg","0","0","1","",""
"","feedback","","html-keyboard-response","547","582501","0.0-1.0-735.0-0.0","0","0","61939","","null","","","null","81","","","","","","","","","","","","","","","",""
"","ITI","","html-keyboard-response","548","583516","0.0-1.0-738.0","0","0","61939","","null","","","null","81","","","","","","","","","","","","","","","NaN",""
"","S1","","html-keyboard-response","549","583680","0.0-1.0-740.0","0","0","61939","","null","","","null","82","","","","","","","","","","","","","","","",""
"","ISI","","html-keyboard-response","550","585692","0.0-1.0-741.0","0","0","61939","","null","","","null","82","NaN","","","","","","","","","","","","","","",""
"","S2","","html-keyboard-response","551","585854","0.0-1.0-742.0","0","0","61939","","null","","","null","82","","NaN","","","","","","","","","","","","","",""
"","response","","html-keyboard-response","552","586033","0.0-1.0-743.0-0.0","0","0","61939","","172","","","75","82","","","2","82","training","adjacent","DC","4","3","L.jpg","R.jpg","1","0","0","",""
"","feedback","","html-keyboard-response","553","587048","0.0-1.0-744.0-0.0","0","0","61939","","null","","","null","82","","","","","","","","","","","","","","","",""
"","time_out","","html-keyboard-response","554","589058","0.0-1.0-746.0-0.0","0","0","61939","","null","","","null","82","","","","","","","","","","","","","","","",""
"","ITI","","html-keyboard-response","555","590064","0.0-1.0-747.0","0","0","61939","","null","","","null","82","","","","","","","","","","","","","","","NaN",""
"","S1","","html-keyboard-response","556","590228","0.0-1.0-749.0","0","0","61939","","null","","","null","83","","","","","","","","","","","","","","","",""
"","ISI","","html-keyboard-response","557","592239","0.0-1.0-750.0","0","0","61939","","null","","","null","83","NaN","","","","","","","","","","","","","","",""
"","S2","","html-keyboard-response","558","592404","0.0-1.0-751.0","0","0","61939","","null","","","null","83","","NaN","","","","","","","","","","","","","",""
"","response","","html-keyboard-response","559","592783","0.0-1.0-752.0-0.0","0","0","61939","","372","","","68","83","","","2","83","training","adjacent","DE","4","5","L.jpg","P.jpg","0","1","0","",""
"","feedback","","html-keyboard-response","560","593803","0.0-1.0-753.0-0.0","0","0","61939","","null","","","null","83","","","","","","","","","","","","","","","",""
"","time_out","","html-keyboard-response","561","595814","0.0-1.0-755.0-0.0","0","0","61939","","null","","","null","83","","","","","","","","","","","","","","","",""
"","ITI","","html-keyboard-response","562","596824","0.0-1.0-756.0","0","0","61939","","null","","","null","83","","","","","","","","","","","","","","","NaN",""
"","S1","","html-keyboard-response","563","596986","0.0-1.0-758.0","0","0","61939","","null","","","null","84","","","","","","","","","","","","","","","",""
"","ISI","","html-keyboard-response","564","598997","0.0-1.0-759.0","0","0","61939","","null","","","null","84","NaN","","","","","","","","","","","","","","",""
"","S2","","html-keyboard-response","565","599156","0.0-1.0-760.0","0","0","61939","","null","","","null","84","","NaN","","","","","","","","","","","","","",""
"","response","","html-keyboard-response","566","599786","0.0-1.0-761.0-0.0","0","0","61939","","626","","","75","84","","","2","84","training","adjacent","EF","5","6","P.jpg","O.jpg","1","1","1","",""
"","feedback","","html-keyboard-response","567","600799","0.0-1.0-762.0-0.0","0","0","61939","","null","","","null","84","","","","","","","","","","","","","","","",""
"","ITI","","html-keyboard-response","568","601808","0.0-1.0-765.0","0","0","61939","","null","","","null","84","","","","","","","","","","","","","","","NaN",""
"","S1","","html-keyboard-response","569","601970","0.0-1.0-767.0","0","0","61939","","null","","","null","85","","","","","","","","","","","","","","","",""
"","ISI","","html-keyboard-response","570","603991","0.0-1.0-768.0","0","0","61939","","null","","","null","85","NaN","","","","","","","","","","","","","","",""
"","S2","","html-keyboard-response","571","604154","0.0-1.0-769.0","0","0","61939","","null","","","null","85","","NaN","","","","","","","","","","","","","",""
"","response","","html-keyboard-response","572","604731","0.0-1.0-770.0-0.0","0","0","61939","","570","","","68","85","","","2","85","training","adjacent","DC","4","3","L.jpg","R.jpg","0","0","1","",""
"","feedback","","html-keyboard-response","573","605754","0.0-1.0-771.0-0.0","0","0","61939","","null","","","null","85","","","","","","","","","","","","","","","",""
"","ITI","","html-keyboard-response","574","606769","0.0-1.0-774.0","0","0","61939","","null","","","null","85","","","","","","","","","","","","","","","NaN",""
"","S1","","html-keyboard-response","575","606932","0.0-1.0-776.0","0","0","61939","","null","","","null","86","","","","","","","","","","","","","","","",""
"","ISI","","html-keyboard-response","576","608943","0.0-1.0-777.0","0","0","61939","","null","","","null","86","NaN","","","","","","","","","","","","","","",""
"","S2","","html-keyboard-response","577","609107","0.0-1.0-778.0","0","0","61939","","null","","","null","86","","NaN","","","","","","","","","","","","","",""
