"success","ttype","start_time","trial_type","trial_index","time_elapsed","internal_node_id","warning","missed_checkup","PID","view_history","rt","responses","repeat_instructions","key_press","index","keypress_isi","keypress_S2","block","trial_num","phase","group_type","pair_type","S1_stim","S2_stim","S1_img","S2_img","S1_chosen","S1_higher","accuracy","keypress_iti","total_bonus_tally"
"true","full_screen","d04132023hr2101","fullscreen","0","6436","0.0-0.0","0","0","37161","","","","","","","","","","","","","","","","","","","","","",""
"","instructions","","instructions","1","20412","0.0-1.0-0.0-0.0","0","0","37161","[{""page_index"":0,""viewing_time"":2705},{""page_index"":1,""viewing_time"":4819},{""page_index"":2,""viewing_time"":4771},{""page_index"":3,""viewing_time"":1677}]","13972","","","","","","","","","","","","","","","","","","","",""
"","comprehension_check","","survey-multi-choice","2","38106","0.0-1.0-0.0-1.0","0","0","37161","","17683","{""Q0"":""True"",""Q1"":""K"",""Q2"":""Once the second image appears and while the screen 'MAKE A CHOICE' is shown"",""Q3"":""Green mark"",""Q4"":""either D or K""}","0","","","","","","","","","","","","","","","","","",""
"","start_exp","","html-keyboard-response","3","40133","0.0-1.0-1.0","0","0","37161","","2022","","","32","","","","","","","","","","","","","","","","",""
"","S1","","html-keyboard-response","4","40388","0.0-1.0-2.0","0","0","37161","","null","","","null","0","","","","","","","","","","","","","","","",""
"","ISI","","html-keyboard-response","5","41392","0.0-1.0-3.0","0","0","37161","","null","","","null","0","NaN","","","","","","","","","","","","","","",""
"","S2","","html-keyboard-response","6","41647","0.0-1.0-4.0","0","0","37161","","null","","","null","0","","NaN","","","","","","","","","","","","","",""
"","response","","html-keyboard-response","7","41902","0.0-1.0-5.0-0.0","0","0","37161","","252","","","75","0","","","1","0","training","adjacent","DE","4","5","Q.jpg","N.jpg","1","1","1","",""
"","feedback","","html-keyboard-response","8","42907","0.0-1.0-6.0-0.0","0","0","37161","","null","","","null","0","","","","","","","","","","","","","","","",""
"","ITI","","html-keyboard-response","9","43911","0.0-1.0-9.0","0","0","37161","","null","","","null","0","","","","","","","","","","","","","","","NaN",""
"","S1","","html-keyboard-response","10","44166","0.0-1.0-11.0","0","0","37161","","null","","","null","1","","","","","","","","","","","","","","","",""
"","ISI","","html-keyboard-response","11","45170","0.0-1.0-12.0","0","0","37161","","null","","","null","1","NaN","","","","","","","","","","","","","","",""
"","S2","","html-keyboard-response","12","45425","0.0-1.0-13.0","0","0","37161","","null","","","null","1","","NaN","","","","","","","","","","","","","",""
"","response","","html-keyboard-response","13","45776","0.0-1.0-14.0-0.0","0","0","37161","","347","","","75","1","","","1","1","training","adjacent","ED","5","4","N.jpg","Q.jpg","1","0","0","",""
"","feedback","","html-keyboard-response","14","46780","0.0-1.0-15.0-0.0","0","0","37161","","null","","","null","1","","","","","","","","","","","","","","","",""
"","time_out","","html-keyboard-response","15","48784","0.0-1.0-17.0-0.0","0","0","37161","","null","","","null","1","","","","","","","","","","","","","","","",""
"","ITI","","html-keyboard-response","16","49787","0.0-1.0-18.0","0","0","37161","","null","","","null","1","","","","","","","","","","","","","","","NaN",""
"","S1","","html-keyboard-response","17","50040","0.0-1.0-20.0","0","0","37161","","null","","","null","2","","","","","","","","","","","","","","","",""
"","ISI","","html-keyboard-response","18","51044","0.0-1.0-21.0","0","0","37161","","null","","","null","2","NaN","","","","","","","","","","","","","","",""
"","S2","","html-keyboard-response","19","51297","0.0-1.0-22.0","0","0","37161","","null","","","null","2","","NaN","","","","","","","","","","","","","",""
"","response","","html-keyboard-response","20","51731","0.0-1.0-23.0-0.0","0","0","37161","","431","","","68","2","","","1","2","training","adjacent","FG","6","7","P.jpg","R.jpg","0","1","0","",""
"","feedback","","html-keyboard-response","21","52735","0.0-1.0-24.0-0.0","0","0","37161","","null","","","null","2","","","","","","","","","","","","","","","",""
"","time_out","","html-keyboard-response","22","54739","0.0-1.0-26.0-0.0","0","0","37161","","null","","","null","2","","","","","","","","","","","","","","","",""
"","ITI","","html-keyboard-response","23","55742","0.0-1.0-27.0","0","0","37161","","null","","","null","2","","","","","","","","","","","","","","","NaN",""
"","S1","","html-keyboard-response","24","56003","0.0-1.0-29.0","0","0","37161","","null","","","null","3","","","","","","","","","","","","","","","",""
"","ISI","","html-keyboard-response","25","57006","0.0-1.0-30.0","0","0","37161","","null","","","null","3","NaN","","","","","","","","","","","","","","",""
"","S2","","html-keyboard-response","26","57260","0.0-1.0-31.0","0","0","37161","","null","","","null","3","","NaN","","","","","","","","","","","","","",""
"","response","","html-keyboard-response","27","57638","0.0-1.0-32.0-0.0","0","0","37161","","375","","","75","3","","","1","3","training","adjacent","FG","6","7","P.jpg","R.jpg","1","1","1","",""
"","feedback","","html-keyboard-response","28","58641","0.0-1.0-33.0-0.0","0","0","37161","","null","","","null","3","","","","","","","","","","","","","","","",""
"","ITI","","html-keyboard-response","29","59646","0.0-1.0-36.0","0","0","37161","","null","","","null","3","","","","","","","","","","","","","","","NaN",""
"","S1","","html-keyboard-response","30","59900","0.0-1.0-38.0","0","0","37161","","null","","","null","4","","","","","","","","","","","","","","","",""
"","ISI","","html-keyboard-response","31","60903","0.0-1.0-39.0","0","0","37161","","null","","","null","4","NaN","","","","","","","","","","","","","","",""
"","S2","","html-keyboard-response","32","61158","0.0-1.0-40.0","0","0","37161","","null","","","null","4","","NaN","","","","","","","","","","","","","",""
"","response","","html-keyboard-response","33","61620","0.0-1.0-41.0-0.0","0","0","37161","","459","","","68","4","","","1","4","training","adjacent","CB","3","2","L.jpg","O.jpg","0","0","1","",""
"","feedback","","html-keyboard-response","34","62624","0.0-1.0-42.0-0.0","0","0","37161","","null","","","null","4","","","","","","","","","","","","","","","",""
"","ITI","","html-keyboard-response","35","63628","0.0-1.0-45.0","0","0","37161","","null","","","null","4","","","","","","","","","","","","","","","NaN",""
"","S1","","html-keyboard-response","36","63882","0.0-1.0-47.0","0","0","37161","","null","","","null","5","","","","","","","","","","","","","","","",""
"","ISI","","html-keyboard-response","37","64886","0.0-1.0-48.0","0","0","37161","","null","","","null","5","NaN","","","","","","","","","","","","","","",""
"","S2","","html-keyboard-response","38","65139","0.0-1.0-49.0","0","0","37161","","null","","","null","5","","NaN","","","","","","","","","","","","","",""
"","response","","html-keyboard-response","39","65889","0.0-1.0-50.0-0.0","0","0","37161","","746","","","68","5","","","1","5","training","adjacent","EF","5","6","N.jpg","P.jpg","0","1","0","",""
"","feedback","","html-keyboard-response","40","66893","0.0-1.0-51.0-0.0","0","0","37161","","null","","","null","5","","","","","","","","","","","","","","","",""
"","time_out","","html-keyboard-response","41","68897","0.0-1.0-53.0-0.0","0","0","37161","","null","","","null","5","","","","","","","","","","","","","","","",""
"","ITI","","html-keyboard-response","42","69900","0.0-1.0-54.0","0","0","37161","","null","","","null","5","","","","","","","","","","","","","","","NaN",""
"","S1","","html-keyboard-response","43","70154","0.0-1.0-56.0","0","0","37161","","null","","","null","6","","","","","","","","","","","","","","","",""
"","ISI","","html-keyboard-response","44","71157","0.0-1.0-57.0","0","0","37161","","null","","","null","6","NaN","","","","","","","","","","","","","","",""
"","S2","","html-keyboard-response","45","71411","0.0-1.0-58.0","0","0","37161","","null","","","null","6","","NaN","","","","","","","","","","","","","",""
"","response","","html-keyboard-response","46","71763","0.0-1.0-59.0-0.0","0","0","37161","","349","","","75","6","","","1","6","training","adjacent","CD","3","4","L.jpg","Q.jpg","1","1","1","",""
"","feedback","","html-keyboard-response","47","72767","0.0-1.0-60.0-0.0","0","0","37161","","null","","","null","6","","","","","","","","","","","","","","","",""
"","ITI","","html-keyboard-response","48","73771","0.0-1.0-63.0","0","0","37161","","null","","","null","6","","","","","","","","","","","","","","","NaN",""
"","S1","","html-keyboard-response","49","74025","0.0-1.0-65.0","0","0","37161","","null","","","null","7","","","","","","","","","","","","","","","",""
"","ISI","","html-keyboard-response","50","75029","0.0-1.0-66.0","0","0","37161","","null","","","null","7","NaN","","","","","","","","","","","","","","",""
"","S2","","html-keyboard-response","51","75284","0.0-1.0-67.0","0","0","37161","","null","","","null","7","","NaN","","","","","","","","","","","","","",""
"","response","","html-keyboard-response","52","75658","0.0-1.0-68.0-0.0","0","0","37161","","371","","","75","7","","","1","7","training","adjacent","CD","3","4","L.jpg","Q.jpg","1","1","1","",""
"","feedback","","html-keyboard-response","53","76663","0.0-1.0-69.0-0.0","0","0","37161","","null","","","null","7","","","","","","","","","","","","","","","",""
"","ITI","","html-keyboard-response","54","77667","0.0-1.0-72.0","0","0","37161","","null","","","null","7","","","","","","","","","","","","","","","NaN",""
"","S1","","html-keyboard-response","55","77921","0.0-1.0-74.0","0","0","37161","","null","","","null","8","","","","","","","","","","","","","","","",""
"","ISI","","html-keyboard-response","56","78925","0.0-1.0-75.0","0","0","37161","","null","","","null","8","NaN","","","","","","","","","","","","","","",""
"","S2","","html-keyboard-response","57","79179","0.0-1.0-76.0","0","0","37161","","null","","","null","8","","NaN","","","","","","","","","","","","","",""
"","response","","html-keyboard-response","58","79496","0.0-1.0-77.0-0.0","0","0","37161","","314","","","68","8","","","1","8","training","adjacent","AB","1","2","M.jpg","O.jpg","0","1","0","",""
"","feedback","","html-keyboard-response","59","80500","0.0-1.0-78.0-0.0","0","0","37161","","null","","","null","8","","","","","","","","","","","","","","","",""
"","time_out","","html-keyboard-response","60","82503","0.0-1.0-80.0-0.0","0","0","37161","","null","","","null","8","","","","","","","","","","","","","","","",""
"","ITI","","html-keyboard-response","61","83507","0.0-1.0-81.0","0","0","37161","","null","","","null","8","","","","","","","","","","","","","","","NaN",""
"","S1","","html-keyboard-response","62","83760","0.0-1.0-83.0","0","0","37161","","null","","","null","9","","","","","","","","","","","","","","","",""
"","ISI","","html-keyboard-response","63","84764","0.0-1.0-84.0","0","0","37161","","null","","","null","9","NaN","","","","","","","","","","","","","","",""
"","S2","","html-keyboard-response","64","85018","0.0-1.0-85.0","0","0","37161","","null","","","null","9","","NaN","","","","","","","","","","","","","",""
"","response","","html-keyboard-response","65","85408","0.0-1.0-86.0-0.0","0","0","37161","","387","","","75","9","","","1","9","training","adjacent","DE","4","5","Q.jpg","N.jpg","1","1","1","",""
"","feedback","","html-keyboard-response","66","86411","0.0-1.0-87.0-0.0","0","0","37161","","null","","","null","9","","","","","","","","","","","","","","","",""
"","ITI","","html-keyboard-response","67","87415","0.0-1.0-90.0","0","0","37161","","null","","","null","9","","","","","","","","","","","","","","","NaN",""
"","S1","","html-keyboard-response","68","87670","0.0-1.0-92.0","0","0","37161","","null","","","null","10","","","","","","","","","","","","","","","",""
"","ISI","","html-keyboard-response","69","88674","0.0-1.0-93.0","0","0","37161","","null","","","null","10","NaN","","","","","","","","","","","","","","",""
"","S2","","html-keyboard-response","70","88929","0.0-1.0-94.0","0","0","37161","","null","","","null","10","","NaN","","","","","","","","","","","","","",""
"","response","","html-keyboard-response","71","89225","0.0-1.0-95.0-0.0","0","0","37161","","294","","","68","10","","","1","10","training","adjacent","BC","2","3","O.jpg","L.jpg","0","1","0","",""
"","feedback","","html-keyboard-response","72","90228","0.0-1.0-96.0-0.0","0","0","37161","","null","","","null","10","","","","","","","","","","","","","","","",""
"","time_out","","html-keyboard-response","73","92231","0.0-1.0-98.0-0.0","0","0","37161","","null","","","null","10","","","","","","","","","","","","","","","",""
"","ITI","","html-keyboard-response","74","93234","0.0-1.0-99.0","0","0","37161","","null","","","null","10","","","","","","","","","","","","","","","NaN",""
"","S1","","html-keyboard-response","75","93487","0.0-1.0-101.0","0","0","37161","","null","","","null","11","","","","","","","","","","","","","","","",""
"","ISI","","html-keyboard-response","76","94491","0.0-1.0-102.0","0","0","37161","","null","","","null","11","NaN","","","","","","","","","","","","","","",""
"","S2","","html-keyboard-response","77","94745","0.0-1.0-103.0","0","0","37161","","null","","","null","11","","NaN","","","","","","","","","","","","","",""
"","response","","html-keyboard-response","78","95057","0.0-1.0-104.0-0.0","0","0","37161","","310","","","75","11","","","1","11","training","adjacent","DC","4","3","Q.jpg","L.jpg","1","0","0","",""
"","feedback","","html-keyboard-response","79","96061","0.0-1.0-105.0-0.0","0","0","37161","","null","","","null","11","","","","","","","","","","","","","","","",""
"","time_out","","html-keyboard-response","80","98065","0.0-1.0-107.0-0.0","0","0","37161","","null","","","null","11","","","","","","","","","","","","","","","",""
"","ITI","","html-keyboard-response","81","99070","0.0-1.0-108.0","0","0","37161","","null","","","null","11","","","","","","","","","","","","","","","NaN",""
"","S1","","html-keyboard-response","82","99324","0.0-1.0-110.0","0","0","37161","","null","","","null","12","","","","","","","","","","","","","","","",""
"","ISI","","html-keyboard-response","83","100327","0.0-1.0-111.0","0","0","37161","","null","","","null","12","NaN","","","","","","","","","","","","","","",""
"","S2","","html-keyboard-response","84","100581","0.0-1.0-112.0","0","0","37161","","null","","","null","12","","NaN","","","","","","","","","","","","","",""
"","response","","html-keyboard-response","85","101082","0.0-1.0-113.0-0.0","0","0","37161","","498","","","75","12","","","1","12","training","adjacent","GF","7","6","R.jpg","P.jpg","1","0","0","",""
"","feedback","","html-keyboard-response","86","102086","0.0-1.0-114.0-0.0","0","0","37161","","null","","","null","12","","","","","","","","","","","","","","","",""
"","time_out","","html-keyboard-response","87","104090","0.0-1.0-116.0-0.0","0","0","37161","","null","","","null","12","","","","","","","","","","","","","","","",""
"","ITI","","html-keyboard-response","88","105093","0.0-1.0-117.0","0","0","37161","","null","","","null","12","","","","","","","","","","","","","","","NaN",""
"","S1","","html-keyboard-response","89","105347","0.0-1.0-119.0","0","0","37161","","null","","","null","13","","","","","","","","","","","","","","","",""
"","ISI","","html-keyboard-response","90","106350","0.0-1.0-120.0","0","0","37161","","null","","","null","13","NaN","","","","","","","","","","","","","","",""
"","S2","","html-keyboard-response","91","106605","0.0-1.0-121.0","0","0","37161","","null","","","null","13","","NaN","","","","","","","","","","","","","",""
"","response","","html-keyboard-response","92","106949","0.0-1.0-122.0-0.0","0","0","37161","","341","","","75","13","","","1","13","training","adjacent","GF","7","6","R.jpg","P.jpg","1","0","0","",""
"","feedback","","html-keyboard-response","93","107954","0.0-1.0-123.0-0.0","0","0","37161","","null","","","null","13","","","","","","","","","","","","","","","",""
"","time_out","","html-keyboard-response","94","109956","0.0-1.0-125.0-0.0","0","0","37161","","null","","","null","13","","","","","","","","","","","","","","","",""
"","ITI","","html-keyboard-response","95","110960","0.0-1.0-126.0","0","0","37161","","null","","","null","13","","","","","","","","","","","","","","","NaN",""
"","S1","","html-keyboard-response","96","111213","0.0-1.0-128.0","0","0","37161","","null","","","null","14","","","","","","","","","","","","","","","",""
"","ISI","","html-keyboard-response","97","112217","0.0-1.0-129.0","0","0","37161","","null","","","null","14","NaN","","","","","","","","","","","","","","",""
"","S2","","html-keyboard-response","98","112471","0.0-1.0-130.0","0","0","37161","","null","","","null","14","","NaN","","","","","","","","","","","","","",""
"","response","","html-keyboard-response","99","112802","0.0-1.0-131.0-0.0","0","0","37161","","328","","","68","14","","","1","14","training","adjacent","GF","7","6","R.jpg","P.jpg","0","0","1","",""
"","feedback","","html-keyboard-response","100","113806","0.0-1.0-132.0-0.0","0","0","37161","","null","","","null","14","","","","","","","","","","","","","","","",""
"","ITI","","html-keyboard-response","101","114809","0.0-1.0-135.0","0","0","37161","","null","","","null","14","","","","","","","","","","","","","","","NaN",""
"","S1","","html-keyboard-response","102","115064","0.0-1.0-137.0","0","0","37161","","null","","","null","15","","","","","","","","","","","","","","","",""
"","ISI","","html-keyboard-response","103","116067","0.0-1.0-138.0","0","0","37161","","null","","","null","15","NaN","","","","","","","","","","","","","","",""
"","S2","","html-keyboard-response","104","116321","0.0-1.0-139.0","0","0","37161","","null","","","null","15","","NaN","","","","","","","","","","","","","",""
"","response","","html-keyboard-response","105","116619","0.0-1.0-140.0-0.0","0","0","37161","","295","","","68","15","","","1","15","training","adjacent","CB","3","2","L.jpg","O.jpg","0","0","1","",""
"","feedback","","html-keyboard-response","106","117624","0.0-1.0-141.0-0.0","0","0","37161","","null","","","null","15","","","","","","","","","","","","","","","",""
"","ITI","","html-keyboard-response","107","118628","0.0-1.0-144.0","0","0","37161","","null","","","null","15","","","","","","","","","","","","","","","NaN",""
"","S1","","html-keyboard-response","108","118882","0.0-1.0-146.0","0","0","37161","","null","","","null","16","","","","","","","","","","","","","","","",""
"","ISI","","html-keyboard-response","109","119885","0.0-1.0-147.0","0","0","37161","","null","","","null","16","NaN","","","","","","","","","","","","","","",""
"","S2","","html-keyboard-response","110","120140","0.0-1.0-148.0","0","0","37161","","null","","","null","16","","NaN","","","","","","","","","","","","","",""
"","response","","html-keyboard-response","111","120528","0.0-1.0-149.0-0.0","0","0","37161","","385","","","68","16","","","1","16","training","adjacent","GF","7","6","R.jpg","P.jpg","0","0","1","",""
"","feedback","","html-keyboard-response","112","121532","0.0-1.0-150.0-0.0","0","0","37161","","null","","","null","16","","","","","","","","","","","","","","","",""
"","ITI","","html-keyboard-response","113","122534","0.0-1.0-153.0","0","0","37161","","null","","","null","16","","","","","","","","","","","","","","","NaN",""
"","S1","","html-keyboard-response","114","122788","0.0-1.0-155.0","0","0","37161","","null","","","null","17","","","","","","","","","","","","","","","",""
"","ISI","","html-keyboard-response","115","123791","0.0-1.0-156.0","0","0","37161","","null","","","null","17","NaN","","","","","","","","","","","","","","",""
"","S2","","html-keyboard-response","116","124046","0.0-1.0-157.0","0","0","37161","","null","","","null","17","","NaN","","","","","","","","","","","","","",""
"","response","","html-keyboard-response","117","124327","0.0-1.0-158.0-0.0","0","0","37161","","278","","","75","17","","","1","17","training","adjacent","DC","4","3","Q.jpg","L.jpg","1","0","0","",""
"","feedback","","html-keyboard-response","118","125331","0.0-1.0-159.0-0.0","0","0","37161","","null","","","null","17","","","","","","","","","","","","","","","",""
"","time_out","","html-keyboard-response","119","127335","0.0-1.0-161.0-0.0","0","0","37161","","null","","","null","17","","","","","","","","","","","","","","","",""
"","ITI","","html-keyboard-response","120","128338","0.0-1.0-162.0","0","0","37161","","null","","","null","17","","","","","","","","","","","","","","","NaN",""
"","S1","","html-keyboard-response","121","128592","0.0-1.0-164.0","0","0","37161","","null","","","null","18","","","","","","","","","","","","","","","",""
"","ISI","","html-keyboard-response","122","129596","0.0-1.0-165.0","0","0","37161","","null","","","null","18","NaN","","","","","","","","","","","","","","",""
"","S2","","html-keyboard-response","123","129851","0.0-1.0-166.0","0","0","37161","","null","","","null","18","","NaN","","","","","","","","","","","","","",""
"","response","","html-keyboard-response","124","130149","0.0-1.0-167.0-0.0","0","0","37161","","294","","","75","18","","","1","18","training","adjacent","FG","6","7","P.jpg","R.jpg","1","1","1","",""
"","feedback","","html-keyboard-response","125","131153","0.0-1.0-168.0-0.0","0","0","37161","","null","","","null","18","","","","","","","","","","","","","","","",""
"","ITI","","html-keyboard-response","126","132158","0.0-1.0-171.0","0","0","37161","","null","","","null","18","","","","","","","","","","","","","","","NaN",""
"","S1","","html-keyboard-response","127","132412","0.0-1.0-173.0","0","0","37161","","null","","","null","19","","","","","","","","","","","","","","","",""
"","ISI","","html-keyboard-response","128","133415","0.0-1.0-174.0","0","0","37161","","null","","","null","19","NaN","","","","","","","","","","","","","","",""
"","S2","","html-keyboard-response","129","133669","0.0-1.0-175.0","0","0","37161","","null","","","null","19","","NaN","","","","","","","","","","","","","",""
"","response","","html-keyboard-response","130","134107","0.0-1.0-176.0-0.0","0","0","37161","","435","","","75","19","","","1","19","training","adjacent","BC","2","3","O.jpg","L.jpg","1","1","1","",""
"","feedback","","html-keyboard-response","131","135111","0.0-1.0-177.0-0.0","0","0","37161","","null","","","null","19","","","","","","","","","","","","","","","",""
"","ITI","","html-keyboard-response","132","136114","0.0-1.0-180.0","0","0","37161","","null","","","null","19","","","","","","","","","","","","","","","NaN",""
"","S1","","html-keyboard-response","133","136368","0.0-1.0-182.0","0","0","37161","","null","","","null","20","","","","","","","","","","","","","","","",""
"","ISI","","html-keyboard-response","134","137371","0.0-1.0-183.0","0","0","37161","","null","","","null","20","NaN","","","","","","","","","","","","","","",""
"","S2","","html-keyboard-response","135","137626","0.0-1.0-184.0","0","0","37161","","null","","","null","20","","NaN","","","","","","","","","","","","","",""
"","response","","html-keyboard-response","136","137993","0.0-1.0-185.0-0.0","0","0","37161","","364","","","68","20","","","1","20","training","adjacent","AB","1","2","M.jpg","O.jpg","0","1","0","",""
"","feedback","","html-keyboard-response","137","138998","0.0-1.0-186.0-0.0","0","0","37161","","null","","","null","20","","","","","","","","","","","","","","","",""
"","time_out","","html-keyboard-response","138","141002","0.0-1.0-188.0-0.0","0","0","37161","","null","","","null","20","","","","","","","","","","","","","","","",""
"","ITI","","html-keyboard-response","139","142006","0.0-1.0-189.0","0","0","37161","","null","","","null","20","","","","","","","","","","","","","","","NaN",""
"","S1","","html-keyboard-response","140","142259","0.0-1.0-191.0","0","0","37161","","null","","","null","21","","","","","","","","","","","","","","","",""
"","ISI","","html-keyboard-response","141","143271","0.0-1.0-192.0","0","0","37161","","null","","","null","21","NaN","","","","","","","","","","","","","","",""
"","S2","","html-keyboard-response","142","143524","0.0-1.0-193.0","0","0","37161","","null","","","null","21","","NaN","","","","","","","","","","","","","",""
"","response","","html-keyboard-response","143","143959","0.0-1.0-194.0-0.0","0","0","37161","","433","","","75","21","","","1","21","training","adjacent","ED","5","4","N.jpg","Q.jpg","1","0","0","",""
"","feedback","","html-keyboard-response","144","144964","0.0-1.0-195.0-0.0","0","0","37161","","null","","","null","21","","","","","","","","","","","","","","","",""
"","time_out","","html-keyboard-response","145","146969","0.0-1.0-197.0-0.0","0","0","37161","","null","","","null","21","","","","","","","","","","","","","","","",""
"","ITI","","html-keyboard-response","146","147973","0.0-1.0-198.0","0","0","37161","","null","","","null","21","","","","","","","","","","","","","","","NaN",""
"","S1","","html-keyboard-response","147","148226","0.0-1.0-200.0","0","0","37161","","null","","","null","22","","","","","","","","","","","","","","","",""
"","ISI","","html-keyboard-response","148","149230","0.0-1.0-201.0","0","0","37161","","null","","","null","22","NaN","","","","","","","","","","","","","","",""
"","S2","","html-keyboard-response","149","149485","0.0-1.0-202.0","0","0","37161","","null","","","null","22","","NaN","","","","","","","","","","","","","",""
"","response","","html-keyboard-response","150","149843","0.0-1.0-203.0-0.0","0","0","37161","","355","","","68","22","","","1","22","training","adjacent","EF","5","6","N.jpg","P.jpg","0","1","0","",""
"","feedback","","html-keyboard-response","151","150847","0.0-1.0-204.0-0.0","0","0","37161","","null","","","null","22","","","","","","","","","","","","","","","",""
"","time_out","","html-keyboard-response","152","152850","0.0-1.0-206.0-0.0","0","0","37161","","null","","","null","22","","","","","","","","","","","","","","","",""
"","ITI","","html-keyboard-response","153","153855","0.0-1.0-207.0","0","0","37161","","null","","","null","22","","","","","","","","","","","","","","","NaN",""
"","S1","","html-keyboard-response","154","154109","0.0-1.0-209.0","0","0","37161","","null","","","null","23","","","","","","","","","","","","","","","",""
"","ISI","","html-keyboard-response","155","155112","0.0-1.0-210.0","0","0","37161","","null","","","null","23","NaN","","","","","","","","","","","","","","",""
"","S2","","html-keyboard-response","156","155366","0.0-1.0-211.0","0","0","37161","","null","","","null","23","","NaN","","","","","","","","","","","","","",""
"","response","","html-keyboard-response","157","155605","0.0-1.0-212.0-0.0","0","0","37161","","236","","","75","23","","","1","23","training","adjacent","FE","6","5","P.jpg","N.jpg","1","0","0","",""
"","feedback","","html-keyboard-response","158","156609","0.0-1.0-213.0-0.0","0","0","37161","","null","","","null","23","","","","","","","","","","","","","","","",""
"","time_out","","html-keyboard-response","159","158613","0.0-1.0-215.0-0.0","0","0","37161","","null","","","null","23","","","","","","","","","","","","","","","",""
"","ITI","","html-keyboard-response","160","159626","0.0-1.0-216.0","0","0","37161","","null","","","null","23","","","","","","","","","","","","","","","NaN",""
"","S1","","html-keyboard-response","161","159881","0.0-1.0-218.0","0","0","37161","","null","","","null","24","","","","","","","","","","","","","","","",""
"","ISI","","html-keyboard-response","162","160884","0.0-1.0-219.0","0","0","37161","","243","","","68","24","d","","","","","","","","","","","","","","",""
"","S2","","html-keyboard-response","163","161139","0.0-1.0-220.0","0","0","37161","","null","","","null","24","","NaN","","","","","","","","","","","","","",""
"","response","","html-keyboard-response","164","161427","0.0-1.0-221.0-0.0","0","0","37161","","285","","","68","24","","","1","24","training","adjacent","BC","2","3","O.jpg","L.jpg","0","1","0","",""
"","feedback","","html-keyboard-response","165","162431","0.0-1.0-222.0-0.0","0","0","37161","","null","","","null","24","","","","","","","","","","","","","","","",""
"","time_out","","html-keyboard-response","166","164434","0.0-1.0-224.0-0.0","0","0","37161","","null","","","null","24","","","","","","","","","","","","","","","",""
"","ITI","","html-keyboard-response","167","165437","0.0-1.0-225.0","0","0","37161","","null","","","null","24","","","","","","","","","","","","","","","NaN",""
"","S1","","html-keyboard-response","168","165691","0.0-1.0-227.0","0","0","37161","","null","","","null","25","","","","","","","","","","","","","","","",""
"","ISI","","html-keyboard-response","169","166694","0.0-1.0-228.0","0","0","37161","","null","","","null","25","NaN","","","","","","","","","","","","","","",""
"","S2","","html-keyboard-response","170","166949","0.0-1.0-229.0","0","0","37161","","null","","","null","25","","NaN","","","","","","","","","","","","","",""
"","response","","html-keyboard-response","171","167599","0.0-1.0-230.0-0.0","0","0","37161","","647","","","75","25","","","1","25","training","adjacent","BA","2","1","O.jpg","M.jpg","1","0","0","",""
"","feedback","","html-keyboard-response","172","168603","0.0-1.0-231.0-0.0","0","0","37161","","null","","","null","25","","","","","","","","","","","","","","","",""
"","time_out","","html-keyboard-response","173","170607","0.0-1.0-233.0-0.0","0","0","37161","","null","","","null","25","","","","","","","","","","","","","","","",""
"","ITI","","html-keyboard-response","174","171611","0.0-1.0-234.0","0","0","37161","","null","","","null","25","","","","","","","","","","","","","","","NaN",""
"","S1","","html-keyboard-response","175","171865","0.0-1.0-236.0","0","0","37161","","null","","","null","26","","","","","","","","","","","","","","","",""
"","ISI","","html-keyboard-response","176","172869","0.0-1.0-237.0","0","0","37161","","null","","","null","26","NaN","","","","","","","","","","","","","","",""
"","S2","","html-keyboard-response","177","173123","0.0-1.0-238.0","0","0","37161","","null","","","null","26","","NaN","","","","","","","","","","","","","",""
"","response","","html-keyboard-response","178","173656","0.0-1.0-239.0-0.0","0","0","37161","","530","","","75","26","","","1","26","training","adjacent","FE","6","5","P.jpg","N.jpg","1","0","0","",""
"","feedback","","html-keyboard-response","179","174660","0.0-1.0-240.0-0.0","0","0","37161","","null","","","null","26","","","","","","","","","","","","","","","",""
"","time_out","","html-keyboard-response","180","176664","0.0-1.0-242.0-0.0","0","0","37161","","null","","","null","26","","","","","","","","","","","","","","","",""
"","ITI","","html-keyboard-response","181","177668","0.0-1.0-243.0","0","0","37161","","null","","","null","26","","","","","","","","","","","","","","","NaN",""
"","S1","","html-keyboard-response","182","177922","0.0-1.0-245.0","0","0","37161","","null","","","null","27","","","","","","","","","","","","","","","",""
"","ISI","","html-keyboard-response","183","178926","0.0-1.0-246.0","0","0","37161","","null","","","null","27","NaN","","","","","","","","","","","","","","",""
"","S2","","html-keyboard-response","184","179180","0.0-1.0-247.0","0","0","37161","","null","","","null","27","","NaN","","","","","","","","","","","","","",""
"","response","","html-keyboard-response","185","179528","0.0-1.0-248.0-0.0","0","0","37161","","345","","","75","27","","","1","27","training","adjacent","DC","4","3","Q.jpg","L.jpg","1","0","0","",""
"","feedback","","html-keyboard-response","186","180533","0.0-1.0-249.0-0.0","0","0","37161","","null","","","null","27","","","","","","","","","","","","","","","",""
"","time_out","","html-keyboard-response","187","182537","0.0-1.0-251.0-0.0","0","0","37161","","null","","","null","27","","","","","","","","","","","","","","","",""
"","ITI","","html-keyboard-response","188","183553","0.0-1.0-252.0","0","0","37161","","null","","","null","27","","","","","","","","","","","","","","","NaN",""
"","S1","","html-keyboard-response","189","183816","0.0-1.0-254.0","0","0","37161","","null","","","null","28","","","","","","","","","","","","","","","",""
"","ISI","","html-keyboard-response","190","184820","0.0-1.0-255.0","0","0","37161","","null","","","null","28","NaN","","","","","","","","","","","","","","",""
"","S2","","html-keyboard-response","191","185075","0.0-1.0-256.0","0","0","37161","","null","","","null","28","","NaN","","","","","","","","","","","","","",""
"","response","","html-keyboard-response","192","185571","0.0-1.0-257.0-0.0","0","0","37161","","495","","","75","28","","","1","28","training","adjacent","EF","5","6","N.jpg","P.jpg","1","1","1","",""
"","feedback","","html-keyboard-response","193","186576","0.0-1.0-258.0-0.0","0","0","37161","","null","","","null","28","","","","","","","","","","","","","","","",""
"","ITI","","html-keyboard-response","194","187579","0.0-1.0-261.0","0","0","37161","","null","","","null","28","","","","","","","","","","","","","","","NaN",""
"","S1","","html-keyboard-response","195","187833","0.0-1.0-263.0","0","0","37161","","null","","","null","29","","","","","","","","","","","","","","","",""
"","ISI","","html-keyboard-response","196","188838","0.0-1.0-264.0","0","0","37161","","null","","","null","29","NaN","","","","","","","","","","","","","","",""
"","S2","","html-keyboard-response","197","189091","0.0-1.0-265.0","0","0","37161","","null","","","null","29","","NaN","","","","","","","","","","","","","",""
"","response","","html-keyboard-response","198","189522","0.0-1.0-266.0-0.0","0","0","37161","","428","","","68","29","","","1","29","training","adjacent","BA","2","1","O.jpg","M.jpg","0","0","1","",""
"","feedback","","html-keyboard-response","199","190526","0.0-1.0-267.0-0.0","0","0","37161","","null","","","null","29","","","","","","","","","","","","","","","",""
"","ITI","","html-keyboard-response","200","191530","0.0-1.0-270.0","0","0","37161","","null","","","null","29","","","","","","","","","","","","","","","NaN",""
"","S1","","html-keyboard-response","201","191784","0.0-1.0-272.0","0","0","37161","","null","","","null","30","","","","","","","","","","","","","","","",""
"","ISI","","html-keyboard-response","202","192786","0.0-1.0-273.0","0","0","37161","","null","","","null","30","NaN","","","","","","","","","","","","","","",""
"","S2","","html-keyboard-response","203","193040","0.0-1.0-274.0","0","0","37161","","null","","","null","30","","NaN","","","","","","","","","","","","","",""
"","response","","html-keyboard-response","204","194502","0.0-1.0-275.0-0.0","0","0","37161","","1458","","","68","30","","","1","30","training","adjacent","FG","6","7","P.jpg","R.jpg","0","1","0","",""
"","feedback","","html-keyboard-response","205","195507","0.0-1.0-276.0-0.0","0","0","37161","","null","","","null","30","","","","","","","","","","","","","","","",""
"","time_out","","html-keyboard-response","206","197511","0.0-1.0-278.0-0.0","0","0","37161","","null","","","null","30","","","","","","","","","","","","","","","",""
"","ITI","","html-keyboard-response","207","198515","0.0-1.0-279.0","0","0","37161","","null","","","null","30","","","","","","","","","","","","","","","NaN",""
"","S1","","html-keyboard-response","208","198769","0.0-1.0-281.0","0","0","37161","","null","","","null","31","","","","","","","","","","","","","","","",""
"","ISI","","html-keyboard-response","209","199773","0.0-1.0-282.0","0","0","37161","","null","","","null","31","NaN","","","","","","","","","","","","","","",""
"","S2","","html-keyboard-response","210","200041","0.0-1.0-283.0","0","0","37161","","null","","","null","31","","NaN","","","","","","","","","","","","","",""
"","response","","html-keyboard-response","211","200219","0.0-1.0-284.0-0.0","0","0","37161","","174","","","68","31","","","1","31","training","adjacent","DE","4","5","Q.jpg","N.jpg","0","1","0","",""
"","feedback","","html-keyboard-response","212","201223","0.0-1.0-285.0-0.0","0","0","37161","","null","","","null","31","","","","","","","","","","","","","","","",""
"","time_out","","html-keyboard-response","213","203226","0.0-1.0-287.0-0.0","0","0","37161","","null","","","null","31","","","","","","","","","","","","","","","",""
"","ITI","","html-keyboard-response","214","204230","0.0-1.0-288.0","0","0","37161","","null","","","null","31","","","","","","","","","","","","","","","NaN",""
"","S1","","html-keyboard-response","215","204484","0.0-1.0-290.0","0","0","37161","","null","","","null","32","","","","","","","","","","","","","","","",""
"","ISI","","html-keyboard-response","216","205488","0.0-1.0-291.0","0","0","37161","","null","","","null","32","NaN","","","","","","","","","","","","","","",""
"","S2","","html-keyboard-response","217","205742","0.0-1.0-292.0","0","0","37161","","null","","","null","32","","NaN","","","","","","","","","","","","","",""
"","response","","html-keyboard-response","218","206028","0.0-1.0-293.0-0.0","0","0","37161","","283","","","75","32","","","1","32","training","adjacent","DE","4","5","Q.jpg","N.jpg","1","1","1","",""
"","feedback","","html-keyboard-response","219","207032","0.0-1.0-294.0-0.0","0","0","37161","","null","","","null","32","","","","","","","","","","","","","","","",""
"","ITI","","html-keyboard-response","220","208036","0.0-1.0-297.0","0","0","37161","","null","","","null","32","","","","","","","","","","","","","","","NaN",""
"","S1","","html-keyboard-response","221","208290","0.0-1.0-299.0","0","0","37161","","null","","","null","33","","","","","","","","","","","","","","","",""
"","ISI","","html-keyboard-response","222","209293","0.0-1.0-300.0","0","0","37161","","null","","","null","33","NaN","","","","","","","","","","","","","","",""
"","S2","","html-keyboard-response","223","209548","0.0-1.0-301.0","0","0","37161","","null","","","null","33","","NaN","","","","","","","","","","","","","",""
"","response","","html-keyboard-response","224","209923","0.0-1.0-302.0-0.0","0","0","37161","","371","","","75","33","","","1","33","training","adjacent","BA","2","1","O.jpg","M.jpg","1","0","0","",""
"","feedback","","html-keyboard-response","225","210927","0.0-1.0-303.0-0.0","0","0","37161","","null","","","null","33","","","","","","","","","","","","","","","",""
"","time_out","","html-keyboard-response","226","212930","0.0-1.0-305.0-0.0","0","0","37161","","null","","","null","33","","","","","","","","","","","","","","","",""
"","ITI","","html-keyboard-response","227","213934","0.0-1.0-306.0","0","0","37161","","null","","","null","33","","","","","","","","","","","","","","","NaN",""
"","S1","","html-keyboard-response","228","214188","0.0-1.0-308.0","0","0","37161","","null","","","null","34","","","","","","","","","","","","","","","",""
"","ISI","","html-keyboard-response","229","215192","0.0-1.0-309.0","0","0","37161","","null","","","null","34","NaN","","","","","","","","","","","","","","",""
"","S2","","html-keyboard-response","230","215447","0.0-1.0-310.0","0","0","37161","","null","","","null","34","","NaN","","","","","","","","","","","","","",""
"","response","","html-keyboard-response","231","215843","0.0-1.0-311.0-0.0","0","0","37161","","393","","","68","34","","","1","34","training","adjacent","CD","3","4","L.jpg","Q.jpg","0","1","0","",""
"","feedback","","html-keyboard-response","232","216848","0.0-1.0-312.0-0.0","0","0","37161","","null","","","null","34","","","","","","","","","","","","","","","",""
"","time_out","","html-keyboard-response","233","218852","0.0-1.0-314.0-0.0","0","0","37161","","null","","","null","34","","","","","","","","","","","","","","","",""
"","ITI","","html-keyboard-response","234","219856","0.0-1.0-315.0","0","0","37161","","null","","","null","34","","","","","","","","","","","","","","","NaN",""
"","S1","","html-keyboard-response","235","220109","0.0-1.0-317.0","0","0","37161","","null","","","null","35","","","","","","","","","","","","","","","",""
"","ISI","","html-keyboard-response","236","221114","0.0-1.0-318.0","0","0","37161","","null","","","null","35","NaN","","","","","","","","","","","","","","",""
"","S2","","html-keyboard-response","237","221367","0.0-1.0-319.0","0","0","37161","","null","","","null","35","","NaN","","","","","","","","","","","","","",""
"","response","","html-keyboard-response","238","221651","0.0-1.0-320.0-0.0","0","0","37161","","281","","","75","35","","","1","35","training","adjacent","EF","5","6","N.jpg","P.jpg","1","1","1","",""
"","feedback","","html-keyboard-response","239","222655","0.0-1.0-321.0-0.0","0","0","37161","","null","","","null","35","","","","","","","","","","","","","","","",""
"","ITI","","html-keyboard-response","240","223659","0.0-1.0-324.0","0","0","37161","","null","","","null","35","","","","","","","","","","","","","","","NaN",""
"","S1","","html-keyboard-response","241","223912","0.0-1.0-326.0","0","0","37161","","null","","","null","36","","","","","","","","","","","","","","","",""
"","ISI","","html-keyboard-response","242","224916","0.0-1.0-327.0","0","0","37161","","null","","","null","36","NaN","","","","","","","","","","","","","","",""
"","S2","","html-keyboard-response","243","225171","0.0-1.0-328.0","0","0","37161","","null","","","null","36","","NaN","","","","","","","","","","","","","",""
"","response","","html-keyboard-response","244","225559","0.0-1.0-329.0-0.0","0","0","37161","","386","","","75","36","","","1","36","training","adjacent","AB","1","2","M.jpg","O.jpg","1","1","1","",""
"","feedback","","html-keyboard-response","245","226562","0.0-1.0-330.0-0.0","0","0","37161","","null","","","null","36","","","","","","","","","","","","","","","",""
"","ITI","","html-keyboard-response","246","227567","0.0-1.0-333.0","0","0","37161","","null","","","null","36","","","","","","","","","","","","","","","NaN",""
"","S1","","html-keyboard-response","247","227820","0.0-1.0-335.0","0","0","37161","","null","","","null","37","","","","","","","","","","","","","","","",""
"","ISI","","html-keyboard-response","248","228824","0.0-1.0-336.0","0","0","37161","","null","","","null","37","NaN","","","","","","","","","","","","","","",""
"","S2","","html-keyboard-response","249","229079","0.0-1.0-337.0","0","0","37161","","null","","","null","37","","NaN","","","","","","","","","","","","","",""
"","response","","html-keyboard-response","250","229393","0.0-1.0-338.0-0.0","0","0","37161","","310","","","68","37","","","1","37","training","adjacent","ED","5","4","N.jpg","Q.jpg","0","0","1","",""
"","feedback","","html-keyboard-response","251","230398","0.0-1.0-339.0-0.0","0","0","37161","","null","","","null","37","","","","","","","","","","","","","","","",""
"","ITI","","html-keyboard-response","252","231402","0.0-1.0-342.0","0","0","37161","","null","","","null","37","","","","","","","","","","","","","","","NaN",""
"","S1","","html-keyboard-response","253","231664","0.0-1.0-344.0","0","0","37161","","null","","","null","38","","","","","","","","","","","","","","","",""
"","ISI","","html-keyboard-response","254","232668","0.0-1.0-345.0","0","0","37161","","null","","","null","38","NaN","","","","","","","","","","","","","","",""
"","S2","","html-keyboard-response","255","232922","0.0-1.0-346.0","0","0","37161","","null","","","null","38","","NaN","","","","","","","","","","","","","",""
"","response","","html-keyboard-response","256","233031","0.0-1.0-347.0-0.0","0","0","37161","","107","","","68","38","","","1","38","training","adjacent","BC","2","3","O.jpg","L.jpg","0","1","0","",""
"","feedback","","html-keyboard-response","257","234036","0.0-1.0-348.0-0.0","0","0","37161","","null","","","null","38","","","","","","","","","","","","","","","",""
"","time_out","","html-keyboard-response","258","236040","0.0-1.0-350.0-0.0","0","0","37161","","null","","","null","38","","","","","","","","","","","","","","","",""
"","ITI","","html-keyboard-response","259","237044","0.0-1.0-351.0","0","0","37161","","null","","","null","38","","","","","","","","","","","","","","","NaN",""
"","S1","","html-keyboard-response","260","237299","0.0-1.0-353.0","0","0","37161","","null","","","null","39","","","","","","","","","","","","","","","",""
"","ISI","","html-keyboard-response","261","238303","0.0-1.0-354.0","0","0","37161","","null","","","null","39","NaN","","","","","","","","","","","","","","",""
"","S2","","html-keyboard-response","262","238566","0.0-1.0-355.0","0","0","37161","","null","","","null","39","","NaN","","","","","","","","","","","","","",""
"","response","","html-keyboard-response","263","238902","0.0-1.0-356.0-0.0","0","0","37161","","333","","","75","39","","","1","39","training","adjacent","CB","3","2","L.jpg","O.jpg","1","0","0","",""
"","feedback","","html-keyboard-response","264","239906","0.0-1.0-357.0-0.0","0","0","37161","","null","","","null","39","","","","","","","","","","","","","","","",""
"","time_out","","html-keyboard-response","265","241911","0.0-1.0-359.0-0.0","0","0","37161","","null","","","null","39","","","","","","","","","","","","","","","",""
"","ITI","","html-keyboard-response","266","242915","0.0-1.0-360.0","0","0","37161","","null","","","null","39","","","","","","","","","","","","","","","NaN",""
"","S1","","html-keyboard-response","267","243170","0.0-1.0-362.0","0","0","37161","","null","","","null","40","","","","","","","","","","","","","","","",""
"","ISI","","html-keyboard-response","268","244174","0.0-1.0-363.0","0","0","37161","","null","","","null","40","NaN","","","","","","","","","","","","","","",""
"","S2","","html-keyboard-response","269","244427","0.0-1.0-364.0","0","0","37161","","null","","","null","40","","NaN","","","","","","","","","","","","","",""
"","response","","html-keyboard-response","270","244992","0.0-1.0-365.0-0.0","0","0","37161","","562","","","68","40","","","1","40","training","adjacent","AB","1","2","M.jpg","O.jpg","0","1","0","",""
"","feedback","","html-keyboard-response","271","245997","0.0-1.0-366.0-0.0","0","0","37161","","null","","","null","40","","","","","","","","","","","","","","","",""
"","time_out","","html-keyboard-response","272","248001","0.0-1.0-368.0-0.0","0","0","37161","","null","","","null","40","","","","","","","","","","","","","","","",""
"","ITI","","html-keyboard-response","273","249005","0.0-1.0-369.0","0","0","37161","","null","","","null","40","","","","","","","","","","","","","","","NaN",""
"","S1","","html-keyboard-response","274","249259","0.0-1.0-371.0","0","0","37161","","null","","","null","41","","","","","","","","","","","","","","","",""
"","ISI","","html-keyboard-response","275","250263","0.0-1.0-372.0","0","0","37161","","null","","","null","41","NaN","","","","","","","","","","","","","","",""
"","S2","","html-keyboard-response","276","250518","0.0-1.0-373.0","0","0","37161","","null","","","null","41","","NaN","","","","","","","","","","","","","",""
"","response","","html-keyboard-response","277","250830","0.0-1.0-374.0-0.0","0","0","37161","","309","","","68","41","","","1","41","training","adjacent","CD","3","4","L.jpg","Q.jpg","0","1","0","",""
"","feedback","","html-keyboard-response","278","251834","0.0-1.0-375.0-0.0","0","0","37161","","null","","","null","41","","","","","","","","","","","","","","","",""
"","time_out","","html-keyboard-response","279","253839","0.0-1.0-377.0-0.0","0","0","37161","","null","","","null","41","","","","","","","","","","","","","","","",""
"","ITI","","html-keyboard-response","280","254842","0.0-1.0-378.0","0","0","37161","","null","","","null","41","","","","","","","","","","","","","","","NaN",""
"","S1","","html-keyboard-response","281","255111","0.0-1.0-380.0","0","0","37161","","null","","","null","42","","","","","","","","","","","","","","","",""
"","ISI","","html-keyboard-response","282","256114","0.0-1.0-381.0","0","0","37161","","null","","","null","42","NaN","","","","","","","","","","","","","","",""
"","S2","","html-keyboard-response","283","256368","0.0-1.0-382.0","0","0","37161","","null","","","null","42","","NaN","","","","","","","","","","","","","",""
"","response","","html-keyboard-response","284","256740","0.0-1.0-383.0-0.0","0","0","37161","","369","","","68","42","","","1","42","training","adjacent","DC","4","3","Q.jpg","L.jpg","0","0","1","",""
"","feedback","","html-keyboard-response","285","257745","0.0-1.0-384.0-0.0","0","0","37161","","null","","","null","42","","","","","","","","","","","","","","","",""
"","ITI","","html-keyboard-response","286","258750","0.0-1.0-387.0","0","0","37161","","null","","","null","42","","","","","","","","","","","","","","","NaN",""
"","S1","","html-keyboard-response","287","259004","0.0-1.0-389.0","0","0","37161","","null","","","null","43","","","","","","","","","","","","","","","",""
"","ISI","","html-keyboard-response","288","260008","0.0-1.0-390.0","0","0","37161","","null","","","null","43","NaN","","","","","","","","","","","","","","",""
"","S2","","html-keyboard-response","289","260262","0.0-1.0-391.0","0","0","37161","","null","","","null","43","","NaN","","","","","","","","","","","","","",""
"","response","","html-keyboard-response","290","260558","0.0-1.0-392.0-0.0","0","0","37161","","293","","","75","43","","","1","43","training","adjacent","FE","6","5","P.jpg","N.jpg","1","0","0","",""
"","feedback","","html-keyboard-response","291","261564","0.0-1.0-393.0-0.0","0","0","37161","","null","","","null","43","","","","","","","","","","","","","","","",""
"","time_out","","html-keyboard-response","292","263568","0.0-1.0-395.0-0.0","0","0","37161","","null","","","null","43","","","","","","","","","","","","","","","",""
"","ITI","","html-keyboard-response","293","264572","0.0-1.0-396.0","0","0","37161","","null","","","null","43","","","","","","","","","","","","","","","NaN",""
"","S1","","html-keyboard-response","294","264827","0.0-1.0-398.0","0","0","37161","","null","","","null","44","","","","","","","","","","","","","","","",""
"","ISI","","html-keyboard-response","295","265830","0.0-1.0-399.0","0","0","37161","","null","","","null","44","NaN","","","","","","","","","","","","","","",""
"","S2","","html-keyboard-response","296","266084","0.0-1.0-400.0","0","0","37161","","null","","","null","44","","NaN","","","","","","","","","","","","","",""
"","response","","html-keyboard-response","297","266400","0.0-1.0-401.0-0.0","0","0","37161","","313","","","68","44","","","1","44","training","adjacent","BA","2","1","O.jpg","M.jpg","0","0","1","",""
"","feedback","","html-keyboard-response","298","267405","0.0-1.0-402.0-0.0","0","0","37161","","null","","","null","44","","","","","","","","","","","","","","","",""
"","ITI","","html-keyboard-response","299","268409","0.0-1.0-405.0","0","0","37161","","null","","","null","44","","","","","","","","","","","","","","","NaN",""
"","S1","","html-keyboard-response","300","268663","0.0-1.0-407.0","0","0","37161","","null","","","null","45","","","","","","","","","","","","","","","",""
"","ISI","","html-keyboard-response","301","269666","0.0-1.0-408.0","0","0","37161","","null","","","null","45","NaN","","","","","","","","","","","","","","",""
"","S2","","html-keyboard-response","302","269921","0.0-1.0-409.0","0","0","37161","","null","","","null","45","","NaN","","","","","","","","","","","","","",""
"","response","","html-keyboard-response","303","270196","0.0-1.0-410.0-0.0","0","0","37161","","272","","","68","45","","","1","45","training","adjacent","CB","3","2","L.jpg","O.jpg","0","0","1","",""
"","feedback","","html-keyboard-response","304","271201","0.0-1.0-411.0-0.0","0","0","37161","","null","","","null","45","","","","","","","","","","","","","","","",""
"","ITI","","html-keyboard-response","305","272204","0.0-1.0-414.0","0","0","37161","","null","","","null","45","","","","","","","","","","","","","","","NaN",""
"","S1","","html-keyboard-response","306","272458","0.0-1.0-416.0","0","0","37161","","null","","","null","46","","","","","","","","","","","","","","","",""
"","ISI","","html-keyboard-response","307","273462","0.0-1.0-417.0","0","0","37161","","null","","","null","46","NaN","","","","","","","","","","","","","","",""
"","S2","","html-keyboard-response","308","273725","0.0-1.0-418.0","0","0","37161","","null","","","null","46","","NaN","","","","","","","","","","","","","",""
"","response","","html-keyboard-response","309","274011","0.0-1.0-419.0-0.0","0","0","37161","","283","","","75","46","","","1","46","training","adjacent","FE","6","5","P.jpg","N.jpg","1","0","0","",""
"","feedback","","html-keyboard-response","310","275016","0.0-1.0-420.0-0.0","0","0","37161","","null","","","null","46","","","","","","","","","","","","","","","",""
"","time_out","","html-keyboard-response","311","277020","0.0-1.0-422.0-0.0","0","0","37161","","null","","","null","46","","","","","","","","","","","","","","","",""
"","ITI","","html-keyboard-response","312","278024","0.0-1.0-423.0","0","0","37161","","null","","","null","46","","","","","","","","","","","","","","","NaN",""
"","S1","","html-keyboard-response","313","278278","0.0-1.0-425.0","0","0","37161","","null","","","null","47","","","","","","","","","","","","","","","",""
"","ISI","","html-keyboard-response","314","279281","0.0-1.0-426.0","0","0","37161","","null","","","null","47","NaN","","","","","","","","","","","","","","",""
"","S2","","html-keyboard-response","315","279535","0.0-1.0-427.0","0","0","37161","","null","","","null","47","","NaN","","","","","","","","","","","","","",""
"","response","","html-keyboard-response","316","279903","0.0-1.0-428.0-0.0","0","0","37161","","365","","","68","47","","","1","47","training","adjacent","ED","5","4","N.jpg","Q.jpg","0","0","1","",""
"","feedback","","html-keyboard-response","317","280907","0.0-1.0-429.0-0.0","0","0","37161","","null","","","null","47","","","","","","","","","","","","","","","",""
"","ITI","","html-keyboard-response","318","281912","0.0-1.0-432.0","0","0","37161","","null","","","null","47","","","","","","","","","","","","","","","NaN",""
"","block_over","","html-keyboard-response","319","284315","0.0-1.0-433.0-0.0","0","0","37161","","2400","","","32","47","","","","","","","","","","","","","","","",""
"","S1","","html-keyboard-response","320","284569","0.0-1.0-434.0","0","0","37161","","null","","","null","48","","","","","","","","","","","","","","","",""
"","ISI","","html-keyboard-response","321","285574","0.0-1.0-435.0","0","0","37161","","null","","","null","48","NaN","","","","","","","","","","","","","","",""
"","S2","","html-keyboard-response","322","285842","0.0-1.0-436.0","0","0","37161","","null","","","null","48","","NaN","","","","","","","","","","","","","",""
"","response","","html-keyboard-response","323","286281","0.0-1.0-437.0-0.0","0","0","37161","","436","","","75","48","","","2","48","training","adjacent","FE","6","5","P.jpg","N.jpg","1","0","0","",""
"","feedback","","html-keyboard-response","324","287286","0.0-1.0-438.0-0.0","0","0","37161","","null","","","null","48","","","","","","","","","","","","","","","",""
"","time_out","","html-keyboard-response","325","289290","0.0-1.0-440.0-0.0","0","0","37161","","null","","","null","48","","","","","","","","","","","","","","","",""
"","ITI","","html-keyboard-response","326","290293","0.0-1.0-441.0","0","0","37161","","null","","","null","48","","","","","","","","","","","","","","","NaN",""
"","S1","","html-keyboard-response","327","290546","0.0-1.0-443.0","0","0","37161","","null","","","null","49","","","","","","","","","","","","","","","",""
"","ISI","","html-keyboard-response","328","291550","0.0-1.0-444.0","0","0","37161","","null","","","null","49","NaN","","","","","","","","","","","","","","",""
"","S2","","html-keyboard-response","329","291804","0.0-1.0-445.0","0","0","37161","","null","","","null","49","","NaN","","","","","","","","","","","","","",""
"","response","","html-keyboard-response","330","292151","0.0-1.0-446.0-0.0","0","0","37161","","345","","","68","49","","","2","49","training","adjacent","FE","6","5","P.jpg","N.jpg","0","0","1","",""
"","feedback","","html-keyboard-response","331","293154","0.0-1.0-447.0-0.0","0","0","37161","","null","","","null","49","","","","","","","","","","","","","","","",""
"","ITI","","html-keyboard-response","332","294158","0.0-1.0-450.0","0","0","37161","","null","","","null","49","","","","","","","","","","","","","","","NaN",""
"","S1","","html-keyboard-response","333","294412","0.0-1.0-452.0","0","0","37161","","null","","","null","50","","","","","","","","","","","","","","","",""
"","ISI","","html-keyboard-response","334","295416","0.0-1.0-453.0","0","0","37161","","null","","","null","50","NaN","","","","","","","","","","","","","","",""
"","S2","","html-keyboard-response","335","295670","0.0-1.0-454.0","0","0","37161","","null","","","null","50","","NaN","","","","","","","","","","","","","",""
"","response","","html-keyboard-response","336","295975","0.0-1.0-455.0-0.0","0","0","37161","","302","","","68","50","","","2","50","training","adjacent","BA","2","1","O.jpg","M.jpg","0","0","1","",""
"","feedback","","html-keyboard-response","337","296980","0.0-1.0-456.0-0.0","0","0","37161","","null","","","null","50","","","","","","","","","","","","","","","",""
"","ITI","","html-keyboard-response","338","297983","0.0-1.0-459.0","0","0","37161","","null","","","null","50","","","","","","","","","","","","","","","NaN",""
"","S1","","html-keyboard-response","339","298237","0.0-1.0-461.0","0","0","37161","","null","","","null","51","","","","","","","","","","","","","","","",""
"","ISI","","html-keyboard-response","340","299241","0.0-1.0-462.0","0","0","37161","","null","","","null","51","NaN","","","","","","","","","","","","","","",""
"","S2","","html-keyboard-response","341","299495","0.0-1.0-463.0","0","0","37161","","null","","","null","51","","NaN","","","","","","","","","","","","","",""
"","response","","html-keyboard-response","342","299796","0.0-1.0-464.0-0.0","0","0","37161","","298","","","75","51","","","2","51","training","adjacent","GF","7","6","R.jpg","P.jpg","1","0","0","",""
"","feedback","","html-keyboard-response","343","300800","0.0-1.0-465.0-0.0","0","0","37161","","null","","","null","51","","","","","","","","","","","","","","","",""
"","time_out","","html-keyboard-response","344","302804","0.0-1.0-467.0-0.0","0","0","37161","","null","","","null","51","","","","","","","","","","","","","","","",""
"","ITI","","html-keyboard-response","345","303808","0.0-1.0-468.0","0","0","37161","","null","","","null","51","","","","","","","","","","","","","","","NaN",""
"","S1","","html-keyboard-response","346","304063","0.0-1.0-470.0","0","0","37161","","null","","","null","52","","","","","","","","","","","","","","","",""
"","ISI","","html-keyboard-response","347","305067","0.0-1.0-471.0","0","0","37161","","null","","","null","52","NaN","","","","","","","","","","","","","","",""
"","S2","","html-keyboard-response","348","305323","0.0-1.0-472.0","0","0","37161","","null","","","null","52","","NaN","","","","","","","","","","","","","",""
"","response","","html-keyboard-response","349","305590","0.0-1.0-473.0-0.0","0","0","37161","","264","","","68","52","","","2","52","training","adjacent","DC","4","3","Q.jpg","L.jpg","0","0","1","",""
"","feedback","","html-keyboard-response","350","306594","0.0-1.0-474.0-0.0","0","0","37161","","null","","","null","52","","","","","","","","","","","","","","","",""
"","ITI","","html-keyboard-response","351","307597","0.0-1.0-477.0","0","0","37161","","null","","","null","52","","","","","","","","","","","","","","","NaN",""
"","S1","","html-keyboard-response","352","307851","0.0-1.0-479.0","0","0","37161","","null","","","null","53","","","","","","","","","","","","","","","",""
"","ISI","","html-keyboard-response","353","308854","0.0-1.0-480.0","0","0","37161","","null","","","null","53","NaN","","","","","","","","","","","","","","",""
"","S2","","html-keyboard-response","354","309107","0.0-1.0-481.0","0","0","37161","","null","","","null","53","","NaN","","","","","","","","","","","","","",""
"","response","","html-keyboard-response","355","309411","0.0-1.0-482.0-0.0","0","0","37161","","303","","","68","53","","","2","53","training","adjacent","FE","6","5","P.jpg","N.jpg","0","0","1","",""
"","feedback","","html-keyboard-response","356","310416","0.0-1.0-483.0-0.0","0","0","37161","","null","","","null","53","","","","","","","","","","","","","","","",""
"","ITI","","html-keyboard-response","357","311421","0.0-1.0-486.0","0","0","37161","","null","","","null","53","","","","","","","","","","","","","","","NaN",""
"","S1","","html-keyboard-response","358","311675","0.0-1.0-488.0","0","0","37161","","null","","","null","54","","","","","","","","","","","","","","","",""
"","ISI","","html-keyboard-response","359","312679","0.0-1.0-489.0","0","0","37161","","null","","","null","54","NaN","","","","","","","","","","","","","","",""
"","S2","","html-keyboard-response","360","312933","0.0-1.0-490.0","0","0","37161","","null","","","null","54","","NaN","","","","","","","","","","","","","",""
"","response","","html-keyboard-response","361","313043","0.0-1.0-491.0-0.0","0","0","37161","","106","","","68","54","","","2","54","training","adjacent","DE","4","5","Q.jpg","N.jpg","0","1","0","",""
"","feedback","","html-keyboard-response","362","314046","0.0-1.0-492.0-0.0","0","0","37161","","null","","","null","54","","","","","","","","","","","","","","","",""
"","time_out","","html-keyboard-response","363","316050","0.0-1.0-494.0-0.0","0","0","37161","","null","","","null","54","","","","","","","","","","","","","","","",""
"","ITI","","html-keyboard-response","364","317054","0.0-1.0-495.0","0","0","37161","","null","","","null","54","","","","","","","","","","","","","","","NaN",""
"","S1","","html-keyboard-response","365","317307","0.0-1.0-497.0","0","0","37161","","null","","","null","55","","","","","","","","","","","","","","","",""
"","ISI","","html-keyboard-response","366","318311","0.0-1.0-498.0","0","0","37161","","null","","","null","55","NaN","","","","","","","","","","","","","","",""
"","S2","","html-keyboard-response","367","318565","0.0-1.0-499.0","0","0","37161","","null","","","null","55","","NaN","","","","","","","","","","","","","",""
"","response","","html-keyboard-response","368","318975","0.0-1.0-500.0-0.0","0","0","37161","","407","","","75","55","","","2","55","training","adjacent","BA","2","1","O.jpg","M.jpg","1","0","0","",""
"","feedback","","html-keyboard-response","369","319980","0.0-1.0-501.0-0.0","0","0","37161","","null","","","null","55","","","","","","","","","","","","","","","",""
"","time_out","","html-keyboard-response","370","321984","0.0-1.0-503.0-0.0","0","0","37161","","null","","","null","55","","","","","","","","","","","","","","","",""
"","ITI","","html-keyboard-response","371","322988","0.0-1.0-504.0","0","0","37161","","null","","","null","55","","","","","","","","","","","","","","","NaN",""
"","S1","","html-keyboard-response","372","323243","0.0-1.0-506.0","0","0","37161","","null","","","null","56","","","","","","","","","","","","","","","",""
"","ISI","","html-keyboard-response","373","324247","0.0-1.0-507.0","0","0","37161","","null","","","null","56","NaN","","","","","","","","","","","","","","",""
"","S2","","html-keyboard-response","374","324502","0.0-1.0-508.0","0","0","37161","","null","","","null","56","","NaN","","","","","","","","","","","","","",""
"","response","","html-keyboard-response","375","324986","0.0-1.0-509.0-0.0","0","0","37161","","481","","","75","56","","","2","56","training","adjacent","ED","5","4","N.jpg","Q.jpg","1","0","0","",""
"","feedback","","html-keyboard-response","376","325989","0.0-1.0-510.0-0.0","0","0","37161","","null","","","null","56","","","","","","","","","","","","","","","",""
"","time_out","","html-keyboard-response","377","327994","0.0-1.0-512.0-0.0","0","0","37161","","null","","","null","56","","","","","","","","","","","","","","","",""
"","ITI","","html-keyboard-response","378","328999","0.0-1.0-513.0","0","0","37161","","null","","","null","56","","","","","","","","","","","","","","","NaN",""
"","S1","","html-keyboard-response","379","329253","0.0-1.0-515.0","0","0","37161","","null","","","null","57","","","","","","","","","","","","","","","",""
"","ISI","","html-keyboard-response","380","330256","0.0-1.0-516.0","0","0","37161","","null","","","null","57","NaN","","","","","","","","","","","","","","",""
"","S2","","html-keyboard-response","381","330510","0.0-1.0-517.0","0","0","37161","","null","","","null","57","","NaN","","","","","","","","","","","","","",""
"","response","","html-keyboard-response","382","331112","0.0-1.0-518.0-0.0","0","0","37161","","599","","","68","57","","","2","57","training","adjacent","DC","4","3","Q.jpg","L.jpg","0","0","1","",""
"","feedback","","html-keyboard-response","383","332116","0.0-1.0-519.0-0.0","0","0","37161","","null","","","null","57","","","","","","","","","","","","","","","",""
"","ITI","","html-keyboard-response","384","333130","0.0-1.0-522.0","0","0","37161","","null","","","null","57","","","","","","","","","","","","","","","NaN",""
"","S1","","html-keyboard-response","385","333385","0.0-1.0-524.0","0","0","37161","","null","","","null","58","","","","","","","","","","","","","","","",""
"","ISI","","html-keyboard-response","386","334388","0.0-1.0-525.0","0","0","37161","","null","","","null","58","NaN","","","","","","","","","","","","","","",""
"","S2","","html-keyboard-response","387","334641","0.0-1.0-526.0","0","0","37161","","null","","","null","58","","NaN","","","","","","","","","","","","","",""
"","response","","html-keyboard-response","388","334988","0.0-1.0-527.0-0.0","0","0","37161","","344","","","68","58","","","2","58","training","adjacent","DC","4","3","Q.jpg","L.jpg","0","0","1","",""
"","feedback","","html-keyboard-response","389","335993","0.0-1.0-528.0-0.0","0","0","37161","","null","","","null","58","","","","","","","","","","","","","","","",""
"","ITI","","html-keyboard-response","390","337008","0.0-1.0-531.0","0","0","37161","","null","","","null","58","","","","","","","","","","","","","","","NaN",""
"","S1","","html-keyboard-response","391","337263","0.0-1.0-533.0","0","0","37161","","null","","","null","59","","","","","","","","","","","","","","","",""
"","ISI","","html-keyboard-response","392","338268","0.0-1.0-534.0","0","0","37161","","null","","","null","59","NaN","","","","","","","","","","","","","","",""
"","S2","","html-keyboard-response","393","338522","0.0-1.0-535.0","0","0","37161","","null","","","null","59","","NaN","","","","","","","","","","","","","",""
"","response","","html-keyboard-response","394","338803","0.0-1.0-536.0-0.0","0","0","37161","","278","","","68","59","","","2","59","training","adjacent","DE","4","5","Q.jpg","N.jpg","0","1","0","",""
"","feedback","","html-keyboard-response","395","339806","0.0-1.0-537.0-0.0","0","0","37161","","null","","","null","59","","","","","","","","","","","","","","","",""
"","time_out","","html-keyboard-response","396","341810","0.0-1.0-539.0-0.0","0","0","37161","","null","","","null","59","","","","","","","","","","","","","","","",""
"","ITI","","html-keyboard-response","397","342814","0.0-1.0-540.0","0","0","37161","","null","","","null","59","","","","","","","","","","","","","","","NaN",""
"","S1","","html-keyboard-response","398","343069","0.0-1.0-542.0","0","0","37161","","null","","","null","60","","","","","","","","","","","","","","","",""
"","ISI","","html-keyboard-response","399","344074","0.0-1.0-543.0","0","0","37161","","null","","","null","60","NaN","","","","","","","","","","","","","","",""
"","S2","","html-keyboard-response","400","344328","0.0-1.0-544.0","0","0","37161","","null","","","null","60","","NaN","","","","","","","","","","","","","",""
"","response","","html-keyboard-response","401","344677","0.0-1.0-545.0-0.0","0","0","37161","","346","","","75","60","","","2","60","training","adjacent","AB","1","2","M.jpg","O.jpg","1","1","1","",""
"","feedback","","html-keyboard-response","402","345682","0.0-1.0-546.0-0.0","0","0","37161","","null","","","null","60","","","","","","","","","","","","","","","",""
"","ITI","","html-keyboard-response","403","346687","0.0-1.0-549.0","0","0","37161","","null","","","null","60","","","","","","","","","","","","","","","NaN",""
"","S1","","html-keyboard-response","404","346941","0.0-1.0-551.0","0","0","37161","","null","","","null","61","","","","","","","","","","","","","","","",""
"","ISI","","html-keyboard-response","405","347945","0.0-1.0-552.0","0","0","37161","","null","","","null","61","NaN","","","","","","","","","","","","","","",""
"","S2","","html-keyboard-response","406","348199","0.0-1.0-553.0","0","0","37161","","null","","","null","61","","NaN","","","","","","","","","","","","","",""
"","response","","html-keyboard-response","407","348615","0.0-1.0-554.0-0.0","0","0","37161","","413","","","75","61","","","2","61","training","adjacent","EF","5","6","N.jpg","P.jpg","1","1","1","",""
"","feedback","","html-keyboard-response","408","349619","0.0-1.0-555.0-0.0","0","0","37161","","null","","","null","61","","","","","","","","","","","","","","","",""
"","ITI","","html-keyboard-response","409","350623","0.0-1.0-558.0","0","0","37161","","null","","","null","61","","","","","","","","","","","","","","","NaN",""
"","S1","","html-keyboard-response","410","350877","0.0-1.0-560.0","0","0","37161","","null","","","null","62","","","","","","","","","","","","","","","",""
"","ISI","","html-keyboard-response","411","351880","0.0-1.0-561.0","0","0","37161","","null","","","null","62","NaN","","","","","","","","","","","","","","",""
"","S2","","html-keyboard-response","412","352135","0.0-1.0-562.0","0","0","37161","","null","","","null","62","","NaN","","","","","","","","","","","","","",""
"","response","","html-keyboard-response","413","352508","0.0-1.0-563.0-0.0","0","0","37161","","370","","","68","62","","","2","62","training","adjacent","CD","3","4","L.jpg","Q.jpg","0","1","0","",""
"","feedback","","html-keyboard-response","414","353512","0.0-1.0-564.0-0.0","0","0","37161","","null","","","null","62","","","","","","","","","","","","","","","",""
"","time_out","","html-keyboard-response","415","355516","0.0-1.0-566.0-0.0","0","0","37161","","null","","","null","62","","","","","","","","","","","","","","","",""
"","ITI","","html-keyboard-response","416","356520","0.0-1.0-567.0","0","0","37161","","null","","","null","62","","","","","","","","","","","","","","","NaN",""
"","S1","","html-keyboard-response","417","356773","0.0-1.0-569.0","0","0","37161","","null","","","null","63","","","","","","","","","","","","","","","",""
"","ISI","","html-keyboard-response","418","357777","0.0-1.0-570.0","0","0","37161","","null","","","null","63","NaN","","","","","","","","","","","","","","",""
"","S2","","html-keyboard-response","419","358031","0.0-1.0-571.0","0","0","37161","","null","","","null","63","","NaN","","","","","","","","","","","","","",""
"","response","","html-keyboard-response","420","358233","0.0-1.0-572.0-0.0","0","0","37161","","199","","","75","63","","","2","63","training","adjacent","FG","6","7","P.jpg","R.jpg","1","1","1","",""
"","feedback","","html-keyboard-response","421","359237","0.0-1.0-573.0-0.0","0","0","37161","","null","","","null","63","","","","","","","","","","","","","","","",""
"","ITI","","html-keyboard-response","422","360241","0.0-1.0-576.0","0","0","37161","","null","","","null","63","","","","","","","","","","","","","","","NaN",""
"","S1","","html-keyboard-response","423","360496","0.0-1.0-578.0","0","0","37161","","null","","","null","64","","","","","","","","","","","","","","","",""
"","ISI","","html-keyboard-response","424","361500","0.0-1.0-579.0","0","0","37161","","null","","","null","64","NaN","","","","","","","","","","","","","","",""
"","S2","","html-keyboard-response","425","361755","0.0-1.0-580.0","0","0","37161","","null","","","null","64","","NaN","","","","","","","","","","","","","",""
"","response","","html-keyboard-response","426","361892","0.0-1.0-581.0-0.0","0","0","37161","","135","","","75","64","","","2","64","training","adjacent","EF","5","6","N.jpg","P.jpg","1","1","1","",""
"","feedback","","html-keyboard-response","427","362897","0.0-1.0-582.0-0.0","0","0","37161","","null","","","null","64","","","","","","","","","","","","","","","",""
"","ITI","","html-keyboard-response","428","363901","0.0-1.0-585.0","0","0","37161","","null","","","null","64","","","","","","","","","","","","","","","NaN",""
"","S1","","html-keyboard-response","429","364155","0.0-1.0-587.0","0","0","37161","","null","","","null","65","","","","","","","","","","","","","","","",""
"","ISI","","html-keyboard-response","430","365159","0.0-1.0-588.0","0","0","37161","","null","","","null","65","NaN","","","","","","","","","","","","","","",""
"","S2","","html-keyboard-response","431","365413","0.0-1.0-589.0","0","0","37161","","null","","","null","65","","NaN","","","","","","","","","","","","","",""
"","response","","html-keyboard-response","432","365753","0.0-1.0-590.0-0.0","0","0","37161","","338","","","68","65","","","2","65","training","adjacent","EF","5","6","N.jpg","P.jpg","0","1","0","",""
"","feedback","","html-keyboard-response","433","366758","0.0-1.0-591.0-0.0","0","0","37161","","null","","","null","65","","","","","","","","","","","","","","","",""
"","time_out","","html-keyboard-response","434","368761","0.0-1.0-593.0-0.0","0","0","37161","","null","","","null","65","","","","","","","","","","","","","","","",""
"","ITI","","html-keyboard-response","435","369765","0.0-1.0-594.0","0","0","37161","","null","","","null","65","","","","","","","","","","","","","","","NaN",""
"","S1","","html-keyboard-response","436","370020","0.0-1.0-596.0","0","0","37161","","null","","","null","66","","","","","","","","","","","","","","","",""
"","ISI","","html-keyboard-response","437","371024","0.0-1.0-597.0","0","0","37161","","null","","","null","66","NaN","","","","","","","","","","","","","","",""
"","S2","","html-keyboard-response","438","371278","0.0-1.0-598.0","0","0","37161","","null","","","null","66","","NaN","","","","","","","","","","","","","",""
"","response","","html-keyboard-response","439","371779","0.0-1.0-599.0-0.0","0","0","37161","","499","","","75","66","","","2","66","training","adjacent","CD","3","4","L.jpg","Q.jpg","1","1","1","",""
"","feedback","","html-keyboard-response","440","372783","0.0-1.0-600.0-0.0","0","0","37161","","null","","","null","66","","","","","","","","","","","","","","","",""
"","ITI","","html-keyboard-response","441","373787","0.0-1.0-603.0","0","0","37161","","null","","","null","66","","","","","","","","","","","","","","","NaN",""
"","S1","","html-keyboard-response","442","374041","0.0-1.0-605.0","0","0","37161","","null","","","null","67","","","","","","","","","","","","","","","",""
"","ISI","","html-keyboard-response","443","375045","0.0-1.0-606.0","0","0","37161","","null","","","null","67","NaN","","","","","","","","","","","","","","",""
"","S2","","html-keyboard-response","444","375299","0.0-1.0-607.0","0","0","37161","","null","","","null","67","","NaN","","","","","","","","","","","","","",""
"","response","","html-keyboard-response","445","375552","0.0-1.0-608.0-0.0","0","0","37161","","250","","","75","67","","","2","67","training","adjacent","BC","2","3","O.jpg","L.jpg","1","1","1","",""
"","feedback","","html-keyboard-response","446","376556","0.0-1.0-609.0-0.0","0","0","37161","","null","","","null","67","","","","","","","","","","","","","","","",""
"","ITI","","html-keyboard-response","447","377560","0.0-1.0-612.0","0","0","37161","","null","","","null","67","","","","","","","","","","","","","","","NaN",""
"","S1","","html-keyboard-response","448","377815","0.0-1.0-614.0","0","0","37161","","null","","","null","68","","","","","","","","","","","","","","","",""
"","ISI","","html-keyboard-response","449","378819","0.0-1.0-615.0","0","0","37161","","null","","","null","68","NaN","","","","","","","","","","","","","","",""
"","S2","","html-keyboard-response","450","379073","0.0-1.0-616.0","0","0","37161","","null","","","null","68","","NaN","","","","","","","","","","","","","",""
"","response","","html-keyboard-response","451","379334","0.0-1.0-617.0-0.0","0","0","37161","","258","","","68","68","","","2","68","training","adjacent","BA","2","1","O.jpg","M.jpg","0","0","1","",""
"","feedback","","html-keyboard-response","452","380338","0.0-1.0-618.0-0.0","0","0","37161","","null","","","null","68","","","","","","","","","","","","","","","",""
"","ITI","","html-keyboard-response","453","381342","0.0-1.0-621.0","0","0","37161","","null","","","null","68","","","","","","","","","","","","","","","NaN",""
"","S1","","html-keyboard-response","454","381598","0.0-1.0-623.0","0","0","37161","","null","","","null","69","","","","","","","","","","","","","","","",""
"","ISI","","html-keyboard-response","455","382601","0.0-1.0-624.0","0","0","37161","","null","","","null","69","NaN","","","","","","","","","","","","","","",""
"","S2","","html-keyboard-response","456","382864","0.0-1.0-625.0","0","0","37161","","null","","","null","69","","NaN","","","","","","","","","","","","","",""
"","response","","html-keyboard-response","457","383189","0.0-1.0-626.0-0.0","0","0","37161","","322","","","75","69","","","2","69","training","adjacent","BA","2","1","O.jpg","M.jpg","1","0","0","",""
"","feedback","","html-keyboard-response","458","384193","0.0-1.0-627.0-0.0","0","0","37161","","null","","","null","69","","","","","","","","","","","","","","","",""
"","time_out","","html-keyboard-response","459","386197","0.0-1.0-629.0-0.0","0","0","37161","","null","","","null","69","","","","","","","","","","","","","","","",""
"","ITI","","html-keyboard-response","460","387201","0.0-1.0-630.0","0","0","37161","","null","","","null","69","","","","","","","","","","","","","","","NaN",""
"","S1","","html-keyboard-response","461","387455","0.0-1.0-632.0","0","0","37161","","null","","","null","70","","","","","","","","","","","","","","","",""
"","ISI","","html-keyboard-response","462","388465","0.0-1.0-633.0","0","0","37161","","null","","","null","70","NaN","","","","","","","","","","","","","","",""
"","S2","","html-keyboard-response","463","388719","0.0-1.0-634.0","0","0","37161","","null","","","null","70","","NaN","","","","","","","","","","","","","",""
"","response","","html-keyboard-response","464","389058","0.0-1.0-635.0-0.0","0","0","37161","","336","","","68","70","","","2","70","training","adjacent","CB","3","2","L.jpg","O.jpg","0","0","1","",""
"","feedback","","html-keyboard-response","465","390062","0.0-1.0-636.0-0.0","0","0","37161","","null","","","null","70","","","","","","","","","","","","","","","",""
"","ITI","","html-keyboard-response","466","391067","0.0-1.0-639.0","0","0","37161","","null","","","null","70","","","","","","","","","","","","","","","NaN",""
"","S1","","html-keyboard-response","467","391321","0.0-1.0-641.0","0","0","37161","","null","","","null","71","","","","","","","","","","","","","","","",""
"","ISI","","html-keyboard-response","468","392326","0.0-1.0-642.0","0","0","37161","","null","","","null","71","NaN","","","","","","","","","","","","","","",""
"","S2","","html-keyboard-response","469","392581","0.0-1.0-643.0","0","0","37161","","null","","","null","71","","NaN","","","","","","","","","","","","","",""
"","response","","html-keyboard-response","470","393102","0.0-1.0-644.0-0.0","0","0","37161","","518","","","68","71","","","2","71","training","adjacent","CD","3","4","L.jpg","Q.jpg","0","1","0","",""
"","feedback","","html-keyboard-response","471","394107","0.0-1.0-645.0-0.0","0","0","37161","","null","","","null","71","","","","","","","","","","","","","","","",""
"","time_out","","html-keyboard-response","472","396112","0.0-1.0-647.0-0.0","0","0","37161","","null","","","null","71","","","","","","","","","","","","","","","",""
"","ITI","","html-keyboard-response","473","397115","0.0-1.0-648.0","0","0","37161","","null","","","null","71","","","","","","","","","","","","","","","NaN",""
"","S1","","html-keyboard-response","474","397369","0.0-1.0-650.0","0","0","37161","","null","","","null","72","","","","","","","","","","","","","","","",""
"","ISI","","html-keyboard-response","475","398374","0.0-1.0-651.0","0","0","37161","","294","","","75","72","k","","","","","","","","","","","","","","",""
"","S2","","html-keyboard-response","476","398629","0.0-1.0-652.0","0","0","37161","","null","","","null","72","","NaN","","","","","","","","","","","","","",""
"","response","","html-keyboard-response","477","398749","0.0-1.0-653.0-0.0","0","0","37161","","117","","","75","72","","","2","72","training","adjacent","AB","1","2","M.jpg","O.jpg","1","1","1","",""
"","feedback","","html-keyboard-response","478","399752","0.0-1.0-654.0-0.0","0","0","37161","","null","","","null","72","","","","","","","","","","","","","","","",""
"","ITI","","html-keyboard-response","479","400755","0.0-1.0-657.0","0","0","37161","","null","","","null","72","","","","","","","","","","","","","","","NaN",""
"","S1","","html-keyboard-response","480","401009","0.0-1.0-659.0","0","0","37161","","null","","","null","73","","","","","","","","","","","","","","","",""
"","ISI","","html-keyboard-response","481","402013","0.0-1.0-660.0","0","0","37161","","null","","","null","73","NaN","","","","","","","","","","","","","","",""
"","S2","","html-keyboard-response","482","402267","0.0-1.0-661.0","0","0","37161","","null","","","null","73","","NaN","","","","","","","","","","","","","",""
"","response","","html-keyboard-response","483","402827","0.0-1.0-662.0-0.0","0","0","37161","","559","","","75","73","","","2","73","training","adjacent","BC","2","3","O.jpg","L.jpg","1","1","1","",""
"","feedback","","html-keyboard-response","484","403832","0.0-1.0-663.0-0.0","0","0","37161","","null","","","null","73","","","","","","","","","","","","","","","",""
"","ITI","","html-keyboard-response","485","404838","0.0-1.0-666.0","0","0","37161","","null","","","null","73","","","","","","","","","","","","","","","NaN",""
"","S1","","html-keyboard-response","486","405092","0.0-1.0-668.0","0","0","37161","","null","","","null","74","","","","","","","","","","","","","","","",""
"","ISI","","html-keyboard-response","487","406096","0.0-1.0-669.0","0","0","37161","","null","","","null","74","NaN","","","","","","","","","","","","","","",""
"","S2","","html-keyboard-response","488","406350","0.0-1.0-670.0","0","0","37161","","null","","","null","74","","NaN","","","","","","","","","","","","","",""
"","response","","html-keyboard-response","489","406663","0.0-1.0-671.0-0.0","0","0","37161","","310","","","68","74","","","2","74","training","adjacent","CD","3","4","L.jpg","Q.jpg","0","1","0","",""
"","feedback","","html-keyboard-response","490","407674","0.0-1.0-672.0-0.0","0","0","37161","","null","","","null","74","","","","","","","","","","","","","","","",""
"","time_out","","html-keyboard-response","491","409679","0.0-1.0-674.0-0.0","0","0","37161","","null","","","null","74","","","","","","","","","","","","","","","",""
"","ITI","","html-keyboard-response","492","410683","0.0-1.0-675.0","0","0","37161","","null","","","null","74","","","","","","","","","","","","","","","NaN",""
"","S1","","html-keyboard-response","493","410938","0.0-1.0-677.0","0","0","37161","","null","","","null","75","","","","","","","","","","","","","","","",""
"","ISI","","html-keyboard-response","494","411941","0.0-1.0-678.0","0","0","37161","","null","","","null","75","NaN","","","","","","","","","","","","","","",""
"","S2","","html-keyboard-response","495","412195","0.0-1.0-679.0","0","0","37161","","null","","","null","75","","NaN","","","","","","","","","","","","","",""
"","response","","html-keyboard-response","496","412541","0.0-1.0-680.0-0.0","0","0","37161","","343","","","75","75","","","2","75","training","adjacent","AB","1","2","M.jpg","O.jpg","1","1","1","",""
"","feedback","","html-keyboard-response","497","413545","0.0-1.0-681.0-0.0","0","0","37161","","null","","","null","75","","","","","","","","","","","","","","","",""
"","ITI","","html-keyboard-response","498","414550","0.0-1.0-684.0","0","0","37161","","null","","","null","75","","","","","","","","","","","","","","","NaN",""
"","S1","","html-keyboard-response","499","414803","0.0-1.0-686.0","0","0","37161","","null","","","null","76","","","","","","","","","","","","","","","",""
"","ISI","","html-keyboard-response","500","415808","0.0-1.0-687.0","0","0","37161","","null","","","null","76","NaN","","","","","","","","","","","","","","",""
"","S2","","html-keyboard-response","501","416063","0.0-1.0-688.0","0","0","37161","","null","","","null","76","","NaN","","","","","","","","","","","","","",""
"","response","","html-keyboard-response","502","416379","0.0-1.0-689.0-0.0","0","0","37161","","314","","","68","76","","","2","76","training","adjacent","DE","4","5","Q.jpg","N.jpg","0","1","0","",""
"","feedback","","html-keyboard-response","503","417383","0.0-1.0-690.0-0.0","0","0","37161","","null","","","null","76","","","","","","","","","","","","","","","",""
"","time_out","","html-keyboard-response","504","419386","0.0-1.0-692.0-0.0","0","0","37161","","null","","","null","76","","","","","","","","","","","","","","","",""
"","ITI","","html-keyboard-response","505","420391","0.0-1.0-693.0","0","0","37161","","null","","","null","76","","","","","","","","","","","","","","","NaN",""
"","S1","","html-keyboard-response","506","420645","0.0-1.0-695.0","0","0","37161","","null","","","null","77","","","","","","","","","","","","","","","",""
"","ISI","","html-keyboard-response","507","421649","0.0-1.0-696.0","0","0","37161","","null","","","null","77","NaN","","","","","","","","","","","","","","",""
"","S2","","html-keyboard-response","508","421904","0.0-1.0-697.0","0","0","37161","","null","","","null","77","","NaN","","","","","","","","","","","","","",""
"","response","","html-keyboard-response","509","422301","0.0-1.0-698.0-0.0","0","0","37161","","393","","","75","77","","","2","77","training","adjacent","BC","2","3","O.jpg","L.jpg","1","1","1","",""
"","feedback","","html-keyboard-response","510","423306","0.0-1.0-699.0-0.0","0","0","37161","","null","","","null","77","","","","","","","","","","","","","","","",""
"","ITI","","html-keyboard-response","511","424311","0.0-1.0-702.0","0","0","37161","","null","","","null","77","","","","","","","","","","","","","","","NaN",""
"","S1","","html-keyboard-response","512","424565","0.0-1.0-704.0","0","0","37161","","null","","","null","78","","","","","","","","","","","","","","","",""
"","ISI","","html-keyboard-response","513","425569","0.0-1.0-705.0","0","0","37161","","null","","","null","78","NaN","","","","","","","","","","","","","","",""
"","S2","","html-keyboard-response","514","425825","0.0-1.0-706.0","0","0","37161","","null","","","null","78","","NaN","","","","","","","","","","","","","",""
"","response","","html-keyboard-response","515","426513","0.0-1.0-707.0-0.0","0","0","37161","","684","","","68","78","","","2","78","training","adjacent","FE","6","5","P.jpg","N.jpg","0","0","1","",""
"","feedback","","html-keyboard-response","516","427517","0.0-1.0-708.0-0.0","0","0","37161","","null","","","null","78","","","","","","","","","","","","","","","",""
"","ITI","","html-keyboard-response","517","428520","0.0-1.0-711.0","0","0","37161","","null","","","null","78","","","","","","","","","","","","","","","NaN",""
"","S1","","html-keyboard-response","518","428773","0.0-1.0-713.0","0","0","37161","","null","","","null","79","","","","","","","","","","","","","","","",""
"","ISI","","html-keyboard-response","519","429774","0.0-1.0-714.0","0","0","37161","","null","","","null","79","NaN","","","","","","","","","","","","","","",""
"","S2","","html-keyboard-response","520","430028","0.0-1.0-715.0","0","0","37161","","null","","","null","79","","NaN","","","","","","","","","","","","","",""
"","response","","html-keyboard-response","521","430266","0.0-1.0-716.0-0.0","0","0","37161","","236","","","68","79","","","2","79","training","adjacent","FG","6","7","P.jpg","R.jpg","0","1","0","",""
"","feedback","","html-keyboard-response","522","431270","0.0-1.0-717.0-0.0","0","0","37161","","null","","","null","79","","","","","","","","","","","","","","","",""
"","time_out","","html-keyboard-response","523","433274","0.0-1.0-719.0-0.0","0","0","37161","","null","","","null","79","","","","","","","","","","","","","","","",""
"","ITI","","html-keyboard-response","524","434279","0.0-1.0-720.0","0","0","37161","","null","","","null","79","","","","","","","","","","","","","","","NaN",""
"","S1","","html-keyboard-response","525","434533","0.0-1.0-722.0","0","0","37161","","null","","","null","80","","","","","","","","","","","","","","","",""
"","ISI","","html-keyboard-response","526","435538","0.0-1.0-723.0","0","0","37161","","null","","","null","80","NaN","","","","","","","","","","","","","","",""
"","S2","","html-keyboard-response","527","435793","0.0-1.0-724.0","0","0","37161","","null","","","null","80","","NaN","","","","","","","","","","","","","",""
"","response","","html-keyboard-response","528","436157","0.0-1.0-725.0-0.0","0","0","37161","","361","","","75","80","","","2","80","training","adjacent","ED","5","4","N.jpg","Q.jpg","1","0","0","",""
"","feedback","","html-keyboard-response","529","437175","0.0-1.0-726.0-0.0","0","0","37161","","null","","","null","80","","","","","","","","","","","","","","","",""
"","time_out","","html-keyboard-response","530","439179","0.0-1.0-728.0-0.0","0","0","37161","","null","","","null","80","","","","","","","","","","","","","","","",""
"","ITI","","html-keyboard-response","531","440184","0.0-1.0-729.0","0","0","37161","","null","","","null","80","","","","","","","","","","","","","","","NaN",""
"","S1","","html-keyboard-response","532","440437","0.0-1.0-731.0","0","0","37161","","null","","","null","81","","","","","","","","","","","","","","","",""
"","ISI","","html-keyboard-response","533","441441","0.0-1.0-732.0","0","0","37161","","null","","","null","81","NaN","","","","","","","","","","","","","","",""
"","S2","","html-keyboard-response","534","441700","0.0-1.0-733.0","0","0","37161","","null","","","null","81","","NaN","","","","","","","","","","","","","",""
"","response","","html-keyboard-response","535","441974","0.0-1.0-734.0-0.0","0","0","37161","","271","","","68","81","","","2","81","training","adjacent","CB","3","2","L.jpg","O.jpg","0","0","1","",""
"","feedback","","html-keyboard-response","536","442979","0.0-1.0-735.0-0.0","0","0","37161","","null","","","null","81","","","","","","","","","","","","","","","",""
"","ITI","","html-keyboard-response","537","443983","0.0-1.0-738.0","0","0","37161","","null","","","null","81","","","","","","","","","","","","","","","NaN",""
"","S1","","html-keyboard-response","538","444238","0.0-1.0-740.0","0","0","37161","","null","","","null","82","","","","","","","","","","","","","","","",""
"","ISI","","html-keyboard-response","539","445242","0.0-1.0-741.0","0","0","37161","","null","","","null","82","NaN","","","","","","","","","","","","","","",""
"","S2","","html-keyboard-response","540","445496","0.0-1.0-742.0","0","0","37161","","null","","","null","82","","NaN","","","","","","","","","","","","","",""
"","response","","html-keyboard-response","541","445619","0.0-1.0-743.0-0.0","0","0","37161","","120","","","68","82","","","2","82","training","adjacent","EF","5","6","N.jpg","P.jpg","0","1","0","",""
"","feedback","","html-keyboard-response","542","446625","0.0-1.0-744.0-0.0","0","0","37161","","null","","","null","82","","","","","","","","","","","","","","","",""
"","time_out","","html-keyboard-response","543","448629","0.0-1.0-746.0-0.0","0","0","37161","","null","","","null","82","","","","","","","","","","","","","","","",""
"","ITI","","html-keyboard-response","544","449634","0.0-1.0-747.0","0","0","37161","","null","","","null","82","","","","","","","","","","","","","","","NaN",""
"","S1","","html-keyboard-response","545","449888","0.0-1.0-749.0","0","0","37161","","null","","","null","83","","","","","","","","","","","","","","","",""
"","ISI","","html-keyboard-response","546","450892","0.0-1.0-750.0","0","0","37161","","null","","","null","83","NaN","","","","","","","","","","","","","","",""
"","S2","","html-keyboard-response","547","451147","0.0-1.0-751.0","0","0","37161","","null","","","null","83","","NaN","","","","","","","","","","","","","",""
"","response","","html-keyboard-response","548","451574","0.0-1.0-752.0-0.0","0","0","37161","","423","","","75","83","","","2","83","training","adjacent","BC","2","3","O.jpg","L.jpg","1","1","1","",""
"","feedback","","html-keyboard-response","549","452578","0.0-1.0-753.0-0.0","0","0","37161","","null","","","null","83","","","","","","","","","","","","","","","",""
"","ITI","","html-keyboard-response","550","453582","0.0-1.0-756.0","0","0","37161","","null","","","null","83","","","","","","","","","","","","","","","NaN",""
"","S1","","html-keyboard-response","551","453844","0.0-1.0-758.0","0","0","37161","","null","","","null","84","","","","","","","","","","","","","","","",""
"","ISI","","html-keyboard-response","552","454847","0.0-1.0-759.0","0","0","37161","","null","","","null","84","NaN","","","","","","","","","","","","","","",""
"","S2","","html-keyboard-response","553","455101","0.0-1.0-760.0","0","0","37161","","null","","","null","84","","NaN","","","","","","","","","","","","","",""
"","response","","html-keyboard-response","554","455461","0.0-1.0-761.0-0.0","0","0","37161","","357","","","75","84","","","2","84","training","adjacent","DE","4","5","Q.jpg","N.jpg","1","1","1","",""
"","feedback","","html-keyboard-response","555","456467","0.0-1.0-762.0-0.0","0","0","37161","","null","","","null","84","","","","","","","","","","","","","","","",""
"","ITI","","html-keyboard-response","556","457472","0.0-1.0-765.0","0","0","37161","","null","","","null","84","","","","","","","","","","","","","","","NaN",""
"","S1","","html-keyboard-response","557","457734","0.0-1.0-767.0","0","0","37161","","null","","","null","85","","","","","","","","","","","","","","","",""
"","ISI","","html-keyboard-response","558","458738","0.0-1.0-768.0","0","0","37161","","null","","","null","85","NaN","","","","","","","","","","","","","","",""
"","S2","","html-keyboard-response","559","458992","0.0-1.0-769.0","0","0","37161","","null","","","null","85","","NaN","","","","","","","","","","","","","",""
"","response","","html-keyboard-response","560","459457","0.0-1.0-770.0-0.0","0","0","37161","","462","","","68","85","","","2","85","training","adjacent","ED","5","4","N.jpg","Q.jpg","0","0","1","",""
"","feedback","","html-keyboard-response","561","460461","0.0-1.0-771.0-0.0","0","0","37161","","null","","","null","85","","","","","","","","","","","","","","","",""
"","ITI","","html-keyboard-response","562","461466","0.0-1.0-774.0","0","0","37161","","null","","","null","85","","","","","","","","","","","","","","","NaN",""
"","S1","","html-keyboard-response","563","461721","0.0-1.0-776.0","0","0","37161","","null","","","null","86","","","","","","","","","","","","","","","",""
"","ISI","","html-keyboard-response","564","462725","0.0-1.0-777.0","0","0","37161","","null","","","null","86","NaN","","","","","","","","","","","","","","",""
"","S2","","html-keyboard-response","565","462980","0.0-1.0-778.0","0","0","37161","","null","","","null","86","","NaN","","","","","","","","","","","","","",""
"","response","","html-keyboard-response","566","463461","0.0-1.0-779.0-0.0","0","0","37161","","477","","","75","86","","","2","86","training","adjacent","GF","7","6","R.jpg","P.jpg","1","0","0","",""
"","feedback","","html-keyboard-response","567","464466","0.0-1.0-780.0-0.0","0","0","37161","","null","","","null","86","","","","","","","","","","","","","","","",""
"","time_out","","html-keyboard-response","568","466469","0.0-1.0-782.0-0.0","0","0","37161","","null","","","null","86","","","","","","","","","","","","","","","",""
"","ITI","","html-keyboard-response","569","467473","0.0-1.0-783.0","0","0","37161","","null","","","null","86","","","","","","","","","","","","","","","NaN",""
"","S1","","html-keyboard-response","570","467727","0.0-1.0-785.0","0","0","37161","","null","","","null","87","","","","","","","","","","","","","","","",""
"","ISI","","html-keyboard-response","571","468730","0.0-1.0-786.0","0","0","37161","","null","","","null","87","NaN","","","","","","","","","","","","","","",""
"","S2","","html-keyboard-response","572","468984","0.0-1.0-787.0","0","0","37161","","null","","","null","87","","NaN","","","","","","","","","","","","","",""
"","response","","html-keyboard-response","573","469281","0.0-1.0-788.0-0.0","0","0","37161","","294","","","68","87","","","2","87","training","adjacent","CB","3","2","L.jpg","O.jpg","0","0","1","",""
"","feedback","","html-keyboard-response","574","470286","0.0-1.0-789.0-0.0","0","0","37161","","null","","","null","87","","","","","","","","","","","","","","","",""
"","ITI","","html-keyboard-response","575","471290","0.0-1.0-792.0","0","0","37161","","null","","","null","87","","","","","","","","","","","","","","","NaN",""
"","S1","","html-keyboard-response","576","471544","0.0-1.0-794.0","0","0","37161","","null","","","null","88","","","","","","","","","","","","","","","",""
"","ISI","","html-keyboard-response","577","472548","0.0-1.0-795.0","0","0","37161","","null","","","null","88","NaN","","","","","","","","","","","","","","",""
"","S2","","html-keyboard-response","578","472803","0.0-1.0-796.0","0","0","37161","","null","","","null","88","","NaN","","","","","","","","","","","","","",""
"","response","","html-keyboard-response","579","473370","0.0-1.0-797.0-0.0","0","0","37161","","564","","","68","88","","","2","88","training","adjacent","CB","3","2","L.jpg","O.jpg","0","0","1","",""
"","feedback","","html-keyboard-response","580","474376","0.0-1.0-798.0-0.0","0","0","37161","","null","","","null","88","","","","","","","","","","","","","","","",""
"","ITI","","html-keyboard-response","581","475380","0.0-1.0-801.0","0","0","37161","","null","","","null","88","","","","","","","","","","","","","","","NaN",""
"","S1","","html-keyboard-response","582","475634","0.0-1.0-803.0","0","0","37161","","null","","","null","89","","","","","","","","","","","","","","","",""
"","ISI","","html-keyboard-response","583","476638","0.0-1.0-804.0","0","0","37161","","null","","","null","89","NaN","","","","","","","","","","","","","","",""
