"success","ttype","start_time","trial_type","trial_index","time_elapsed","internal_node_id","warning","missed_checkup","PID","view_history","rt","responses","repeat_instructions","key_press","index","keypress_isi","keypress_S2","block","trial_num","phase","group_type","pair_type","S1_stim","S2_stim","S1_img","S2_img","S1_chosen","S1_higher","accuracy","keypress_iti","total_bonus_tally"
"true","full_screen","d03082023hr1432","fullscreen","0","137688","0.0-0.0","0","0","10066","","","","","","","","","","","","","","","","","","","","","",""
"","instructions","","instructions","1","226968","0.0-1.0-0.0-0.0","0","0","10066","[{""page_index"":0,""viewing_time"":11218},{""page_index"":1,""viewing_time"":52664},{""page_index"":2,""viewing_time"":20824},{""page_index"":3,""viewing_time"":4563}]","89272","","","","","","","","","","","","","","","","","","","",""
"","comprehension_check","","survey-multi-choice","2","275964","0.0-1.0-0.0-1.0","0","0","10066","","48976","{""Q0"":""True"",""Q1"":""D"",""Q2"":""Once the second image appears and while the screen 'MAKE A CHOICE' is shown"",""Q3"":""Green mark"",""Q4"":""either D or K""}","0","","","","","","","","","","","","","","","","","",""
"","start_exp","","html-keyboard-response","3","279454","0.0-1.0-1.0","0","0","10066","","3410","","","32","","","","","","","","","","","","","","","","",""
"","S1","","html-keyboard-response","4","279712","0.0-1.0-2.0","0","0","10066","","null","","","null","0","","","","","","","","","","","","","","","",""
"","ISI","","html-keyboard-response","5","279869","0.0-1.0-3.0","0","0","10066","","null","","","null","0","NaN","","","","","","","","","","","","","","",""
"","S2","","html-keyboard-response","6","280127","0.0-1.0-4.0","0","0","10066","","null","","","null","0","","NaN","","","","","","","","","","","","","",""
"","response","","html-keyboard-response","7","281235","0.0-1.0-5.0-0.0","0","0","10066","","1102","","","75","0","","","1","0","training","adjacent","FE","6","5","O.jpg","Q.jpg","0","0","1","",""
"","feedback","","html-keyboard-response","8","282246","0.0-1.0-6.0-0.0","0","0","10066","","null","","","null","0","","","","","","","","","","","","","","","",""
"","ITI","","html-keyboard-response","9","283256","0.0-1.0-9.0","0","0","10066","","null","","","null","0","","","","","","","","","","","","","","","NaN",""
"","S1","","html-keyboard-response","10","283514","0.0-1.0-11.0","0","0","10066","","null","","","null","1","","","","","","","","","","","","","","","",""
"","ISI","","html-keyboard-response","11","283673","0.0-1.0-12.0","0","0","10066","","null","","","null","1","NaN","","","","","","","","","","","","","","",""
"","S2","","html-keyboard-response","12","283931","0.0-1.0-13.0","0","0","10066","","null","","","null","1","","NaN","","","","","","","","","","","","","",""
"","response","","html-keyboard-response","13","285687","0.0-1.0-14.0-0.0","0","0","10066","","null","","","null","1","","","1","1","training","adjacent","BC","2","3","P.jpg","N.jpg","NaN","1","0","",""
"","too_slow_prompt","","html-keyboard-response","14","286696","0.0-1.0-16.0-0.0","1","0","10066","","null","","","null","","","","","","","","","","","","","","","","",""
"","time_out","","html-keyboard-response","15","288702","0.0-1.0-17.0-0.0","0","0","10066","","null","","","null","1","","","","","","","","","","","","","","","",""
"","ITI","","html-keyboard-response","16","289708","0.0-1.0-18.0","0","0","10066","","null","","","null","1","","","","","","","","","","","","","","","NaN",""
"","S1","","html-keyboard-response","17","289964","0.0-1.0-20.0","0","0","10066","","null","","","null","2","","","","","","","","","","","","","","","",""
"","ISI","","html-keyboard-response","18","290129","0.0-1.0-21.0","0","0","10066","","null","","","null","2","NaN","","","","","","","","","","","","","","",""
"","S2","","html-keyboard-response","19","290385","0.0-1.0-22.0","0","0","10066","","null","","","null","2","","NaN","","","","","","","","","","","","","",""
"","response","","html-keyboard-response","20","291071","0.0-1.0-23.0-0.0","0","0","10066","","680","","","75","2","","","1","2","training","adjacent","FG","6","7","O.jpg","L.jpg","0","1","0","",""
"","feedback","","html-keyboard-response","21","292077","0.0-1.0-24.0-0.0","0","0","10066","","null","","","null","2","","","","","","","","","","","","","","","",""
"","time_out","","html-keyboard-response","22","294082","0.0-1.0-26.0-0.0","0","0","10066","","null","","","null","2","","","","","","","","","","","","","","","",""
"","ITI","","html-keyboard-response","23","295086","0.0-1.0-27.0","0","0","10066","","null","","","null","2","","","","","","","","","","","","","","","NaN",""
"","S1","","html-keyboard-response","24","295341","0.0-1.0-29.0","0","0","10066","","null","","","null","3","","","","","","","","","","","","","","","",""
"","ISI","","html-keyboard-response","25","295495","0.0-1.0-30.0","0","0","10066","","null","","","null","3","NaN","","","","","","","","","","","","","","",""
"","S2","","html-keyboard-response","26","295751","0.0-1.0-31.0","0","0","10066","","null","","","null","3","","NaN","","","","","","","","","","","","","",""
"","response","","html-keyboard-response","27","296465","0.0-1.0-32.0-0.0","0","0","10066","","709","","","68","3","","","1","3","training","adjacent","GF","7","6","L.jpg","O.jpg","1","0","0","",""
"","feedback","","html-keyboard-response","28","297486","0.0-1.0-33.0-0.0","0","0","10066","","null","","","null","3","","","","","","","","","","","","","","","",""
"","time_out","","html-keyboard-response","29","299492","0.0-1.0-35.0-0.0","0","0","10066","","null","","","null","3","","","","","","","","","","","","","","","",""
"","ITI","","html-keyboard-response","30","300499","0.0-1.0-36.0","0","0","10066","","null","","","null","3","","","","","","","","","","","","","","","NaN",""
"","S1","","html-keyboard-response","31","300756","0.0-1.0-38.0","0","0","10066","","null","","","null","4","","","","","","","","","","","","","","","",""
"","ISI","","html-keyboard-response","32","300912","0.0-1.0-39.0","0","0","10066","","null","","","null","4","NaN","","","","","","","","","","","","","","",""
"","S2","","html-keyboard-response","33","301169","0.0-1.0-40.0","0","0","10066","","null","","","null","4","","NaN","","","","","","","","","","","","","",""
"","response","","html-keyboard-response","34","302274","0.0-1.0-41.0-0.0","0","0","10066","","1101","","","75","4","","","1","4","training","adjacent","BA","2","1","P.jpg","M.jpg","0","0","1","",""
"","feedback","","html-keyboard-response","35","303281","0.0-1.0-42.0-0.0","0","0","10066","","null","","","null","4","","","","","","","","","","","","","","","",""
"","ITI","","html-keyboard-response","36","304288","0.0-1.0-45.0","0","0","10066","","null","","","null","4","","","","","","","","","","","","","","","NaN",""
"","S1","","html-keyboard-response","37","304545","0.0-1.0-47.0","0","0","10066","","null","","","null","5","","","","","","","","","","","","","","","",""
"","ISI","","html-keyboard-response","38","304701","0.0-1.0-48.0","0","0","10066","","null","","","null","5","NaN","","","","","","","","","","","","","","",""
"","S2","","html-keyboard-response","39","304957","0.0-1.0-49.0","0","0","10066","","null","","","null","5","","NaN","","","","","","","","","","","","","",""
"","response","","html-keyboard-response","40","306087","0.0-1.0-50.0-0.0","0","0","10066","","1123","","","75","5","","","1","5","training","adjacent","ED","5","4","Q.jpg","R.jpg","0","0","1","",""
"","feedback","","html-keyboard-response","41","307094","0.0-1.0-51.0-0.0","0","0","10066","","null","","","null","5","","","","","","","","","","","","","","","",""
"","ITI","","html-keyboard-response","42","308100","0.0-1.0-54.0","0","0","10066","","null","","","null","5","","","","","","","","","","","","","","","NaN",""
"","S1","","html-keyboard-response","43","308356","0.0-1.0-56.0","0","0","10066","","null","","","null","6","","","","","","","","","","","","","","","",""
"","ISI","","html-keyboard-response","44","308512","0.0-1.0-57.0","0","0","10066","","null","","","null","6","NaN","","","","","","","","","","","","","","",""
"","S2","","html-keyboard-response","45","308776","0.0-1.0-58.0","0","0","10066","","null","","","null","6","","NaN","","","","","","","","","","","","","",""
"","response","","html-keyboard-response","46","309967","0.0-1.0-59.0-0.0","0","0","10066","","1186","","","75","6","","","1","6","training","adjacent","GF","7","6","L.jpg","O.jpg","0","0","1","",""
"","feedback","","html-keyboard-response","47","310975","0.0-1.0-60.0-0.0","0","0","10066","","null","","","null","6","","","","","","","","","","","","","","","",""
"","ITI","","html-keyboard-response","48","311981","0.0-1.0-63.0","0","0","10066","","null","","","null","6","","","","","","","","","","","","","","","NaN",""
"","S1","","html-keyboard-response","49","312237","0.0-1.0-65.0","0","0","10066","","null","","","null","7","","","","","","","","","","","","","","","",""
"","ISI","","html-keyboard-response","50","312393","0.0-1.0-66.0","0","0","10066","","null","","","null","7","NaN","","","","","","","","","","","","","","",""
"","S2","","html-keyboard-response","51","312649","0.0-1.0-67.0","0","0","10066","","null","","","null","7","","NaN","","","","","","","","","","","","","",""
"","response","","html-keyboard-response","52","313549","0.0-1.0-68.0-0.0","0","0","10066","","893","","","68","7","","","1","7","training","adjacent","DE","4","5","R.jpg","Q.jpg","1","1","1","",""
"","feedback","","html-keyboard-response","53","314557","0.0-1.0-69.0-0.0","0","0","10066","","null","","","null","7","","","","","","","","","","","","","","","",""
"","ITI","","html-keyboard-response","54","315567","0.0-1.0-72.0","0","0","10066","","null","","","null","7","","","","","","","","","","","","","","","NaN",""
"","S1","","html-keyboard-response","55","315825","0.0-1.0-74.0","0","0","10066","","null","","","null","8","","","","","","","","","","","","","","","",""
"","ISI","","html-keyboard-response","56","315982","0.0-1.0-75.0","0","0","10066","","null","","","null","8","NaN","","","","","","","","","","","","","","",""
"","S2","","html-keyboard-response","57","316238","0.0-1.0-76.0","0","0","10066","","null","","","null","8","","NaN","","","","","","","","","","","","","",""
"","response","","html-keyboard-response","58","317136","0.0-1.0-77.0-0.0","0","0","10066","","892","","","68","8","","","1","8","training","adjacent","FG","6","7","O.jpg","L.jpg","1","1","1","",""
"","feedback","","html-keyboard-response","59","318142","0.0-1.0-78.0-0.0","0","0","10066","","null","","","null","8","","","","","","","","","","","","","","","",""
"","ITI","","html-keyboard-response","60","319148","0.0-1.0-81.0","0","0","10066","","null","","","null","8","","","","","","","","","","","","","","","NaN",""
"","S1","","html-keyboard-response","61","319405","0.0-1.0-83.0","0","0","10066","","null","","","null","9","","","","","","","","","","","","","","","",""
"","ISI","","html-keyboard-response","62","319561","0.0-1.0-84.0","0","0","10066","","null","","","null","9","NaN","","","","","","","","","","","","","","",""
"","S2","","html-keyboard-response","63","319818","0.0-1.0-85.0","0","0","10066","","null","","","null","9","","NaN","","","","","","","","","","","","","",""
"","response","","html-keyboard-response","64","320644","0.0-1.0-86.0-0.0","0","0","10066","","818","","","68","9","","","1","9","training","adjacent","CB","3","2","N.jpg","P.jpg","1","0","0","",""
"","feedback","","html-keyboard-response","65","321649","0.0-1.0-87.0-0.0","0","0","10066","","null","","","null","9","","","","","","","","","","","","","","","",""
"","time_out","","html-keyboard-response","66","323655","0.0-1.0-89.0-0.0","0","0","10066","","null","","","null","9","","","","","","","","","","","","","","","",""
"","ITI","","html-keyboard-response","67","324664","0.0-1.0-90.0","0","0","10066","","null","","","null","9","","","","","","","","","","","","","","","NaN",""
"","S1","","html-keyboard-response","68","324921","0.0-1.0-92.0","0","0","10066","","null","","","null","10","","","","","","","","","","","","","","","",""
"","ISI","","html-keyboard-response","69","325079","0.0-1.0-93.0","0","0","10066","","null","","","null","10","NaN","","","","","","","","","","","","","","",""
"","S2","","html-keyboard-response","70","325336","0.0-1.0-94.0","0","0","10066","","null","","","null","10","","NaN","","","","","","","","","","","","","",""
"","response","","html-keyboard-response","71","326117","0.0-1.0-95.0-0.0","0","0","10066","","773","","","75","10","","","1","10","training","adjacent","GF","7","6","L.jpg","O.jpg","0","0","1","",""
"","feedback","","html-keyboard-response","72","327124","0.0-1.0-96.0-0.0","0","0","10066","","null","","","null","10","","","","","","","","","","","","","","","",""
"","ITI","","html-keyboard-response","73","328130","0.0-1.0-99.0","0","0","10066","","null","","","null","10","","","","","","","","","","","","","","","NaN",""
"","S1","","html-keyboard-response","74","328387","0.0-1.0-101.0","0","0","10066","","null","","","null","11","","","","","","","","","","","","","","","",""
"","ISI","","html-keyboard-response","75","328543","0.0-1.0-102.0","0","0","10066","","null","","","null","11","NaN","","","","","","","","","","","","","","",""
"","S2","","html-keyboard-response","76","328800","0.0-1.0-103.0","0","0","10066","","null","","","null","11","","NaN","","","","","","","","","","","","","",""
"","response","","html-keyboard-response","77","329719","0.0-1.0-104.0-0.0","0","0","10066","","911","","","75","11","","","1","11","training","adjacent","BC","2","3","P.jpg","N.jpg","0","1","0","",""
"","feedback","","html-keyboard-response","78","330726","0.0-1.0-105.0-0.0","0","0","10066","","null","","","null","11","","","","","","","","","","","","","","","",""
"","time_out","","html-keyboard-response","79","332733","0.0-1.0-107.0-0.0","0","0","10066","","null","","","null","11","","","","","","","","","","","","","","","",""
"","ITI","","html-keyboard-response","80","333738","0.0-1.0-108.0","0","0","10066","","null","","","null","11","","","","","","","","","","","","","","","NaN",""
"","S1","","html-keyboard-response","81","333997","0.0-1.0-110.0","0","0","10066","","null","","","null","12","","","","","","","","","","","","","","","",""
"","ISI","","html-keyboard-response","82","334153","0.0-1.0-111.0","0","0","10066","","null","","","null","12","NaN","","","","","","","","","","","","","","",""
"","S2","","html-keyboard-response","83","334411","0.0-1.0-112.0","0","0","10066","","null","","","null","12","","NaN","","","","","","","","","","","","","",""
"","response","","html-keyboard-response","84","335339","0.0-1.0-113.0-0.0","0","0","10066","","923","","","68","12","","","1","12","training","adjacent","FE","6","5","O.jpg","Q.jpg","1","0","0","",""
"","feedback","","html-keyboard-response","85","336346","0.0-1.0-114.0-0.0","0","0","10066","","null","","","null","12","","","","","","","","","","","","","","","",""
"","time_out","","html-keyboard-response","86","338351","0.0-1.0-116.0-0.0","0","0","10066","","null","","","null","12","","","","","","","","","","","","","","","",""
"","ITI","","html-keyboard-response","87","339357","0.0-1.0-117.0","0","0","10066","","null","","","null","12","","","","","","","","","","","","","","","NaN",""
"","S1","","html-keyboard-response","88","339613","0.0-1.0-119.0","0","0","10066","","null","","","null","13","","","","","","","","","","","","","","","",""
"","ISI","","html-keyboard-response","89","339769","0.0-1.0-120.0","0","0","10066","","null","","","null","13","NaN","","","","","","","","","","","","","","",""
"","S2","","html-keyboard-response","90","340027","0.0-1.0-121.0","0","0","10066","","null","","","null","13","","NaN","","","","","","","","","","","","","",""
"","response","","html-keyboard-response","91","340806","0.0-1.0-122.0-0.0","0","0","10066","","772","","","68","13","","","1","13","training","adjacent","DE","4","5","R.jpg","Q.jpg","1","1","1","",""
"","feedback","","html-keyboard-response","92","341812","0.0-1.0-123.0-0.0","0","0","10066","","null","","","null","13","","","","","","","","","","","","","","","",""
"","ITI","","html-keyboard-response","93","342820","0.0-1.0-126.0","0","0","10066","","null","","","null","13","","","","","","","","","","","","","","","NaN",""
"","S1","","html-keyboard-response","94","343076","0.0-1.0-128.0","0","0","10066","","null","","","null","14","","","","","","","","","","","","","","","",""
"","ISI","","html-keyboard-response","95","343231","0.0-1.0-129.0","0","0","10066","","null","","","null","14","NaN","","","","","","","","","","","","","","",""
"","S2","","html-keyboard-response","96","343488","0.0-1.0-130.0","0","0","10066","","null","","","null","14","","NaN","","","","","","","","","","","","","",""
"","response","","html-keyboard-response","97","344557","0.0-1.0-131.0-0.0","0","0","10066","","1063","","","75","14","","","1","14","training","adjacent","EF","5","6","Q.jpg","O.jpg","0","1","0","",""
"","feedback","","html-keyboard-response","98","345564","0.0-1.0-132.0-0.0","0","0","10066","","null","","","null","14","","","","","","","","","","","","","","","",""
"","time_out","","html-keyboard-response","99","347570","0.0-1.0-134.0-0.0","0","0","10066","","null","","","null","14","","","","","","","","","","","","","","","",""
"","ITI","","html-keyboard-response","100","348576","0.0-1.0-135.0","0","0","10066","","null","","","null","14","","","","","","","","","","","","","","","NaN",""
"","S1","","html-keyboard-response","101","348834","0.0-1.0-137.0","0","0","10066","","null","","","null","15","","","","","","","","","","","","","","","",""
"","ISI","","html-keyboard-response","102","348989","0.0-1.0-138.0","0","0","10066","","null","","","null","15","NaN","","","","","","","","","","","","","","",""
"","S2","","html-keyboard-response","103","349246","0.0-1.0-139.0","0","0","10066","","null","","","null","15","","NaN","","","","","","","","","","","","","",""
"","response","","html-keyboard-response","104","349977","0.0-1.0-140.0-0.0","0","0","10066","","724","","","75","15","","","1","15","training","adjacent","ED","5","4","Q.jpg","R.jpg","0","0","1","",""
"","feedback","","html-keyboard-response","105","350984","0.0-1.0-141.0-0.0","0","0","10066","","null","","","null","15","","","","","","","","","","","","","","","",""
"","ITI","","html-keyboard-response","106","351990","0.0-1.0-144.0","0","0","10066","","null","","","null","15","","","","","","","","","","","","","","","NaN",""
"","S1","","html-keyboard-response","107","352246","0.0-1.0-146.0","0","0","10066","","null","","","null","16","","","","","","","","","","","","","","","",""
"","ISI","","html-keyboard-response","108","352401","0.0-1.0-147.0","0","0","10066","","null","","","null","16","NaN","","","","","","","","","","","","","","",""
"","S2","","html-keyboard-response","109","352658","0.0-1.0-148.0","0","0","10066","","null","","","null","16","","NaN","","","","","","","","","","","","","",""
"","response","","html-keyboard-response","110","353568","0.0-1.0-149.0-0.0","0","0","10066","","904","","","68","16","","","1","16","training","adjacent","ED","5","4","Q.jpg","R.jpg","1","0","0","",""
"","feedback","","html-keyboard-response","111","354576","0.0-1.0-150.0-0.0","0","0","10066","","null","","","null","16","","","","","","","","","","","","","","","",""
"","time_out","","html-keyboard-response","112","356581","0.0-1.0-152.0-0.0","0","0","10066","","null","","","null","16","","","","","","","","","","","","","","","",""
"","ITI","","html-keyboard-response","113","357588","0.0-1.0-153.0","0","0","10066","","null","","","null","16","","","","","","","","","","","","","","","NaN",""
"","S1","","html-keyboard-response","114","357843","0.0-1.0-155.0","0","0","10066","","null","","","null","17","","","","","","","","","","","","","","","",""
"","ISI","","html-keyboard-response","115","358001","0.0-1.0-156.0","0","0","10066","","null","","","null","17","NaN","","","","","","","","","","","","","","",""
"","S2","","html-keyboard-response","116","358259","0.0-1.0-157.0","0","0","10066","","null","","","null","17","","NaN","","","","","","","","","","","","","",""
"","response","","html-keyboard-response","117","359250","0.0-1.0-158.0-0.0","0","0","10066","","985","","","75","17","","","1","17","training","adjacent","GF","7","6","L.jpg","O.jpg","0","0","1","",""
"","feedback","","html-keyboard-response","118","360257","0.0-1.0-159.0-0.0","0","0","10066","","null","","","null","17","","","","","","","","","","","","","","","",""
"","ITI","","html-keyboard-response","119","361262","0.0-1.0-162.0","0","0","10066","","null","","","null","17","","","","","","","","","","","","","","","NaN",""
"","S1","","html-keyboard-response","120","361532","0.0-1.0-164.0","0","0","10066","","null","","","null","18","","","","","","","","","","","","","","","",""
"","ISI","","html-keyboard-response","121","361689","0.0-1.0-165.0","0","0","10066","","null","","","null","18","NaN","","","","","","","","","","","","","","",""
"","S2","","html-keyboard-response","122","361946","0.0-1.0-166.0","0","0","10066","","null","","","null","18","","NaN","","","","","","","","","","","","","",""
"","response","","html-keyboard-response","123","362817","0.0-1.0-167.0-0.0","0","0","10066","","865","","","68","18","","","1","18","training","adjacent","AB","1","2","M.jpg","P.jpg","1","1","1","",""
"","feedback","","html-keyboard-response","124","363825","0.0-1.0-168.0-0.0","0","0","10066","","null","","","null","18","","","","","","","","","","","","","","","",""
"","ITI","","html-keyboard-response","125","364832","0.0-1.0-171.0","0","0","10066","","null","","","null","18","","","","","","","","","","","","","","","NaN",""
"","S1","","html-keyboard-response","126","365089","0.0-1.0-173.0","0","0","10066","","null","","","null","19","","","","","","","","","","","","","","","",""
"","ISI","","html-keyboard-response","127","365245","0.0-1.0-174.0","0","0","10066","","null","","","null","19","NaN","","","","","","","","","","","","","","",""
"","S2","","html-keyboard-response","128","365501","0.0-1.0-175.0","0","0","10066","","null","","","null","19","","NaN","","","","","","","","","","","","","",""
"","response","","html-keyboard-response","129","366234","0.0-1.0-176.0-0.0","0","0","10066","","727","","","75","19","","","1","19","training","adjacent","BC","2","3","P.jpg","N.jpg","0","1","0","",""
"","feedback","","html-keyboard-response","130","367243","0.0-1.0-177.0-0.0","0","0","10066","","null","","","null","19","","","","","","","","","","","","","","","",""
"","time_out","","html-keyboard-response","131","369248","0.0-1.0-179.0-0.0","0","0","10066","","null","","","null","19","","","","","","","","","","","","","","","",""
"","ITI","","html-keyboard-response","132","370257","0.0-1.0-180.0","0","0","10066","","null","","","null","19","","","","","","","","","","","","","","","NaN",""
"","S1","","html-keyboard-response","133","370512","0.0-1.0-182.0","0","0","10066","","null","","","null","20","","","","","","","","","","","","","","","",""
"","ISI","","html-keyboard-response","134","370669","0.0-1.0-183.0","0","0","10066","","null","","","null","20","NaN","","","","","","","","","","","","","","",""
"","S2","","html-keyboard-response","135","370927","0.0-1.0-184.0","0","0","10066","","null","","","null","20","","NaN","","","","","","","","","","","","","",""
"","response","","html-keyboard-response","136","371652","0.0-1.0-185.0-0.0","0","0","10066","","719","","","68","20","","","1","20","training","adjacent","AB","1","2","M.jpg","P.jpg","1","1","1","",""
"","feedback","","html-keyboard-response","137","372659","0.0-1.0-186.0-0.0","0","0","10066","","null","","","null","20","","","","","","","","","","","","","","","",""
"","ITI","","html-keyboard-response","138","373666","0.0-1.0-189.0","0","0","10066","","null","","","null","20","","","","","","","","","","","","","","","NaN",""
"","S1","","html-keyboard-response","139","373922","0.0-1.0-191.0","0","0","10066","","null","","","null","21","","","","","","","","","","","","","","","",""
"","ISI","","html-keyboard-response","140","374078","0.0-1.0-192.0","0","0","10066","","null","","","null","21","NaN","","","","","","","","","","","","","","",""
"","S2","","html-keyboard-response","141","374334","0.0-1.0-193.0","0","0","10066","","null","","","null","21","","NaN","","","","","","","","","","","","","",""
"","response","","html-keyboard-response","142","375005","0.0-1.0-194.0-0.0","0","0","10066","","664","","","68","21","","","1","21","training","adjacent","CB","3","2","N.jpg","P.jpg","1","0","0","",""
"","feedback","","html-keyboard-response","143","376014","0.0-1.0-195.0-0.0","0","0","10066","","null","","","null","21","","","","","","","","","","","","","","","",""
"","time_out","","html-keyboard-response","144","378020","0.0-1.0-197.0-0.0","0","0","10066","","null","","","null","21","","","","","","","","","","","","","","","",""
"","ITI","","html-keyboard-response","145","379027","0.0-1.0-198.0","0","0","10066","","null","","","null","21","","","","","","","","","","","","","","","NaN",""
"","S1","","html-keyboard-response","146","379284","0.0-1.0-200.0","0","0","10066","","null","","","null","22","","","","","","","","","","","","","","","",""
"","ISI","","html-keyboard-response","147","379441","0.0-1.0-201.0","0","0","10066","","null","","","null","22","NaN","","","","","","","","","","","","","","",""
"","S2","","html-keyboard-response","148","379700","0.0-1.0-202.0","0","0","10066","","null","","","null","22","","NaN","","","","","","","","","","","","","",""
"","response","","html-keyboard-response","149","380623","0.0-1.0-203.0-0.0","0","0","10066","","915","","","75","22","","","1","22","training","adjacent","DE","4","5","R.jpg","Q.jpg","0","1","0","",""
"","feedback","","html-keyboard-response","150","381631","0.0-1.0-204.0-0.0","0","0","10066","","null","","","null","22","","","","","","","","","","","","","","","",""
"","time_out","","html-keyboard-response","151","383641","0.0-1.0-206.0-0.0","0","0","10066","","null","","","null","22","","","","","","","","","","","","","","","",""
"","ITI","","html-keyboard-response","152","384647","0.0-1.0-207.0","0","0","10066","","null","","","null","22","","","","","","","","","","","","","","","NaN",""
"","S1","","html-keyboard-response","153","384904","0.0-1.0-209.0","0","0","10066","","null","","","null","23","","","","","","","","","","","","","","","",""
"","ISI","","html-keyboard-response","154","385061","0.0-1.0-210.0","0","0","10066","","null","","","null","23","NaN","","","","","","","","","","","","","","",""
"","S2","","html-keyboard-response","155","385320","0.0-1.0-211.0","0","0","10066","","null","","","null","23","","NaN","","","","","","","","","","","","","",""
"","response","","html-keyboard-response","156","386344","0.0-1.0-212.0-0.0","0","0","10066","","1018","","","68","23","","","1","23","training","adjacent","DE","4","5","R.jpg","Q.jpg","1","1","1","",""
"","feedback","","html-keyboard-response","157","387353","0.0-1.0-213.0-0.0","0","0","10066","","null","","","null","23","","","","","","","","","","","","","","","",""
"","ITI","","html-keyboard-response","158","388360","0.0-1.0-216.0","0","0","10066","","null","","","null","23","","","","","","","","","","","","","","","NaN",""
"","S1","","html-keyboard-response","159","388618","0.0-1.0-218.0","0","0","10066","","null","","","null","24","","","","","","","","","","","","","","","",""
"","ISI","","html-keyboard-response","160","388775","0.0-1.0-219.0","0","0","10066","","null","","","null","24","NaN","","","","","","","","","","","","","","",""
"","S2","","html-keyboard-response","161","389033","0.0-1.0-220.0","0","0","10066","","null","","","null","24","","NaN","","","","","","","","","","","","","",""
"","response","","html-keyboard-response","162","390029","0.0-1.0-221.0-0.0","0","0","10066","","988","","","68","24","","","1","24","training","adjacent","AB","1","2","M.jpg","P.jpg","1","1","1","",""
"","feedback","","html-keyboard-response","163","391039","0.0-1.0-222.0-0.0","0","0","10066","","null","","","null","24","","","","","","","","","","","","","","","",""
"","ITI","","html-keyboard-response","164","392047","0.0-1.0-225.0","0","0","10066","","null","","","null","24","","","","","","","","","","","","","","","NaN",""
"","S1","","html-keyboard-response","165","392303","0.0-1.0-227.0","0","0","10066","","null","","","null","25","","","","","","","","","","","","","","","",""
"","ISI","","html-keyboard-response","166","392459","0.0-1.0-228.0","0","0","10066","","null","","","null","25","NaN","","","","","","","","","","","","","","",""
"","S2","","html-keyboard-response","167","392718","0.0-1.0-229.0","0","0","10066","","null","","","null","25","","NaN","","","","","","","","","","","","","",""
"","response","","html-keyboard-response","168","393527","0.0-1.0-230.0-0.0","0","0","10066","","803","","","68","25","","","1","25","training","adjacent","DC","4","3","R.jpg","N.jpg","1","0","0","",""
"","feedback","","html-keyboard-response","169","394536","0.0-1.0-231.0-0.0","0","0","10066","","null","","","null","25","","","","","","","","","","","","","","","",""
"","time_out","","html-keyboard-response","170","396543","0.0-1.0-233.0-0.0","0","0","10066","","null","","","null","25","","","","","","","","","","","","","","","",""
"","ITI","","html-keyboard-response","171","397550","0.0-1.0-234.0","0","0","10066","","null","","","null","25","","","","","","","","","","","","","","","NaN",""
"","S1","","html-keyboard-response","172","397807","0.0-1.0-236.0","0","0","10066","","null","","","null","26","","","","","","","","","","","","","","","",""
"","ISI","","html-keyboard-response","173","397962","0.0-1.0-237.0","0","0","10066","","null","","","null","26","NaN","","","","","","","","","","","","","","",""
"","S2","","html-keyboard-response","174","398219","0.0-1.0-238.0","0","0","10066","","null","","","null","26","","NaN","","","","","","","","","","","","","",""
"","response","","html-keyboard-response","175","398977","0.0-1.0-239.0-0.0","0","0","10066","","751","","","68","26","","","1","26","training","adjacent","CB","3","2","N.jpg","P.jpg","1","0","0","",""
"","feedback","","html-keyboard-response","176","399984","0.0-1.0-240.0-0.0","0","0","10066","","null","","","null","26","","","","","","","","","","","","","","","",""
"","time_out","","html-keyboard-response","177","401990","0.0-1.0-242.0-0.0","0","0","10066","","null","","","null","26","","","","","","","","","","","","","","","",""
"","ITI","","html-keyboard-response","178","402995","0.0-1.0-243.0","0","0","10066","","null","","","null","26","","","","","","","","","","","","","","","NaN",""
"","S1","","html-keyboard-response","179","403253","0.0-1.0-245.0","0","0","10066","","null","","","null","27","","","","","","","","","","","","","","","",""
"","ISI","","html-keyboard-response","180","403409","0.0-1.0-246.0","0","0","10066","","null","","","null","27","NaN","","","","","","","","","","","","","","",""
"","S2","","html-keyboard-response","181","403663","0.0-1.0-247.0","0","0","10066","","null","","","null","27","","NaN","","","","","","","","","","","","","",""
"","response","","html-keyboard-response","182","404886","0.0-1.0-248.0-0.0","0","0","10066","","1215","","","75","27","","","1","27","training","adjacent","DC","4","3","R.jpg","N.jpg","0","0","1","",""
"","feedback","","html-keyboard-response","183","405894","0.0-1.0-249.0-0.0","0","0","10066","","null","","","null","27","","","","","","","","","","","","","","","",""
"","ITI","","html-keyboard-response","184","406902","0.0-1.0-252.0","0","0","10066","","null","","","null","27","","","","","","","","","","","","","","","NaN",""
"","S1","","html-keyboard-response","185","407159","0.0-1.0-254.0","0","0","10066","","null","","","null","28","","","","","","","","","","","","","","","",""
"","ISI","","html-keyboard-response","186","407315","0.0-1.0-255.0","0","0","10066","","null","","","null","28","NaN","","","","","","","","","","","","","","",""
"","S2","","html-keyboard-response","187","407573","0.0-1.0-256.0","0","0","10066","","null","","","null","28","","NaN","","","","","","","","","","","","","",""
"","response","","html-keyboard-response","188","408829","0.0-1.0-257.0-0.0","0","0","10066","","1248","","","75","28","","","1","28","training","adjacent","DC","4","3","R.jpg","N.jpg","0","0","1","",""
"","feedback","","html-keyboard-response","189","409836","0.0-1.0-258.0-0.0","0","0","10066","","null","","","null","28","","","","","","","","","","","","","","","",""
"","ITI","","html-keyboard-response","190","410844","0.0-1.0-261.0","0","0","10066","","null","","","null","28","","","","","","","","","","","","","","","NaN",""
"","S1","","html-keyboard-response","191","411100","0.0-1.0-263.0","0","0","10066","","null","","","null","29","","","","","","","","","","","","","","","",""
"","ISI","","html-keyboard-response","192","411258","0.0-1.0-264.0","0","0","10066","","null","","","null","29","NaN","","","","","","","","","","","","","","",""
"","S2","","html-keyboard-response","193","411514","0.0-1.0-265.0","0","0","10066","","null","","","null","29","","NaN","","","","","","","","","","","","","",""
"","response","","html-keyboard-response","194","412684","0.0-1.0-266.0-0.0","0","0","10066","","1163","","","75","29","","","1","29","training","adjacent","CD","3","4","N.jpg","R.jpg","0","1","0","",""
"","feedback","","html-keyboard-response","195","413693","0.0-1.0-267.0-0.0","0","0","10066","","null","","","null","29","","","","","","","","","","","","","","","",""
"","time_out","","html-keyboard-response","196","415700","0.0-1.0-269.0-0.0","0","0","10066","","null","","","null","29","","","","","","","","","","","","","","","",""
"","ITI","","html-keyboard-response","197","416705","0.0-1.0-270.0","0","0","10066","","null","","","null","29","","","","","","","","","","","","","","","NaN",""
"","S1","","html-keyboard-response","198","416961","0.0-1.0-272.0","0","0","10066","","null","","","null","30","","","","","","","","","","","","","","","",""
"","ISI","","html-keyboard-response","199","417118","0.0-1.0-273.0","0","0","10066","","null","","","null","30","NaN","","","","","","","","","","","","","","",""
"","S2","","html-keyboard-response","200","417374","0.0-1.0-274.0","0","0","10066","","null","","","null","30","","NaN","","","","","","","","","","","","","",""
"","response","","html-keyboard-response","201","418053","0.0-1.0-275.0-0.0","0","0","10066","","671","","","68","30","","","1","30","training","adjacent","FE","6","5","O.jpg","Q.jpg","1","0","0","",""
"","feedback","","html-keyboard-response","202","419061","0.0-1.0-276.0-0.0","0","0","10066","","null","","","null","30","","","","","","","","","","","","","","","",""
"","time_out","","html-keyboard-response","203","421069","0.0-1.0-278.0-0.0","0","0","10066","","null","","","null","30","","","","","","","","","","","","","","","",""
"","ITI","","html-keyboard-response","204","422075","0.0-1.0-279.0","0","0","10066","","null","","","null","30","","","","","","","","","","","","","","","NaN",""
"","S1","","html-keyboard-response","205","422333","0.0-1.0-281.0","0","0","10066","","null","","","null","31","","","","","","","","","","","","","","","",""
"","ISI","","html-keyboard-response","206","422489","0.0-1.0-282.0","0","0","10066","","null","","","null","31","NaN","","","","","","","","","","","","","","",""
"","S2","","html-keyboard-response","207","422746","0.0-1.0-283.0","0","0","10066","","null","","","null","31","","NaN","","","","","","","","","","","","","",""
"","response","","html-keyboard-response","208","423522","0.0-1.0-284.0-0.0","0","0","10066","","771","","","68","31","","","1","31","training","adjacent","ED","5","4","Q.jpg","R.jpg","1","0","0","",""
"","feedback","","html-keyboard-response","209","424529","0.0-1.0-285.0-0.0","0","0","10066","","null","","","null","31","","","","","","","","","","","","","","","",""
"","time_out","","html-keyboard-response","210","426536","0.0-1.0-287.0-0.0","0","0","10066","","null","","","null","31","","","","","","","","","","","","","","","",""
"","ITI","","html-keyboard-response","211","427544","0.0-1.0-288.0","0","0","10066","","null","","","null","31","","","","","","","","","","","","","","","NaN",""
"","S1","","html-keyboard-response","212","427800","0.0-1.0-290.0","0","0","10066","","null","","","null","32","","","","","","","","","","","","","","","",""
"","ISI","","html-keyboard-response","213","427958","0.0-1.0-291.0","0","0","10066","","null","","","null","32","NaN","","","","","","","","","","","","","","",""
"","S2","","html-keyboard-response","214","428217","0.0-1.0-292.0","0","0","10066","","null","","","null","32","","NaN","","","","","","","","","","","","","",""
"","response","","html-keyboard-response","215","429366","0.0-1.0-293.0-0.0","0","0","10066","","1143","","","75","32","","","1","32","training","adjacent","EF","5","6","Q.jpg","O.jpg","0","1","0","",""
"","feedback","","html-keyboard-response","216","430373","0.0-1.0-294.0-0.0","0","0","10066","","null","","","null","32","","","","","","","","","","","","","","","",""
"","time_out","","html-keyboard-response","217","432380","0.0-1.0-296.0-0.0","0","0","10066","","null","","","null","32","","","","","","","","","","","","","","","",""
"","ITI","","html-keyboard-response","218","433386","0.0-1.0-297.0","0","0","10066","","null","","","null","32","","","","","","","","","","","","","","","NaN",""
"","S1","","html-keyboard-response","219","433641","0.0-1.0-299.0","0","0","10066","","null","","","null","33","","","","","","","","","","","","","","","",""
"","ISI","","html-keyboard-response","220","433797","0.0-1.0-300.0","0","0","10066","","null","","","null","33","NaN","","","","","","","","","","","","","","",""
"","S2","","html-keyboard-response","221","434054","0.0-1.0-301.0","0","0","10066","","null","","","null","33","","NaN","","","","","","","","","","","","","",""
"","response","","html-keyboard-response","222","435111","0.0-1.0-302.0-0.0","0","0","10066","","1051","","","68","33","","","1","33","training","adjacent","CD","3","4","N.jpg","R.jpg","1","1","1","",""
"","feedback","","html-keyboard-response","223","436119","0.0-1.0-303.0-0.0","0","0","10066","","null","","","null","33","","","","","","","","","","","","","","","",""
"","ITI","","html-keyboard-response","224","437127","0.0-1.0-306.0","0","0","10066","","null","","","null","33","","","","","","","","","","","","","","","NaN",""
"","S1","","html-keyboard-response","225","437384","0.0-1.0-308.0","0","0","10066","","null","","","null","34","","","","","","","","","","","","","","","",""
"","ISI","","html-keyboard-response","226","437542","0.0-1.0-309.0","0","0","10066","","null","","","null","34","NaN","","","","","","","","","","","","","","",""
"","S2","","html-keyboard-response","227","437799","0.0-1.0-310.0","0","0","10066","","null","","","null","34","","NaN","","","","","","","","","","","","","",""
"","response","","html-keyboard-response","228","438717","0.0-1.0-311.0-0.0","0","0","10066","","912","","","68","34","","","1","34","training","adjacent","FG","6","7","O.jpg","L.jpg","1","1","1","",""
"","feedback","","html-keyboard-response","229","439733","0.0-1.0-312.0-0.0","0","0","10066","","null","","","null","34","","","","","","","","","","","","","","","",""
"","ITI","","html-keyboard-response","230","440741","0.0-1.0-315.0","0","0","10066","","null","","","null","34","","","","","","","","","","","","","","","NaN",""
"","S1","","html-keyboard-response","231","440997","0.0-1.0-317.0","0","0","10066","","null","","","null","35","","","","","","","","","","","","","","","",""
"","ISI","","html-keyboard-response","232","441152","0.0-1.0-318.0","0","0","10066","","null","","","null","35","NaN","","","","","","","","","","","","","","",""
"","S2","","html-keyboard-response","233","441408","0.0-1.0-319.0","0","0","10066","","null","","","null","35","","NaN","","","","","","","","","","","","","",""
"","response","","html-keyboard-response","234","442900","0.0-1.0-320.0-0.0","0","0","10066","","1485","","","75","35","","","1","35","training","adjacent","AB","1","2","M.jpg","P.jpg","0","1","0","",""
"","feedback","","html-keyboard-response","235","443907","0.0-1.0-321.0-0.0","0","0","10066","","null","","","null","35","","","","","","","","","","","","","","","",""
"","time_out","","html-keyboard-response","236","445914","0.0-1.0-323.0-0.0","0","0","10066","","null","","","null","35","","","","","","","","","","","","","","","",""
"","ITI","","html-keyboard-response","237","446919","0.0-1.0-324.0","0","0","10066","","null","","","null","35","","","","","","","","","","","","","","","NaN",""
"","S1","","html-keyboard-response","238","447176","0.0-1.0-326.0","0","0","10066","","null","","","null","36","","","","","","","","","","","","","","","",""
"","ISI","","html-keyboard-response","239","447332","0.0-1.0-327.0","0","0","10066","","null","","","null","36","NaN","","","","","","","","","","","","","","",""
"","S2","","html-keyboard-response","240","447594","0.0-1.0-328.0","0","0","10066","","null","","","null","36","","NaN","","","","","","","","","","","","","",""
"","response","","html-keyboard-response","241","448435","0.0-1.0-329.0-0.0","0","0","10066","","835","","","68","36","","","1","36","training","adjacent","EF","5","6","Q.jpg","O.jpg","1","1","1","",""
"","feedback","","html-keyboard-response","242","449442","0.0-1.0-330.0-0.0","0","0","10066","","null","","","null","36","","","","","","","","","","","","","","","",""
"","ITI","","html-keyboard-response","243","450450","0.0-1.0-333.0","0","0","10066","","null","","","null","36","","","","","","","","","","","","","","","NaN",""
"","S1","","html-keyboard-response","244","450706","0.0-1.0-335.0","0","0","10066","","null","","","null","37","","","","","","","","","","","","","","","",""
"","ISI","","html-keyboard-response","245","450862","0.0-1.0-336.0","0","0","10066","","null","","","null","37","NaN","","","","","","","","","","","","","","",""
"","S2","","html-keyboard-response","246","451119","0.0-1.0-337.0","0","0","10066","","null","","","null","37","","NaN","","","","","","","","","","","","","",""
"","response","","html-keyboard-response","247","452134","0.0-1.0-338.0-0.0","0","0","10066","","1009","","","68","37","","","1","37","training","adjacent","CD","3","4","N.jpg","R.jpg","1","1","1","",""
"","feedback","","html-keyboard-response","248","453142","0.0-1.0-339.0-0.0","0","0","10066","","null","","","null","37","","","","","","","","","","","","","","","",""
"","ITI","","html-keyboard-response","249","454149","0.0-1.0-342.0","0","0","10066","","null","","","null","37","","","","","","","","","","","","","","","NaN",""
"","S1","","html-keyboard-response","250","454405","0.0-1.0-344.0","0","0","10066","","null","","","null","38","","","","","","","","","","","","","","","",""
"","ISI","","html-keyboard-response","251","454561","0.0-1.0-345.0","0","0","10066","","null","","","null","38","NaN","","","","","","","","","","","","","","",""
"","S2","","html-keyboard-response","252","454819","0.0-1.0-346.0","0","0","10066","","null","","","null","38","","NaN","","","","","","","","","","","","","",""
"","response","","html-keyboard-response","253","455591","0.0-1.0-347.0-0.0","0","0","10066","","763","","","75","38","","","1","38","training","adjacent","BA","2","1","P.jpg","M.jpg","0","0","1","",""
"","feedback","","html-keyboard-response","254","456597","0.0-1.0-348.0-0.0","0","0","10066","","null","","","null","38","","","","","","","","","","","","","","","",""
"","ITI","","html-keyboard-response","255","457603","0.0-1.0-351.0","0","0","10066","","null","","","null","38","","","","","","","","","","","","","","","NaN",""
"","S1","","html-keyboard-response","256","457860","0.0-1.0-353.0","0","0","10066","","null","","","null","39","","","","","","","","","","","","","","","",""
"","ISI","","html-keyboard-response","257","458017","0.0-1.0-354.0","0","0","10066","","null","","","null","39","NaN","","","","","","","","","","","","","","",""
"","S2","","html-keyboard-response","258","458274","0.0-1.0-355.0","0","0","10066","","null","","","null","39","","NaN","","","","","","","","","","","","","",""
"","response","","html-keyboard-response","259","458999","0.0-1.0-356.0-0.0","0","0","10066","","720","","","68","39","","","1","39","training","adjacent","FG","6","7","O.jpg","L.jpg","1","1","1","",""
"","feedback","","html-keyboard-response","260","460009","0.0-1.0-357.0-0.0","0","0","10066","","null","","","null","39","","","","","","","","","","","","","","","",""
"","ITI","","html-keyboard-response","261","461016","0.0-1.0-360.0","0","0","10066","","null","","","null","39","","","","","","","","","","","","","","","NaN",""
"","S1","","html-keyboard-response","262","461272","0.0-1.0-362.0","0","0","10066","","null","","","null","40","","","","","","","","","","","","","","","",""
"","ISI","","html-keyboard-response","263","461429","0.0-1.0-363.0","0","0","10066","","null","","","null","40","NaN","","","","","","","","","","","","","","",""
"","S2","","html-keyboard-response","264","461685","0.0-1.0-364.0","0","0","10066","","null","","","null","40","","NaN","","","","","","","","","","","","","",""
"","response","","html-keyboard-response","265","462684","0.0-1.0-365.0-0.0","0","0","10066","","991","","","68","40","","","1","40","training","adjacent","BA","2","1","P.jpg","M.jpg","1","0","0","",""
"","feedback","","html-keyboard-response","266","463691","0.0-1.0-366.0-0.0","0","0","10066","","null","","","null","40","","","","","","","","","","","","","","","",""
"","time_out","","html-keyboard-response","267","465700","0.0-1.0-368.0-0.0","0","0","10066","","null","","","null","40","","","","","","","","","","","","","","","",""
"","ITI","","html-keyboard-response","268","466707","0.0-1.0-369.0","0","0","10066","","null","","","null","40","","","","","","","","","","","","","","","NaN",""
"","S1","","html-keyboard-response","269","466965","0.0-1.0-371.0","0","0","10066","","null","","","null","41","","","","","","","","","","","","","","","",""
"","ISI","","html-keyboard-response","270","467121","0.0-1.0-372.0","0","0","10066","","null","","","null","41","NaN","","","","","","","","","","","","","","",""
"","S2","","html-keyboard-response","271","467383","0.0-1.0-373.0","0","0","10066","","null","","","null","41","","NaN","","","","","","","","","","","","","",""
"","response","","html-keyboard-response","272","467934","0.0-1.0-374.0-0.0","0","0","10066","","548","","","68","41","","","1","41","training","adjacent","CB","3","2","N.jpg","P.jpg","1","0","0","",""
"","feedback","","html-keyboard-response","273","468944","0.0-1.0-375.0-0.0","0","0","10066","","null","","","null","41","","","","","","","","","","","","","","","",""
"","time_out","","html-keyboard-response","274","470950","0.0-1.0-377.0-0.0","0","0","10066","","null","","","null","41","","","","","","","","","","","","","","","",""
"","ITI","","html-keyboard-response","275","471957","0.0-1.0-378.0","0","0","10066","","null","","","null","41","","","","","","","","","","","","","","","NaN",""
"","S1","","html-keyboard-response","276","472214","0.0-1.0-380.0","0","0","10066","","null","","","null","42","","","","","","","","","","","","","","","",""
"","ISI","","html-keyboard-response","277","472378","0.0-1.0-381.0","0","0","10066","","null","","","null","42","NaN","","","","","","","","","","","","","","",""
"","S2","","html-keyboard-response","278","472642","0.0-1.0-382.0","0","0","10066","","null","","","null","42","","NaN","","","","","","","","","","","","","",""
"","response","","html-keyboard-response","279","473788","0.0-1.0-383.0-0.0","0","0","10066","","1139","","","75","42","","","1","42","training","adjacent","BA","2","1","P.jpg","M.jpg","0","0","1","",""
"","feedback","","html-keyboard-response","280","474796","0.0-1.0-384.0-0.0","0","0","10066","","null","","","null","42","","","","","","","","","","","","","","","",""
"","ITI","","html-keyboard-response","281","475802","0.0-1.0-387.0","0","0","10066","","null","","","null","42","","","","","","","","","","","","","","","NaN",""
"","S1","","html-keyboard-response","282","476058","0.0-1.0-389.0","0","0","10066","","null","","","null","43","","","","","","","","","","","","","","","",""
"","ISI","","html-keyboard-response","283","476216","0.0-1.0-390.0","0","0","10066","","null","","","null","43","NaN","","","","","","","","","","","","","","",""
"","S2","","html-keyboard-response","284","476473","0.0-1.0-391.0","0","0","10066","","null","","","null","43","","NaN","","","","","","","","","","","","","",""
"","response","","html-keyboard-response","285","477575","0.0-1.0-392.0-0.0","0","0","10066","","1098","","","68","43","","","1","43","training","adjacent","BC","2","3","P.jpg","N.jpg","1","1","1","",""
"","feedback","","html-keyboard-response","286","478583","0.0-1.0-393.0-0.0","0","0","10066","","null","","","null","43","","","","","","","","","","","","","","","",""
"","ITI","","html-keyboard-response","287","479590","0.0-1.0-396.0","0","0","10066","","null","","","null","43","","","","","","","","","","","","","","","NaN",""
"","S1","","html-keyboard-response","288","479848","0.0-1.0-398.0","0","0","10066","","null","","","null","44","","","","","","","","","","","","","","","",""
"","ISI","","html-keyboard-response","289","480004","0.0-1.0-399.0","0","0","10066","","null","","","null","44","NaN","","","","","","","","","","","","","","",""
"","S2","","html-keyboard-response","290","480270","0.0-1.0-400.0","0","0","10066","","null","","","null","44","","NaN","","","","","","","","","","","","","",""
"","response","","html-keyboard-response","291","481172","0.0-1.0-401.0-0.0","0","0","10066","","895","","","68","44","","","1","44","training","adjacent","FE","6","5","O.jpg","Q.jpg","1","0","0","",""
"","feedback","","html-keyboard-response","292","482181","0.0-1.0-402.0-0.0","0","0","10066","","null","","","null","44","","","","","","","","","","","","","","","",""
"","time_out","","html-keyboard-response","293","484187","0.0-1.0-404.0-0.0","0","0","10066","","null","","","null","44","","","","","","","","","","","","","","","",""
"","ITI","","html-keyboard-response","294","485192","0.0-1.0-405.0","0","0","10066","","null","","","null","44","","","","","","","","","","","","","","","NaN",""
"","S1","","html-keyboard-response","295","485448","0.0-1.0-407.0","0","0","10066","","null","","","null","45","","","","","","","","","","","","","","","",""
"","ISI","","html-keyboard-response","296","485606","0.0-1.0-408.0","0","0","10066","","null","","","null","45","NaN","","","","","","","","","","","","","","",""
"","S2","","html-keyboard-response","297","485867","0.0-1.0-409.0","0","0","10066","","null","","","null","45","","NaN","","","","","","","","","","","","","",""
"","response","","html-keyboard-response","298","487029","0.0-1.0-410.0-0.0","0","0","10066","","1155","","","68","45","","","1","45","training","adjacent","EF","5","6","Q.jpg","O.jpg","1","1","1","",""
"","feedback","","html-keyboard-response","299","488037","0.0-1.0-411.0-0.0","0","0","10066","","null","","","null","45","","","","","","","","","","","","","","","",""
"","ITI","","html-keyboard-response","300","489045","0.0-1.0-414.0","0","0","10066","","null","","","null","45","","","","","","","","","","","","","","","NaN",""
"","S1","","html-keyboard-response","301","489303","0.0-1.0-416.0","0","0","10066","","null","","","null","46","","","","","","","","","","","","","","","",""
"","ISI","","html-keyboard-response","302","489459","0.0-1.0-417.0","0","0","10066","","null","","","null","46","NaN","","","","","","","","","","","","","","",""
"","S2","","html-keyboard-response","303","489718","0.0-1.0-418.0","0","0","10066","","null","","","null","46","","NaN","","","","","","","","","","","","","",""
"","response","","html-keyboard-response","304","490706","0.0-1.0-419.0-0.0","0","0","10066","","982","","","75","46","","","1","46","training","adjacent","CD","3","4","N.jpg","R.jpg","0","1","0","",""
"","feedback","","html-keyboard-response","305","491711","0.0-1.0-420.0-0.0","0","0","10066","","null","","","null","46","","","","","","","","","","","","","","","",""
"","time_out","","html-keyboard-response","306","493716","0.0-1.0-422.0-0.0","0","0","10066","","null","","","null","46","","","","","","","","","","","","","","","",""
"","ITI","","html-keyboard-response","307","494722","0.0-1.0-423.0","0","0","10066","","null","","","null","46","","","","","","","","","","","","","","","NaN",""
"","S1","","html-keyboard-response","308","494978","0.0-1.0-425.0","0","0","10066","","null","","","null","47","","","","","","","","","","","","","","","",""
"","ISI","","html-keyboard-response","309","495135","0.0-1.0-426.0","0","0","10066","","null","","","null","47","NaN","","","","","","","","","","","","","","",""
"","S2","","html-keyboard-response","310","495391","0.0-1.0-427.0","0","0","10066","","null","","","null","47","","NaN","","","","","","","","","","","","","",""
"","response","","html-keyboard-response","311","496353","0.0-1.0-428.0-0.0","0","0","10066","","956","","","68","47","","","1","47","training","adjacent","DC","4","3","R.jpg","N.jpg","1","0","0","",""
"","feedback","","html-keyboard-response","312","497361","0.0-1.0-429.0-0.0","0","0","10066","","null","","","null","47","","","","","","","","","","","","","","","",""
"","time_out","","html-keyboard-response","313","499367","0.0-1.0-431.0-0.0","0","0","10066","","null","","","null","47","","","","","","","","","","","","","","","",""
"","ITI","","html-keyboard-response","314","500374","0.0-1.0-432.0","0","0","10066","","null","","","null","47","","","","","","","","","","","","","","","NaN",""
"","block_over","","html-keyboard-response","315","511268","0.0-1.0-433.0-0.0","0","0","10066","","10885","","","32","47","","","","","","","","","","","","","","","",""
"","S1","","html-keyboard-response","316","511527","0.0-1.0-434.0","0","0","10066","","null","","","null","48","","","","","","","","","","","","","","","",""
"","ISI","","html-keyboard-response","317","511684","0.0-1.0-435.0","0","0","10066","","null","","","null","48","NaN","","","","","","","","","","","","","","",""
"","S2","","html-keyboard-response","318","511941","0.0-1.0-436.0","0","0","10066","","null","","","null","48","","NaN","","","","","","","","","","","","","",""
"","response","","html-keyboard-response","319","513019","0.0-1.0-437.0-0.0","0","0","10066","","1071","","","68","48","","","2","48","training","adjacent","BA","2","1","P.jpg","M.jpg","1","0","0","",""
"","feedback","","html-keyboard-response","320","514028","0.0-1.0-438.0-0.0","0","0","10066","","null","","","null","48","","","","","","","","","","","","","","","",""
"","time_out","","html-keyboard-response","321","516034","0.0-1.0-440.0-0.0","0","0","10066","","null","","","null","48","","","","","","","","","","","","","","","",""
"","ITI","","html-keyboard-response","322","517039","0.0-1.0-441.0","0","0","10066","","null","","","null","48","","","","","","","","","","","","","","","NaN",""
"","S1","","html-keyboard-response","323","517296","0.0-1.0-443.0","0","0","10066","","null","","","null","49","","","","","","","","","","","","","","","",""
"","ISI","","html-keyboard-response","324","517453","0.0-1.0-444.0","0","0","10066","","null","","","null","49","NaN","","","","","","","","","","","","","","",""
"","S2","","html-keyboard-response","325","517711","0.0-1.0-445.0","0","0","10066","","null","","","null","49","","NaN","","","","","","","","","","","","","",""
"","response","","html-keyboard-response","326","518219","0.0-1.0-446.0-0.0","0","0","10066","","501","","","75","49","","","2","49","training","adjacent","CD","3","4","N.jpg","R.jpg","0","1","0","",""
"","feedback","","html-keyboard-response","327","519228","0.0-1.0-447.0-0.0","0","0","10066","","null","","","null","49","","","","","","","","","","","","","","","",""
"","time_out","","html-keyboard-response","328","521235","0.0-1.0-449.0-0.0","0","0","10066","","null","","","null","49","","","","","","","","","","","","","","","",""
"","ITI","","html-keyboard-response","329","522240","0.0-1.0-450.0","0","0","10066","","null","","","null","49","","","","","","","","","","","","","","","NaN",""
"","S1","","html-keyboard-response","330","522501","0.0-1.0-452.0","0","0","10066","","null","","","null","50","","","","","","","","","","","","","","","",""
"","ISI","","html-keyboard-response","331","522657","0.0-1.0-453.0","0","0","10066","","null","","","null","50","NaN","","","","","","","","","","","","","","",""
"","S2","","html-keyboard-response","332","522913","0.0-1.0-454.0","0","0","10066","","null","","","null","50","","NaN","","","","","","","","","","","","","",""
"","response","","html-keyboard-response","333","523734","0.0-1.0-455.0-0.0","0","0","10066","","816","","","68","50","","","2","50","training","adjacent","EF","5","6","Q.jpg","O.jpg","1","1","1","",""
"","feedback","","html-keyboard-response","334","524743","0.0-1.0-456.0-0.0","0","0","10066","","null","","","null","50","","","","","","","","","","","","","","","",""
"","ITI","","html-keyboard-response","335","525750","0.0-1.0-459.0","0","0","10066","","null","","","null","50","","","","","","","","","","","","","","","NaN",""
"","S1","","html-keyboard-response","336","526007","0.0-1.0-461.0","0","0","10066","","null","","","null","51","","","","","","","","","","","","","","","",""
"","ISI","","html-keyboard-response","337","526165","0.0-1.0-462.0","0","0","10066","","null","","","null","51","NaN","","","","","","","","","","","","","","",""
"","S2","","html-keyboard-response","338","526421","0.0-1.0-463.0","0","0","10066","","null","","","null","51","","NaN","","","","","","","","","","","","","",""
"","response","","html-keyboard-response","339","527666","0.0-1.0-464.0-0.0","0","0","10066","","1241","","","68","51","","","2","51","training","adjacent","DE","4","5","R.jpg","Q.jpg","1","1","1","",""
"","feedback","","html-keyboard-response","340","528672","0.0-1.0-465.0-0.0","0","0","10066","","null","","","null","51","","","","","","","","","","","","","","","",""
"","ITI","","html-keyboard-response","341","529678","0.0-1.0-468.0","0","0","10066","","null","","","null","51","","","","","","","","","","","","","","","NaN",""
"","S1","","html-keyboard-response","342","529934","0.0-1.0-470.0","0","0","10066","","null","","","null","52","","","","","","","","","","","","","","","",""
"","ISI","","html-keyboard-response","343","530097","0.0-1.0-471.0","0","0","10066","","null","","","null","52","NaN","","","","","","","","","","","","","","",""
"","S2","","html-keyboard-response","344","530354","0.0-1.0-472.0","0","0","10066","","null","","","null","52","","NaN","","","","","","","","","","","","","",""
"","response","","html-keyboard-response","345","531394","0.0-1.0-473.0-0.0","0","0","10066","","1035","","","75","52","","","2","52","training","adjacent","BC","2","3","P.jpg","N.jpg","0","1","0","",""
"","feedback","","html-keyboard-response","346","532403","0.0-1.0-474.0-0.0","0","0","10066","","null","","","null","52","","","","","","","","","","","","","","","",""
"","time_out","","html-keyboard-response","347","534411","0.0-1.0-476.0-0.0","0","0","10066","","null","","","null","52","","","","","","","","","","","","","","","",""
"","ITI","","html-keyboard-response","348","535418","0.0-1.0-477.0","0","0","10066","","null","","","null","52","","","","","","","","","","","","","","","NaN",""
"","S1","","html-keyboard-response","349","535676","0.0-1.0-479.0","0","0","10066","","null","","","null","53","","","","","","","","","","","","","","","",""
"","ISI","","html-keyboard-response","350","535832","0.0-1.0-480.0","0","0","10066","","null","","","null","53","NaN","","","","","","","","","","","","","","",""
"","S2","","html-keyboard-response","351","536089","0.0-1.0-481.0","0","0","10066","","null","","","null","53","","NaN","","","","","","","","","","","","","",""
"","response","","html-keyboard-response","352","536911","0.0-1.0-482.0-0.0","0","0","10066","","817","","","68","53","","","2","53","training","adjacent","DE","4","5","R.jpg","Q.jpg","1","1","1","",""
"","feedback","","html-keyboard-response","353","537922","0.0-1.0-483.0-0.0","0","0","10066","","null","","","null","53","","","","","","","","","","","","","","","",""
"","ITI","","html-keyboard-response","354","538930","0.0-1.0-486.0","0","0","10066","","null","","","null","53","","","","","","","","","","","","","","","NaN",""
"","S1","","html-keyboard-response","355","539186","0.0-1.0-488.0","0","0","10066","","null","","","null","54","","","","","","","","","","","","","","","",""
"","ISI","","html-keyboard-response","356","539341","0.0-1.0-489.0","0","0","10066","","null","","","null","54","NaN","","","","","","","","","","","","","","",""
"","S2","","html-keyboard-response","357","539602","0.0-1.0-490.0","0","0","10066","","null","","","null","54","","NaN","","","","","","","","","","","","","",""
"","response","","html-keyboard-response","358","540518","0.0-1.0-491.0-0.0","0","0","10066","","908","","","68","54","","","2","54","training","adjacent","CB","3","2","N.jpg","P.jpg","1","0","0","",""
"","feedback","","html-keyboard-response","359","541527","0.0-1.0-492.0-0.0","0","0","10066","","null","","","null","54","","","","","","","","","","","","","","","",""
"","time_out","","html-keyboard-response","360","543534","0.0-1.0-494.0-0.0","0","0","10066","","null","","","null","54","","","","","","","","","","","","","","","",""
"","ITI","","html-keyboard-response","361","544540","0.0-1.0-495.0","0","0","10066","","null","","","null","54","","","","","","","","","","","","","","","NaN",""
"","S1","","html-keyboard-response","362","544797","0.0-1.0-497.0","0","0","10066","","null","","","null","55","","","","","","","","","","","","","","","",""
"","ISI","","html-keyboard-response","363","544952","0.0-1.0-498.0","0","0","10066","","null","","","null","55","NaN","","","","","","","","","","","","","","",""
"","S2","","html-keyboard-response","364","545210","0.0-1.0-499.0","0","0","10066","","null","","","null","55","","NaN","","","","","","","","","","","","","",""
"","response","","html-keyboard-response","365","545722","0.0-1.0-500.0-0.0","0","0","10066","","504","","","68","55","","","2","55","training","adjacent","CB","3","2","N.jpg","P.jpg","1","0","0","",""
"","feedback","","html-keyboard-response","366","546731","0.0-1.0-501.0-0.0","0","0","10066","","null","","","null","55","","","","","","","","","","","","","","","",""
"","time_out","","html-keyboard-response","367","548739","0.0-1.0-503.0-0.0","0","0","10066","","null","","","null","55","","","","","","","","","","","","","","","",""
"","ITI","","html-keyboard-response","368","549746","0.0-1.0-504.0","0","0","10066","","null","","","null","55","","","","","","","","","","","","","","","NaN",""
"","S1","","html-keyboard-response","369","550004","0.0-1.0-506.0","0","0","10066","","null","","","null","56","","","","","","","","","","","","","","","",""
"","ISI","","html-keyboard-response","370","550159","0.0-1.0-507.0","0","0","10066","","null","","","null","56","NaN","","","","","","","","","","","","","","",""
"","S2","","html-keyboard-response","371","550417","0.0-1.0-508.0","0","0","10066","","null","","","null","56","","NaN","","","","","","","","","","","","","",""
"","response","","html-keyboard-response","372","551002","0.0-1.0-509.0-0.0","0","0","10066","","577","","","68","56","","","2","56","training","adjacent","FG","6","7","O.jpg","L.jpg","1","1","1","",""
"","feedback","","html-keyboard-response","373","552008","0.0-1.0-510.0-0.0","0","0","10066","","null","","","null","56","","","","","","","","","","","","","","","",""
"","ITI","","html-keyboard-response","374","553013","0.0-1.0-513.0","0","0","10066","","null","","","null","56","","","","","","","","","","","","","","","NaN",""
"","S1","","html-keyboard-response","375","553268","0.0-1.0-515.0","0","0","10066","","null","","","null","57","","","","","","","","","","","","","","","",""
"","ISI","","html-keyboard-response","376","553423","0.0-1.0-516.0","0","0","10066","","null","","","null","57","NaN","","","","","","","","","","","","","","",""
"","S2","","html-keyboard-response","377","553680","0.0-1.0-517.0","0","0","10066","","null","","","null","57","","NaN","","","","","","","","","","","","","",""
"","response","","html-keyboard-response","378","554285","0.0-1.0-518.0-0.0","0","0","10066","","598","","","75","57","","","2","57","training","adjacent","DE","4","5","R.jpg","Q.jpg","0","1","0","",""
"","feedback","","html-keyboard-response","379","555298","0.0-1.0-519.0-0.0","0","0","10066","","null","","","null","57","","","","","","","","","","","","","","","",""
"","time_out","","html-keyboard-response","380","557305","0.0-1.0-521.0-0.0","0","0","10066","","null","","","null","57","","","","","","","","","","","","","","","",""
"","ITI","","html-keyboard-response","381","558313","0.0-1.0-522.0","0","0","10066","","null","","","null","57","","","","","","","","","","","","","","","NaN",""
"","S1","","html-keyboard-response","382","558571","0.0-1.0-524.0","0","0","10066","","null","","","null","58","","","","","","","","","","","","","","","",""
"","ISI","","html-keyboard-response","383","558727","0.0-1.0-525.0","0","0","10066","","null","","","null","58","NaN","","","","","","","","","","","","","","",""
"","S2","","html-keyboard-response","384","558988","0.0-1.0-526.0","0","0","10066","","null","","","null","58","","NaN","","","","","","","","","","","","","",""
"","response","","html-keyboard-response","385","559788","0.0-1.0-527.0-0.0","0","0","10066","","791","","","75","58","","","2","58","training","adjacent","DC","4","3","R.jpg","N.jpg","0","0","1","",""
"","feedback","","html-keyboard-response","386","560797","0.0-1.0-528.0-0.0","0","0","10066","","null","","","null","58","","","","","","","","","","","","","","","",""
"","ITI","","html-keyboard-response","387","561804","0.0-1.0-531.0","0","0","10066","","null","","","null","58","","","","","","","","","","","","","","","NaN",""
"","S1","","html-keyboard-response","388","562063","0.0-1.0-533.0","0","0","10066","","null","","","null","59","","","","","","","","","","","","","","","",""
"","ISI","","html-keyboard-response","389","562223","0.0-1.0-534.0","0","0","10066","","null","","","null","59","NaN","","","","","","","","","","","","","","",""
"","S2","","html-keyboard-response","390","562478","0.0-1.0-535.0","0","0","10066","","null","","","null","59","","NaN","","","","","","","","","","","","","",""
"","response","","html-keyboard-response","391","563476","0.0-1.0-536.0-0.0","0","0","10066","","989","","","68","59","","","2","59","training","adjacent","FG","6","7","O.jpg","L.jpg","1","1","1","",""
"","feedback","","html-keyboard-response","392","564485","0.0-1.0-537.0-0.0","0","0","10066","","null","","","null","59","","","","","","","","","","","","","","","",""
"","ITI","","html-keyboard-response","393","565493","0.0-1.0-540.0","0","0","10066","","null","","","null","59","","","","","","","","","","","","","","","NaN",""
"","S1","","html-keyboard-response","394","565760","0.0-1.0-542.0","0","0","10066","","null","","","null","60","","","","","","","","","","","","","","","",""
"","ISI","","html-keyboard-response","395","565916","0.0-1.0-543.0","0","0","10066","","null","","","null","60","NaN","","","","","","","","","","","","","","",""
"","S2","","html-keyboard-response","396","566173","0.0-1.0-544.0","0","0","10066","","null","","","null","60","","NaN","","","","","","","","","","","","","",""
"","response","","html-keyboard-response","397","567216","0.0-1.0-545.0-0.0","0","0","10066","","1037","","","68","60","","","2","60","training","adjacent","DC","4","3","R.jpg","N.jpg","1","0","0","",""
"","feedback","","html-keyboard-response","398","568224","0.0-1.0-546.0-0.0","0","0","10066","","null","","","null","60","","","","","","","","","","","","","","","",""
"","time_out","","html-keyboard-response","399","570234","0.0-1.0-548.0-0.0","0","0","10066","","null","","","null","60","","","","","","","","","","","","","","","",""
"","ITI","","html-keyboard-response","400","571241","0.0-1.0-549.0","0","0","10066","","null","","","null","60","","","","","","","","","","","","","","","NaN",""
"","S1","","html-keyboard-response","401","571500","0.0-1.0-551.0","0","0","10066","","null","","","null","61","","","","","","","","","","","","","","","",""
"","ISI","","html-keyboard-response","402","571659","0.0-1.0-552.0","0","0","10066","","null","","","null","61","NaN","","","","","","","","","","","","","","",""
"","S2","","html-keyboard-response","403","571933","0.0-1.0-553.0","0","0","10066","","null","","","null","61","","NaN","","","","","","","","","","","","","",""
"","response","","html-keyboard-response","404","572768","0.0-1.0-554.0-0.0","0","0","10066","","827","","","75","61","","","2","61","training","adjacent","AB","1","2","M.jpg","P.jpg","0","1","0","",""
"","feedback","","html-keyboard-response","405","573782","0.0-1.0-555.0-0.0","0","0","10066","","null","","","null","61","","","","","","","","","","","","","","","",""
"","time_out","","html-keyboard-response","406","575792","0.0-1.0-557.0-0.0","0","0","10066","","null","","","null","61","","","","","","","","","","","","","","","",""
"","ITI","","html-keyboard-response","407","576801","0.0-1.0-558.0","0","0","10066","","null","","","null","61","","","","","","","","","","","","","","","NaN",""
"","S1","","html-keyboard-response","408","577058","0.0-1.0-560.0","0","0","10066","","null","","","null","62","","","","","","","","","","","","","","","",""
"","ISI","","html-keyboard-response","409","577217","0.0-1.0-561.0","0","0","10066","","null","","","null","62","NaN","","","","","","","","","","","","","","",""
"","S2","","html-keyboard-response","410","577475","0.0-1.0-562.0","0","0","10066","","null","","","null","62","","NaN","","","","","","","","","","","","","",""
"","response","","html-keyboard-response","411","578288","0.0-1.0-563.0-0.0","0","0","10066","","804","","","68","62","","","2","62","training","adjacent","BA","2","1","P.jpg","M.jpg","1","0","0","",""
"","feedback","","html-keyboard-response","412","579296","0.0-1.0-564.0-0.0","0","0","10066","","null","","","null","62","","","","","","","","","","","","","","","",""
"","time_out","","html-keyboard-response","413","581308","0.0-1.0-566.0-0.0","0","0","10066","","null","","","null","62","","","","","","","","","","","","","","","",""
"","ITI","","html-keyboard-response","414","582316","0.0-1.0-567.0","0","0","10066","","null","","","null","62","","","","","","","","","","","","","","","NaN",""
"","S1","","html-keyboard-response","415","582577","0.0-1.0-569.0","0","0","10066","","null","","","null","63","","","","","","","","","","","","","","","",""
"","ISI","","html-keyboard-response","416","582732","0.0-1.0-570.0","0","0","10066","","null","","","null","63","NaN","","","","","","","","","","","","","","",""
"","S2","","html-keyboard-response","417","582988","0.0-1.0-571.0","0","0","10066","","null","","","null","63","","NaN","","","","","","","","","","","","","",""
"","response","","html-keyboard-response","418","583661","0.0-1.0-572.0-0.0","0","0","10066","","664","","","75","63","","","2","63","training","adjacent","GF","7","6","L.jpg","O.jpg","0","0","1","",""
"","feedback","","html-keyboard-response","419","584671","0.0-1.0-573.0-0.0","0","0","10066","","null","","","null","63","","","","","","","","","","","","","","","",""
"","ITI","","html-keyboard-response","420","585683","0.0-1.0-576.0","0","0","10066","","null","","","null","63","","","","","","","","","","","","","","","NaN",""
"","S1","","html-keyboard-response","421","585941","0.0-1.0-578.0","0","0","10066","","null","","","null","64","","","","","","","","","","","","","","","",""
"","ISI","","html-keyboard-response","422","586100","0.0-1.0-579.0","0","0","10066","","null","","","null","64","NaN","","","","","","","","","","","","","","",""
"","S2","","html-keyboard-response","423","586359","0.0-1.0-580.0","0","0","10066","","null","","","null","64","","NaN","","","","","","","","","","","","","",""
"","response","","html-keyboard-response","424","587127","0.0-1.0-581.0-0.0","0","0","10066","","761","","","68","64","","","2","64","training","adjacent","BC","2","3","P.jpg","N.jpg","1","1","1","",""
"","feedback","","html-keyboard-response","425","588137","0.0-1.0-582.0-0.0","0","0","10066","","null","","","null","64","","","","","","","","","","","","","","","",""
"","ITI","","html-keyboard-response","426","589145","0.0-1.0-585.0","0","0","10066","","null","","","null","64","","","","","","","","","","","","","","","NaN",""
"","S1","","html-keyboard-response","427","589407","0.0-1.0-587.0","0","0","10066","","null","","","null","65","","","","","","","","","","","","","","","",""
"","ISI","","html-keyboard-response","428","589570","0.0-1.0-588.0","0","0","10066","","null","","","null","65","NaN","","","","","","","","","","","","","","",""
"","S2","","html-keyboard-response","429","589832","0.0-1.0-589.0","0","0","10066","","null","","","null","65","","NaN","","","","","","","","","","","","","",""
"","response","","html-keyboard-response","430","590844","0.0-1.0-590.0-0.0","0","0","10066","","999","","","75","65","","","2","65","training","adjacent","CD","3","4","N.jpg","R.jpg","0","1","0","",""
"","feedback","","html-keyboard-response","431","591860","0.0-1.0-591.0-0.0","0","0","10066","","null","","","null","65","","","","","","","","","","","","","","","",""
"","time_out","","html-keyboard-response","432","593871","0.0-1.0-593.0-0.0","0","0","10066","","null","","","null","65","","","","","","","","","","","","","","","",""
"","ITI","","html-keyboard-response","433","594881","0.0-1.0-594.0","0","0","10066","","null","","","null","65","","","","","","","","","","","","","","","NaN",""
"","S1","","html-keyboard-response","434","595140","0.0-1.0-596.0","0","0","10066","","null","","","null","66","","","","","","","","","","","","","","","",""
"","ISI","","html-keyboard-response","435","595296","0.0-1.0-597.0","0","0","10066","","null","","","null","66","NaN","","","","","","","","","","","","","","",""
"","S2","","html-keyboard-response","436","595552","0.0-1.0-598.0","0","0","10066","","null","","","null","66","","NaN","","","","","","","","","","","","","",""
"","response","","html-keyboard-response","437","596016","0.0-1.0-599.0-0.0","0","0","10066","","459","","","68","66","","","2","66","training","adjacent","FE","6","5","O.jpg","Q.jpg","1","0","0","",""
"","feedback","","html-keyboard-response","438","597023","0.0-1.0-600.0-0.0","0","0","10066","","null","","","null","66","","","","","","","","","","","","","","","",""
"","time_out","","html-keyboard-response","439","599031","0.0-1.0-602.0-0.0","0","0","10066","","null","","","null","66","","","","","","","","","","","","","","","",""
"","ITI","","html-keyboard-response","440","600037","0.0-1.0-603.0","0","0","10066","","null","","","null","66","","","","","","","","","","","","","","","NaN",""
"","S1","","html-keyboard-response","441","600296","0.0-1.0-605.0","0","0","10066","","null","","","null","67","","","","","","","","","","","","","","","",""
"","ISI","","html-keyboard-response","442","600454","0.0-1.0-606.0","0","0","10066","","null","","","null","67","NaN","","","","","","","","","","","","","","",""
"","S2","","html-keyboard-response","443","600713","0.0-1.0-607.0","0","0","10066","","null","","","null","67","","NaN","","","","","","","","","","","","","",""
"","response","","html-keyboard-response","444","601516","0.0-1.0-608.0-0.0","0","0","10066","","796","","","68","67","","","2","67","training","adjacent","AB","1","2","M.jpg","P.jpg","1","1","1","",""
"","feedback","","html-keyboard-response","445","602527","0.0-1.0-609.0-0.0","0","0","10066","","null","","","null","67","","","","","","","","","","","","","","","",""
"","ITI","","html-keyboard-response","446","603537","0.0-1.0-612.0","0","0","10066","","null","","","null","67","","","","","","","","","","","","","","","NaN",""
"","S1","","html-keyboard-response","447","603795","0.0-1.0-614.0","0","0","10066","","null","","","null","68","","","","","","","","","","","","","","","",""
"","ISI","","html-keyboard-response","448","603953","0.0-1.0-615.0","0","0","10066","","null","","","null","68","NaN","","","","","","","","","","","","","","",""
"","S2","","html-keyboard-response","449","604213","0.0-1.0-616.0","0","0","10066","","null","","","null","68","","NaN","","","","","","","","","","","","","",""
"","response","","html-keyboard-response","450","604633","0.0-1.0-617.0-0.0","0","0","10066","","412","","","75","68","","","2","68","training","adjacent","GF","7","6","L.jpg","O.jpg","0","0","1","",""
"","feedback","","html-keyboard-response","451","605645","0.0-1.0-618.0-0.0","0","0","10066","","null","","","null","68","","","","","","","","","","","","","","","",""
"","ITI","","html-keyboard-response","452","606653","0.0-1.0-621.0","0","0","10066","","null","","","null","68","","","","","","","","","","","","","","","NaN",""
"","S1","","html-keyboard-response","453","606909","0.0-1.0-623.0","0","0","10066","","null","","","null","69","","","","","","","","","","","","","","","",""
"","ISI","","html-keyboard-response","454","607063","0.0-1.0-624.0","0","0","10066","","null","","","null","69","NaN","","","","","","","","","","","","","","",""
"","S2","","html-keyboard-response","455","607319","0.0-1.0-625.0","0","0","10066","","null","","","null","69","","NaN","","","","","","","","","","","","","",""
"","response","","html-keyboard-response","456","608000","0.0-1.0-626.0-0.0","0","0","10066","","672","","","68","69","","","2","69","training","adjacent","BC","2","3","P.jpg","N.jpg","1","1","1","",""
"","feedback","","html-keyboard-response","457","609009","0.0-1.0-627.0-0.0","0","0","10066","","null","","","null","69","","","","","","","","","","","","","","","",""
"","ITI","","html-keyboard-response","458","610017","0.0-1.0-630.0","0","0","10066","","null","","","null","69","","","","","","","","","","","","","","","NaN",""
"","S1","","html-keyboard-response","459","610277","0.0-1.0-632.0","0","0","10066","","null","","","null","70","","","","","","","","","","","","","","","",""
"","ISI","","html-keyboard-response","460","610434","0.0-1.0-633.0","0","0","10066","","null","","","null","70","NaN","","","","","","","","","","","","","","",""
"","S2","","html-keyboard-response","461","610691","0.0-1.0-634.0","0","0","10066","","null","","","null","70","","NaN","","","","","","","","","","","","","",""
"","response","","html-keyboard-response","462","611354","0.0-1.0-635.0-0.0","0","0","10066","","646","","","68","70","","","2","70","training","adjacent","ED","5","4","Q.jpg","R.jpg","1","0","0","",""
"","feedback","","html-keyboard-response","463","612367","0.0-1.0-636.0-0.0","0","0","10066","","null","","","null","70","","","","","","","","","","","","","","","",""
"","time_out","","html-keyboard-response","464","614378","0.0-1.0-638.0-0.0","0","0","10066","","null","","","null","70","","","","","","","","","","","","","","","",""
"","ITI","","html-keyboard-response","465","615386","0.0-1.0-639.0","0","0","10066","","null","","","null","70","","","","","","","","","","","","","","","NaN",""
"","S1","","html-keyboard-response","466","615645","0.0-1.0-641.0","0","0","10066","","null","","","null","71","","","","","","","","","","","","","","","",""
"","ISI","","html-keyboard-response","467","615802","0.0-1.0-642.0","0","0","10066","","null","","","null","71","NaN","","","","","","","","","","","","","","",""
"","S2","","html-keyboard-response","468","616059","0.0-1.0-643.0","0","0","10066","","null","","","null","71","","NaN","","","","","","","","","","","","","",""
"","response","","html-keyboard-response","469","616682","0.0-1.0-644.0-0.0","0","0","10066","","616","","","75","71","","","2","71","training","adjacent","BA","2","1","P.jpg","M.jpg","0","0","1","",""
"","feedback","","html-keyboard-response","470","617693","0.0-1.0-645.0-0.0","0","0","10066","","null","","","null","71","","","","","","","","","","","","","","","",""
"","ITI","","html-keyboard-response","471","618702","0.0-1.0-648.0","0","0","10066","","null","","","null","71","","","","","","","","","","","","","","","NaN",""
"","S1","","html-keyboard-response","472","618961","0.0-1.0-650.0","0","0","10066","","null","","","null","72","","","","","","","","","","","","","","","",""
"","ISI","","html-keyboard-response","473","619120","0.0-1.0-651.0","0","0","10066","","null","","","null","72","NaN","","","","","","","","","","","","","","",""
"","S2","","html-keyboard-response","474","619379","0.0-1.0-652.0","0","0","10066","","null","","","null","72","","NaN","","","","","","","","","","","","","",""
"","response","","html-keyboard-response","475","620063","0.0-1.0-653.0-0.0","0","0","10066","","675","","","68","72","","","2","72","training","adjacent","CD","3","4","N.jpg","R.jpg","1","1","1","",""
"","feedback","","html-keyboard-response","476","621074","0.0-1.0-654.0-0.0","0","0","10066","","null","","","null","72","","","","","","","","","","","","","","","",""
"","ITI","","html-keyboard-response","477","622085","0.0-1.0-657.0","0","0","10066","","null","","","null","72","","","","","","","","","","","","","","","NaN",""
"","S1","","html-keyboard-response","478","622343","0.0-1.0-659.0","0","0","10066","","null","","","null","73","","","","","","","","","","","","","","","",""
"","ISI","","html-keyboard-response","479","622499","0.0-1.0-660.0","0","0","10066","","null","","","null","73","NaN","","","","","","","","","","","","","","",""
"","S2","","html-keyboard-response","480","622755","0.0-1.0-661.0","0","0","10066","","null","","","null","73","","NaN","","","","","","","","","","","","","",""
"","response","","html-keyboard-response","481","623552","0.0-1.0-662.0-0.0","0","0","10066","","789","","","75","73","","","2","73","training","adjacent","FG","6","7","O.jpg","L.jpg","0","1","0","",""
"","feedback","","html-keyboard-response","482","624566","0.0-1.0-663.0-0.0","0","0","10066","","null","","","null","73","","","","","","","","","","","","","","","",""
"","time_out","","html-keyboard-response","483","626574","0.0-1.0-665.0-0.0","0","0","10066","","null","","","null","73","","","","","","","","","","","","","","","",""
"","ITI","","html-keyboard-response","484","627578","0.0-1.0-666.0","0","0","10066","","null","","","null","73","","","","","","","","","","","","","","","NaN",""
"","S1","","html-keyboard-response","485","627833","0.0-1.0-668.0","0","0","10066","","null","","","null","74","","","","","","","","","","","","","","","",""
"","ISI","","html-keyboard-response","486","627989","0.0-1.0-669.0","0","0","10066","","null","","","null","74","NaN","","","","","","","","","","","","","","",""
"","S2","","html-keyboard-response","487","628247","0.0-1.0-670.0","0","0","10066","","null","","","null","74","","NaN","","","","","","","","","","","","","",""
"","response","","html-keyboard-response","488","629178","0.0-1.0-671.0-0.0","0","0","10066","","923","","","68","74","","","2","74","training","adjacent","DC","4","3","R.jpg","N.jpg","1","0","0","",""
"","feedback","","html-keyboard-response","489","630189","0.0-1.0-672.0-0.0","0","0","10066","","null","","","null","74","","","","","","","","","","","","","","","",""
"","time_out","","html-keyboard-response","490","632199","0.0-1.0-674.0-0.0","0","0","10066","","null","","","null","74","","","","","","","","","","","","","","","",""
"","ITI","","html-keyboard-response","491","633205","0.0-1.0-675.0","0","0","10066","","null","","","null","74","","","","","","","","","","","","","","","NaN",""
"","S1","","html-keyboard-response","492","633462","0.0-1.0-677.0","0","0","10066","","null","","","null","75","","","","","","","","","","","","","","","",""
"","ISI","","html-keyboard-response","493","633620","0.0-1.0-678.0","0","0","10066","","null","","","null","75","NaN","","","","","","","","","","","","","","",""
"","S2","","html-keyboard-response","494","633877","0.0-1.0-679.0","0","0","10066","","null","","","null","75","","NaN","","","","","","","","","","","","","",""
"","response","","html-keyboard-response","495","634677","0.0-1.0-680.0-0.0","0","0","10066","","794","","","68","75","","","2","75","training","adjacent","FE","6","5","O.jpg","Q.jpg","1","0","0","",""
"","feedback","","html-keyboard-response","496","635686","0.0-1.0-681.0-0.0","0","0","10066","","null","","","null","75","","","","","","","","","","","","","","","",""
"","time_out","","html-keyboard-response","497","637693","0.0-1.0-683.0-0.0","0","0","10066","","null","","","null","75","","","","","","","","","","","","","","","",""
"","ITI","","html-keyboard-response","498","638700","0.0-1.0-684.0","0","0","10066","","null","","","null","75","","","","","","","","","","","","","","","NaN",""
"","S1","","html-keyboard-response","499","638956","0.0-1.0-686.0","0","0","10066","","null","","","null","76","","","","","","","","","","","","","","","",""
"","ISI","","html-keyboard-response","500","639114","0.0-1.0-687.0","0","0","10066","","null","","","null","76","NaN","","","","","","","","","","","","","","",""
"","S2","","html-keyboard-response","501","639372","0.0-1.0-688.0","0","0","10066","","null","","","null","76","","NaN","","","","","","","","","","","","","",""
"","response","","html-keyboard-response","502","639963","0.0-1.0-689.0-0.0","0","0","10066","","583","","","75","76","","","2","76","training","adjacent","CB","3","2","N.jpg","P.jpg","0","0","1","",""
"","feedback","","html-keyboard-response","503","640973","0.0-1.0-690.0-0.0","0","0","10066","","null","","","null","76","","","","","","","","","","","","","","","",""
"","ITI","","html-keyboard-response","504","641983","0.0-1.0-693.0","0","0","10066","","null","","","null","76","","","","","","","","","","","","","","","NaN",""
"","S1","","html-keyboard-response","505","642243","0.0-1.0-695.0","0","0","10066","","null","","","null","77","","","","","","","","","","","","","","","",""
"","ISI","","html-keyboard-response","506","642400","0.0-1.0-696.0","0","0","10066","","null","","","null","77","NaN","","","","","","","","","","","","","","",""
"","S2","","html-keyboard-response","507","642656","0.0-1.0-697.0","0","0","10066","","null","","","null","77","","NaN","","","","","","","","","","","","","",""
"","response","","html-keyboard-response","508","643414","0.0-1.0-698.0-0.0","0","0","10066","","750","","","75","77","","","2","77","training","adjacent","GF","7","6","L.jpg","O.jpg","0","0","1","",""
"","feedback","","html-keyboard-response","509","644423","0.0-1.0-699.0-0.0","0","0","10066","","null","","","null","77","","","","","","","","","","","","","","","",""
"","ITI","","html-keyboard-response","510","645429","0.0-1.0-702.0","0","0","10066","","null","","","null","77","","","","","","","","","","","","","","","NaN",""
"","S1","","html-keyboard-response","511","645683","0.0-1.0-704.0","0","0","10066","","null","","","null","78","","","","","","","","","","","","","","","",""
"","ISI","","html-keyboard-response","512","645839","0.0-1.0-705.0","0","0","10066","","null","","","null","78","NaN","","","","","","","","","","","","","","",""
"","S2","","html-keyboard-response","513","646096","0.0-1.0-706.0","0","0","10066","","null","","","null","78","","NaN","","","","","","","","","","","","","",""
"","response","","html-keyboard-response","514","646793","0.0-1.0-707.0-0.0","0","0","10066","","689","","","68","78","","","2","78","training","adjacent","DE","4","5","R.jpg","Q.jpg","1","1","1","",""
"","feedback","","html-keyboard-response","515","647802","0.0-1.0-708.0-0.0","0","0","10066","","null","","","null","78","","","","","","","","","","","","","","","",""
"","ITI","","html-keyboard-response","516","648810","0.0-1.0-711.0","0","0","10066","","null","","","null","78","","","","","","","","","","","","","","","NaN",""
"","S1","","html-keyboard-response","517","649070","0.0-1.0-713.0","0","0","10066","","null","","","null","79","","","","","","","","","","","","","","","",""
"","ISI","","html-keyboard-response","518","649227","0.0-1.0-714.0","0","0","10066","","null","","","null","79","NaN","","","","","","","","","","","","","","",""
"","S2","","html-keyboard-response","519","649483","0.0-1.0-715.0","0","0","10066","","null","","","null","79","","NaN","","","","","","","","","","","","","",""
"","response","","html-keyboard-response","520","650378","0.0-1.0-716.0-0.0","0","0","10066","","886","","","68","79","","","2","79","training","adjacent","BA","2","1","P.jpg","M.jpg","1","0","0","",""
"","feedback","","html-keyboard-response","521","651390","0.0-1.0-717.0-0.0","0","0","10066","","null","","","null","79","","","","","","","","","","","","","","","",""
"","time_out","","html-keyboard-response","522","653399","0.0-1.0-719.0-0.0","0","0","10066","","null","","","null","79","","","","","","","","","","","","","","","",""
"","ITI","","html-keyboard-response","523","654404","0.0-1.0-720.0","0","0","10066","","null","","","null","79","","","","","","","","","","","","","","","NaN",""
"","S1","","html-keyboard-response","524","654662","0.0-1.0-722.0","0","0","10066","","null","","","null","80","","","","","","","","","","","","","","","",""
"","ISI","","html-keyboard-response","525","654817","0.0-1.0-723.0","0","0","10066","","null","","","null","80","NaN","","","","","","","","","","","","","","",""
"","S2","","html-keyboard-response","526","655076","0.0-1.0-724.0","0","0","10066","","null","","","null","80","","NaN","","","","","","","","","","","","","",""
"","response","","html-keyboard-response","527","655871","0.0-1.0-725.0-0.0","0","0","10066","","786","","","75","80","","","2","80","training","adjacent","GF","7","6","L.jpg","O.jpg","0","0","1","",""
"","feedback","","html-keyboard-response","528","656881","0.0-1.0-726.0-0.0","0","0","10066","","null","","","null","80","","","","","","","","","","","","","","","",""
"","ITI","","html-keyboard-response","529","657891","0.0-1.0-729.0","0","0","10066","","574","","","68","80","","","","","","","","","","","","","","","d",""
"","S1","","html-keyboard-response","530","658152","0.0-1.0-731.0","0","0","10066","","null","","","null","81","","","","","","","","","","","","","","","",""
"","ISI","","html-keyboard-response","531","658309","0.0-1.0-732.0","0","0","10066","","null","","","null","81","NaN","","","","","","","","","","","","","","",""
"","S2","","html-keyboard-response","532","658567","0.0-1.0-733.0","0","0","10066","","null","","","null","81","","NaN","","","","","","","","","","","","","",""
"","response","","html-keyboard-response","533","659374","0.0-1.0-734.0-0.0","0","0","10066","","799","","","68","81","","","2","81","training","adjacent","EF","5","6","Q.jpg","O.jpg","1","1","1","",""
"","feedback","","html-keyboard-response","534","660384","0.0-1.0-735.0-0.0","0","0","10066","","null","","","null","81","","","","","","","","","","","","","","","",""
"","ITI","","html-keyboard-response","535","661392","0.0-1.0-738.0","0","0","10066","","null","","","null","81","","","","","","","","","","","","","","","NaN",""
"","S1","","html-keyboard-response","536","661650","0.0-1.0-740.0","0","0","10066","","null","","","null","82","","","","","","","","","","","","","","","",""
"","ISI","","html-keyboard-response","537","661808","0.0-1.0-741.0","0","0","10066","","null","","","null","82","NaN","","","","","","","","","","","","","","",""
"","S2","","html-keyboard-response","538","662066","0.0-1.0-742.0","0","0","10066","","null","","","null","82","","NaN","","","","","","","","","","","","","",""
"","response","","html-keyboard-response","539","662716","0.0-1.0-743.0-0.0","0","0","10066","","643","","","68","82","","","2","82","training","adjacent","ED","5","4","Q.jpg","R.jpg","1","0","0","",""
"","feedback","","html-keyboard-response","540","663725","0.0-1.0-744.0-0.0","0","0","10066","","null","","","null","82","","","","","","","","","","","","","","","",""
"","time_out","","html-keyboard-response","541","665736","0.0-1.0-746.0-0.0","0","0","10066","","null","","","null","82","","","","","","","","","","","","","","","",""
"","ITI","","html-keyboard-response","542","666744","0.0-1.0-747.0","0","0","10066","","null","","","null","82","","","","","","","","","","","","","","","NaN",""
"","S1","","html-keyboard-response","543","667000","0.0-1.0-749.0","0","0","10066","","null","","","null","83","","","","","","","","","","","","","","","",""
"","ISI","","html-keyboard-response","544","667155","0.0-1.0-750.0","0","0","10066","","null","","","null","83","NaN","","","","","","","","","","","","","","",""
"","S2","","html-keyboard-response","545","667411","0.0-1.0-751.0","0","0","10066","","null","","","null","83","","NaN","","","","","","","","","","","","","",""
"","response","","html-keyboard-response","546","667526","0.0-1.0-752.0-0.0","0","0","10066","","104","","","75","83","","","2","83","training","adjacent","BC","2","3","P.jpg","N.jpg","0","1","0","",""
"","feedback","","html-keyboard-response","547","668539","0.0-1.0-753.0-0.0","0","0","10066","","null","","","null","83","","","","","","","","","","","","","","","",""
"","time_out","","html-keyboard-response","548","670549","0.0-1.0-755.0-0.0","0","0","10066","","null","","","null","83","","","","","","","","","","","","","","","",""
"","ITI","","html-keyboard-response","549","671556","0.0-1.0-756.0","0","0","10066","","null","","","null","83","","","","","","","","","","","","","","","NaN",""
"","S1","","html-keyboard-response","550","671814","0.0-1.0-758.0","0","0","10066","","null","","","null","84","","","","","","","","","","","","","","","",""
"","ISI","","html-keyboard-response","551","671970","0.0-1.0-759.0","0","0","10066","","null","","","null","84","NaN","","","","","","","","","","","","","","",""
"","S2","","html-keyboard-response","552","672227","0.0-1.0-760.0","0","0","10066","","null","","","null","84","","NaN","","","","","","","","","","","","","",""
"","response","","html-keyboard-response","553","672829","0.0-1.0-761.0-0.0","0","0","10066","","594","","","75","84","","","2","84","training","adjacent","ED","5","4","Q.jpg","R.jpg","0","0","1","",""
"","feedback","","html-keyboard-response","554","673838","0.0-1.0-762.0-0.0","0","0","10066","","null","","","null","84","","","","","","","","","","","","","","","",""
"","ITI","","html-keyboard-response","555","674846","0.0-1.0-765.0","0","0","10066","","null","","","null","84","","","","","","","","","","","","","","","NaN",""
"","S1","","html-keyboard-response","556","675105","0.0-1.0-767.0","0","0","10066","","null","","","null","85","","","","","","","","","","","","","","","",""
"","ISI","","html-keyboard-response","557","675262","0.0-1.0-768.0","0","0","10066","","null","","","null","85","NaN","","","","","","","","","","","","","","",""
"","S2","","html-keyboard-response","558","675519","0.0-1.0-769.0","0","0","10066","","null","","","null","85","","NaN","","","","","","","","","","","","","",""
"","response","","html-keyboard-response","559","676522","0.0-1.0-770.0-0.0","0","0","10066","","995","","","75","85","","","2","85","training","adjacent","AB","1","2","M.jpg","P.jpg","0","1","0","",""
"","feedback","","html-keyboard-response","560","677532","0.0-1.0-771.0-0.0","0","0","10066","","null","","","null","85","","","","","","","","","","","","","","","",""
"","time_out","","html-keyboard-response","561","679542","0.0-1.0-773.0-0.0","0","0","10066","","null","","","null","85","","","","","","","","","","","","","","","",""
"","ITI","","html-keyboard-response","562","680550","0.0-1.0-774.0","0","0","10066","","null","","","null","85","","","","","","","","","","","","","","","NaN",""
"","S1","","html-keyboard-response","563","680806","0.0-1.0-776.0","0","0","10066","","null","","","null","86","","","","","","","","","","","","","","","",""
"","ISI","","html-keyboard-response","564","680962","0.0-1.0-777.0","0","0","10066","","null","","","null","86","NaN","","","","","","","","","","","","","","",""
"","S2","","html-keyboard-response","565","681219","0.0-1.0-778.0","0","0","10066","","null","","","null","86","","NaN","","","","","","","","","","","","","",""
"","response","","html-keyboard-response","566","681785","0.0-1.0-779.0-0.0","0","0","10066","","559","","","68","86","","","2","86","training","adjacent","EF","5","6","Q.jpg","O.jpg","1","1","1","",""
"","feedback","","html-keyboard-response","567","682795","0.0-1.0-780.0-0.0","0","0","10066","","null","","","null","86","","","","","","","","","","","","","","","",""
"","ITI","","html-keyboard-response","568","683805","0.0-1.0-783.0","0","0","10066","","null","","","null","86","","","","","","","","","","","","","","","NaN",""
"","S1","","html-keyboard-response","569","684062","0.0-1.0-785.0","0","0","10066","","null","","","null","87","","","","","","","","","","","","","","","",""
"","ISI","","html-keyboard-response","570","684218","0.0-1.0-786.0","0","0","10066","","null","","","null","87","NaN","","","","","","","","","","","","","","",""
"","S2","","html-keyboard-response","571","684475","0.0-1.0-787.0","0","0","10066","","null","","","null","87","","NaN","","","","","","","","","","","","","",""
"","response","","html-keyboard-response","572","686123","0.0-1.0-788.0-0.0","0","0","10066","","1641","","","75","87","","","2","87","training","adjacent","ED","5","4","Q.jpg","R.jpg","0","0","1","",""
"","feedback","","html-keyboard-response","573","687131","0.0-1.0-789.0-0.0","0","0","10066","","null","","","null","87","","","","","","","","","","","","","","","",""
"","ITI","","html-keyboard-response","574","688137","0.0-1.0-792.0","0","0","10066","","null","","","null","87","","","","","","","","","","","","","","","NaN",""
"","S1","","html-keyboard-response","575","688391","0.0-1.0-794.0","0","0","10066","","null","","","null","88","","","","","","","","","","","","","","","",""
"","ISI","","html-keyboard-response","576","688546","0.0-1.0-795.0","0","0","10066","","null","","","null","88","NaN","","","","","","","","","","","","","","",""
"","S2","","html-keyboard-response","577","688801","0.0-1.0-796.0","0","0","10066","","null","","","null","88","","NaN","","","","","","","","","","","","","",""
"","response","","html-keyboard-response","578","690300","0.0-1.0-797.0-0.0","0","0","10066","","1495","","","75","88","","","2","88","training","adjacent","EF","5","6","Q.jpg","O.jpg","0","1","0","",""
"","feedback","","html-keyboard-response","579","691307","0.0-1.0-798.0-0.0","0","0","10066","","null","","","null","88","","","","","","","","","","","","","","","",""
"","time_out","","html-keyboard-response","580","693314","0.0-1.0-800.0-0.0","0","0","10066","","null","","","null","88","","","","","","","","","","","","","","","",""
"","ITI","","html-keyboard-response","581","694320","0.0-1.0-801.0","0","0","10066","","null","","","null","88","","","","","","","","","","","","","","","NaN",""
"","S1","","html-keyboard-response","582","694575","0.0-1.0-803.0","0","0","10066","","null","","","null","89","","","","","","","","","","","","","","","",""
