"success","ttype","start_time","trial_type","trial_index","time_elapsed","internal_node_id","warning","missed_checkup","PID","view_history","rt","responses","repeat_instructions","key_press","index","keypress_isi","keypress_S2","block","trial_num","phase","group_type","pair_type","S1_stim","S2_stim","S1_img","S2_img","S1_chosen","S1_higher","accuracy","keypress_iti","total_bonus_tally"
"true","full_screen","d03032023hr2133","fullscreen","0","65062","0.0-0.0","0","0","97640","","","","","","","","","","","","","","","","","","","","","",""
"","instructions","","instructions","1","72922","0.0-1.0-0.0-0.0","0","0","97640","[{""page_index"":0,""viewing_time"":3144},{""page_index"":1,""viewing_time"":2510},{""page_index"":2,""viewing_time"":1134},{""page_index"":3,""viewing_time"":1054}]","7847","","","","","","","","","","","","","","","","","","","",""
"","comprehension_check","","survey-multi-choice","2","88623","0.0-1.0-0.0-1.0","0","0","97640","","15672","{""Q0"":""True"",""Q1"":""D"",""Q2"":""Once the second image appears and while the screen 'MAKE A CHOICE' is shown"",""Q3"":""Green mark"",""Q4"":""either D or K""}","0","","","","","","","","","","","","","","","","","",""
"","start_exp","","html-keyboard-response","3","100797","0.0-1.0-1.0","0","0","97640","","12165","","","32","","","","","","","","","","","","","","","","",""
"","S1","","html-keyboard-response","4","101054","0.0-1.0-2.0","0","0","97640","","null","","","null","0","","","","","","","","","","","","","","","",""
"","ISI","","html-keyboard-response","5","101559","0.0-1.0-3.0","0","0","97640","","null","","","null","0","NaN","","","","","","","","","","","","","","",""
"","S2","","html-keyboard-response","6","101815","0.0-1.0-4.0","0","0","97640","","null","","","null","0","","NaN","","","","","","","","","","","","","",""
"","response","","html-keyboard-response","7","103574","0.0-1.0-5.0-0.0","0","0","97640","","null","","","null","0","","","1","0","training","adjacent","CD","3","4","O.jpg","N.jpg","NaN","1","0","",""
"","too_slow_prompt","","html-keyboard-response","8","104581","0.0-1.0-7.0-0.0","1","0","97640","","null","","","null","","","","","","","","","","","","","","","","",""
"","time_out","","html-keyboard-response","9","106588","0.0-1.0-8.0-0.0","0","0","97640","","null","","","null","0","","","","","","","","","","","","","","","",""
"","ITI","","html-keyboard-response","10","107597","0.0-1.0-9.0","0","0","97640","","1","","","68","0","","","","","","","","","","","","","","","d",""
"","S1","","html-keyboard-response","11","107855","0.0-1.0-11.0","0","0","97640","","null","","","null","1","","","","","","","","","","","","","","","",""
"","ISI","","html-keyboard-response","12","108364","0.0-1.0-12.0","0","0","97640","","63","","","75","1","k","","","","","","","","","","","","","","",""
"","S2","","html-keyboard-response","13","108526","0.0-1.0-13.0","0","0","97640","","157","","","68","1","","d","1","1","training","adjacent","AB","1","2","L.jpg","Q.jpg","1","1","1","",""
"","feedback","","html-keyboard-response","14","109530","0.0-1.0-15.0-0.0","0","0","97640","","null","","","null","1","","","","","","","","","","","","","","","",""
"","ITI","","html-keyboard-response","15","110533","0.0-1.0-18.0","0","0","97640","","12","","","68","1","","","","","","","","","","","","","","","d",""
"","S1","","html-keyboard-response","16","110787","0.0-1.0-20.0","0","0","97640","","null","","","null","2","","","","","","","","","","","","","","","",""
"","ISI","","html-keyboard-response","17","111291","0.0-1.0-21.0","0","0","97640","","235","","","68","2","d","","","","","","","","","","","","","","",""
"","S2","","html-keyboard-response","18","111547","0.0-1.0-22.0","0","0","97640","","null","","","null","2","","NaN","","","","","","","","","","","","","",""
"","response","","html-keyboard-response","19","111585","0.0-1.0-23.0-0.0","0","0","97640","","33","","","68","2","","","1","2","training","adjacent","EF","5","6","M.jpg","R.jpg","1","1","1","",""
"","feedback","","html-keyboard-response","20","112590","0.0-1.0-24.0-0.0","0","0","97640","","null","","","null","2","","","","","","","","","","","","","","","",""
"","ITI","","html-keyboard-response","21","113598","0.0-1.0-27.0","0","0","97640","","71","","","75","2","","","","","","","","","","","","","","","k",""
"","S1","","html-keyboard-response","22","113852","0.0-1.0-29.0","0","0","97640","","null","","","null","3","","","","","","","","","","","","","","","",""
"","ISI","","html-keyboard-response","23","114358","0.0-1.0-30.0","0","0","97640","","212","","","75","3","k","","","","","","","","","","","","","","",""
"","S2","","html-keyboard-response","24","114572","0.0-1.0-31.0","0","0","97640","","209","","","75","3","","k","1","3","training","adjacent","FE","6","5","R.jpg","M.jpg","0","0","1","",""
"","feedback","","html-keyboard-response","25","115580","0.0-1.0-33.0-0.0","0","0","97640","","null","","","null","3","","","","","","","","","","","","","","","",""
"","ITI","","html-keyboard-response","26","116583","0.0-1.0-36.0","0","0","97640","","168","","","68","3","","","","","","","","","","","","","","","d",""
"","S1","","html-keyboard-response","27","116836","0.0-1.0-38.0","0","0","97640","","null","","","null","4","","","","","","","","","","","","","","","",""
"","ISI","","html-keyboard-response","28","117347","0.0-1.0-39.0","0","0","97640","","151","","","68","4","d","","","","","","","","","","","","","","",""
"","S2","","html-keyboard-response","29","117394","0.0-1.0-40.0","0","0","97640","","42","","","75","4","","k","1","4","training","adjacent","AB","1","2","L.jpg","Q.jpg","0","1","0","",""
"","feedback","","html-keyboard-response","30","118402","0.0-1.0-42.0-0.0","0","0","97640","","null","","","null","4","","","","","","","","","","","","","","","",""
"","time_out","","html-keyboard-response","31","120408","0.0-1.0-44.0-0.0","0","0","97640","","null","","","null","4","","","","","","","","","","","","","","","",""
"","ITI","","html-keyboard-response","32","121412","0.0-1.0-45.0","0","0","97640","","72","","","68","4","","","","","","","","","","","","","","","d",""
"","S1","","html-keyboard-response","33","121668","0.0-1.0-47.0","0","0","97640","","null","","","null","5","","","","","","","","","","","","","","","",""
"","ISI","","html-keyboard-response","34","122173","0.0-1.0-48.0","0","0","97640","","22","","","68","5","d","","","","","","","","","","","","","","",""
"","S2","","html-keyboard-response","35","122306","0.0-1.0-49.0","0","0","97640","","128","","","68","5","","d","1","5","training","adjacent","DE","4","5","N.jpg","M.jpg","1","1","1","",""
"","feedback","","html-keyboard-response","36","123311","0.0-1.0-51.0-0.0","0","0","97640","","null","","","null","5","","","","","","","","","","","","","","","",""
"","ITI","","html-keyboard-response","37","124317","0.0-1.0-54.0","0","0","97640","","92","","","75","5","","","","","","","","","","","","","","","k",""
"","S1","","html-keyboard-response","38","124574","0.0-1.0-56.0","0","0","97640","","null","","","null","6","","","","","","","","","","","","","","","",""
"","ISI","","html-keyboard-response","39","125079","0.0-1.0-57.0","0","0","97640","","374","","","75","6","k","","","","","","","","","","","","","","",""
"","S2","","html-keyboard-response","40","125184","0.0-1.0-58.0","0","0","97640","","97","","","75","6","","k","1","6","training","adjacent","BA","2","1","Q.jpg","L.jpg","0","0","1","",""
"","feedback","","html-keyboard-response","41","126188","0.0-1.0-60.0-0.0","0","0","97640","","null","","","null","6","","","","","","","","","","","","","","","",""
"","ITI","","html-keyboard-response","42","127199","0.0-1.0-63.0","0","0","97640","","170","","","75","6","","","","","","","","","","","","","","","k",""
"","S1","","html-keyboard-response","43","127459","0.0-1.0-65.0","0","0","97640","","null","","","null","7","","","","","","","","","","","","","","","",""
"","ISI","","html-keyboard-response","44","127967","0.0-1.0-66.0","0","0","97640","","64","","","68","7","d","","","","","","","","","","","","","","",""
"","S2","","html-keyboard-response","45","128086","0.0-1.0-67.0","0","0","97640","","113","","","75","7","","k","1","7","training","adjacent","BC","2","3","Q.jpg","O.jpg","0","1","0","",""
"","feedback","","html-keyboard-response","46","129093","0.0-1.0-69.0-0.0","0","0","97640","","null","","","null","7","","","","","","","","","","","","","","","",""
"","time_out","","html-keyboard-response","47","131099","0.0-1.0-71.0-0.0","0","0","97640","","null","","","null","7","","","","","","","","","","","","","","","",""
"","ITI","","html-keyboard-response","48","132104","0.0-1.0-72.0","0","0","97640","","147","","","75","7","","","","","","","","","","","","","","","k",""
"","S1","","html-keyboard-response","49","132358","0.0-1.0-74.0","0","0","97640","","null","","","null","8","","","","","","","","","","","","","","","",""
"","ISI","","html-keyboard-response","50","132863","0.0-1.0-75.0","0","0","97640","","136","","","68","8","d","","","","","","","","","","","","","","",""
"","S2","","html-keyboard-response","51","133008","0.0-1.0-76.0","0","0","97640","","140","","","68","8","","d","1","8","training","adjacent","FG","6","7","R.jpg","P.jpg","1","1","1","",""
"","feedback","","html-keyboard-response","52","134012","0.0-1.0-78.0-0.0","0","0","97640","","null","","","null","8","","","","","","","","","","","","","","","",""
"","ITI","","html-keyboard-response","53","135017","0.0-1.0-81.0","0","0","97640","","228","","","68","8","","","","","","","","","","","","","","","d",""
"","S1","","html-keyboard-response","54","135270","0.0-1.0-83.0","0","0","97640","","null","","","null","9","","","","","","","","","","","","","","","",""
"","ISI","","html-keyboard-response","55","135774","0.0-1.0-84.0","0","0","97640","","175","","","75","9","k","","","","","","","","","","","","","","",""
"","S2","","html-keyboard-response","56","135892","0.0-1.0-85.0","0","0","97640","","111","","","75","9","","k","1","9","training","adjacent","EF","5","6","M.jpg","R.jpg","0","1","0","",""
"","feedback","","html-keyboard-response","57","136901","0.0-1.0-87.0-0.0","0","0","97640","","null","","","null","9","","","","","","","","","","","","","","","",""
"","time_out","","html-keyboard-response","58","138906","0.0-1.0-89.0-0.0","0","0","97640","","null","","","null","9","","","","","","","","","","","","","","","",""
"","ITI","","html-keyboard-response","59","139913","0.0-1.0-90.0","0","0","97640","","4","","","75","9","","","","","","","","","","","","","","","k",""
"","S1","","html-keyboard-response","60","140169","0.0-1.0-92.0","0","0","97640","","null","","","null","10","","","","","","","","","","","","","","","",""
"","ISI","","html-keyboard-response","61","140673","0.0-1.0-93.0","0","0","97640","","66","","","68","10","d","","","","","","","","","","","","","","",""
"","S2","","html-keyboard-response","62","140761","0.0-1.0-94.0","0","0","97640","","81","","","68","10","","d","1","10","training","adjacent","CB","3","2","O.jpg","Q.jpg","1","0","0","",""
"","feedback","","html-keyboard-response","63","141770","0.0-1.0-96.0-0.0","0","0","97640","","null","","","null","10","","","","","","","","","","","","","","","",""
"","time_out","","html-keyboard-response","64","143822","0.0-1.0-98.0-0.0","0","0","97640","","null","","","null","10","","","","","","","","","","","","","","","",""
"","ITI","","html-keyboard-response","65","144828","0.0-1.0-99.0","0","0","97640","","7","","","68","10","","","","","","","","","","","","","","","d",""
"","S1","","html-keyboard-response","66","145083","0.0-1.0-101.0","0","0","97640","","null","","","null","11","","","","","","","","","","","","","","","",""
"","ISI","","html-keyboard-response","67","145587","0.0-1.0-102.0","0","0","97640","","133","","","75","11","k","","","","","","","","","","","","","","",""
"","S2","","html-keyboard-response","68","145712","0.0-1.0-103.0","0","0","97640","","118","","","75","11","","k","1","11","training","adjacent","CD","3","4","O.jpg","N.jpg","0","1","0","",""
"","feedback","","html-keyboard-response","69","146718","0.0-1.0-105.0-0.0","0","0","97640","","null","","","null","11","","","","","","","","","","","","","","","",""
"","time_out","","html-keyboard-response","70","148724","0.0-1.0-107.0-0.0","0","0","97640","","null","","","null","11","","","","","","","","","","","","","","","",""
"","ITI","","html-keyboard-response","71","149730","0.0-1.0-108.0","0","0","97640","","113","","","68","11","","","","","","","","","","","","","","","d",""
"","S1","","html-keyboard-response","72","149984","0.0-1.0-110.0","0","0","97640","","null","","","null","12","","","","","","","","","","","","","","","",""
"","ISI","","html-keyboard-response","73","150491","0.0-1.0-111.0","0","0","97640","","189","","","68","12","d","","","","","","","","","","","","","","",""
"","S2","","html-keyboard-response","74","150691","0.0-1.0-112.0","0","0","97640","","194","","","68","12","","d","1","12","training","adjacent","AB","1","2","L.jpg","Q.jpg","1","1","1","",""
"","feedback","","html-keyboard-response","75","151697","0.0-1.0-114.0-0.0","0","0","97640","","null","","","null","12","","","","","","","","","","","","","","","",""
"","ITI","","html-keyboard-response","76","152703","0.0-1.0-117.0","0","0","97640","","47","","","68","12","","","","","","","","","","","","","","","d",""
"","S1","","html-keyboard-response","77","152958","0.0-1.0-119.0","0","0","97640","","null","","","null","13","","","","","","","","","","","","","","","",""
"","ISI","","html-keyboard-response","78","153463","0.0-1.0-120.0","0","0","97640","","147","","","75","13","k","","","","","","","","","","","","","","",""
"","S2","","html-keyboard-response","79","153627","0.0-1.0-121.0","0","0","97640","","158","","","75","13","","k","1","13","training","adjacent","ED","5","4","M.jpg","N.jpg","0","0","1","",""
"","feedback","","html-keyboard-response","80","154636","0.0-1.0-123.0-0.0","0","0","97640","","null","","","null","13","","","","","","","","","","","","","","","",""
"","ITI","","html-keyboard-response","81","155642","0.0-1.0-126.0","0","0","97640","","180","","","75","13","","","","","","","","","","","","","","","k",""
"","S1","","html-keyboard-response","82","155898","0.0-1.0-128.0","0","0","97640","","null","","","null","14","","","","","","","","","","","","","","","",""
"","ISI","","html-keyboard-response","83","156403","0.0-1.0-129.0","0","0","97640","","76","","","75","14","k","","","","","","","","","","","","","","",""
"","S2","","html-keyboard-response","84","156495","0.0-1.0-130.0","0","0","97640","","86","","","68","14","","d","1","14","training","adjacent","DC","4","3","N.jpg","O.jpg","1","0","0","",""
"","feedback","","html-keyboard-response","85","157500","0.0-1.0-132.0-0.0","0","0","97640","","null","","","null","14","","","","","","","","","","","","","","","",""
"","time_out","","html-keyboard-response","86","159504","0.0-1.0-134.0-0.0","0","0","97640","","null","","","null","14","","","","","","","","","","","","","","","",""
"","ITI","","html-keyboard-response","87","160517","0.0-1.0-135.0","0","0","97640","","127","","","68","14","","","","","","","","","","","","","","","d",""
"","S1","","html-keyboard-response","88","160799","0.0-1.0-137.0","0","0","97640","","null","","","null","15","","","","","","","","","","","","","","","",""
"","ISI","","html-keyboard-response","89","161306","0.0-1.0-138.0","0","0","97640","","64","","","68","15","d","","","","","","","","","","","","","","",""
"","S2","","html-keyboard-response","90","161371","0.0-1.0-139.0","0","0","97640","","57","","","75","15","","k","1","15","training","adjacent","FG","6","7","R.jpg","P.jpg","0","1","0","",""
"","feedback","","html-keyboard-response","91","162376","0.0-1.0-141.0-0.0","0","0","97640","","null","","","null","15","","","","","","","","","","","","","","","",""
"","time_out","","html-keyboard-response","92","164379","0.0-1.0-143.0-0.0","0","0","97640","","null","","","null","15","","","","","","","","","","","","","","","",""
"","ITI","","html-keyboard-response","93","165385","0.0-1.0-144.0","0","0","97640","","2","","","68","15","","","","","","","","","","","","","","","d",""
"","S1","","html-keyboard-response","94","165642","0.0-1.0-146.0","0","0","97640","","null","","","null","16","","","","","","","","","","","","","","","",""
"","ISI","","html-keyboard-response","95","166147","0.0-1.0-147.0","0","0","97640","","78","","","75","16","k","","","","","","","","","","","","","","",""
"","S2","","html-keyboard-response","96","166330","0.0-1.0-148.0","0","0","97640","","176","","","68","16","","d","1","16","training","adjacent","EF","5","6","M.jpg","R.jpg","1","1","1","",""
"","feedback","","html-keyboard-response","97","167339","0.0-1.0-150.0-0.0","0","0","97640","","null","","","null","16","","","","","","","","","","","","","","","",""
"","ITI","","html-keyboard-response","98","168346","0.0-1.0-153.0","0","0","97640","","84","","","68","16","","","","","","","","","","","","","","","d",""
"","S1","","html-keyboard-response","99","168604","0.0-1.0-155.0","0","0","97640","","null","","","null","17","","","","","","","","","","","","","","","",""
"","ISI","","html-keyboard-response","100","169110","0.0-1.0-156.0","0","0","97640","","170","","","68","17","d","","","","","","","","","","","","","","",""
"","S2","","html-keyboard-response","101","169135","0.0-1.0-157.0","0","0","97640","","20","","","75","17","","k","1","17","training","adjacent","BC","2","3","Q.jpg","O.jpg","0","1","0","",""
"","feedback","","html-keyboard-response","102","170143","0.0-1.0-159.0-0.0","0","0","97640","","null","","","null","17","","","","","","","","","","","","","","","",""
"","time_out","","html-keyboard-response","103","172150","0.0-1.0-161.0-0.0","0","0","97640","","null","","","null","17","","","","","","","","","","","","","","","",""
"","ITI","","html-keyboard-response","104","173155","0.0-1.0-162.0","0","0","97640","","804","","","68","17","","","","","","","","","","","","","","","d",""
"","S1","","html-keyboard-response","105","173409","0.0-1.0-164.0","0","0","97640","","null","","","null","18","","","","","","","","","","","","","","","",""
"","ISI","","html-keyboard-response","106","173912","0.0-1.0-165.0","0","0","97640","","177","","","68","18","d","","","","","","","","","","","","","","",""
"","S2","","html-keyboard-response","107","174166","0.0-1.0-166.0","0","0","97640","","null","","","null","18","","NaN","","","","","","","","","","","","","",""
"","response","","html-keyboard-response","108","174640","0.0-1.0-167.0-0.0","0","0","97640","","469","","","68","18","","","1","18","training","adjacent","FG","6","7","R.jpg","P.jpg","1","1","1","",""
"","feedback","","html-keyboard-response","109","175659","0.0-1.0-168.0-0.0","0","0","97640","","null","","","null","18","","","","","","","","","","","","","","","",""
"","ITI","","html-keyboard-response","110","176669","0.0-1.0-171.0","0","0","97640","","112","","","75","18","","","","","","","","","","","","","","","k",""
"","S1","","html-keyboard-response","111","176923","0.0-1.0-173.0","0","0","97640","","null","","","null","19","","","","","","","","","","","","","","","",""
"","ISI","","html-keyboard-response","112","177426","0.0-1.0-174.0","0","0","97640","","null","","","null","19","NaN","","","","","","","","","","","","","","",""
"","S2","","html-keyboard-response","113","177680","0.0-1.0-175.0","0","0","97640","","null","","","null","19","","NaN","","","","","","","","","","","","","",""
"","response","","html-keyboard-response","114","179438","0.0-1.0-176.0-0.0","0","0","97640","","null","","","null","19","","","1","19","training","adjacent","GF","7","6","P.jpg","R.jpg","NaN","0","0","",""
"","too_slow_prompt","","html-keyboard-response","115","180446","0.0-1.0-178.0-0.0","1","0","97640","","null","","","null","","","","","","","","","","","","","","","","",""
"","time_out","","html-keyboard-response","116","182456","0.0-1.0-179.0-0.0","0","0","97640","","null","","","null","19","","","","","","","","","","","","","","","",""
"","ITI","","html-keyboard-response","117","183461","0.0-1.0-180.0","0","0","97640","","281","","","68","19","","","","","","","","","","","","","","","d",""
"","S1","","html-keyboard-response","118","183716","0.0-1.0-182.0","0","0","97640","","null","","","null","20","","","","","","","","","","","","","","","",""
"","ISI","","html-keyboard-response","119","184221","0.0-1.0-183.0","0","0","97640","","65","","","75","20","k","","","","","","","","","","","","","","",""
"","S2","","html-keyboard-response","120","184465","0.0-1.0-184.0","0","0","97640","","238","","","68","20","","d","1","20","training","adjacent","GF","7","6","P.jpg","R.jpg","1","0","0","",""
"","feedback","","html-keyboard-response","121","185470","0.0-1.0-186.0-0.0","0","0","97640","","null","","","null","20","","","","","","","","","","","","","","","",""
"","time_out","","html-keyboard-response","122","187475","0.0-1.0-188.0-0.0","0","0","97640","","null","","","null","20","","","","","","","","","","","","","","","",""
"","ITI","","html-keyboard-response","123","188481","0.0-1.0-189.0","0","0","97640","","145","","","68","20","","","","","","","","","","","","","","","d",""
"","S1","","html-keyboard-response","124","188738","0.0-1.0-191.0","0","0","97640","","null","","","null","21","","","","","","","","","","","","","","","",""
"","ISI","","html-keyboard-response","125","189244","0.0-1.0-192.0","0","0","97640","","122","","","68","21","d","","","","","","","","","","","","","","",""
"","S2","","html-keyboard-response","126","189386","0.0-1.0-193.0","0","0","97640","","132","","","68","21","","d","1","21","training","adjacent","CB","3","2","O.jpg","Q.jpg","1","0","0","",""
"","feedback","","html-keyboard-response","127","190397","0.0-1.0-195.0-0.0","0","0","97640","","null","","","null","21","","","","","","","","","","","","","","","",""
"","time_out","","html-keyboard-response","128","192405","0.0-1.0-197.0-0.0","0","0","97640","","null","","","null","21","","","","","","","","","","","","","","","",""
"","ITI","","html-keyboard-response","129","193411","0.0-1.0-198.0","0","0","97640","","33","","","75","21","","","","","","","","","","","","","","","k",""
"","S1","","html-keyboard-response","130","193666","0.0-1.0-200.0","0","0","97640","","null","","","null","22","","","","","","","","","","","","","","","",""
"","ISI","","html-keyboard-response","131","194171","0.0-1.0-201.0","0","0","97640","","75","","","68","22","d","","","","","","","","","","","","","","",""
"","S2","","html-keyboard-response","132","194241","0.0-1.0-202.0","0","0","97640","","65","","","75","22","","k","1","22","training","adjacent","BC","2","3","Q.jpg","O.jpg","0","1","0","",""
"","feedback","","html-keyboard-response","133","195249","0.0-1.0-204.0-0.0","0","0","97640","","null","","","null","22","","","","","","","","","","","","","","","",""
"","time_out","","html-keyboard-response","134","197256","0.0-1.0-206.0-0.0","0","0","97640","","null","","","null","22","","","","","","","","","","","","","","","",""
"","ITI","","html-keyboard-response","135","198263","0.0-1.0-207.0","0","0","97640","","null","","","null","22","","","","","","","","","","","","","","","NaN",""
"","S1","","html-keyboard-response","136","198536","0.0-1.0-209.0","0","0","97640","","null","","","null","23","","","","","","","","","","","","","","","",""
"","ISI","","html-keyboard-response","137","199039","0.0-1.0-210.0","0","0","97640","","null","","","null","23","NaN","","","","","","","","","","","","","","",""
"","S2","","html-keyboard-response","138","199296","0.0-1.0-211.0","0","0","97640","","null","","","null","23","","NaN","","","","","","","","","","","","","",""
"","response","","html-keyboard-response","139","199695","0.0-1.0-212.0-0.0","0","0","97640","","393","","","68","23","","","1","23","training","adjacent","CB","3","2","O.jpg","Q.jpg","1","0","0","",""
"","feedback","","html-keyboard-response","140","200703","0.0-1.0-213.0-0.0","0","0","97640","","null","","","null","23","","","","","","","","","","","","","","","",""
"","time_out","","html-keyboard-response","141","202710","0.0-1.0-215.0-0.0","0","0","97640","","null","","","null","23","","","","","","","","","","","","","","","",""
"","ITI","","html-keyboard-response","142","203719","0.0-1.0-216.0","0","0","97640","","34","","","75","23","","","","","","","","","","","","","","","k",""
"","S1","","html-keyboard-response","143","203974","0.0-1.0-218.0","0","0","97640","","null","","","null","24","","","","","","","","","","","","","","","",""
"","ISI","","html-keyboard-response","144","204477","0.0-1.0-219.0","0","0","97640","","121","","","75","24","k","","","","","","","","","","","","","","",""
"","S2","","html-keyboard-response","145","204733","0.0-1.0-220.0","0","0","97640","","null","","","null","24","","NaN","","","","","","","","","","","","","",""
"","response","","html-keyboard-response","146","205041","0.0-1.0-221.0-0.0","0","0","97640","","305","","","68","24","","","1","24","training","adjacent","CB","3","2","O.jpg","Q.jpg","1","0","0","",""
"","feedback","","html-keyboard-response","147","206046","0.0-1.0-222.0-0.0","0","0","97640","","null","","","null","24","","","","","","","","","","","","","","","",""
"","time_out","","html-keyboard-response","148","208052","0.0-1.0-224.0-0.0","0","0","97640","","null","","","null","24","","","","","","","","","","","","","","","",""
"","ITI","","html-keyboard-response","149","209057","0.0-1.0-225.0","0","0","97640","","8","","","68","24","","","","","","","","","","","","","","","d",""
"","S1","","html-keyboard-response","150","209312","0.0-1.0-227.0","0","0","97640","","null","","","null","25","","","","","","","","","","","","","","","",""
"","ISI","","html-keyboard-response","151","209816","0.0-1.0-228.0","0","0","97640","","0","","","68","25","d","","","","","","","","","","","","","","",""
"","S2","","html-keyboard-response","152","210071","0.0-1.0-229.0","0","0","97640","","null","","","null","25","","NaN","","","","","","","","","","","","","",""
"","response","","html-keyboard-response","153","210087","0.0-1.0-230.0-0.0","0","0","97640","","12","","","68","25","","","1","25","training","adjacent","DE","4","5","N.jpg","M.jpg","1","1","1","",""
"","feedback","","html-keyboard-response","154","211092","0.0-1.0-231.0-0.0","0","0","97640","","null","","","null","25","","","","","","","","","","","","","","","",""
"","ITI","","html-keyboard-response","155","212098","0.0-1.0-234.0","0","0","97640","","212","","","68","25","","","","","","","","","","","","","","","d",""
"","S1","","html-keyboard-response","156","212353","0.0-1.0-236.0","0","0","97640","","null","","","null","26","","","","","","","","","","","","","","","",""
"","ISI","","html-keyboard-response","157","212859","0.0-1.0-237.0","0","0","97640","","189","","","75","26","k","","","","","","","","","","","","","","",""
"","S2","","html-keyboard-response","158","213107","0.0-1.0-238.0","0","0","97640","","243","","","68","26","","d","1","26","training","adjacent","EF","5","6","M.jpg","R.jpg","1","1","1","",""
"","feedback","","html-keyboard-response","159","214113","0.0-1.0-240.0-0.0","0","0","97640","","null","","","null","26","","","","","","","","","","","","","","","",""
"","ITI","","html-keyboard-response","160","215118","0.0-1.0-243.0","0","0","97640","","8","","","75","26","","","","","","","","","","","","","","","k",""
"","S1","","html-keyboard-response","161","215377","0.0-1.0-245.0","0","0","97640","","null","","","null","27","","","","","","","","","","","","","","","",""
"","ISI","","html-keyboard-response","162","215880","0.0-1.0-246.0","0","0","97640","","247","","","68","27","d","","","","","","","","","","","","","","",""
"","S2","","html-keyboard-response","163","215893","0.0-1.0-247.0","0","0","97640","","9","","","68","27","","d","1","27","training","adjacent","BC","2","3","Q.jpg","O.jpg","1","1","1","",""
"","feedback","","html-keyboard-response","164","216902","0.0-1.0-249.0-0.0","0","0","97640","","null","","","null","27","","","","","","","","","","","","","","","",""
"","ITI","","html-keyboard-response","165","217908","0.0-1.0-252.0","0","0","97640","","172","","","75","27","","","","","","","","","","","","","","","k",""
"","S1","","html-keyboard-response","166","218162","0.0-1.0-254.0","0","0","97640","","null","","","null","28","","","","","","","","","","","","","","","",""
"","ISI","","html-keyboard-response","167","218667","0.0-1.0-255.0","0","0","97640","","131","","","75","28","k","","","","","","","","","","","","","","",""
"","S2","","html-keyboard-response","168","218810","0.0-1.0-256.0","0","0","97640","","138","","","75","28","","k","1","28","training","adjacent","ED","5","4","M.jpg","N.jpg","0","0","1","",""
"","feedback","","html-keyboard-response","169","219814","0.0-1.0-258.0-0.0","0","0","97640","","null","","","null","28","","","","","","","","","","","","","","","",""
"","ITI","","html-keyboard-response","170","220819","0.0-1.0-261.0","0","0","97640","","59","","","75","28","","","","","","","","","","","","","","","k",""
"","S1","","html-keyboard-response","171","221073","0.0-1.0-263.0","0","0","97640","","null","","","null","29","","","","","","","","","","","","","","","",""
"","ISI","","html-keyboard-response","172","221579","0.0-1.0-264.0","0","0","97640","","101","","","75","29","k","","","","","","","","","","","","","","",""
"","S2","","html-keyboard-response","173","221736","0.0-1.0-265.0","0","0","97640","","148","","","68","29","","d","1","29","training","adjacent","FE","6","5","R.jpg","M.jpg","1","0","0","",""
"","feedback","","html-keyboard-response","174","222741","0.0-1.0-267.0-0.0","0","0","97640","","null","","","null","29","","","","","","","","","","","","","","","",""
"","time_out","","html-keyboard-response","175","224785","0.0-1.0-269.0-0.0","0","0","97640","","null","","","null","29","","","","","","","","","","","","","","","",""
"","ITI","","html-keyboard-response","176","225791","0.0-1.0-270.0","0","0","97640","","217","","","75","29","","","","","","","","","","","","","","","k",""
"","S1","","html-keyboard-response","177","226049","0.0-1.0-272.0","0","0","97640","","null","","","null","30","","","","","","","","","","","","","","","",""
"","ISI","","html-keyboard-response","178","226552","0.0-1.0-273.0","0","0","97640","","182","","","68","30","d","","","","","","","","","","","","","","",""
"","S2","","html-keyboard-response","179","226568","0.0-1.0-274.0","0","0","97640","","10","","","75","30","","k","1","30","training","adjacent","AB","1","2","L.jpg","Q.jpg","0","1","0","",""
"","feedback","","html-keyboard-response","180","227573","0.0-1.0-276.0-0.0","0","0","97640","","null","","","null","30","","","","","","","","","","","","","","","",""
"","time_out","","html-keyboard-response","181","229578","0.0-1.0-278.0-0.0","0","0","97640","","null","","","null","30","","","","","","","","","","","","","","","",""
"","ITI","","html-keyboard-response","182","230584","0.0-1.0-279.0","0","0","97640","","72","","","68","30","","","","","","","","","","","","","","","d",""
"","S1","","html-keyboard-response","183","230842","0.0-1.0-281.0","0","0","97640","","null","","","null","31","","","","","","","","","","","","","","","",""
"","ISI","","html-keyboard-response","184","231345","0.0-1.0-282.0","0","0","97640","","77","","","75","31","k","","","","","","","","","","","","","","",""
"","S2","","html-keyboard-response","185","231398","0.0-1.0-283.0","0","0","97640","","45","","","68","31","","d","1","31","training","adjacent","CD","3","4","O.jpg","N.jpg","1","1","1","",""
"","feedback","","html-keyboard-response","186","232405","0.0-1.0-285.0-0.0","0","0","97640","","null","","","null","31","","","","","","","","","","","","","","","",""
"","ITI","","html-keyboard-response","187","233409","0.0-1.0-288.0","0","0","97640","","50","","","68","31","","","","","","","","","","","","","","","d",""
"","S1","","html-keyboard-response","188","233664","0.0-1.0-290.0","0","0","97640","","null","","","null","32","","","","","","","","","","","","","","","",""
"","ISI","","html-keyboard-response","189","234168","0.0-1.0-291.0","0","0","97640","","27","","","68","32","d","","","","","","","","","","","","","","",""
"","S2","","html-keyboard-response","190","234191","0.0-1.0-292.0","0","0","97640","","17","","","68","32","","d","1","32","training","adjacent","BA","2","1","Q.jpg","L.jpg","1","0","0","",""
"","feedback","","html-keyboard-response","191","235194","0.0-1.0-294.0-0.0","0","0","97640","","null","","","null","32","","","","","","","","","","","","","","","",""
"","time_out","","html-keyboard-response","192","237198","0.0-1.0-296.0-0.0","0","0","97640","","null","","","null","32","","","","","","","","","","","","","","","",""
"","ITI","","html-keyboard-response","193","238203","0.0-1.0-297.0","0","0","97640","","187","","","75","32","","","","","","","","","","","","","","","k",""
"","S1","","html-keyboard-response","194","238455","0.0-1.0-299.0","0","0","97640","","null","","","null","33","","","","","","","","","","","","","","","",""
"","ISI","","html-keyboard-response","195","238960","0.0-1.0-300.0","0","0","97640","","152","","","75","33","k","","","","","","","","","","","","","","",""
"","S2","","html-keyboard-response","196","239112","0.0-1.0-301.0","0","0","97640","","147","","","75","33","","k","1","33","training","adjacent","BA","2","1","Q.jpg","L.jpg","0","0","1","",""
"","feedback","","html-keyboard-response","197","240119","0.0-1.0-303.0-0.0","0","0","97640","","null","","","null","33","","","","","","","","","","","","","","","",""
"","ITI","","html-keyboard-response","198","241125","0.0-1.0-306.0","0","0","97640","","5","","","68","33","","","","","","","","","","","","","","","d",""
"","S1","","html-keyboard-response","199","241379","0.0-1.0-308.0","0","0","97640","","null","","","null","34","","","","","","","","","","","","","","","",""
"","ISI","","html-keyboard-response","200","241883","0.0-1.0-309.0","0","0","97640","","149","","","75","34","k","","","","","","","","","","","","","","",""
"","S2","","html-keyboard-response","201","241947","0.0-1.0-310.0","0","0","97640","","56","","","75","34","","k","1","34","training","adjacent","ED","5","4","M.jpg","N.jpg","0","0","1","",""
"","feedback","","html-keyboard-response","202","242954","0.0-1.0-312.0-0.0","0","0","97640","","null","","","null","34","","","","","","","","","","","","","","","",""
"","ITI","","html-keyboard-response","203","243959","0.0-1.0-315.0","0","0","97640","","143","","","68","34","","","","","","","","","","","","","","","d",""
"","S1","","html-keyboard-response","204","244216","0.0-1.0-317.0","0","0","97640","","null","","","null","35","","","","","","","","","","","","","","","",""
"","ISI","","html-keyboard-response","205","244720","0.0-1.0-318.0","0","0","97640","","20","","","68","35","d","","","","","","","","","","","","","","",""
"","S2","","html-keyboard-response","206","244772","0.0-1.0-319.0","0","0","97640","","47","","","75","35","","k","1","35","training","adjacent","ED","5","4","M.jpg","N.jpg","0","0","1","",""
"","feedback","","html-keyboard-response","207","245780","0.0-1.0-321.0-0.0","0","0","97640","","null","","","null","35","","","","","","","","","","","","","","","",""
"","ITI","","html-keyboard-response","208","246784","0.0-1.0-324.0","0","0","97640","","6","","","68","35","","","","","","","","","","","","","","","d",""
"","S1","","html-keyboard-response","209","247038","0.0-1.0-326.0","0","0","97640","","null","","","null","36","","","","","","","","","","","","","","","",""
"","ISI","","html-keyboard-response","210","247552","0.0-1.0-327.0","0","0","97640","","80","","","75","36","k","","","","","","","","","","","","","","",""
"","S2","","html-keyboard-response","211","247806","0.0-1.0-328.0","0","0","97640","","null","","","null","36","","NaN","","","","","","","","","","","","","",""
"","response","","html-keyboard-response","212","248252","0.0-1.0-329.0-0.0","0","0","97640","","441","","","68","36","","","1","36","training","adjacent","CD","3","4","O.jpg","N.jpg","1","1","1","",""
"","feedback","","html-keyboard-response","213","249259","0.0-1.0-330.0-0.0","0","0","97640","","null","","","null","36","","","","","","","","","","","","","","","",""
"","ITI","","html-keyboard-response","214","250265","0.0-1.0-333.0","0","0","97640","","23","","","75","36","","","","","","","","","","","","","","","k",""
"","S1","","html-keyboard-response","215","250532","0.0-1.0-335.0","0","0","97640","","null","","","null","37","","","","","","","","","","","","","","","",""
"","ISI","","html-keyboard-response","216","251036","0.0-1.0-336.0","0","0","97640","","497","","","68","37","d","","","","","","","","","","","","","","",""
"","S2","","html-keyboard-response","217","251293","0.0-1.0-337.0","0","0","97640","","null","","","null","37","","NaN","","","","","","","","","","","","","",""
"","response","","html-keyboard-response","218","251409","0.0-1.0-338.0-0.0","0","0","97640","","111","","","68","37","","","1","37","training","adjacent","DC","4","3","N.jpg","O.jpg","1","0","0","",""
"","feedback","","html-keyboard-response","219","252415","0.0-1.0-339.0-0.0","0","0","97640","","null","","","null","37","","","","","","","","","","","","","","","",""
"","time_out","","html-keyboard-response","220","254420","0.0-1.0-341.0-0.0","0","0","97640","","null","","","null","37","","","","","","","","","","","","","","","",""
"","ITI","","html-keyboard-response","221","255428","0.0-1.0-342.0","0","0","97640","","null","","","null","37","","","","","","","","","","","","","","","NaN",""
"","S1","","html-keyboard-response","222","255682","0.0-1.0-344.0","0","0","97640","","null","","","null","38","","","","","","","","","","","","","","","",""
"","ISI","","html-keyboard-response","223","256187","0.0-1.0-345.0","0","0","97640","","270","","","75","38","k","","","","","","","","","","","","","","",""
"","S2","","html-keyboard-response","224","256262","0.0-1.0-346.0","0","0","97640","","71","","","75","38","","k","1","38","training","adjacent","FG","6","7","R.jpg","P.jpg","0","1","0","",""
"","feedback","","html-keyboard-response","225","257268","0.0-1.0-348.0-0.0","0","0","97640","","null","","","null","38","","","","","","","","","","","","","","","",""
"","time_out","","html-keyboard-response","226","259274","0.0-1.0-350.0-0.0","0","0","97640","","null","","","null","38","","","","","","","","","","","","","","","",""
"","ITI","","html-keyboard-response","227","260278","0.0-1.0-351.0","0","0","97640","","241","","","68","38","","","","","","","","","","","","","","","d",""
"","S1","","html-keyboard-response","228","260532","0.0-1.0-353.0","0","0","97640","","null","","","null","39","","","","","","","","","","","","","","","",""
"","ISI","","html-keyboard-response","229","261037","0.0-1.0-354.0","0","0","97640","","232","","","68","39","d","","","","","","","","","","","","","","",""
"","S2","","html-keyboard-response","230","261235","0.0-1.0-355.0","0","0","97640","","193","","","68","39","","d","1","39","training","adjacent","BA","2","1","Q.jpg","L.jpg","1","0","0","",""
"","feedback","","html-keyboard-response","231","262242","0.0-1.0-357.0-0.0","0","0","97640","","null","","","null","39","","","","","","","","","","","","","","","",""
"","time_out","","html-keyboard-response","232","264248","0.0-1.0-359.0-0.0","0","0","97640","","null","","","null","39","","","","","","","","","","","","","","","",""
"","ITI","","html-keyboard-response","233","265255","0.0-1.0-360.0","0","0","97640","","826","","","68","39","","","","","","","","","","","","","","","d",""
"","S1","","html-keyboard-response","234","265510","0.0-1.0-362.0","0","0","97640","","null","","","null","40","","","","","","","","","","","","","","","",""
"","ISI","","html-keyboard-response","235","266015","0.0-1.0-363.0","0","0","97640","","267","","","68","40","d","","","","","","","","","","","","","","",""
"","S2","","html-keyboard-response","236","266030","0.0-1.0-364.0","0","0","97640","","11","","","68","40","","d","1","40","training","adjacent","GF","7","6","P.jpg","R.jpg","1","0","0","",""
"","feedback","","html-keyboard-response","237","267036","0.0-1.0-366.0-0.0","0","0","97640","","null","","","null","40","","","","","","","","","","","","","","","",""
"","time_out","","html-keyboard-response","238","269042","0.0-1.0-368.0-0.0","0","0","97640","","null","","","null","40","","","","","","","","","","","","","","","",""
"","ITI","","html-keyboard-response","239","270049","0.0-1.0-369.0","0","0","97640","","144","","","75","40","","","","","","","","","","","","","","","k",""
"","S1","","html-keyboard-response","240","270315","0.0-1.0-371.0","0","0","97640","","null","","","null","41","","","","","","","","","","","","","","","",""
"","ISI","","html-keyboard-response","241","270821","0.0-1.0-372.0","0","0","97640","","156","","","68","41","d","","","","","","","","","","","","","","",""
"","S2","","html-keyboard-response","242","270980","0.0-1.0-373.0","0","0","97640","","153","","","68","41","","d","1","41","training","adjacent","DC","4","3","N.jpg","O.jpg","1","0","0","",""
"","feedback","","html-keyboard-response","243","271986","0.0-1.0-375.0-0.0","0","0","97640","","null","","","null","41","","","","","","","","","","","","","","","",""
"","time_out","","html-keyboard-response","244","273991","0.0-1.0-377.0-0.0","0","0","97640","","null","","","null","41","","","","","","","","","","","","","","","",""
"","ITI","","html-keyboard-response","245","275006","0.0-1.0-378.0","0","0","97640","","145","","","68","41","","","","","","","","","","","","","","","d",""
"","S1","","html-keyboard-response","246","275293","0.0-1.0-380.0","0","0","97640","","null","","","null","42","","","","","","","","","","","","","","","",""
"","ISI","","html-keyboard-response","247","275796","0.0-1.0-381.0","0","0","97640","","154","","","68","42","d","","","","","","","","","","","","","","",""
"","S2","","html-keyboard-response","248","275806","0.0-1.0-382.0","0","0","97640","","6","","","75","42","","k","1","42","training","adjacent","FE","6","5","R.jpg","M.jpg","0","0","1","",""
"","feedback","","html-keyboard-response","249","276826","0.0-1.0-384.0-0.0","0","0","97640","","null","","","null","42","","","","","","","","","","","","","","","",""
"","ITI","","html-keyboard-response","250","277830","0.0-1.0-387.0","0","0","97640","","139","","","68","42","","","","","","","","","","","","","","","d",""
"","S1","","html-keyboard-response","251","278085","0.0-1.0-389.0","0","0","97640","","null","","","null","43","","","","","","","","","","","","","","","",""
"","ISI","","html-keyboard-response","252","278591","0.0-1.0-390.0","0","0","97640","","160","","","68","43","d","","","","","","","","","","","","","","",""
"","S2","","html-keyboard-response","253","278757","0.0-1.0-391.0","0","0","97640","","158","","","68","43","","d","1","43","training","adjacent","DE","4","5","N.jpg","M.jpg","1","1","1","",""
"","feedback","","html-keyboard-response","254","279766","0.0-1.0-393.0-0.0","0","0","97640","","null","","","null","43","","","","","","","","","","","","","","","",""
"","ITI","","html-keyboard-response","255","280771","0.0-1.0-396.0","0","0","97640","","13","","","75","43","","","","","","","","","","","","","","","k",""
"","S1","","html-keyboard-response","256","281029","0.0-1.0-398.0","0","0","97640","","null","","","null","44","","","","","","","","","","","","","","","",""
"","ISI","","html-keyboard-response","257","281538","0.0-1.0-399.0","0","0","97640","","80","","","75","44","k","","","","","","","","","","","","","","",""
"","S2","","html-keyboard-response","258","281631","0.0-1.0-400.0","0","0","97640","","76","","","68","44","","d","1","44","training","adjacent","GF","7","6","P.jpg","R.jpg","1","0","0","",""
"","feedback","","html-keyboard-response","259","282637","0.0-1.0-402.0-0.0","0","0","97640","","null","","","null","44","","","","","","","","","","","","","","","",""
"","time_out","","html-keyboard-response","260","284642","0.0-1.0-404.0-0.0","0","0","97640","","null","","","null","44","","","","","","","","","","","","","","","",""
"","ITI","","html-keyboard-response","261","285646","0.0-1.0-405.0","0","0","97640","","64","","","75","44","","","","","","","","","","","","","","","k",""
"","S1","","html-keyboard-response","262","285904","0.0-1.0-407.0","0","0","97640","","null","","","null","45","","","","","","","","","","","","","","","",""
"","ISI","","html-keyboard-response","263","286412","0.0-1.0-408.0","0","0","97640","","114","","","68","45","d","","","","","","","","","","","","","","",""
"","S2","","html-keyboard-response","264","286508","0.0-1.0-409.0","0","0","97640","","88","","","68","45","","d","1","45","training","adjacent","DE","4","5","N.jpg","M.jpg","1","1","1","",""
"","feedback","","html-keyboard-response","265","287515","0.0-1.0-411.0-0.0","0","0","97640","","null","","","null","45","","","","","","","","","","","","","","","",""
"","ITI","","html-keyboard-response","266","288521","0.0-1.0-414.0","0","0","97640","","250","","","68","45","","","","","","","","","","","","","","","d",""
"","S1","","html-keyboard-response","267","288775","0.0-1.0-416.0","0","0","97640","","null","","","null","46","","","","","","","","","","","","","","","",""
"","ISI","","html-keyboard-response","268","289282","0.0-1.0-417.0","0","0","97640","","175","","","68","46","d","","","","","","","","","","","","","","",""
"","S2","","html-keyboard-response","269","289394","0.0-1.0-418.0","0","0","97640","","105","","","75","46","","k","1","46","training","adjacent","DC","4","3","N.jpg","O.jpg","0","0","1","",""
"","feedback","","html-keyboard-response","270","290402","0.0-1.0-420.0-0.0","0","0","97640","","null","","","null","46","","","","","","","","","","","","","","","",""
"","ITI","","html-keyboard-response","271","291406","0.0-1.0-423.0","0","0","97640","","109","","","68","46","","","","","","","","","","","","","","","d",""
"","S1","","html-keyboard-response","272","291661","0.0-1.0-425.0","0","0","97640","","null","","","null","47","","","","","","","","","","","","","","","",""
"","ISI","","html-keyboard-response","273","292165","0.0-1.0-426.0","0","0","97640","","162","","","68","47","d","","","","","","","","","","","","","","",""
"","S2","","html-keyboard-response","274","292249","0.0-1.0-427.0","0","0","97640","","79","","","68","47","","d","1","47","training","adjacent","FE","6","5","R.jpg","M.jpg","1","0","0","",""
"","feedback","","html-keyboard-response","275","293255","0.0-1.0-429.0-0.0","0","0","97640","","null","","","null","47","","","","","","","","","","","","","","","",""
"","time_out","","html-keyboard-response","276","295259","0.0-1.0-431.0-0.0","0","0","97640","","null","","","null","47","","","","","","","","","","","","","","","",""
"","ITI","","html-keyboard-response","277","296265","0.0-1.0-432.0","0","0","97640","","17","","","75","47","","","","","","","","","","","","","","","k",""
"","block_over","","html-keyboard-response","278","299060","0.0-1.0-433.0-0.0","0","0","97640","","2788","","","32","47","","","","","","","","","","","","","","","",""
"","S1","","html-keyboard-response","279","299318","0.0-1.0-434.0","0","0","97640","","null","","","null","48","","","","","","","","","","","","","","","",""
"","ISI","","html-keyboard-response","280","299823","0.0-1.0-435.0","0","0","97640","","82","","","68","48","d","","","","","","","","","","","","","","",""
"","S2","","html-keyboard-response","281","299867","0.0-1.0-436.0","0","0","97640","","41","","","75","48","","k","2","48","training","adjacent","GF","7","6","P.jpg","R.jpg","0","0","1","",""
"","feedback","","html-keyboard-response","282","300873","0.0-1.0-438.0-0.0","0","0","97640","","null","","","null","48","","","","","","","","","","","","","","","",""
"","ITI","","html-keyboard-response","283","301878","0.0-1.0-441.0","0","0","97640","","1","","","68","48","","","","","","","","","","","","","","","d",""
"","S1","","html-keyboard-response","284","302136","0.0-1.0-443.0","0","0","97640","","null","","","null","49","","","","","","","","","","","","","","","",""
"","ISI","","html-keyboard-response","285","302640","0.0-1.0-444.0","0","0","97640","","50","","","75","49","k","","","","","","","","","","","","","","",""
"","S2","","html-keyboard-response","286","302650","0.0-1.0-445.0","0","0","97640","","3","","","68","49","","d","2","49","training","adjacent","BA","2","1","Q.jpg","L.jpg","1","0","0","",""
"","feedback","","html-keyboard-response","287","303658","0.0-1.0-447.0-0.0","0","0","97640","","null","","","null","49","","","","","","","","","","","","","","","",""
"","time_out","","html-keyboard-response","288","305663","0.0-1.0-449.0-0.0","0","0","97640","","null","","","null","49","","","","","","","","","","","","","","","",""
"","ITI","","html-keyboard-response","289","306669","0.0-1.0-450.0","0","0","97640","","72","","","68","49","","","","","","","","","","","","","","","d",""
"","S1","","html-keyboard-response","290","306924","0.0-1.0-452.0","0","0","97640","","null","","","null","50","","","","","","","","","","","","","","","",""
"","ISI","","html-keyboard-response","291","307429","0.0-1.0-453.0","0","0","97640","","17","","","75","50","k","","","","","","","","","","","","","","",""
"","S2","","html-keyboard-response","292","307484","0.0-1.0-454.0","0","0","97640","","48","","","68","50","","d","2","50","training","adjacent","CB","3","2","O.jpg","Q.jpg","1","0","0","",""
"","feedback","","html-keyboard-response","293","308489","0.0-1.0-456.0-0.0","0","0","97640","","null","","","null","50","","","","","","","","","","","","","","","",""
"","time_out","","html-keyboard-response","294","310497","0.0-1.0-458.0-0.0","0","0","97640","","null","","","null","50","","","","","","","","","","","","","","","",""
"","ITI","","html-keyboard-response","295","311503","0.0-1.0-459.0","0","0","97640","","29","","","75","50","","","","","","","","","","","","","","","k",""
"","S1","","html-keyboard-response","296","311758","0.0-1.0-461.0","0","0","97640","","null","","","null","51","","","","","","","","","","","","","","","",""
"","ISI","","html-keyboard-response","297","312262","0.0-1.0-462.0","0","0","97640","","47","","","68","51","d","","","","","","","","","","","","","","",""
"","S2","","html-keyboard-response","298","312277","0.0-1.0-463.0","0","0","97640","","10","","","68","51","","d","2","51","training","adjacent","FG","6","7","R.jpg","P.jpg","1","1","1","",""
"","feedback","","html-keyboard-response","299","313287","0.0-1.0-465.0-0.0","0","0","97640","","null","","","null","51","","","","","","","","","","","","","","","",""
"","ITI","","html-keyboard-response","300","314294","0.0-1.0-468.0","0","0","97640","","80","","","68","51","","","","","","","","","","","","","","","d",""
"","S1","","html-keyboard-response","301","314548","0.0-1.0-470.0","0","0","97640","","null","","","null","52","","","","","","","","","","","","","","","",""
"","ISI","","html-keyboard-response","302","315053","0.0-1.0-471.0","0","0","97640","","48","","","75","52","k","","","","","","","","","","","","","","",""
"","S2","","html-keyboard-response","303","315105","0.0-1.0-472.0","0","0","97640","","47","","","68","52","","d","2","52","training","adjacent","BC","2","3","Q.jpg","O.jpg","1","1","1","",""
"","feedback","","html-keyboard-response","304","316112","0.0-1.0-474.0-0.0","0","0","97640","","null","","","null","52","","","","","","","","","","","","","","","",""
"","ITI","","html-keyboard-response","305","317118","0.0-1.0-477.0","0","0","97640","","14","","","68","52","","","","","","","","","","","","","","","d",""
"","S1","","html-keyboard-response","306","317374","0.0-1.0-479.0","0","0","97640","","null","","","null","53","","","","","","","","","","","","","","","",""
"","ISI","","html-keyboard-response","307","317878","0.0-1.0-480.0","0","0","97640","","0","","","75","53","k","","","","","","","","","","","","","","",""
"","S2","","html-keyboard-response","308","318081","0.0-1.0-481.0","0","0","97640","","195","","","75","53","","k","2","53","training","adjacent","DE","4","5","N.jpg","M.jpg","0","1","0","",""
"","feedback","","html-keyboard-response","309","319087","0.0-1.0-483.0-0.0","0","0","97640","","null","","","null","53","","","","","","","","","","","","","","","",""
"","time_out","","html-keyboard-response","310","321094","0.0-1.0-485.0-0.0","0","0","97640","","null","","","null","53","","","","","","","","","","","","","","","",""
"","ITI","","html-keyboard-response","311","322101","0.0-1.0-486.0","0","0","97640","","45","","","75","53","","","","","","","","","","","","","","","k",""
"","S1","","html-keyboard-response","312","322357","0.0-1.0-488.0","0","0","97640","","null","","","null","54","","","","","","","","","","","","","","","",""
"","ISI","","html-keyboard-response","313","322862","0.0-1.0-489.0","0","0","97640","","112","","","68","54","d","","","","","","","","","","","","","","",""
"","S2","","html-keyboard-response","314","323046","0.0-1.0-490.0","0","0","97640","","178","","","68","54","","d","2","54","training","adjacent","DC","4","3","N.jpg","O.jpg","1","0","0","",""
"","feedback","","html-keyboard-response","315","324054","0.0-1.0-492.0-0.0","0","0","97640","","null","","","null","54","","","","","","","","","","","","","","","",""
"","time_out","","html-keyboard-response","316","326060","0.0-1.0-494.0-0.0","0","0","97640","","null","","","null","54","","","","","","","","","","","","","","","",""
"","ITI","","html-keyboard-response","317","327078","0.0-1.0-495.0","0","0","97640","","36","","","68","54","","","","","","","","","","","","","","","d",""
"","S1","","html-keyboard-response","318","327333","0.0-1.0-497.0","0","0","97640","","null","","","null","55","","","","","","","","","","","","","","","",""
"","ISI","","html-keyboard-response","319","327838","0.0-1.0-498.0","0","0","97640","","199","","","68","55","d","","","","","","","","","","","","","","",""
"","S2","","html-keyboard-response","320","327848","0.0-1.0-499.0","0","0","97640","","5","","","75","55","","k","2","55","training","adjacent","CD","3","4","O.jpg","N.jpg","0","1","0","",""
"","feedback","","html-keyboard-response","321","328859","0.0-1.0-501.0-0.0","0","0","97640","","null","","","null","55","","","","","","","","","","","","","","","",""
"","time_out","","html-keyboard-response","322","330868","0.0-1.0-503.0-0.0","0","0","97640","","null","","","null","55","","","","","","","","","","","","","","","",""
"","ITI","","html-keyboard-response","323","331873","0.0-1.0-504.0","0","0","97640","","78","","","75","55","","","","","","","","","","","","","","","k",""
"","S1","","html-keyboard-response","324","332128","0.0-1.0-506.0","0","0","97640","","null","","","null","56","","","","","","","","","","","","","","","",""
"","ISI","","html-keyboard-response","325","332632","0.0-1.0-507.0","0","0","97640","","53","","","68","56","d","","","","","","","","","","","","","","",""
"","S2","","html-keyboard-response","326","332688","0.0-1.0-508.0","0","0","97640","","53","","","68","56","","d","2","56","training","adjacent","CB","3","2","O.jpg","Q.jpg","1","0","0","",""
"","feedback","","html-keyboard-response","327","333697","0.0-1.0-510.0-0.0","0","0","97640","","null","","","null","56","","","","","","","","","","","","","","","",""
"","time_out","","html-keyboard-response","328","335704","0.0-1.0-512.0-0.0","0","0","97640","","null","","","null","56","","","","","","","","","","","","","","","",""
"","ITI","","html-keyboard-response","329","336708","0.0-1.0-513.0","0","0","97640","","263","","","68","56","","","","","","","","","","","","","","","d",""
"","S1","","html-keyboard-response","330","336964","0.0-1.0-515.0","0","0","97640","","null","","","null","57","","","","","","","","","","","","","","","",""
"","ISI","","html-keyboard-response","331","337473","0.0-1.0-516.0","0","0","97640","","48","","","75","57","k","","","","","","","","","","","","","","",""
"","S2","","html-keyboard-response","332","337522","0.0-1.0-517.0","0","0","97640","","43","","","68","57","","d","2","57","training","adjacent","EF","5","6","M.jpg","R.jpg","1","1","1","",""
"","feedback","","html-keyboard-response","333","338537","0.0-1.0-519.0-0.0","0","0","97640","","null","","","null","57","","","","","","","","","","","","","","","",""
"","ITI","","html-keyboard-response","334","339542","0.0-1.0-522.0","0","0","97640","","57","","","75","57","","","","","","","","","","","","","","","k",""
"","S1","","html-keyboard-response","335","339796","0.0-1.0-524.0","0","0","97640","","null","","","null","58","","","","","","","","","","","","","","","",""
"","ISI","","html-keyboard-response","336","340300","0.0-1.0-525.0","0","0","97640","","146","","","68","58","d","","","","","","","","","","","","","","",""
"","S2","","html-keyboard-response","337","340510","0.0-1.0-526.0","0","0","97640","","201","","","68","58","","d","2","58","training","adjacent","DC","4","3","N.jpg","O.jpg","1","0","0","",""
"","feedback","","html-keyboard-response","338","341516","0.0-1.0-528.0-0.0","0","0","97640","","null","","","null","58","","","","","","","","","","","","","","","",""
"","time_out","","html-keyboard-response","339","343525","0.0-1.0-530.0-0.0","0","0","97640","","null","","","null","58","","","","","","","","","","","","","","","",""
"","ITI","","html-keyboard-response","340","344538","0.0-1.0-531.0","0","0","97640","","2","","","68","58","","","","","","","","","","","","","","","d",""
"","S1","","html-keyboard-response","341","344793","0.0-1.0-533.0","0","0","97640","","null","","","null","59","","","","","","","","","","","","","","","",""
"","ISI","","html-keyboard-response","342","345297","0.0-1.0-534.0","0","0","97640","","113","","","68","59","d","","","","","","","","","","","","","","",""
"","S2","","html-keyboard-response","343","345439","0.0-1.0-535.0","0","0","97640","","136","","","68","59","","d","2","59","training","adjacent","DC","4","3","N.jpg","O.jpg","1","0","0","",""
"","feedback","","html-keyboard-response","344","346443","0.0-1.0-537.0-0.0","0","0","97640","","null","","","null","59","","","","","","","","","","","","","","","",""
"","time_out","","html-keyboard-response","345","348495","0.0-1.0-539.0-0.0","0","0","97640","","null","","","null","59","","","","","","","","","","","","","","","",""
"","ITI","","html-keyboard-response","346","349501","0.0-1.0-540.0","0","0","97640","","172","","","75","59","","","","","","","","","","","","","","","k",""
"","S1","","html-keyboard-response","347","349756","0.0-1.0-542.0","0","0","97640","","null","","","null","60","","","","","","","","","","","","","","","",""
"","ISI","","html-keyboard-response","348","350260","0.0-1.0-543.0","0","0","97640","","309","","","68","60","d","","","","","","","","","","","","","","",""
"","S2","","html-keyboard-response","349","350374","0.0-1.0-544.0","0","0","97640","","107","","","75","60","","k","2","60","training","adjacent","CB","3","2","O.jpg","Q.jpg","0","0","1","",""
"","feedback","","html-keyboard-response","350","351383","0.0-1.0-546.0-0.0","0","0","97640","","null","","","null","60","","","","","","","","","","","","","","","",""
"","ITI","","html-keyboard-response","351","352388","0.0-1.0-549.0","0","0","97640","","11","","","75","60","","","","","","","","","","","","","","","k",""
"","S1","","html-keyboard-response","352","352646","0.0-1.0-551.0","0","0","97640","","null","","","null","61","","","","","","","","","","","","","","","",""
"","ISI","","html-keyboard-response","353","353166","0.0-1.0-552.0","0","0","97640","","7","","","75","61","k","","","","","","","","","","","","","","",""
"","S2","","html-keyboard-response","354","353310","0.0-1.0-553.0","0","0","97640","","141","","","68","61","","d","2","61","training","adjacent","AB","1","2","L.jpg","Q.jpg","1","1","1","",""
"","feedback","","html-keyboard-response","355","354320","0.0-1.0-555.0-0.0","0","0","97640","","null","","","null","61","","","","","","","","","","","","","","","",""
"","ITI","","html-keyboard-response","356","355323","0.0-1.0-558.0","0","0","97640","","168","","","68","61","","","","","","","","","","","","","","","d",""
"","S1","","html-keyboard-response","357","355578","0.0-1.0-560.0","0","0","97640","","null","","","null","62","","","","","","","","","","","","","","","",""
"","ISI","","html-keyboard-response","358","356086","0.0-1.0-561.0","0","0","97640","","127","","","75","62","k","","","","","","","","","","","","","","",""
"","S2","","html-keyboard-response","359","356217","0.0-1.0-562.0","0","0","97640","","123","","","68","62","","d","2","62","training","adjacent","FE","6","5","R.jpg","M.jpg","1","0","0","",""
"","feedback","","html-keyboard-response","360","357223","0.0-1.0-564.0-0.0","0","0","97640","","null","","","null","62","","","","","","","","","","","","","","","",""
"","time_out","","html-keyboard-response","361","359228","0.0-1.0-566.0-0.0","0","0","97640","","null","","","null","62","","","","","","","","","","","","","","","",""
"","ITI","","html-keyboard-response","362","360235","0.0-1.0-567.0","0","0","97640","","200","","","68","62","","","","","","","","","","","","","","","d",""
"","S1","","html-keyboard-response","363","360495","0.0-1.0-569.0","0","0","97640","","null","","","null","63","","","","","","","","","","","","","","","",""
"","ISI","","html-keyboard-response","364","361000","0.0-1.0-570.0","0","0","97640","","162","","","75","63","k","","","","","","","","","","","","","","",""
"","S2","","html-keyboard-response","365","361165","0.0-1.0-571.0","0","0","97640","","161","","","75","63","","k","2","63","training","adjacent","EF","5","6","M.jpg","R.jpg","0","1","0","",""
"","feedback","","html-keyboard-response","366","362179","0.0-1.0-573.0-0.0","0","0","97640","","null","","","null","63","","","","","","","","","","","","","","","",""
"","time_out","","html-keyboard-response","367","364190","0.0-1.0-575.0-0.0","0","0","97640","","null","","","null","63","","","","","","","","","","","","","","","",""
"","ITI","","html-keyboard-response","368","365200","0.0-1.0-576.0","0","0","97640","","181","","","68","63","","","","","","","","","","","","","","","d",""
"","S1","","html-keyboard-response","369","365454","0.0-1.0-578.0","0","0","97640","","null","","","null","64","","","","","","","","","","","","","","","",""
"","ISI","","html-keyboard-response","370","365957","0.0-1.0-579.0","0","0","97640","","109","","","75","64","k","","","","","","","","","","","","","","",""
"","S2","","html-keyboard-response","371","366093","0.0-1.0-580.0","0","0","97640","","131","","","68","64","","d","2","64","training","adjacent","ED","5","4","M.jpg","N.jpg","1","0","0","",""
"","feedback","","html-keyboard-response","372","367105","0.0-1.0-582.0-0.0","0","0","97640","","null","","","null","64","","","","","","","","","","","","","","","",""
"","time_out","","html-keyboard-response","373","369113","0.0-1.0-584.0-0.0","0","0","97640","","null","","","null","64","","","","","","","","","","","","","","","",""
"","ITI","","html-keyboard-response","374","370118","0.0-1.0-585.0","0","0","97640","","60","","","75","64","","","","","","","","","","","","","","","k",""
"","S1","","html-keyboard-response","375","370375","0.0-1.0-587.0","0","0","97640","","null","","","null","65","","","","","","","","","","","","","","","",""
"","ISI","","html-keyboard-response","376","370878","0.0-1.0-588.0","0","0","97640","","193","","","75","65","k","","","","","","","","","","","","","","",""
"","S2","","html-keyboard-response","377","371006","0.0-1.0-589.0","0","0","97640","","120","","","75","65","","k","2","65","training","adjacent","FE","6","5","R.jpg","M.jpg","0","0","1","",""
"","feedback","","html-keyboard-response","378","372015","0.0-1.0-591.0-0.0","0","0","97640","","null","","","null","65","","","","","","","","","","","","","","","",""
"","ITI","","html-keyboard-response","379","373027","0.0-1.0-594.0","0","0","97640","","165","","","68","65","","","","","","","","","","","","","","","d",""
"","S1","","html-keyboard-response","380","373284","0.0-1.0-596.0","0","0","97640","","null","","","null","66","","","","","","","","","","","","","","","",""
"","ISI","","html-keyboard-response","381","373788","0.0-1.0-597.0","0","0","97640","","81","","","75","66","k","","","","","","","","","","","","","","",""
"","S2","","html-keyboard-response","382","373854","0.0-1.0-598.0","0","0","97640","","61","","","75","66","","k","2","66","training","adjacent","EF","5","6","M.jpg","R.jpg","0","1","0","",""
"","feedback","","html-keyboard-response","383","374863","0.0-1.0-600.0-0.0","0","0","97640","","null","","","null","66","","","","","","","","","","","","","","","",""
"","time_out","","html-keyboard-response","384","376870","0.0-1.0-602.0-0.0","0","0","97640","","null","","","null","66","","","","","","","","","","","","","","","",""
"","ITI","","html-keyboard-response","385","377878","0.0-1.0-603.0","0","0","97640","","205","","","68","66","","","","","","","","","","","","","","","d",""
"","S1","","html-keyboard-response","386","378132","0.0-1.0-605.0","0","0","97640","","null","","","null","67","","","","","","","","","","","","","","","",""
"","ISI","","html-keyboard-response","387","378636","0.0-1.0-606.0","0","0","97640","","132","","","75","67","k","","","","","","","","","","","","","","",""
"","S2","","html-keyboard-response","388","378764","0.0-1.0-607.0","0","0","97640","","123","","","75","67","","k","2","67","training","adjacent","GF","7","6","P.jpg","R.jpg","0","0","1","",""
"","feedback","","html-keyboard-response","389","379770","0.0-1.0-609.0-0.0","0","0","97640","","null","","","null","67","","","","","","","","","","","","","","","",""
"","ITI","","html-keyboard-response","390","380775","0.0-1.0-612.0","0","0","97640","","161","","","75","67","","","","","","","","","","","","","","","k",""
"","S1","","html-keyboard-response","391","381029","0.0-1.0-614.0","0","0","97640","","null","","","null","68","","","","","","","","","","","","","","","",""
"","ISI","","html-keyboard-response","392","381534","0.0-1.0-615.0","0","0","97640","","148","","","75","68","k","","","","","","","","","","","","","","",""
"","S2","","html-keyboard-response","393","381633","0.0-1.0-616.0","0","0","97640","","93","","","75","68","","k","2","68","training","adjacent","FG","6","7","R.jpg","P.jpg","0","1","0","",""
"","feedback","","html-keyboard-response","394","382642","0.0-1.0-618.0-0.0","0","0","97640","","null","","","null","68","","","","","","","","","","","","","","","",""
"","time_out","","html-keyboard-response","395","384649","0.0-1.0-620.0-0.0","0","0","97640","","null","","","null","68","","","","","","","","","","","","","","","",""
"","ITI","","html-keyboard-response","396","385655","0.0-1.0-621.0","0","0","97640","","74","","","68","68","","","","","","","","","","","","","","","d",""
"","S1","","html-keyboard-response","397","385913","0.0-1.0-623.0","0","0","97640","","null","","","null","69","","","","","","","","","","","","","","","",""
"","ISI","","html-keyboard-response","398","386426","0.0-1.0-624.0","0","0","97640","","30","","","75","69","k","","","","","","","","","","","","","","",""
"","S2","","html-keyboard-response","399","386469","0.0-1.0-625.0","0","0","97640","","36","","","75","69","","k","2","69","training","adjacent","CD","3","4","O.jpg","N.jpg","0","1","0","",""
"","feedback","","html-keyboard-response","400","387475","0.0-1.0-627.0-0.0","0","0","97640","","null","","","null","69","","","","","","","","","","","","","","","",""
"","time_out","","html-keyboard-response","401","389480","0.0-1.0-629.0-0.0","0","0","97640","","null","","","null","69","","","","","","","","","","","","","","","",""
"","ITI","","html-keyboard-response","402","390488","0.0-1.0-630.0","0","0","97640","","220","","","75","69","","","","","","","","","","","","","","","k",""
"","S1","","html-keyboard-response","403","390744","0.0-1.0-632.0","0","0","97640","","null","","","null","70","","","","","","","","","","","","","","","",""
"","ISI","","html-keyboard-response","404","391249","0.0-1.0-633.0","0","0","97640","","205","","","68","70","d","","","","","","","","","","","","","","",""
"","S2","","html-keyboard-response","405","391408","0.0-1.0-634.0","0","0","97640","","153","","","75","70","","k","2","70","training","adjacent","BA","2","1","Q.jpg","L.jpg","0","0","1","",""
"","feedback","","html-keyboard-response","406","392416","0.0-1.0-636.0-0.0","0","0","97640","","null","","","null","70","","","","","","","","","","","","","","","",""
"","ITI","","html-keyboard-response","407","393423","0.0-1.0-639.0","0","0","97640","","18","","","68","70","","","","","","","","","","","","","","","d",""
"","S1","","html-keyboard-response","408","393680","0.0-1.0-641.0","0","0","97640","","null","","","null","71","","","","","","","","","","","","","","","",""
"","ISI","","html-keyboard-response","409","394185","0.0-1.0-642.0","0","0","97640","","164","","","75","71","k","","","","","","","","","","","","","","",""
"","S2","","html-keyboard-response","410","394385","0.0-1.0-643.0","0","0","97640","","194","","","75","71","","k","2","71","training","adjacent","ED","5","4","M.jpg","N.jpg","0","0","1","",""
"","feedback","","html-keyboard-response","411","395394","0.0-1.0-645.0-0.0","0","0","97640","","null","","","null","71","","","","","","","","","","","","","","","",""
"","ITI","","html-keyboard-response","412","396404","0.0-1.0-648.0","0","0","97640","","177","","","75","71","","","","","","","","","","","","","","","k",""
"","S1","","html-keyboard-response","413","396657","0.0-1.0-650.0","0","0","97640","","null","","","null","72","","","","","","","","","","","","","","","",""
"","ISI","","html-keyboard-response","414","397160","0.0-1.0-651.0","0","0","97640","","101","","","75","72","k","","","","","","","","","","","","","","",""
"","S2","","html-keyboard-response","415","397404","0.0-1.0-652.0","0","0","97640","","238","","","68","72","","d","2","72","training","adjacent","GF","7","6","P.jpg","R.jpg","1","0","0","",""
"","feedback","","html-keyboard-response","416","398410","0.0-1.0-654.0-0.0","0","0","97640","","null","","","null","72","","","","","","","","","","","","","","","",""
"","time_out","","html-keyboard-response","417","400421","0.0-1.0-656.0-0.0","0","0","97640","","null","","","null","72","","","","","","","","","","","","","","","",""
"","ITI","","html-keyboard-response","418","401426","0.0-1.0-657.0","0","0","97640","","124","","","75","72","","","","","","","","","","","","","","","k",""
"","S1","","html-keyboard-response","419","401681","0.0-1.0-659.0","0","0","97640","","null","","","null","73","","","","","","","","","","","","","","","",""
"","ISI","","html-keyboard-response","420","402186","0.0-1.0-660.0","0","0","97640","","164","","","75","73","k","","","","","","","","","","","","","","",""
"","S2","","html-keyboard-response","421","402337","0.0-1.0-661.0","0","0","97640","","142","","","75","73","","k","2","73","training","adjacent","AB","1","2","L.jpg","Q.jpg","0","1","0","",""
"","feedback","","html-keyboard-response","422","403344","0.0-1.0-663.0-0.0","0","0","97640","","null","","","null","73","","","","","","","","","","","","","","","",""
"","time_out","","html-keyboard-response","423","405352","0.0-1.0-665.0-0.0","0","0","97640","","null","","","null","73","","","","","","","","","","","","","","","",""
"","ITI","","html-keyboard-response","424","406362","0.0-1.0-666.0","0","0","97640","","249","","","75","73","","","","","","","","","","","","","","","k",""
"","S1","","html-keyboard-response","425","406621","0.0-1.0-668.0","0","0","97640","","null","","","null","74","","","","","","","","","","","","","","","",""
"","ISI","","html-keyboard-response","426","407126","0.0-1.0-669.0","0","0","97640","","160","","","75","74","k","","","","","","","","","","","","","","",""
"","S2","","html-keyboard-response","427","407248","0.0-1.0-670.0","0","0","97640","","118","","","75","74","","k","2","74","training","adjacent","FE","6","5","R.jpg","M.jpg","0","0","1","",""
"","feedback","","html-keyboard-response","428","408254","0.0-1.0-672.0-0.0","0","0","97640","","null","","","null","74","","","","","","","","","","","","","","","",""
"","ITI","","html-keyboard-response","429","409260","0.0-1.0-675.0","0","0","97640","","198","","","68","74","","","","","","","","","","","","","","","d",""
"","S1","","html-keyboard-response","430","409515","0.0-1.0-677.0","0","0","97640","","null","","","null","75","","","","","","","","","","","","","","","",""
"","ISI","","html-keyboard-response","431","410019","0.0-1.0-678.0","0","0","97640","","144","","","68","75","d","","","","","","","","","","","","","","",""
"","S2","","html-keyboard-response","432","410185","0.0-1.0-679.0","0","0","97640","","160","","","68","75","","d","2","75","training","adjacent","BC","2","3","Q.jpg","O.jpg","1","1","1","",""
"","feedback","","html-keyboard-response","433","411189","0.0-1.0-681.0-0.0","0","0","97640","","null","","","null","75","","","","","","","","","","","","","","","",""
"","ITI","","html-keyboard-response","434","412195","0.0-1.0-684.0","0","0","97640","","23","","","75","75","","","","","","","","","","","","","","","k",""
"","S1","","html-keyboard-response","435","412460","0.0-1.0-686.0","0","0","97640","","null","","","null","76","","","","","","","","","","","","","","","",""
"","ISI","","html-keyboard-response","436","412967","0.0-1.0-687.0","0","0","97640","","0","","","68","76","d","","","","","","","","","","","","","","",""
"","S2","","html-keyboard-response","437","413195","0.0-1.0-688.0","0","0","97640","","221","","","75","76","","k","2","76","training","adjacent","CD","3","4","O.jpg","N.jpg","0","1","0","",""
"","feedback","","html-keyboard-response","438","414203","0.0-1.0-690.0-0.0","0","0","97640","","null","","","null","76","","","","","","","","","","","","","","","",""
"","time_out","","html-keyboard-response","439","416209","0.0-1.0-692.0-0.0","0","0","97640","","null","","","null","76","","","","","","","","","","","","","","","",""
"","ITI","","html-keyboard-response","440","417216","0.0-1.0-693.0","0","0","97640","","32","","","68","76","","","","","","","","","","","","","","","d",""
"","S1","","html-keyboard-response","441","417472","0.0-1.0-695.0","0","0","97640","","null","","","null","77","","","","","","","","","","","","","","","",""
"","ISI","","html-keyboard-response","442","417980","0.0-1.0-696.0","0","0","97640","","215","","","75","77","k","","","","","","","","","","","","","","",""
"","S2","","html-keyboard-response","443","418174","0.0-1.0-697.0","0","0","97640","","188","","","75","77","","k","2","77","training","adjacent","BA","2","1","Q.jpg","L.jpg","0","0","1","",""
"","feedback","","html-keyboard-response","444","419180","0.0-1.0-699.0-0.0","0","0","97640","","null","","","null","77","","","","","","","","","","","","","","","",""
"","ITI","","html-keyboard-response","445","420185","0.0-1.0-702.0","0","0","97640","","205","","","75","77","","","","","","","","","","","","","","","k",""
"","S1","","html-keyboard-response","446","420439","0.0-1.0-704.0","0","0","97640","","null","","","null","78","","","","","","","","","","","","","","","",""
"","ISI","","html-keyboard-response","447","420945","0.0-1.0-705.0","0","0","97640","","148","","","68","78","d","","","","","","","","","","","","","","",""
"","S2","","html-keyboard-response","448","421158","0.0-1.0-706.0","0","0","97640","","197","","","68","78","","d","2","78","training","adjacent","AB","1","2","L.jpg","Q.jpg","1","1","1","",""
"","feedback","","html-keyboard-response","449","422164","0.0-1.0-708.0-0.0","0","0","97640","","null","","","null","78","","","","","","","","","","","","","","","",""
"","ITI","","html-keyboard-response","450","423169","0.0-1.0-711.0","0","0","97640","","223","","","75","78","","","","","","","","","","","","","","","k",""
"","S1","","html-keyboard-response","451","423424","0.0-1.0-713.0","0","0","97640","","null","","","null","79","","","","","","","","","","","","","","","",""
"","ISI","","html-keyboard-response","452","423930","0.0-1.0-714.0","0","0","97640","","170","","","68","79","d","","","","","","","","","","","","","","",""
"","S2","","html-keyboard-response","453","424124","0.0-1.0-715.0","0","0","97640","","186","","","75","79","","k","2","79","training","adjacent","CD","3","4","O.jpg","N.jpg","0","1","0","",""
"","feedback","","html-keyboard-response","454","425129","0.0-1.0-717.0-0.0","0","0","97640","","null","","","null","79","","","","","","","","","","","","","","","",""
"","time_out","","html-keyboard-response","455","427136","0.0-1.0-719.0-0.0","0","0","97640","","null","","","null","79","","","","","","","","","","","","","","","",""
"","ITI","","html-keyboard-response","456","428146","0.0-1.0-720.0","0","0","97640","","172","","","75","79","","","","","","","","","","","","","","","k",""
"","S1","","html-keyboard-response","457","428400","0.0-1.0-722.0","0","0","97640","","null","","","null","80","","","","","","","","","","","","","","","",""
"","ISI","","html-keyboard-response","458","428904","0.0-1.0-723.0","0","0","97640","","78","","","75","80","k","","","","","","","","","","","","","","",""
"","S2","","html-keyboard-response","459","428962","0.0-1.0-724.0","0","0","97640","","50","","","68","80","","d","2","80","training","adjacent","DC","4","3","N.jpg","O.jpg","1","0","0","",""
"","feedback","","html-keyboard-response","460","429971","0.0-1.0-726.0-0.0","0","0","97640","","null","","","null","80","","","","","","","","","","","","","","","",""
"","time_out","","html-keyboard-response","461","431975","0.0-1.0-728.0-0.0","0","0","97640","","null","","","null","80","","","","","","","","","","","","","","","",""
"","ITI","","html-keyboard-response","462","432981","0.0-1.0-729.0","0","0","97640","","2","","","68","80","","","","","","","","","","","","","","","d",""
"","S1","","html-keyboard-response","463","433233","0.0-1.0-731.0","0","0","97640","","null","","","null","81","","","","","","","","","","","","","","","",""
"","ISI","","html-keyboard-response","464","433736","0.0-1.0-732.0","0","0","97640","","127","","","68","81","d","","","","","","","","","","","","","","",""
"","S2","","html-keyboard-response","465","433759","0.0-1.0-733.0","0","0","97640","","20","","","75","81","","k","2","81","training","adjacent","FG","6","7","R.jpg","P.jpg","0","1","0","",""
"","feedback","","html-keyboard-response","466","434765","0.0-1.0-735.0-0.0","0","0","97640","","null","","","null","81","","","","","","","","","","","","","","","",""
"","time_out","","html-keyboard-response","467","436782","0.0-1.0-737.0-0.0","0","0","97640","","null","","","null","81","","","","","","","","","","","","","","","",""
"","ITI","","html-keyboard-response","468","437791","0.0-1.0-738.0","0","0","97640","","7","","","75","81","","","","","","","","","","","","","","","k",""
"","S1","","html-keyboard-response","469","438057","0.0-1.0-740.0","0","0","97640","","null","","","null","82","","","","","","","","","","","","","","","",""
"","ISI","","html-keyboard-response","470","438563","0.0-1.0-741.0","0","0","97640","","183","","","75","82","k","","","","","","","","","","","","","","",""
"","S2","","html-keyboard-response","471","438696","0.0-1.0-742.0","0","0","97640","","127","","","75","82","","k","2","82","training","adjacent","BC","2","3","Q.jpg","O.jpg","0","1","0","",""
"","feedback","","html-keyboard-response","472","439701","0.0-1.0-744.0-0.0","0","0","97640","","null","","","null","82","","","","","","","","","","","","","","","",""
"","time_out","","html-keyboard-response","473","441709","0.0-1.0-746.0-0.0","0","0","97640","","null","","","null","82","","","","","","","","","","","","","","","",""
"","ITI","","html-keyboard-response","474","442717","0.0-1.0-747.0","0","0","97640","","282","","","68","82","","","","","","","","","","","","","","","d",""
"","S1","","html-keyboard-response","475","442973","0.0-1.0-749.0","0","0","97640","","null","","","null","83","","","","","","","","","","","","","","","",""
"","ISI","","html-keyboard-response","476","443478","0.0-1.0-750.0","0","0","97640","","194","","","75","83","k","","","","","","","","","","","","","","",""
"","S2","","html-keyboard-response","477","443733","0.0-1.0-751.0","0","0","97640","","null","","","null","83","","NaN","","","","","","","","","","","","","",""
"","response","","html-keyboard-response","478","443743","0.0-1.0-752.0-0.0","0","0","97640","","6","","","68","83","","","2","83","training","adjacent","ED","5","4","M.jpg","N.jpg","1","0","0","",""
"","feedback","","html-keyboard-response","479","444750","0.0-1.0-753.0-0.0","0","0","97640","","null","","","null","83","","","","","","","","","","","","","","","",""
"","time_out","","html-keyboard-response","480","446759","0.0-1.0-755.0-0.0","0","0","97640","","null","","","null","83","","","","","","","","","","","","","","","",""
"","ITI","","html-keyboard-response","481","447763","0.0-1.0-756.0","0","0","97640","","154","","","68","83","","","","","","","","","","","","","","","d",""
"","S1","","html-keyboard-response","482","448019","0.0-1.0-758.0","0","0","97640","","null","","","null","84","","","","","","","","","","","","","","","",""
"","ISI","","html-keyboard-response","483","448528","0.0-1.0-759.0","0","0","97640","","121","","","75","84","k","","","","","","","","","","","","","","",""
"","S2","","html-keyboard-response","484","448664","0.0-1.0-760.0","0","0","97640","","126","","","68","84","","d","2","84","training","adjacent","ED","5","4","M.jpg","N.jpg","1","0","0","",""
"","feedback","","html-keyboard-response","485","449671","0.0-1.0-762.0-0.0","0","0","97640","","null","","","null","84","","","","","","","","","","","","","","","",""
"","time_out","","html-keyboard-response","486","451679","0.0-1.0-764.0-0.0","0","0","97640","","null","","","null","84","","","","","","","","","","","","","","","",""
"","ITI","","html-keyboard-response","487","452684","0.0-1.0-765.0","0","0","97640","","170","","","68","84","","","","","","","","","","","","","","","d",""
"","S1","","html-keyboard-response","488","452938","0.0-1.0-767.0","0","0","97640","","null","","","null","85","","","","","","","","","","","","","","","",""
"","ISI","","html-keyboard-response","489","453452","0.0-1.0-768.0","0","0","97640","","158","","","75","85","k","","","","","","","","","","","","","","",""
"","S2","","html-keyboard-response","490","453581","0.0-1.0-769.0","0","0","97640","","124","","","75","85","","k","2","85","training","adjacent","EF","5","6","M.jpg","R.jpg","0","1","0","",""
"","feedback","","html-keyboard-response","491","454588","0.0-1.0-771.0-0.0","0","0","97640","","null","","","null","85","","","","","","","","","","","","","","","",""
"","time_out","","html-keyboard-response","492","456592","0.0-1.0-773.0-0.0","0","0","97640","","null","","","null","85","","","","","","","","","","","","","","","",""
"","ITI","","html-keyboard-response","493","457600","0.0-1.0-774.0","0","0","97640","","139","","","75","85","","","","","","","","","","","","","","","k",""
"","S1","","html-keyboard-response","494","457853","0.0-1.0-776.0","0","0","97640","","null","","","null","86","","","","","","","","","","","","","","","",""
"","ISI","","html-keyboard-response","495","458357","0.0-1.0-777.0","0","0","97640","","22","","","68","86","d","","","","","","","","","","","","","","",""
"","S2","","html-keyboard-response","496","458421","0.0-1.0-778.0","0","0","97640","","60","","","68","86","","d","2","86","training","adjacent","BC","2","3","Q.jpg","O.jpg","1","1","1","",""
"","feedback","","html-keyboard-response","497","459425","0.0-1.0-780.0-0.0","0","0","97640","","null","","","null","86","","","","","","","","","","","","","","","",""
"","ITI","","html-keyboard-response","498","460428","0.0-1.0-783.0","0","0","97640","","37","","","68","86","","","","","","","","","","","","","","","d",""
"","S1","","html-keyboard-response","499","460681","0.0-1.0-785.0","0","0","97640","","null","","","null","87","","","","","","","","","","","","","","","",""
"","ISI","","html-keyboard-response","500","461189","0.0-1.0-786.0","0","0","97640","","14","","","68","87","d","","","","","","","","","","","","","","",""
"","S2","","html-keyboard-response","501","461206","0.0-1.0-787.0","0","0","97640","","9","","","75","87","","k","2","87","training","adjacent","AB","1","2","L.jpg","Q.jpg","0","1","0","",""
"","feedback","","html-keyboard-response","502","462213","0.0-1.0-789.0-0.0","0","0","97640","","null","","","null","87","","","","","","","","","","","","","","","",""
"","time_out","","html-keyboard-response","503","464217","0.0-1.0-791.0-0.0","0","0","97640","","null","","","null","87","","","","","","","","","","","","","","","",""
"","ITI","","html-keyboard-response","504","465221","0.0-1.0-792.0","0","0","97640","","130","","","68","87","","","","","","","","","","","","","","","d",""
"","S1","","html-keyboard-response","505","465474","0.0-1.0-794.0","0","0","97640","","null","","","null","88","","","","","","","","","","","","","","","",""
"","ISI","","html-keyboard-response","506","465977","0.0-1.0-795.0","0","0","97640","","195","","","68","88","d","","","","","","","","","","","","","","",""
"","S2","","html-keyboard-response","507","466162","0.0-1.0-796.0","0","0","97640","","177","","","75","88","","k","2","88","training","adjacent","DE","4","5","N.jpg","M.jpg","0","1","0","",""
"","feedback","","html-keyboard-response","508","467168","0.0-1.0-798.0-0.0","0","0","97640","","null","","","null","88","","","","","","","","","","","","","","","",""
"","time_out","","html-keyboard-response","509","469174","0.0-1.0-800.0-0.0","0","0","97640","","null","","","null","88","","","","","","","","","","","","","","","",""
"","ITI","","html-keyboard-response","510","470179","0.0-1.0-801.0","0","0","97640","","101","","","68","88","","","","","","","","","","","","","","","d",""
"","S1","","html-keyboard-response","511","470435","0.0-1.0-803.0","0","0","97640","","null","","","null","89","","","","","","","","","","","","","","","",""
"","ISI","","html-keyboard-response","512","470940","0.0-1.0-804.0","0","0","97640","","148","","","75","89","k","","","","","","","","","","","","","","",""
"","S2","","html-keyboard-response","513","471111","0.0-1.0-805.0","0","0","97640","","162","","","68","89","","d","2","89","training","adjacent","FE","6","5","R.jpg","M.jpg","1","0","0","",""
"","feedback","","html-keyboard-response","514","472118","0.0-1.0-807.0-0.0","0","0","97640","","null","","","null","89","","","","","","","","","","","","","","","",""
"","time_out","","html-keyboard-response","515","474132","0.0-1.0-809.0-0.0","0","0","97640","","null","","","null","89","","","","","","","","","","","","","","","",""
"","ITI","","html-keyboard-response","516","475141","0.0-1.0-810.0","0","0","97640","","332","","","75","89","","","","","","","","","","","","","","","k",""
"","S1","","html-keyboard-response","517","475410","0.0-1.0-812.0","0","0","97640","","null","","","null","90","","","","","","","","","","","","","","","",""
"","ISI","","html-keyboard-response","518","475915","0.0-1.0-813.0","0","0","97640","","151","","","68","90","d","","","","","","","","","","","","","","",""
"","S2","","html-keyboard-response","519","476071","0.0-1.0-814.0","0","0","97640","","151","","","75","90","","k","2","90","training","adjacent","DE","4","5","N.jpg","M.jpg","0","1","0","",""
"","feedback","","html-keyboard-response","520","477079","0.0-1.0-816.0-0.0","0","0","97640","","null","","","null","90","","","","","","","","","","","","","","","",""
"","time_out","","html-keyboard-response","521","479086","0.0-1.0-818.0-0.0","0","0","97640","","null","","","null","90","","","","","","","","","","","","","","","",""
"","ITI","","html-keyboard-response","522","480094","0.0-1.0-819.0","0","0","97640","","3","","","68","90","","","","","","","","","","","","","","","d",""
"","S1","","html-keyboard-response","523","480348","0.0-1.0-821.0","0","0","97640","","null","","","null","91","","","","","","","","","","","","","","","",""
"","ISI","","html-keyboard-response","524","480854","0.0-1.0-822.0","0","0","97640","","56","","","68","91","d","","","","","","","","","","","","","","",""
"","S2","","html-keyboard-response","525","480926","0.0-1.0-823.0","0","0","97640","","69","","","68","91","","d","2","91","training","adjacent","BA","2","1","Q.jpg","L.jpg","1","0","0","",""
"","feedback","","html-keyboard-response","526","481933","0.0-1.0-825.0-0.0","0","0","97640","","null","","","null","91","","","","","","","","","","","","","","","",""
"","time_out","","html-keyboard-response","527","483941","0.0-1.0-827.0-0.0","0","0","97640","","null","","","null","91","","","","","","","","","","","","","","","",""
"","ITI","","html-keyboard-response","528","484948","0.0-1.0-828.0","0","0","97640","","233","","","68","91","","","","","","","","","","","","","","","d",""
"","S1","","html-keyboard-response","529","485203","0.0-1.0-830.0","0","0","97640","","null","","","null","92","","","","","","","","","","","","","","","",""
"","ISI","","html-keyboard-response","530","485707","0.0-1.0-831.0","0","0","97640","","80","","","68","92","d","","","","","","","","","","","","","","",""
"","S2","","html-keyboard-response","531","485829","0.0-1.0-832.0","0","0","97640","","118","","","68","92","","d","2","92","training","adjacent","CB","3","2","O.jpg","Q.jpg","1","0","0","",""
"","feedback","","html-keyboard-response","532","486834","0.0-1.0-834.0-0.0","0","0","97640","","null","","","null","92","","","","","","","","","","","","","","","",""
"","time_out","","html-keyboard-response","533","488843","0.0-1.0-836.0-0.0","0","0","97640","","null","","","null","92","","","","","","","","","","","","","","","",""
"","ITI","","html-keyboard-response","534","489851","0.0-1.0-837.0","0","0","97640","","5","","","75","92","","","","","","","","","","","","","","","k",""
"","S1","","html-keyboard-response","535","490124","0.0-1.0-839.0","0","0","97640","","null","","","null","93","","","","","","","","","","","","","","","",""
"","ISI","","html-keyboard-response","536","490628","0.0-1.0-840.0","0","0","97640","","140","","","68","93","d","","","","","","","","","","","","","","",""
"","S2","","html-keyboard-response","537","490773","0.0-1.0-841.0","0","0","97640","","142","","","68","93","","d","2","93","training","adjacent","DE","4","5","N.jpg","M.jpg","1","1","1","",""
"","feedback","","html-keyboard-response","538","491792","0.0-1.0-843.0-0.0","0","0","97640","","null","","","null","93","","","","","","","","","","","","","","","",""
"","ITI","","html-keyboard-response","539","492796","0.0-1.0-846.0","0","0","97640","","216","","","68","93","","","","","","","","","","","","","","","d",""
"","S1","","html-keyboard-response","540","493053","0.0-1.0-848.0","0","0","97640","","null","","","null","94","","","","","","","","","","","","","","","",""
"","ISI","","html-keyboard-response","541","493558","0.0-1.0-849.0","0","0","97640","","234","","","68","94","d","","","","","","","","","","","","","","",""
"","S2","","html-keyboard-response","542","493766","0.0-1.0-850.0","0","0","97640","","202","","","75","94","","k","2","94","training","adjacent","GF","7","6","P.jpg","R.jpg","0","0","1","",""
"","feedback","","html-keyboard-response","543","494771","0.0-1.0-852.0-0.0","0","0","97640","","null","","","null","94","","","","","","","","","","","","","","","",""
"","ITI","","html-keyboard-response","544","495776","0.0-1.0-855.0","0","0","97640","","230","","","68","94","","","","","","","","","","","","","","","d",""
"","S1","","html-keyboard-response","545","496032","0.0-1.0-857.0","0","0","97640","","null","","","null","95","","","","","","","","","","","","","","","",""
"","ISI","","html-keyboard-response","546","496536","0.0-1.0-858.0","0","0","97640","","177","","","68","95","d","","","","","","","","","","","","","","",""
"","S2","","html-keyboard-response","547","496762","0.0-1.0-859.0","0","0","97640","","215","","","68","95","","d","2","95","training","adjacent","FG","6","7","R.jpg","P.jpg","1","1","1","",""
"","feedback","","html-keyboard-response","548","497770","0.0-1.0-861.0-0.0","0","0","97640","","null","","","null","95","","","","","","","","","","","","","","","",""
"","ITI","","html-keyboard-response","549","498776","0.0-1.0-864.0","0","0","97640","","14","","","68","95","","","","","","","","","","","","","","","d",""
"","block_over","","html-keyboard-response","550","546700","0.0-1.0-865.0-0.0","0","0","97640","","47906","","","32","95","","","","","","","","","","","","","","","",""
"","S1","","html-keyboard-response","551","546957","0.0-1.0-866.0","0","0","97640","","null","","","null","96","","","","","","","","","","","","","","","",""
"","ISI","","html-keyboard-response","552","547463","0.0-1.0-867.0","0","0","97640","","null","","","null","96","NaN","","","","","","","","","","","","","","",""
"","S2","","html-keyboard-response","553","547480","0.0-1.0-868.0","0","0","97640","","13","","","68","96","","d","3","96","training","adjacent","CD","3","4","O.jpg","N.jpg","1","1","1","",""
"","feedback","","html-keyboard-response","554","548488","0.0-1.0-870.0-0.0","0","0","97640","","null","","","null","96","","","","","","","","","","","","","","","",""
"","ITI","","html-keyboard-response","555","549496","0.0-1.0-873.0","0","0","97640","","1","","","68","96","","","","","","","","","","","","","","","d",""
"","S1","","html-keyboard-response","556","549754","0.0-1.0-875.0","0","0","97640","","null","","","null","97","","","","","","","","","","","","","","","",""
"","ISI","","html-keyboard-response","557","550259","0.0-1.0-876.0","0","0","97640","","195","","","68","97","d","","","","","","","","","","","","","","",""
"","S2","","html-keyboard-response","558","550422","0.0-1.0-877.0","0","0","97640","","155","","","75","97","","k","3","97","training","adjacent","CB","3","2","O.jpg","Q.jpg","0","0","1","",""
"","feedback","","html-keyboard-response","559","551428","0.0-1.0-879.0-0.0","0","0","97640","","null","","","null","97","","","","","","","","","","","","","","","",""
"","ITI","","html-keyboard-response","560","552434","0.0-1.0-882.0","0","0","97640","","157","","","75","97","","","","","","","","","","","","","","","k",""
"","S1","","html-keyboard-response","561","552687","0.0-1.0-884.0","0","0","97640","","null","","","null","98","","","","","","","","","","","","","","","",""
"","ISI","","html-keyboard-response","562","553194","0.0-1.0-885.0","0","0","97640","","null","","","null","98","NaN","","","","","","","","","","","","","","",""
"","S2","","html-keyboard-response","563","553204","0.0-1.0-886.0","0","0","97640","","0","","","68","98","","d","3","98","training","adjacent","BA","2","1","Q.jpg","L.jpg","1","0","0","",""
"","feedback","","html-keyboard-response","564","554208","0.0-1.0-888.0-0.0","0","0","97640","","null","","","null","98","","","","","","","","","","","","","","","",""
"","time_out","","html-keyboard-response","565","556214","0.0-1.0-890.0-0.0","0","0","97640","","null","","","null","98","","","","","","","","","","","","","","","",""
"","ITI","","html-keyboard-response","566","557216","0.0-1.0-891.0","0","0","97640","","null","","","null","98","","","","","","","","","","","","","","","NaN",""
"","S1","","html-keyboard-response","567","557475","0.0-1.0-893.0","0","0","97640","","null","","","null","99","","","","","","","","","","","","","","","",""
"","ISI","","html-keyboard-response","568","557978","0.0-1.0-894.0","0","0","97640","","null","","","null","99","NaN","","","","","","","","","","","","","","",""
"","S2","","html-keyboard-response","569","558236","0.0-1.0-895.0","0","0","97640","","null","","","null","99","","NaN","","","","","","","","","","","","","",""
"","response","","html-keyboard-response","570","558542","0.0-1.0-896.0-0.0","0","0","97640","","296","","","68","99","","","3","99","training","adjacent","GF","7","6","P.jpg","R.jpg","1","0","0","",""
"","feedback","","html-keyboard-response","571","559550","0.0-1.0-897.0-0.0","0","0","97640","","null","","","null","99","","","","","","","","","","","","","","","",""
"","time_out","","html-keyboard-response","572","561558","0.0-1.0-899.0-0.0","0","0","97640","","null","","","null","99","","","","","","","","","","","","","","","",""
"","ITI","","html-keyboard-response","573","562566","0.0-1.0-900.0","0","0","97640","","148","","","68","99","","","","","","","","","","","","","","","d",""
"","S1","","html-keyboard-response","574","562824","0.0-1.0-902.0","0","0","97640","","null","","","null","100","","","","","","","","","","","","","","","",""
"","ISI","","html-keyboard-response","575","563330","0.0-1.0-903.0","0","0","97640","","16","","","68","100","d","","","","","","","","","","","","","","",""
"","S2","","html-keyboard-response","576","563336","0.0-1.0-904.0","0","0","97640","","0","","","68","100","","d","3","100","training","adjacent","FE","6","5","R.jpg","M.jpg","1","0","0","",""
"","feedback","","html-keyboard-response","577","564344","0.0-1.0-906.0-0.0","0","0","97640","","null","","","null","100","","","","","","","","","","","","","","","",""
"","time_out","","html-keyboard-response","578","566350","0.0-1.0-908.0-0.0","0","0","97640","","null","","","null","100","","","","","","","","","","","","","","","",""
"","ITI","","html-keyboard-response","579","567357","0.0-1.0-909.0","0","0","97640","","74","","","75","100","","","","","","","","","","","","","","","k",""
"","S1","","html-keyboard-response","580","567615","0.0-1.0-911.0","0","0","97640","","null","","","null","101","","","","","","","","","","","","","","","",""
"","ISI","","html-keyboard-response","581","568119","0.0-1.0-912.0","0","0","97640","","234","","","75","101","k","","","","","","","","","","","","","","",""
"","S2","","html-keyboard-response","582","568133","0.0-1.0-913.0","0","0","97640","","7","","","75","101","","k","3","101","training","adjacent","BA","2","1","Q.jpg","L.jpg","0","0","1","",""
"","feedback","","html-keyboard-response","583","569139","0.0-1.0-915.0-0.0","0","0","97640","","null","","","null","101","","","","","","","","","","","","","","","",""
"","ITI","","html-keyboard-response","584","570143","0.0-1.0-918.0","0","0","97640","","97","","","75","101","","","","","","","","","","","","","","","k",""
"","S1","","html-keyboard-response","585","570398","0.0-1.0-920.0","0","0","97640","","null","","","null","102","","","","","","","","","","","","","","","",""
"","ISI","","html-keyboard-response","586","570907","0.0-1.0-921.0","0","0","97640","","null","","","null","102","NaN","","","","","","","","","","","","","","",""
"","S2","","html-keyboard-response","587","571169","0.0-1.0-922.0","0","0","97640","","null","","","null","102","","NaN","","","","","","","","","","","","","",""
"","response","","html-keyboard-response","588","571206","0.0-1.0-923.0-0.0","0","0","97640","","32","","","75","102","","","3","102","training","adjacent","DE","4","5","N.jpg","M.jpg","0","1","0","",""
"","feedback","","html-keyboard-response","589","572214","0.0-1.0-924.0-0.0","0","0","97640","","null","","","null","102","","","","","","","","","","","","","","","",""
