"success","ttype","start_time","trial_type","trial_index","time_elapsed","internal_node_id","warning","missed_checkup","PID","view_history","rt","responses","repeat_instructions","key_press","index","keypress_isi","keypress_S2","block","trial_num","phase","group_type","pair_type","S1_stim","S2_stim","S1_img","S2_img","S1_chosen","S1_higher","accuracy","keypress_iti","total_bonus_tally"
"true","full_screen","d04142023hr1444","fullscreen","0","6668","0.0-0.0","0","0","19557","","","","","","","","","","","","","","","","","","","","","",""
"","instructions","","instructions","1","67747","0.0-1.0-0.0-0.0","0","0","19557","[{""page_index"":0,""viewing_time"":23740},{""page_index"":1,""viewing_time"":23591},{""page_index"":2,""viewing_time"":6290},{""page_index"":3,""viewing_time"":7455}]","61077","","","","","","","","","","","","","","","","","","","",""
"","comprehension_check","","survey-multi-choice","2","113760","0.0-1.0-0.0-1.0","0","0","19557","","46006","{""Q0"":""True"",""Q1"":""K"",""Q2"":""Once the second image appears and while the screen 'MAKE A CHOICE' is shown"",""Q3"":""Green mark"",""Q4"":""either D or K""}","0","","","","","","","","","","","","","","","","","",""
"","start_exp","","html-keyboard-response","3","122843","0.0-1.0-1.0","0","0","19557","","9080","","","32","","","","","","","","","","","","","","","","",""
"","S1","","html-keyboard-response","4","123096","0.0-1.0-2.0","0","0","19557","","null","","","null","0","","","","","","","","","","","","","","","",""
"","ISI","","html-keyboard-response","5","124099","0.0-1.0-3.0","0","0","19557","","null","","","null","0","NaN","","","","","","","","","","","","","","",""
"","S2","","html-keyboard-response","6","124352","0.0-1.0-4.0","0","0","19557","","null","","","null","0","","NaN","","","","","","","","","","","","","",""
"","response","","html-keyboard-response","7","126007","0.0-1.0-5.0-0.0","0","0","19557","","1654","","","68","0","","","1","0","training","adjacent","DE","4","5","P.jpg","R.jpg","0","1","0","",""
"","feedback","","html-keyboard-response","8","127010","0.0-1.0-6.0-0.0","0","0","19557","","null","","","null","0","","","","","","","","","","","","","","","",""
"","time_out","","html-keyboard-response","9","129012","0.0-1.0-8.0-0.0","0","0","19557","","null","","","null","0","","","","","","","","","","","","","","","",""
"","ITI","","html-keyboard-response","10","130015","0.0-1.0-9.0","0","0","19557","","null","","","null","0","","","","","","","","","","","","","","","NaN",""
"","S1","","html-keyboard-response","11","130268","0.0-1.0-11.0","0","0","19557","","null","","","null","1","","","","","","","","","","","","","","","",""
"","ISI","","html-keyboard-response","12","131271","0.0-1.0-12.0","0","0","19557","","null","","","null","1","NaN","","","","","","","","","","","","","","",""
"","S2","","html-keyboard-response","13","131523","0.0-1.0-13.0","0","0","19557","","null","","","null","1","","NaN","","","","","","","","","","","","","",""
"","response","","html-keyboard-response","14","133277","0.0-1.0-14.0-0.0","0","0","19557","","null","","","null","1","","","1","1","training","adjacent","CB","3","2","M.jpg","N.jpg","NaN","0","0","",""
"","too_slow_prompt","","html-keyboard-response","15","134280","0.0-1.0-16.0-0.0","1","0","19557","","null","","","null","","","","","","","","","","","","","","","","",""
"","time_out","","html-keyboard-response","16","136282","0.0-1.0-17.0-0.0","0","0","19557","","null","","","null","1","","","","","","","","","","","","","","","",""
"","ITI","","html-keyboard-response","17","137284","0.0-1.0-18.0","0","0","19557","","null","","","null","1","","","","","","","","","","","","","","","NaN",""
"","S1","","html-keyboard-response","18","137537","0.0-1.0-20.0","0","0","19557","","null","","","null","2","","","","","","","","","","","","","","","",""
"","ISI","","html-keyboard-response","19","138539","0.0-1.0-21.0","0","0","19557","","null","","","null","2","NaN","","","","","","","","","","","","","","",""
"","S2","","html-keyboard-response","20","138791","0.0-1.0-22.0","0","0","19557","","null","","","null","2","","NaN","","","","","","","","","","","","","",""
"","response","","html-keyboard-response","21","140544","0.0-1.0-23.0-0.0","0","0","19557","","null","","","null","2","","","1","2","training","adjacent","DC","4","3","P.jpg","M.jpg","NaN","0","0","",""
"","too_slow_prompt","","html-keyboard-response","22","141547","0.0-1.0-25.0-0.0","1","0","19557","","null","","","null","","","","","","","","","","","","","","","","",""
"","time_out","","html-keyboard-response","23","143549","0.0-1.0-26.0-0.0","0","0","19557","","null","","","null","2","","","","","","","","","","","","","","","",""
"","ITI","","html-keyboard-response","24","144553","0.0-1.0-27.0","0","0","19557","","null","","","null","2","","","","","","","","","","","","","","","NaN",""
"","S1","","html-keyboard-response","25","144806","0.0-1.0-29.0","0","0","19557","","null","","","null","3","","","","","","","","","","","","","","","",""
"","ISI","","html-keyboard-response","26","145809","0.0-1.0-30.0","0","0","19557","","null","","","null","3","NaN","","","","","","","","","","","","","","",""
"","S2","","html-keyboard-response","27","146063","0.0-1.0-31.0","0","0","19557","","null","","","null","3","","NaN","","","","","","","","","","","","","",""
"","response","","html-keyboard-response","28","146411","0.0-1.0-32.0-0.0","0","0","19557","","345","","","68","3","","","1","3","training","adjacent","DE","4","5","P.jpg","R.jpg","0","1","0","",""
"","feedback","","html-keyboard-response","29","147414","0.0-1.0-33.0-0.0","0","0","19557","","null","","","null","3","","","","","","","","","","","","","","","",""
"","time_out","","html-keyboard-response","30","149418","0.0-1.0-35.0-0.0","0","0","19557","","null","","","null","3","","","","","","","","","","","","","","","",""
"","ITI","","html-keyboard-response","31","150421","0.0-1.0-36.0","0","0","19557","","null","","","null","3","","","","","","","","","","","","","","","NaN",""
"","S1","","html-keyboard-response","32","150674","0.0-1.0-38.0","0","0","19557","","null","","","null","4","","","","","","","","","","","","","","","",""
"","ISI","","html-keyboard-response","33","151676","0.0-1.0-39.0","0","0","19557","","null","","","null","4","NaN","","","","","","","","","","","","","","",""
"","S2","","html-keyboard-response","34","151929","0.0-1.0-40.0","0","0","19557","","null","","","null","4","","NaN","","","","","","","","","","","","","",""
"","response","","html-keyboard-response","35","152194","0.0-1.0-41.0-0.0","0","0","19557","","264","","","75","4","","","1","4","training","adjacent","EF","5","6","R.jpg","O.jpg","1","1","1","",""
"","feedback","","html-keyboard-response","36","153198","0.0-1.0-42.0-0.0","0","0","19557","","null","","","null","4","","","","","","","","","","","","","","","",""
"","ITI","","html-keyboard-response","37","154202","0.0-1.0-45.0","0","0","19557","","null","","","null","4","","","","","","","","","","","","","","","NaN",""
"","S1","","html-keyboard-response","38","154454","0.0-1.0-47.0","0","0","19557","","null","","","null","5","","","","","","","","","","","","","","","",""
"","ISI","","html-keyboard-response","39","155457","0.0-1.0-48.0","0","0","19557","","null","","","null","5","NaN","","","","","","","","","","","","","","",""
"","S2","","html-keyboard-response","40","155710","0.0-1.0-49.0","0","0","19557","","null","","","null","5","","NaN","","","","","","","","","","","","","",""
"","response","","html-keyboard-response","41","156648","0.0-1.0-50.0-0.0","0","0","19557","","935","","","68","5","","","1","5","training","adjacent","FG","6","7","O.jpg","Q.jpg","0","1","0","",""
"","feedback","","html-keyboard-response","42","157652","0.0-1.0-51.0-0.0","0","0","19557","","null","","","null","5","","","","","","","","","","","","","","","",""
"","time_out","","html-keyboard-response","43","159656","0.0-1.0-53.0-0.0","0","0","19557","","null","","","null","5","","","","","","","","","","","","","","","",""
"","ITI","","html-keyboard-response","44","160659","0.0-1.0-54.0","0","0","19557","","null","","","null","5","","","","","","","","","","","","","","","NaN",""
"","S1","","html-keyboard-response","45","160912","0.0-1.0-56.0","0","0","19557","","null","","","null","6","","","","","","","","","","","","","","","",""
"","ISI","","html-keyboard-response","46","161916","0.0-1.0-57.0","0","0","19557","","null","","","null","6","NaN","","","","","","","","","","","","","","",""
"","S2","","html-keyboard-response","47","162171","0.0-1.0-58.0","0","0","19557","","null","","","null","6","","NaN","","","","","","","","","","","","","",""
"","response","","html-keyboard-response","48","162643","0.0-1.0-59.0-0.0","0","0","19557","","470","","","75","6","","","1","6","training","adjacent","BC","2","3","N.jpg","M.jpg","1","1","1","",""
"","feedback","","html-keyboard-response","49","163646","0.0-1.0-60.0-0.0","0","0","19557","","null","","","null","6","","","","","","","","","","","","","","","",""
"","ITI","","html-keyboard-response","50","164650","0.0-1.0-63.0","0","0","19557","","null","","","null","6","","","","","","","","","","","","","","","NaN",""
"","S1","","html-keyboard-response","51","164903","0.0-1.0-65.0","0","0","19557","","null","","","null","7","","","","","","","","","","","","","","","",""
"","ISI","","html-keyboard-response","52","165906","0.0-1.0-66.0","0","0","19557","","null","","","null","7","NaN","","","","","","","","","","","","","","",""
"","S2","","html-keyboard-response","53","166161","0.0-1.0-67.0","0","0","19557","","null","","","null","7","","NaN","","","","","","","","","","","","","",""
"","response","","html-keyboard-response","54","166515","0.0-1.0-68.0-0.0","0","0","19557","","353","","","75","7","","","1","7","training","adjacent","CD","3","4","M.jpg","P.jpg","1","1","1","",""
"","feedback","","html-keyboard-response","55","167518","0.0-1.0-69.0-0.0","0","0","19557","","null","","","null","7","","","","","","","","","","","","","","","",""
"","ITI","","html-keyboard-response","56","168521","0.0-1.0-72.0","0","0","19557","","null","","","null","7","","","","","","","","","","","","","","","NaN",""
"","S1","","html-keyboard-response","57","168774","0.0-1.0-74.0","0","0","19557","","null","","","null","8","","","","","","","","","","","","","","","",""
"","ISI","","html-keyboard-response","58","169777","0.0-1.0-75.0","0","0","19557","","null","","","null","8","NaN","","","","","","","","","","","","","","",""
"","S2","","html-keyboard-response","59","170029","0.0-1.0-76.0","0","0","19557","","null","","","null","8","","NaN","","","","","","","","","","","","","",""
"","response","","html-keyboard-response","60","170112","0.0-1.0-77.0-0.0","0","0","19557","","80","","","75","8","","","1","8","training","adjacent","CB","3","2","M.jpg","N.jpg","1","0","0","",""
"","feedback","","html-keyboard-response","61","171116","0.0-1.0-78.0-0.0","0","0","19557","","null","","","null","8","","","","","","","","","","","","","","","",""
"","time_out","","html-keyboard-response","62","173119","0.0-1.0-80.0-0.0","0","0","19557","","null","","","null","8","","","","","","","","","","","","","","","",""
"","ITI","","html-keyboard-response","63","174122","0.0-1.0-81.0","0","0","19557","","null","","","null","8","","","","","","","","","","","","","","","NaN",""
"","S1","","html-keyboard-response","64","174375","0.0-1.0-83.0","0","0","19557","","null","","","null","9","","","","","","","","","","","","","","","",""
"","ISI","","html-keyboard-response","65","175378","0.0-1.0-84.0","0","0","19557","","null","","","null","9","NaN","","","","","","","","","","","","","","",""
"","S2","","html-keyboard-response","66","175631","0.0-1.0-85.0","0","0","19557","","null","","","null","9","","NaN","","","","","","","","","","","","","",""
"","response","","html-keyboard-response","67","176471","0.0-1.0-86.0-0.0","0","0","19557","","837","","","75","9","","","1","9","training","adjacent","GF","7","6","Q.jpg","O.jpg","1","0","0","",""
"","feedback","","html-keyboard-response","68","177474","0.0-1.0-87.0-0.0","0","0","19557","","null","","","null","9","","","","","","","","","","","","","","","",""
"","time_out","","html-keyboard-response","69","179478","0.0-1.0-89.0-0.0","0","0","19557","","null","","","null","9","","","","","","","","","","","","","","","",""
"","ITI","","html-keyboard-response","70","180481","0.0-1.0-90.0","0","0","19557","","null","","","null","9","","","","","","","","","","","","","","","NaN",""
"","S1","","html-keyboard-response","71","180733","0.0-1.0-92.0","0","0","19557","","null","","","null","10","","","","","","","","","","","","","","","",""
"","ISI","","html-keyboard-response","72","181736","0.0-1.0-93.0","0","0","19557","","null","","","null","10","NaN","","","","","","","","","","","","","","",""
"","S2","","html-keyboard-response","73","182007","0.0-1.0-94.0","0","0","19557","","null","","","null","10","","NaN","","","","","","","","","","","","","",""
"","response","","html-keyboard-response","74","182315","0.0-1.0-95.0-0.0","0","0","19557","","305","","","75","10","","","1","10","training","adjacent","FG","6","7","O.jpg","Q.jpg","1","1","1","",""
"","feedback","","html-keyboard-response","75","183318","0.0-1.0-96.0-0.0","0","0","19557","","null","","","null","10","","","","","","","","","","","","","","","",""
"","ITI","","html-keyboard-response","76","184321","0.0-1.0-99.0","0","0","19557","","null","","","null","10","","","","","","","","","","","","","","","NaN",""
"","S1","","html-keyboard-response","77","184574","0.0-1.0-101.0","0","0","19557","","null","","","null","11","","","","","","","","","","","","","","","",""
"","ISI","","html-keyboard-response","78","185577","0.0-1.0-102.0","0","0","19557","","null","","","null","11","NaN","","","","","","","","","","","","","","",""
"","S2","","html-keyboard-response","79","185830","0.0-1.0-103.0","0","0","19557","","null","","","null","11","","NaN","","","","","","","","","","","","","",""
"","response","","html-keyboard-response","80","186823","0.0-1.0-104.0-0.0","0","0","19557","","991","","","68","11","","","1","11","training","adjacent","FG","6","7","O.jpg","Q.jpg","0","1","0","",""
"","feedback","","html-keyboard-response","81","187826","0.0-1.0-105.0-0.0","0","0","19557","","null","","","null","11","","","","","","","","","","","","","","","",""
"","time_out","","html-keyboard-response","82","189829","0.0-1.0-107.0-0.0","0","0","19557","","null","","","null","11","","","","","","","","","","","","","","","",""
"","ITI","","html-keyboard-response","83","190832","0.0-1.0-108.0","0","0","19557","","null","","","null","11","","","","","","","","","","","","","","","NaN",""
"","S1","","html-keyboard-response","84","191084","0.0-1.0-110.0","0","0","19557","","null","","","null","12","","","","","","","","","","","","","","","",""
"","ISI","","html-keyboard-response","85","192087","0.0-1.0-111.0","0","0","19557","","null","","","null","12","NaN","","","","","","","","","","","","","","",""
"","S2","","html-keyboard-response","86","192339","0.0-1.0-112.0","0","0","19557","","null","","","null","12","","NaN","","","","","","","","","","","","","",""
"","response","","html-keyboard-response","87","192450","0.0-1.0-113.0-0.0","0","0","19557","","110","","","75","12","","","1","12","training","adjacent","BA","2","1","N.jpg","L.jpg","1","0","0","",""
"","feedback","","html-keyboard-response","88","193453","0.0-1.0-114.0-0.0","0","0","19557","","null","","","null","12","","","","","","","","","","","","","","","",""
"","time_out","","html-keyboard-response","89","195455","0.0-1.0-116.0-0.0","0","0","19557","","null","","","null","12","","","","","","","","","","","","","","","",""
"","ITI","","html-keyboard-response","90","196458","0.0-1.0-117.0","0","0","19557","","null","","","null","12","","","","","","","","","","","","","","","NaN",""
"","S1","","html-keyboard-response","91","196710","0.0-1.0-119.0","0","0","19557","","null","","","null","13","","","","","","","","","","","","","","","",""
"","ISI","","html-keyboard-response","92","197714","0.0-1.0-120.0","0","0","19557","","null","","","null","13","NaN","","","","","","","","","","","","","","",""
"","S2","","html-keyboard-response","93","197967","0.0-1.0-121.0","0","0","19557","","null","","","null","13","","NaN","","","","","","","","","","","","","",""
"","response","","html-keyboard-response","94","198462","0.0-1.0-122.0-0.0","0","0","19557","","492","","","75","13","","","1","13","training","adjacent","BA","2","1","N.jpg","L.jpg","1","0","0","",""
"","feedback","","html-keyboard-response","95","199465","0.0-1.0-123.0-0.0","0","0","19557","","null","","","null","13","","","","","","","","","","","","","","","",""
"","time_out","","html-keyboard-response","96","201468","0.0-1.0-125.0-0.0","0","0","19557","","null","","","null","13","","","","","","","","","","","","","","","",""
"","ITI","","html-keyboard-response","97","202471","0.0-1.0-126.0","0","0","19557","","null","","","null","13","","","","","","","","","","","","","","","NaN",""
"","S1","","html-keyboard-response","98","202724","0.0-1.0-128.0","0","0","19557","","null","","","null","14","","","","","","","","","","","","","","","",""
"","ISI","","html-keyboard-response","99","203742","0.0-1.0-129.0","0","0","19557","","null","","","null","14","NaN","","","","","","","","","","","","","","",""
"","S2","","html-keyboard-response","100","203996","0.0-1.0-130.0","0","0","19557","","null","","","null","14","","NaN","","","","","","","","","","","","","",""
"","response","","html-keyboard-response","101","204295","0.0-1.0-131.0-0.0","0","0","19557","","297","","","68","14","","","1","14","training","adjacent","DC","4","3","P.jpg","M.jpg","0","0","1","",""
"","feedback","","html-keyboard-response","102","205299","0.0-1.0-132.0-0.0","0","0","19557","","null","","","null","14","","","","","","","","","","","","","","","",""
"","ITI","","html-keyboard-response","103","206302","0.0-1.0-135.0","0","0","19557","","null","","","null","14","","","","","","","","","","","","","","","NaN",""
"","S1","","html-keyboard-response","104","206556","0.0-1.0-137.0","0","0","19557","","null","","","null","15","","","","","","","","","","","","","","","",""
"","ISI","","html-keyboard-response","105","207558","0.0-1.0-138.0","0","0","19557","","null","","","null","15","NaN","","","","","","","","","","","","","","",""
"","S2","","html-keyboard-response","106","207811","0.0-1.0-139.0","0","0","19557","","null","","","null","15","","NaN","","","","","","","","","","","","","",""
"","response","","html-keyboard-response","107","208314","0.0-1.0-140.0-0.0","0","0","19557","","500","","","75","15","","","1","15","training","adjacent","BC","2","3","N.jpg","M.jpg","1","1","1","",""
"","feedback","","html-keyboard-response","108","209317","0.0-1.0-141.0-0.0","0","0","19557","","null","","","null","15","","","","","","","","","","","","","","","",""
"","ITI","","html-keyboard-response","109","210321","0.0-1.0-144.0","0","0","19557","","null","","","null","15","","","","","","","","","","","","","","","NaN",""
"","S1","","html-keyboard-response","110","210574","0.0-1.0-146.0","0","0","19557","","null","","","null","16","","","","","","","","","","","","","","","",""
"","ISI","","html-keyboard-response","111","211577","0.0-1.0-147.0","0","0","19557","","null","","","null","16","NaN","","","","","","","","","","","","","","",""
"","S2","","html-keyboard-response","112","211830","0.0-1.0-148.0","0","0","19557","","null","","","null","16","","NaN","","","","","","","","","","","","","",""
"","response","","html-keyboard-response","113","211905","0.0-1.0-149.0-0.0","0","0","19557","","74","","","75","16","","","1","16","training","adjacent","EF","5","6","R.jpg","O.jpg","1","1","1","",""
"","feedback","","html-keyboard-response","114","212908","0.0-1.0-150.0-0.0","0","0","19557","","null","","","null","16","","","","","","","","","","","","","","","",""
"","ITI","","html-keyboard-response","115","213910","0.0-1.0-153.0","0","0","19557","","null","","","null","16","","","","","","","","","","","","","","","NaN",""
"","S1","","html-keyboard-response","116","214163","0.0-1.0-155.0","0","0","19557","","null","","","null","17","","","","","","","","","","","","","","","",""
"","ISI","","html-keyboard-response","117","215166","0.0-1.0-156.0","0","0","19557","","null","","","null","17","NaN","","","","","","","","","","","","","","",""
"","S2","","html-keyboard-response","118","215419","0.0-1.0-157.0","0","0","19557","","null","","","null","17","","NaN","","","","","","","","","","","","","",""
"","response","","html-keyboard-response","119","216370","0.0-1.0-158.0-0.0","0","0","19557","","948","","","68","17","","","1","17","training","adjacent","DC","4","3","P.jpg","M.jpg","0","0","1","",""
"","feedback","","html-keyboard-response","120","217375","0.0-1.0-159.0-0.0","0","0","19557","","null","","","null","17","","","","","","","","","","","","","","","",""
"","ITI","","html-keyboard-response","121","218379","0.0-1.0-162.0","0","0","19557","","null","","","null","17","","","","","","","","","","","","","","","NaN",""
"","S1","","html-keyboard-response","122","218632","0.0-1.0-164.0","0","0","19557","","null","","","null","18","","","","","","","","","","","","","","","",""
"","ISI","","html-keyboard-response","123","219636","0.0-1.0-165.0","0","0","19557","","null","","","null","18","NaN","","","","","","","","","","","","","","",""
"","S2","","html-keyboard-response","124","219889","0.0-1.0-166.0","0","0","19557","","null","","","null","18","","NaN","","","","","","","","","","","","","",""
"","response","","html-keyboard-response","125","220232","0.0-1.0-167.0-0.0","0","0","19557","","340","","","68","18","","","1","18","training","adjacent","DE","4","5","P.jpg","R.jpg","0","1","0","",""
"","feedback","","html-keyboard-response","126","221236","0.0-1.0-168.0-0.0","0","0","19557","","null","","","null","18","","","","","","","","","","","","","","","",""
"","time_out","","html-keyboard-response","127","223240","0.0-1.0-170.0-0.0","0","0","19557","","null","","","null","18","","","","","","","","","","","","","","","",""
"","ITI","","html-keyboard-response","128","224245","0.0-1.0-171.0","0","0","19557","","null","","","null","18","","","","","","","","","","","","","","","NaN",""
"","S1","","html-keyboard-response","129","224499","0.0-1.0-173.0","0","0","19557","","null","","","null","19","","","","","","","","","","","","","","","",""
"","ISI","","html-keyboard-response","130","225502","0.0-1.0-174.0","0","0","19557","","null","","","null","19","NaN","","","","","","","","","","","","","","",""
"","S2","","html-keyboard-response","131","225722","0.0-1.0-175.0","0","0","19557","","216","","","75","19","","k","1","19","training","adjacent","EF","5","6","R.jpg","O.jpg","1","1","1","",""
"","feedback","","html-keyboard-response","132","226728","0.0-1.0-177.0-0.0","0","0","19557","","null","","","null","19","","","","","","","","","","","","","","","",""
"","ITI","","html-keyboard-response","133","227731","0.0-1.0-180.0","0","0","19557","","null","","","null","19","","","","","","","","","","","","","","","NaN",""
"","S1","","html-keyboard-response","134","227983","0.0-1.0-182.0","0","0","19557","","null","","","null","20","","","","","","","","","","","","","","","",""
"","ISI","","html-keyboard-response","135","228996","0.0-1.0-183.0","0","0","19557","","null","","","null","20","NaN","","","","","","","","","","","","","","",""
"","S2","","html-keyboard-response","136","229250","0.0-1.0-184.0","0","0","19557","","null","","","null","20","","NaN","","","","","","","","","","","","","",""
"","response","","html-keyboard-response","137","229758","0.0-1.0-185.0-0.0","0","0","19557","","506","","","68","20","","","1","20","training","adjacent","GF","7","6","Q.jpg","O.jpg","0","0","1","",""
"","feedback","","html-keyboard-response","138","230763","0.0-1.0-186.0-0.0","0","0","19557","","null","","","null","20","","","","","","","","","","","","","","","",""
"","ITI","","html-keyboard-response","139","231766","0.0-1.0-189.0","0","0","19557","","null","","","null","20","","","","","","","","","","","","","","","NaN",""
"","S1","","html-keyboard-response","140","232020","0.0-1.0-191.0","0","0","19557","","null","","","null","21","","","","","","","","","","","","","","","",""
"","ISI","","html-keyboard-response","141","233022","0.0-1.0-192.0","0","0","19557","","null","","","null","21","NaN","","","","","","","","","","","","","","",""
"","S2","","html-keyboard-response","142","233275","0.0-1.0-193.0","0","0","19557","","null","","","null","21","","NaN","","","","","","","","","","","","","",""
"","response","","html-keyboard-response","143","233967","0.0-1.0-194.0-0.0","0","0","19557","","690","","","75","21","","","1","21","training","adjacent","GF","7","6","Q.jpg","O.jpg","1","0","0","",""
"","feedback","","html-keyboard-response","144","234975","0.0-1.0-195.0-0.0","0","0","19557","","null","","","null","21","","","","","","","","","","","","","","","",""
"","time_out","","html-keyboard-response","145","236986","0.0-1.0-197.0-0.0","0","0","19557","","null","","","null","21","","","","","","","","","","","","","","","",""
"","ITI","","html-keyboard-response","146","237990","0.0-1.0-198.0","0","0","19557","","null","","","null","21","","","","","","","","","","","","","","","NaN",""
"","S1","","html-keyboard-response","147","238242","0.0-1.0-200.0","0","0","19557","","null","","","null","22","","","","","","","","","","","","","","","",""
"","ISI","","html-keyboard-response","148","239245","0.0-1.0-201.0","0","0","19557","","null","","","null","22","NaN","","","","","","","","","","","","","","",""
"","S2","","html-keyboard-response","149","239433","0.0-1.0-202.0","0","0","19557","","186","","","68","22","","d","1","22","training","adjacent","DE","4","5","P.jpg","R.jpg","0","1","0","",""
"","feedback","","html-keyboard-response","150","240436","0.0-1.0-204.0-0.0","0","0","19557","","null","","","null","22","","","","","","","","","","","","","","","",""
"","time_out","","html-keyboard-response","151","242439","0.0-1.0-206.0-0.0","0","0","19557","","null","","","null","22","","","","","","","","","","","","","","","",""
"","ITI","","html-keyboard-response","152","243442","0.0-1.0-207.0","0","0","19557","","null","","","null","22","","","","","","","","","","","","","","","NaN",""
"","S1","","html-keyboard-response","153","243696","0.0-1.0-209.0","0","0","19557","","null","","","null","23","","","","","","","","","","","","","","","",""
"","ISI","","html-keyboard-response","154","244698","0.0-1.0-210.0","0","0","19557","","null","","","null","23","NaN","","","","","","","","","","","","","","",""
"","S2","","html-keyboard-response","155","244962","0.0-1.0-211.0","0","0","19557","","null","","","null","23","","NaN","","","","","","","","","","","","","",""
"","response","","html-keyboard-response","156","245007","0.0-1.0-212.0-0.0","0","0","19557","","43","","","75","23","","","1","23","training","adjacent","BC","2","3","N.jpg","M.jpg","1","1","1","",""
"","feedback","","html-keyboard-response","157","246011","0.0-1.0-213.0-0.0","0","0","19557","","null","","","null","23","","","","","","","","","","","","","","","",""
"","ITI","","html-keyboard-response","158","247013","0.0-1.0-216.0","0","0","19557","","null","","","null","23","","","","","","","","","","","","","","","NaN",""
"","S1","","html-keyboard-response","159","247266","0.0-1.0-218.0","0","0","19557","","null","","","null","24","","","","","","","","","","","","","","","",""
"","ISI","","html-keyboard-response","160","248269","0.0-1.0-219.0","0","0","19557","","null","","","null","24","NaN","","","","","","","","","","","","","","",""
"","S2","","html-keyboard-response","161","248523","0.0-1.0-220.0","0","0","19557","","null","","","null","24","","NaN","","","","","","","","","","","","","",""
"","response","","html-keyboard-response","162","250198","0.0-1.0-221.0-0.0","0","0","19557","","1674","","","75","24","","","1","24","training","adjacent","DC","4","3","P.jpg","M.jpg","1","0","0","",""
"","feedback","","html-keyboard-response","163","251202","0.0-1.0-222.0-0.0","0","0","19557","","null","","","null","24","","","","","","","","","","","","","","","",""
"","time_out","","html-keyboard-response","164","253206","0.0-1.0-224.0-0.0","0","0","19557","","null","","","null","24","","","","","","","","","","","","","","","",""
"","ITI","","html-keyboard-response","165","254209","0.0-1.0-225.0","0","0","19557","","null","","","null","24","","","","","","","","","","","","","","","NaN",""
"","S1","","html-keyboard-response","166","254462","0.0-1.0-227.0","0","0","19557","","null","","","null","25","","","","","","","","","","","","","","","",""
"","ISI","","html-keyboard-response","167","255465","0.0-1.0-228.0","0","0","19557","","null","","","null","25","NaN","","","","","","","","","","","","","","",""
"","S2","","html-keyboard-response","168","255718","0.0-1.0-229.0","0","0","19557","","null","","","null","25","","NaN","","","","","","","","","","","","","",""
"","response","","html-keyboard-response","169","256444","0.0-1.0-230.0-0.0","0","0","19557","","725","","","68","25","","","1","25","training","adjacent","AB","1","2","L.jpg","N.jpg","0","1","0","",""
"","feedback","","html-keyboard-response","170","257448","0.0-1.0-231.0-0.0","0","0","19557","","null","","","null","25","","","","","","","","","","","","","","","",""
"","time_out","","html-keyboard-response","171","259451","0.0-1.0-233.0-0.0","0","0","19557","","null","","","null","25","","","","","","","","","","","","","","","",""
"","ITI","","html-keyboard-response","172","260454","0.0-1.0-234.0","0","0","19557","","null","","","null","25","","","","","","","","","","","","","","","NaN",""
"","S1","","html-keyboard-response","173","260707","0.0-1.0-236.0","0","0","19557","","null","","","null","26","","","","","","","","","","","","","","","",""
"","ISI","","html-keyboard-response","174","261710","0.0-1.0-237.0","0","0","19557","","573","","","75","26","k","","","","","","","","","","","","","","",""
"","S2","","html-keyboard-response","175","261977","0.0-1.0-238.0","0","0","19557","","null","","","null","26","","NaN","","","","","","","","","","","","","",""
"","response","","html-keyboard-response","176","262343","0.0-1.0-239.0-0.0","0","0","19557","","364","","","75","26","","","1","26","training","adjacent","BC","2","3","N.jpg","M.jpg","1","1","1","",""
"","feedback","","html-keyboard-response","177","263347","0.0-1.0-240.0-0.0","0","0","19557","","null","","","null","26","","","","","","","","","","","","","","","",""
"","ITI","","html-keyboard-response","178","264351","0.0-1.0-243.0","0","0","19557","","null","","","null","26","","","","","","","","","","","","","","","NaN",""
"","S1","","html-keyboard-response","179","264604","0.0-1.0-245.0","0","0","19557","","null","","","null","27","","","","","","","","","","","","","","","",""
"","ISI","","html-keyboard-response","180","265608","0.0-1.0-246.0","0","0","19557","","null","","","null","27","NaN","","","","","","","","","","","","","","",""
"","S2","","html-keyboard-response","181","265862","0.0-1.0-247.0","0","0","19557","","null","","","null","27","","NaN","","","","","","","","","","","","","",""
"","response","","html-keyboard-response","182","267615","0.0-1.0-248.0-0.0","0","0","19557","","null","","","null","27","","","1","27","training","adjacent","FE","6","5","O.jpg","R.jpg","NaN","0","0","",""
"","too_slow_prompt","","html-keyboard-response","183","268617","0.0-1.0-250.0-0.0","1","0","19557","","null","","","null","","","","","","","","","","","","","","","","",""
"","time_out","","html-keyboard-response","184","270620","0.0-1.0-251.0-0.0","0","0","19557","","null","","","null","27","","","","","","","","","","","","","","","",""
"","ITI","","html-keyboard-response","185","271622","0.0-1.0-252.0","0","0","19557","","null","","","null","27","","","","","","","","","","","","","","","NaN",""
"","S1","","html-keyboard-response","186","271876","0.0-1.0-254.0","0","0","19557","","null","","","null","28","","","","","","","","","","","","","","","",""
"","ISI","","html-keyboard-response","187","272878","0.0-1.0-255.0","0","0","19557","","null","","","null","28","NaN","","","","","","","","","","","","","","",""
"","S2","","html-keyboard-response","188","273131","0.0-1.0-256.0","0","0","19557","","null","","","null","28","","NaN","","","","","","","","","","","","","",""
"","response","","html-keyboard-response","189","273597","0.0-1.0-257.0-0.0","0","0","19557","","463","","","75","28","","","1","28","training","adjacent","EF","5","6","R.jpg","O.jpg","1","1","1","",""
"","feedback","","html-keyboard-response","190","274600","0.0-1.0-258.0-0.0","0","0","19557","","null","","","null","28","","","","","","","","","","","","","","","",""
"","ITI","","html-keyboard-response","191","275602","0.0-1.0-261.0","0","0","19557","","null","","","null","28","","","","","","","","","","","","","","","NaN",""
"","S1","","html-keyboard-response","192","275855","0.0-1.0-263.0","0","0","19557","","null","","","null","29","","","","","","","","","","","","","","","",""
"","ISI","","html-keyboard-response","193","276857","0.0-1.0-264.0","0","0","19557","","null","","","null","29","NaN","","","","","","","","","","","","","","",""
"","S2","","html-keyboard-response","194","277111","0.0-1.0-265.0","0","0","19557","","null","","","null","29","","NaN","","","","","","","","","","","","","",""
"","response","","html-keyboard-response","195","277463","0.0-1.0-266.0-0.0","0","0","19557","","349","","","68","29","","","1","29","training","adjacent","AB","1","2","L.jpg","N.jpg","0","1","0","",""
"","feedback","","html-keyboard-response","196","278465","0.0-1.0-267.0-0.0","0","0","19557","","null","","","null","29","","","","","","","","","","","","","","","",""
"","time_out","","html-keyboard-response","197","280468","0.0-1.0-269.0-0.0","0","0","19557","","null","","","null","29","","","","","","","","","","","","","","","",""
"","ITI","","html-keyboard-response","198","281471","0.0-1.0-270.0","0","0","19557","","null","","","null","29","","","","","","","","","","","","","","","NaN",""
"","S1","","html-keyboard-response","199","281724","0.0-1.0-272.0","0","0","19557","","null","","","null","30","","","","","","","","","","","","","","","",""
"","ISI","","html-keyboard-response","200","282728","0.0-1.0-273.0","0","0","19557","","null","","","null","30","NaN","","","","","","","","","","","","","","",""
"","S2","","html-keyboard-response","201","282980","0.0-1.0-274.0","0","0","19557","","null","","","null","30","","NaN","","","","","","","","","","","","","",""
"","response","","html-keyboard-response","202","283504","0.0-1.0-275.0-0.0","0","0","19557","","522","","","68","30","","","1","30","training","adjacent","ED","5","4","R.jpg","P.jpg","0","0","1","",""
"","feedback","","html-keyboard-response","203","284507","0.0-1.0-276.0-0.0","0","0","19557","","null","","","null","30","","","","","","","","","","","","","","","",""
"","ITI","","html-keyboard-response","204","285509","0.0-1.0-279.0","0","0","19557","","null","","","null","30","","","","","","","","","","","","","","","NaN",""
"","S1","","html-keyboard-response","205","285761","0.0-1.0-281.0","0","0","19557","","null","","","null","31","","","","","","","","","","","","","","","",""
"","ISI","","html-keyboard-response","206","286763","0.0-1.0-282.0","0","0","19557","","null","","","null","31","NaN","","","","","","","","","","","","","","",""
"","S2","","html-keyboard-response","207","287017","0.0-1.0-283.0","0","0","19557","","null","","","null","31","","NaN","","","","","","","","","","","","","",""
"","response","","html-keyboard-response","208","287021","0.0-1.0-284.0-0.0","0","0","19557","","3","","","75","31","","","1","31","training","adjacent","BA","2","1","N.jpg","L.jpg","1","0","0","",""
"","feedback","","html-keyboard-response","209","288037","0.0-1.0-285.0-0.0","0","0","19557","","null","","","null","31","","","","","","","","","","","","","","","",""
"","time_out","","html-keyboard-response","210","290041","0.0-1.0-287.0-0.0","0","0","19557","","null","","","null","31","","","","","","","","","","","","","","","",""
"","ITI","","html-keyboard-response","211","291045","0.0-1.0-288.0","0","0","19557","","null","","","null","31","","","","","","","","","","","","","","","NaN",""
"","S1","","html-keyboard-response","212","291297","0.0-1.0-290.0","0","0","19557","","null","","","null","32","","","","","","","","","","","","","","","",""
"","ISI","","html-keyboard-response","213","292300","0.0-1.0-291.0","0","0","19557","","null","","","null","32","NaN","","","","","","","","","","","","","","",""
"","S2","","html-keyboard-response","214","292553","0.0-1.0-292.0","0","0","19557","","null","","","null","32","","NaN","","","","","","","","","","","","","",""
"","response","","html-keyboard-response","215","293967","0.0-1.0-293.0-0.0","0","0","19557","","1413","","","75","32","","","1","32","training","adjacent","GF","7","6","Q.jpg","O.jpg","1","0","0","",""
"","feedback","","html-keyboard-response","216","294970","0.0-1.0-294.0-0.0","0","0","19557","","null","","","null","32","","","","","","","","","","","","","","","",""
"","time_out","","html-keyboard-response","217","296972","0.0-1.0-296.0-0.0","0","0","19557","","null","","","null","32","","","","","","","","","","","","","","","",""
"","ITI","","html-keyboard-response","218","297975","0.0-1.0-297.0","0","0","19557","","null","","","null","32","","","","","","","","","","","","","","","NaN",""
"","S1","","html-keyboard-response","219","298228","0.0-1.0-299.0","0","0","19557","","null","","","null","33","","","","","","","","","","","","","","","",""
"","ISI","","html-keyboard-response","220","299230","0.0-1.0-300.0","0","0","19557","","null","","","null","33","NaN","","","","","","","","","","","","","","",""
"","S2","","html-keyboard-response","221","299484","0.0-1.0-301.0","0","0","19557","","null","","","null","33","","NaN","","","","","","","","","","","","","",""
"","response","","html-keyboard-response","222","300545","0.0-1.0-302.0-0.0","0","0","19557","","1060","","","68","33","","","1","33","training","adjacent","ED","5","4","R.jpg","P.jpg","0","0","1","",""
"","feedback","","html-keyboard-response","223","301548","0.0-1.0-303.0-0.0","0","0","19557","","null","","","null","33","","","","","","","","","","","","","","","",""
"","ITI","","html-keyboard-response","224","302551","0.0-1.0-306.0","0","0","19557","","null","","","null","33","","","","","","","","","","","","","","","NaN",""
"","S1","","html-keyboard-response","225","302804","0.0-1.0-308.0","0","0","19557","","null","","","null","34","","","","","","","","","","","","","","","",""
"","ISI","","html-keyboard-response","226","303807","0.0-1.0-309.0","0","0","19557","","null","","","null","34","NaN","","","","","","","","","","","","","","",""
"","S2","","html-keyboard-response","227","304060","0.0-1.0-310.0","0","0","19557","","null","","","null","34","","NaN","","","","","","","","","","","","","",""
"","response","","html-keyboard-response","228","304085","0.0-1.0-311.0-0.0","0","0","19557","","22","","","68","34","","","1","34","training","adjacent","AB","1","2","L.jpg","N.jpg","0","1","0","",""
"","feedback","","html-keyboard-response","229","305089","0.0-1.0-312.0-0.0","0","0","19557","","null","","","null","34","","","","","","","","","","","","","","","",""
"","time_out","","html-keyboard-response","230","307091","0.0-1.0-314.0-0.0","0","0","19557","","null","","","null","34","","","","","","","","","","","","","","","",""
"","ITI","","html-keyboard-response","231","308095","0.0-1.0-315.0","0","0","19557","","null","","","null","34","","","","","","","","","","","","","","","NaN",""
"","S1","","html-keyboard-response","232","308347","0.0-1.0-317.0","0","0","19557","","null","","","null","35","","","","","","","","","","","","","","","",""
"","ISI","","html-keyboard-response","233","309350","0.0-1.0-318.0","0","0","19557","","null","","","null","35","NaN","","","","","","","","","","","","","","",""
"","S2","","html-keyboard-response","234","309604","0.0-1.0-319.0","0","0","19557","","null","","","null","35","","NaN","","","","","","","","","","","","","",""
"","response","","html-keyboard-response","235","310143","0.0-1.0-320.0-0.0","0","0","19557","","537","","","75","35","","","1","35","training","adjacent","FG","6","7","O.jpg","Q.jpg","1","1","1","",""
"","feedback","","html-keyboard-response","236","311146","0.0-1.0-321.0-0.0","0","0","19557","","null","","","null","35","","","","","","","","","","","","","","","",""
"","ITI","","html-keyboard-response","237","312150","0.0-1.0-324.0","0","0","19557","","null","","","null","35","","","","","","","","","","","","","","","NaN",""
"","S1","","html-keyboard-response","238","312403","0.0-1.0-326.0","0","0","19557","","null","","","null","36","","","","","","","","","","","","","","","",""
"","ISI","","html-keyboard-response","239","313406","0.0-1.0-327.0","0","0","19557","","null","","","null","36","NaN","","","","","","","","","","","","","","",""
"","S2","","html-keyboard-response","240","313647","0.0-1.0-328.0","0","0","19557","","239","","","75","36","","k","1","36","training","adjacent","CD","3","4","M.jpg","P.jpg","1","1","1","",""
"","feedback","","html-keyboard-response","241","314657","0.0-1.0-330.0-0.0","0","0","19557","","null","","","null","36","","","","","","","","","","","","","","","",""
"","ITI","","html-keyboard-response","242","315661","0.0-1.0-333.0","0","0","19557","","null","","","null","36","","","","","","","","","","","","","","","NaN",""
"","S1","","html-keyboard-response","243","315914","0.0-1.0-335.0","0","0","19557","","null","","","null","37","","","","","","","","","","","","","","","",""
"","ISI","","html-keyboard-response","244","316917","0.0-1.0-336.0","0","0","19557","","null","","","null","37","NaN","","","","","","","","","","","","","","",""
"","S2","","html-keyboard-response","245","317170","0.0-1.0-337.0","0","0","19557","","null","","","null","37","","NaN","","","","","","","","","","","","","",""
"","response","","html-keyboard-response","246","317557","0.0-1.0-338.0-0.0","0","0","19557","","386","","","75","37","","","1","37","training","adjacent","CD","3","4","M.jpg","P.jpg","1","1","1","",""
"","feedback","","html-keyboard-response","247","318560","0.0-1.0-339.0-0.0","0","0","19557","","null","","","null","37","","","","","","","","","","","","","","","",""
"","ITI","","html-keyboard-response","248","319563","0.0-1.0-342.0","0","0","19557","","null","","","null","37","","","","","","","","","","","","","","","NaN",""
"","S1","","html-keyboard-response","249","319816","0.0-1.0-344.0","0","0","19557","","null","","","null","38","","","","","","","","","","","","","","","",""
"","ISI","","html-keyboard-response","250","320820","0.0-1.0-345.0","0","0","19557","","null","","","null","38","NaN","","","","","","","","","","","","","","",""
"","S2","","html-keyboard-response","251","321074","0.0-1.0-346.0","0","0","19557","","null","","","null","38","","NaN","","","","","","","","","","","","","",""
"","response","","html-keyboard-response","252","321132","0.0-1.0-347.0-0.0","0","0","19557","","57","","","75","38","","","1","38","training","adjacent","CB","3","2","M.jpg","N.jpg","1","0","0","",""
"","feedback","","html-keyboard-response","253","322135","0.0-1.0-348.0-0.0","0","0","19557","","null","","","null","38","","","","","","","","","","","","","","","",""
"","time_out","","html-keyboard-response","254","324138","0.0-1.0-350.0-0.0","0","0","19557","","null","","","null","38","","","","","","","","","","","","","","","",""
"","ITI","","html-keyboard-response","255","325140","0.0-1.0-351.0","0","0","19557","","null","","","null","38","","","","","","","","","","","","","","","NaN",""
"","S1","","html-keyboard-response","256","325393","0.0-1.0-353.0","0","0","19557","","null","","","null","39","","","","","","","","","","","","","","","",""
"","ISI","","html-keyboard-response","257","326396","0.0-1.0-354.0","0","0","19557","","null","","","null","39","NaN","","","","","","","","","","","","","","",""
"","S2","","html-keyboard-response","258","326648","0.0-1.0-355.0","0","0","19557","","null","","","null","39","","NaN","","","","","","","","","","","","","",""
"","response","","html-keyboard-response","259","326885","0.0-1.0-356.0-0.0","0","0","19557","","234","","","68","39","","","1","39","training","adjacent","FE","6","5","O.jpg","R.jpg","0","0","1","",""
"","feedback","","html-keyboard-response","260","327887","0.0-1.0-357.0-0.0","0","0","19557","","null","","","null","39","","","","","","","","","","","","","","","",""
"","ITI","","html-keyboard-response","261","328889","0.0-1.0-360.0","0","0","19557","","null","","","null","39","","","","","","","","","","","","","","","NaN",""
"","S1","","html-keyboard-response","262","329141","0.0-1.0-362.0","0","0","19557","","null","","","null","40","","","","","","","","","","","","","","","",""
"","ISI","","html-keyboard-response","263","330143","0.0-1.0-363.0","0","0","19557","","null","","","null","40","NaN","","","","","","","","","","","","","","",""
"","S2","","html-keyboard-response","264","330396","0.0-1.0-364.0","0","0","19557","","null","","","null","40","","NaN","","","","","","","","","","","","","",""
"","response","","html-keyboard-response","265","331021","0.0-1.0-365.0-0.0","0","0","19557","","622","","","75","40","","","1","40","training","adjacent","FE","6","5","O.jpg","R.jpg","1","0","0","",""
"","feedback","","html-keyboard-response","266","332023","0.0-1.0-366.0-0.0","0","0","19557","","null","","","null","40","","","","","","","","","","","","","","","",""
"","time_out","","html-keyboard-response","267","334026","0.0-1.0-368.0-0.0","0","0","19557","","null","","","null","40","","","","","","","","","","","","","","","",""
"","ITI","","html-keyboard-response","268","335028","0.0-1.0-369.0","0","0","19557","","null","","","null","40","","","","","","","","","","","","","","","NaN",""
"","S1","","html-keyboard-response","269","335281","0.0-1.0-371.0","0","0","19557","","null","","","null","41","","","","","","","","","","","","","","","",""
"","ISI","","html-keyboard-response","270","336283","0.0-1.0-372.0","0","0","19557","","null","","","null","41","NaN","","","","","","","","","","","","","","",""
"","S2","","html-keyboard-response","271","336536","0.0-1.0-373.0","0","0","19557","","null","","","null","41","","NaN","","","","","","","","","","","","","",""
"","response","","html-keyboard-response","272","336720","0.0-1.0-374.0-0.0","0","0","19557","","182","","","68","41","","","1","41","training","adjacent","CB","3","2","M.jpg","N.jpg","0","0","1","",""
"","feedback","","html-keyboard-response","273","337737","0.0-1.0-375.0-0.0","0","0","19557","","null","","","null","41","","","","","","","","","","","","","","","",""
"","ITI","","html-keyboard-response","274","338740","0.0-1.0-378.0","0","0","19557","","null","","","null","41","","","","","","","","","","","","","","","NaN",""
"","S1","","html-keyboard-response","275","338993","0.0-1.0-380.0","0","0","19557","","null","","","null","42","","","","","","","","","","","","","","","",""
"","ISI","","html-keyboard-response","276","339997","0.0-1.0-381.0","0","0","19557","","null","","","null","42","NaN","","","","","","","","","","","","","","",""
"","S2","","html-keyboard-response","277","340250","0.0-1.0-382.0","0","0","19557","","null","","","null","42","","NaN","","","","","","","","","","","","","",""
"","response","","html-keyboard-response","278","342002","0.0-1.0-383.0-0.0","0","0","19557","","null","","","null","42","","","1","42","training","adjacent","FE","6","5","O.jpg","R.jpg","NaN","0","0","",""
"","too_slow_prompt","","html-keyboard-response","279","343005","0.0-1.0-385.0-0.0","1","0","19557","","null","","","null","","","","","","","","","","","","","","","","",""
"","time_out","","html-keyboard-response","280","345007","0.0-1.0-386.0-0.0","0","0","19557","","null","","","null","42","","","","","","","","","","","","","","","",""
"","ITI","","html-keyboard-response","281","346009","0.0-1.0-387.0","0","0","19557","","null","","","null","42","","","","","","","","","","","","","","","NaN",""
"","S1","","html-keyboard-response","282","346262","0.0-1.0-389.0","0","0","19557","","null","","","null","43","","","","","","","","","","","","","","","",""
"","ISI","","html-keyboard-response","283","347265","0.0-1.0-390.0","0","0","19557","","183","","","75","43","k","","","","","","","","","","","","","","",""
"","S2","","html-keyboard-response","284","347518","0.0-1.0-391.0","0","0","19557","","null","","","null","43","","NaN","","","","","","","","","","","","","",""
"","response","","html-keyboard-response","285","348061","0.0-1.0-392.0-0.0","0","0","19557","","542","","","75","43","","","1","43","training","adjacent","AB","1","2","L.jpg","N.jpg","1","1","1","",""
"","feedback","","html-keyboard-response","286","349064","0.0-1.0-393.0-0.0","0","0","19557","","null","","","null","43","","","","","","","","","","","","","","","",""
"","ITI","","html-keyboard-response","287","350066","0.0-1.0-396.0","0","0","19557","","null","","","null","43","","","","","","","","","","","","","","","NaN",""
"","S1","","html-keyboard-response","288","350319","0.0-1.0-398.0","0","0","19557","","null","","","null","44","","","","","","","","","","","","","","","",""
"","ISI","","html-keyboard-response","289","351321","0.0-1.0-399.0","0","0","19557","","null","","","null","44","NaN","","","","","","","","","","","","","","",""
"","S2","","html-keyboard-response","290","351574","0.0-1.0-400.0","0","0","19557","","null","","","null","44","","NaN","","","","","","","","","","","","","",""
"","response","","html-keyboard-response","291","353242","0.0-1.0-401.0-0.0","0","0","19557","","1666","","","68","44","","","1","44","training","adjacent","CD","3","4","M.jpg","P.jpg","0","1","0","",""
"","feedback","","html-keyboard-response","292","354247","0.0-1.0-402.0-0.0","0","0","19557","","null","","","null","44","","","","","","","","","","","","","","","",""
"","time_out","","html-keyboard-response","293","356250","0.0-1.0-404.0-0.0","0","0","19557","","null","","","null","44","","","","","","","","","","","","","","","",""
"","ITI","","html-keyboard-response","294","357252","0.0-1.0-405.0","0","0","19557","","null","","","null","44","","","","","","","","","","","","","","","NaN",""
"","S1","","html-keyboard-response","295","357504","0.0-1.0-407.0","0","0","19557","","null","","","null","45","","","","","","","","","","","","","","","",""
"","ISI","","html-keyboard-response","296","358506","0.0-1.0-408.0","0","0","19557","","null","","","null","45","NaN","","","","","","","","","","","","","","",""
"","S2","","html-keyboard-response","297","358759","0.0-1.0-409.0","0","0","19557","","null","","","null","45","","NaN","","","","","","","","","","","","","",""
"","response","","html-keyboard-response","298","359555","0.0-1.0-410.0-0.0","0","0","19557","","794","","","68","45","","","1","45","training","adjacent","ED","5","4","R.jpg","P.jpg","0","0","1","",""
"","feedback","","html-keyboard-response","299","360558","0.0-1.0-411.0-0.0","0","0","19557","","null","","","null","45","","","","","","","","","","","","","","","",""
"","ITI","","html-keyboard-response","300","361560","0.0-1.0-414.0","0","0","19557","","null","","","null","45","","","","","","","","","","","","","","","NaN",""
"","S1","","html-keyboard-response","301","361813","0.0-1.0-416.0","0","0","19557","","null","","","null","46","","","","","","","","","","","","","","","",""
"","ISI","","html-keyboard-response","302","362817","0.0-1.0-417.0","0","0","19557","","null","","","null","46","NaN","","","","","","","","","","","","","","",""
"","S2","","html-keyboard-response","303","363070","0.0-1.0-418.0","0","0","19557","","null","","","null","46","","NaN","","","","","","","","","","","","","",""
"","response","","html-keyboard-response","304","363727","0.0-1.0-419.0-0.0","0","0","19557","","656","","","68","46","","","1","46","training","adjacent","BA","2","1","N.jpg","L.jpg","0","0","1","",""
"","feedback","","html-keyboard-response","305","364730","0.0-1.0-420.0-0.0","0","0","19557","","null","","","null","46","","","","","","","","","","","","","","","",""
"","ITI","","html-keyboard-response","306","365732","0.0-1.0-423.0","0","0","19557","","null","","","null","46","","","","","","","","","","","","","","","NaN",""
"","S1","","html-keyboard-response","307","365985","0.0-1.0-425.0","0","0","19557","","null","","","null","47","","","","","","","","","","","","","","","",""
"","ISI","","html-keyboard-response","308","367001","0.0-1.0-426.0","0","0","19557","","null","","","null","47","NaN","","","","","","","","","","","","","","",""
"","S2","","html-keyboard-response","309","367254","0.0-1.0-427.0","0","0","19557","","null","","","null","47","","NaN","","","","","","","","","","","","","",""
"","response","","html-keyboard-response","310","367520","0.0-1.0-428.0-0.0","0","0","19557","","265","","","68","47","","","1","47","training","adjacent","ED","5","4","R.jpg","P.jpg","0","0","1","",""
"","feedback","","html-keyboard-response","311","368523","0.0-1.0-429.0-0.0","0","0","19557","","null","","","null","47","","","","","","","","","","","","","","","",""
"","ITI","","html-keyboard-response","312","369526","0.0-1.0-432.0","0","0","19557","","null","","","null","47","","","","","","","","","","","","","","","NaN",""
"","block_over","","html-keyboard-response","313","379544","0.0-1.0-433.0-0.0","0","0","19557","","10016","","","32","47","","","","","","","","","","","","","","","",""
"","S1","","html-keyboard-response","314","379811","0.0-1.0-434.0","0","0","19557","","null","","","null","48","","","","","","","","","","","","","","","",""
"","ISI","","html-keyboard-response","315","380814","0.0-1.0-435.0","0","0","19557","","null","","","null","48","NaN","","","","","","","","","","","","","","",""
"","S2","","html-keyboard-response","316","381066","0.0-1.0-436.0","0","0","19557","","null","","","null","48","","NaN","","","","","","","","","","","","","",""
"","response","","html-keyboard-response","317","381342","0.0-1.0-437.0-0.0","0","0","19557","","274","","","75","48","","","2","48","training","adjacent","GF","7","6","Q.jpg","O.jpg","1","0","0","",""
"","feedback","","html-keyboard-response","318","382345","0.0-1.0-438.0-0.0","0","0","19557","","null","","","null","48","","","","","","","","","","","","","","","",""
"","time_out","","html-keyboard-response","319","384349","0.0-1.0-440.0-0.0","0","0","19557","","null","","","null","48","","","","","","","","","","","","","","","",""
"","ITI","","html-keyboard-response","320","385352","0.0-1.0-441.0","0","0","19557","","null","","","null","48","","","","","","","","","","","","","","","NaN",""
"","S1","","html-keyboard-response","321","385605","0.0-1.0-443.0","0","0","19557","","null","","","null","49","","","","","","","","","","","","","","","",""
"","ISI","","html-keyboard-response","322","386608","0.0-1.0-444.0","0","0","19557","","null","","","null","49","NaN","","","","","","","","","","","","","","",""
"","S2","","html-keyboard-response","323","386860","0.0-1.0-445.0","0","0","19557","","null","","","null","49","","NaN","","","","","","","","","","","","","",""
"","response","","html-keyboard-response","324","387067","0.0-1.0-446.0-0.0","0","0","19557","","205","","","68","49","","","2","49","training","adjacent","GF","7","6","Q.jpg","O.jpg","0","0","1","",""
"","feedback","","html-keyboard-response","325","388070","0.0-1.0-447.0-0.0","0","0","19557","","null","","","null","49","","","","","","","","","","","","","","","",""
"","ITI","","html-keyboard-response","326","389073","0.0-1.0-450.0","0","0","19557","","null","","","null","49","","","","","","","","","","","","","","","NaN",""
"","S1","","html-keyboard-response","327","389325","0.0-1.0-452.0","0","0","19557","","null","","","null","50","","","","","","","","","","","","","","","",""
"","ISI","","html-keyboard-response","328","390332","0.0-1.0-453.0","0","0","19557","","null","","","null","50","NaN","","","","","","","","","","","","","","",""
"","S2","","html-keyboard-response","329","390491","0.0-1.0-454.0","0","0","19557","","157","","","75","50","","k","2","50","training","adjacent","FE","6","5","O.jpg","R.jpg","1","0","0","",""
"","feedback","","html-keyboard-response","330","391494","0.0-1.0-456.0-0.0","0","0","19557","","null","","","null","50","","","","","","","","","","","","","","","",""
"","time_out","","html-keyboard-response","331","393496","0.0-1.0-458.0-0.0","0","0","19557","","null","","","null","50","","","","","","","","","","","","","","","",""
"","ITI","","html-keyboard-response","332","394499","0.0-1.0-459.0","0","0","19557","","null","","","null","50","","","","","","","","","","","","","","","NaN",""
"","S1","","html-keyboard-response","333","394751","0.0-1.0-461.0","0","0","19557","","null","","","null","51","","","","","","","","","","","","","","","",""
"","ISI","","html-keyboard-response","334","395754","0.0-1.0-462.0","0","0","19557","","null","","","null","51","NaN","","","","","","","","","","","","","","",""
"","S2","","html-keyboard-response","335","396007","0.0-1.0-463.0","0","0","19557","","null","","","null","51","","NaN","","","","","","","","","","","","","",""
"","response","","html-keyboard-response","336","396423","0.0-1.0-464.0-0.0","0","0","19557","","414","","","68","51","","","2","51","training","adjacent","DC","4","3","P.jpg","M.jpg","0","0","1","",""
"","feedback","","html-keyboard-response","337","397426","0.0-1.0-465.0-0.0","0","0","19557","","null","","","null","51","","","","","","","","","","","","","","","",""
"","ITI","","html-keyboard-response","338","398428","0.0-1.0-468.0","0","0","19557","","null","","","null","51","","","","","","","","","","","","","","","NaN",""
"","S1","","html-keyboard-response","339","398682","0.0-1.0-470.0","0","0","19557","","null","","","null","52","","","","","","","","","","","","","","","",""
"","ISI","","html-keyboard-response","340","399684","0.0-1.0-471.0","0","0","19557","","null","","","null","52","NaN","","","","","","","","","","","","","","",""
"","S2","","html-keyboard-response","341","399938","0.0-1.0-472.0","0","0","19557","","null","","","null","52","","NaN","","","","","","","","","","","","","",""
"","response","","html-keyboard-response","342","400271","0.0-1.0-473.0-0.0","0","0","19557","","331","","","68","52","","","2","52","training","adjacent","FE","6","5","O.jpg","R.jpg","0","0","1","",""
"","feedback","","html-keyboard-response","343","401275","0.0-1.0-474.0-0.0","0","0","19557","","null","","","null","52","","","","","","","","","","","","","","","",""
"","ITI","","html-keyboard-response","344","402277","0.0-1.0-477.0","0","0","19557","","null","","","null","52","","","","","","","","","","","","","","","NaN",""
"","S1","","html-keyboard-response","345","402529","0.0-1.0-479.0","0","0","19557","","null","","","null","53","","","","","","","","","","","","","","","",""
"","ISI","","html-keyboard-response","346","403531","0.0-1.0-480.0","0","0","19557","","null","","","null","53","NaN","","","","","","","","","","","","","","",""
"","S2","","html-keyboard-response","347","403785","0.0-1.0-481.0","0","0","19557","","null","","","null","53","","NaN","","","","","","","","","","","","","",""
"","response","","html-keyboard-response","348","403989","0.0-1.0-482.0-0.0","0","0","19557","","202","","","75","53","","","2","53","training","adjacent","BC","2","3","N.jpg","M.jpg","1","1","1","",""
"","feedback","","html-keyboard-response","349","404992","0.0-1.0-483.0-0.0","0","0","19557","","null","","","null","53","","","","","","","","","","","","","","","",""
"","ITI","","html-keyboard-response","350","405995","0.0-1.0-486.0","0","0","19557","","null","","","null","53","","","","","","","","","","","","","","","NaN",""
"","S1","","html-keyboard-response","351","406248","0.0-1.0-488.0","0","0","19557","","null","","","null","54","","","","","","","","","","","","","","","",""
"","ISI","","html-keyboard-response","352","407250","0.0-1.0-489.0","0","0","19557","","772","","","75","54","k","","","","","","","","","","","","","","",""
"","S2","","html-keyboard-response","353","407503","0.0-1.0-490.0","0","0","19557","","null","","","null","54","","NaN","","","","","","","","","","","","","",""
"","response","","html-keyboard-response","354","408069","0.0-1.0-491.0-0.0","0","0","19557","","564","","","75","54","","","2","54","training","adjacent","BC","2","3","N.jpg","M.jpg","1","1","1","",""
"","feedback","","html-keyboard-response","355","409072","0.0-1.0-492.0-0.0","0","0","19557","","null","","","null","54","","","","","","","","","","","","","","","",""
"","ITI","","html-keyboard-response","356","410074","0.0-1.0-495.0","0","0","19557","","null","","","null","54","","","","","","","","","","","","","","","NaN",""
"","S1","","html-keyboard-response","357","410327","0.0-1.0-497.0","0","0","19557","","null","","","null","55","","","","","","","","","","","","","","","",""
"","ISI","","html-keyboard-response","358","411329","0.0-1.0-498.0","0","0","19557","","null","","","null","55","NaN","","","","","","","","","","","","","","",""
"","S2","","html-keyboard-response","359","411581","0.0-1.0-499.0","0","0","19557","","null","","","null","55","","NaN","","","","","","","","","","","","","",""
"","response","","html-keyboard-response","360","412254","0.0-1.0-500.0-0.0","0","0","19557","","670","","","75","55","","","2","55","training","adjacent","FG","6","7","O.jpg","Q.jpg","1","1","1","",""
"","feedback","","html-keyboard-response","361","413257","0.0-1.0-501.0-0.0","0","0","19557","","null","","","null","55","","","","","","","","","","","","","","","",""
"","ITI","","html-keyboard-response","362","414259","0.0-1.0-504.0","0","0","19557","","null","","","null","55","","","","","","","","","","","","","","","NaN",""
"","S1","","html-keyboard-response","363","414511","0.0-1.0-506.0","0","0","19557","","null","","","null","56","","","","","","","","","","","","","","","",""
"","ISI","","html-keyboard-response","364","415514","0.0-1.0-507.0","0","0","19557","","null","","","null","56","NaN","","","","","","","","","","","","","","",""
"","S2","","html-keyboard-response","365","415767","0.0-1.0-508.0","0","0","19557","","null","","","null","56","","NaN","","","","","","","","","","","","","",""
"","response","","html-keyboard-response","366","416398","0.0-1.0-509.0-0.0","0","0","19557","","630","","","75","56","","","2","56","training","adjacent","DE","4","5","P.jpg","R.jpg","1","1","1","",""
"","feedback","","html-keyboard-response","367","417401","0.0-1.0-510.0-0.0","0","0","19557","","null","","","null","56","","","","","","","","","","","","","","","",""
"","ITI","","html-keyboard-response","368","418404","0.0-1.0-513.0","0","0","19557","","null","","","null","56","","","","","","","","","","","","","","","NaN",""
"","S1","","html-keyboard-response","369","418657","0.0-1.0-515.0","0","0","19557","","null","","","null","57","","","","","","","","","","","","","","","",""
"","ISI","","html-keyboard-response","370","419659","0.0-1.0-516.0","0","0","19557","","null","","","null","57","NaN","","","","","","","","","","","","","","",""
"","S2","","html-keyboard-response","371","419913","0.0-1.0-517.0","0","0","19557","","null","","","null","57","","NaN","","","","","","","","","","","","","",""
"","response","","html-keyboard-response","372","420022","0.0-1.0-518.0-0.0","0","0","19557","","107","","","75","57","","","2","57","training","adjacent","EF","5","6","R.jpg","O.jpg","1","1","1","",""
"","feedback","","html-keyboard-response","373","421025","0.0-1.0-519.0-0.0","0","0","19557","","null","","","null","57","","","","","","","","","","","","","","","",""
"","ITI","","html-keyboard-response","374","422027","0.0-1.0-522.0","0","0","19557","","null","","","null","57","","","","","","","","","","","","","","","NaN",""
"","S1","","html-keyboard-response","375","422280","0.0-1.0-524.0","0","0","19557","","null","","","null","58","","","","","","","","","","","","","","","",""
"","ISI","","html-keyboard-response","376","423282","0.0-1.0-525.0","0","0","19557","","null","","","null","58","NaN","","","","","","","","","","","","","","",""
"","S2","","html-keyboard-response","377","423534","0.0-1.0-526.0","0","0","19557","","null","","","null","58","","NaN","","","","","","","","","","","","","",""
"","response","","html-keyboard-response","378","423601","0.0-1.0-527.0-0.0","0","0","19557","","65","","","68","58","","","2","58","training","adjacent","AB","1","2","L.jpg","N.jpg","0","1","0","",""
"","feedback","","html-keyboard-response","379","424603","0.0-1.0-528.0-0.0","0","0","19557","","null","","","null","58","","","","","","","","","","","","","","","",""
"","time_out","","html-keyboard-response","380","426607","0.0-1.0-530.0-0.0","0","0","19557","","null","","","null","58","","","","","","","","","","","","","","","",""
"","ITI","","html-keyboard-response","381","427609","0.0-1.0-531.0","0","0","19557","","null","","","null","58","","","","","","","","","","","","","","","NaN",""
"","S1","","html-keyboard-response","382","427861","0.0-1.0-533.0","0","0","19557","","null","","","null","59","","","","","","","","","","","","","","","",""
"","ISI","","html-keyboard-response","383","428864","0.0-1.0-534.0","0","0","19557","","null","","","null","59","NaN","","","","","","","","","","","","","","",""
"","S2","","html-keyboard-response","384","429117","0.0-1.0-535.0","0","0","19557","","null","","","null","59","","NaN","","","","","","","","","","","","","",""
"","response","","html-keyboard-response","385","429781","0.0-1.0-536.0-0.0","0","0","19557","","663","","","68","59","","","2","59","training","adjacent","AB","1","2","L.jpg","N.jpg","0","1","0","",""
"","feedback","","html-keyboard-response","386","430784","0.0-1.0-537.0-0.0","0","0","19557","","null","","","null","59","","","","","","","","","","","","","","","",""
"","time_out","","html-keyboard-response","387","432787","0.0-1.0-539.0-0.0","0","0","19557","","null","","","null","59","","","","","","","","","","","","","","","",""
"","ITI","","html-keyboard-response","388","433789","0.0-1.0-540.0","0","0","19557","","null","","","null","59","","","","","","","","","","","","","","","NaN",""
"","S1","","html-keyboard-response","389","434043","0.0-1.0-542.0","0","0","19557","","null","","","null","60","","","","","","","","","","","","","","","",""
"","ISI","","html-keyboard-response","390","435045","0.0-1.0-543.0","0","0","19557","","null","","","null","60","NaN","","","","","","","","","","","","","","",""
"","S2","","html-keyboard-response","391","435298","0.0-1.0-544.0","0","0","19557","","null","","","null","60","","NaN","","","","","","","","","","","","","",""
"","response","","html-keyboard-response","392","435453","0.0-1.0-545.0-0.0","0","0","19557","","152","","","75","60","","","2","60","training","adjacent","ED","5","4","R.jpg","P.jpg","1","0","0","",""
"","feedback","","html-keyboard-response","393","436457","0.0-1.0-546.0-0.0","0","0","19557","","null","","","null","60","","","","","","","","","","","","","","","",""
"","time_out","","html-keyboard-response","394","438459","0.0-1.0-548.0-0.0","0","0","19557","","null","","","null","60","","","","","","","","","","","","","","","",""
"","ITI","","html-keyboard-response","395","439462","0.0-1.0-549.0","0","0","19557","","null","","","null","60","","","","","","","","","","","","","","","NaN",""
"","S1","","html-keyboard-response","396","439715","0.0-1.0-551.0","0","0","19557","","null","","","null","61","","","","","","","","","","","","","","","",""
"","ISI","","html-keyboard-response","397","440717","0.0-1.0-552.0","0","0","19557","","875","","","75","61","k","","","","","","","","","","","","","","",""
"","S2","","html-keyboard-response","398","440970","0.0-1.0-553.0","0","0","19557","","null","","","null","61","","NaN","","","","","","","","","","","","","",""
"","response","","html-keyboard-response","399","441773","0.0-1.0-554.0-0.0","0","0","19557","","800","","","75","61","","","2","61","training","adjacent","BC","2","3","N.jpg","M.jpg","1","1","1","",""
"","feedback","","html-keyboard-response","400","442775","0.0-1.0-555.0-0.0","0","0","19557","","null","","","null","61","","","","","","","","","","","","","","","",""
"","ITI","","html-keyboard-response","401","443778","0.0-1.0-558.0","0","0","19557","","null","","","null","61","","","","","","","","","","","","","","","NaN",""
"","S1","","html-keyboard-response","402","444030","0.0-1.0-560.0","0","0","19557","","null","","","null","62","","","","","","","","","","","","","","","",""
"","ISI","","html-keyboard-response","403","445033","0.0-1.0-561.0","0","0","19557","","null","","","null","62","NaN","","","","","","","","","","","","","","",""
"","S2","","html-keyboard-response","404","445287","0.0-1.0-562.0","0","0","19557","","null","","","null","62","","NaN","","","","","","","","","","","","","",""
"","response","","html-keyboard-response","405","446317","0.0-1.0-563.0-0.0","0","0","19557","","1028","","","68","62","","","2","62","training","adjacent","GF","7","6","Q.jpg","O.jpg","0","0","1","",""
"","feedback","","html-keyboard-response","406","447320","0.0-1.0-564.0-0.0","0","0","19557","","null","","","null","62","","","","","","","","","","","","","","","",""
"","ITI","","html-keyboard-response","407","448322","0.0-1.0-567.0","0","0","19557","","null","","","null","62","","","","","","","","","","","","","","","NaN",""
"","S1","","html-keyboard-response","408","448575","0.0-1.0-569.0","0","0","19557","","null","","","null","63","","","","","","","","","","","","","","","",""
"","ISI","","html-keyboard-response","409","449577","0.0-1.0-570.0","0","0","19557","","null","","","null","63","NaN","","","","","","","","","","","","","","",""
"","S2","","html-keyboard-response","410","449831","0.0-1.0-571.0","0","0","19557","","null","","","null","63","","NaN","","","","","","","","","","","","","",""
"","response","","html-keyboard-response","411","451097","0.0-1.0-572.0-0.0","0","0","19557","","1265","","","75","63","","","2","63","training","adjacent","DC","4","3","P.jpg","M.jpg","1","0","0","",""
"","feedback","","html-keyboard-response","412","452100","0.0-1.0-573.0-0.0","0","0","19557","","null","","","null","63","","","","","","","","","","","","","","","",""
"","time_out","","html-keyboard-response","413","454112","0.0-1.0-575.0-0.0","0","0","19557","","null","","","null","63","","","","","","","","","","","","","","","",""
"","ITI","","html-keyboard-response","414","455115","0.0-1.0-576.0","0","0","19557","","null","","","null","63","","","","","","","","","","","","","","","NaN",""
"","S1","","html-keyboard-response","415","455367","0.0-1.0-578.0","0","0","19557","","null","","","null","64","","","","","","","","","","","","","","","",""
"","ISI","","html-keyboard-response","416","456369","0.0-1.0-579.0","0","0","19557","","null","","","null","64","NaN","","","","","","","","","","","","","","",""
"","S2","","html-keyboard-response","417","456622","0.0-1.0-580.0","0","0","19557","","null","","","null","64","","NaN","","","","","","","","","","","","","",""
"","response","","html-keyboard-response","418","456852","0.0-1.0-581.0-0.0","0","0","19557","","227","","","75","64","","","2","64","training","adjacent","EF","5","6","R.jpg","O.jpg","1","1","1","",""
"","feedback","","html-keyboard-response","419","457854","0.0-1.0-582.0-0.0","0","0","19557","","null","","","null","64","","","","","","","","","","","","","","","",""
"","ITI","","html-keyboard-response","420","458857","0.0-1.0-585.0","0","0","19557","","null","","","null","64","","","","","","","","","","","","","","","NaN",""
"","S1","","html-keyboard-response","421","459110","0.0-1.0-587.0","0","0","19557","","null","","","null","65","","","","","","","","","","","","","","","",""
"","ISI","","html-keyboard-response","422","460112","0.0-1.0-588.0","0","0","19557","","null","","","null","65","NaN","","","","","","","","","","","","","","",""
"","S2","","html-keyboard-response","423","460365","0.0-1.0-589.0","0","0","19557","","null","","","null","65","","NaN","","","","","","","","","","","","","",""
"","response","","html-keyboard-response","424","461756","0.0-1.0-590.0-0.0","0","0","19557","","1390","","","68","65","","","2","65","training","adjacent","AB","1","2","L.jpg","N.jpg","0","1","0","",""
"","feedback","","html-keyboard-response","425","462759","0.0-1.0-591.0-0.0","0","0","19557","","null","","","null","65","","","","","","","","","","","","","","","",""
"","time_out","","html-keyboard-response","426","464762","0.0-1.0-593.0-0.0","0","0","19557","","null","","","null","65","","","","","","","","","","","","","","","",""
"","ITI","","html-keyboard-response","427","465764","0.0-1.0-594.0","0","0","19557","","null","","","null","65","","","","","","","","","","","","","","","NaN",""
"","S1","","html-keyboard-response","428","466016","0.0-1.0-596.0","0","0","19557","","null","","","null","66","","","","","","","","","","","","","","","",""
"","ISI","","html-keyboard-response","429","467018","0.0-1.0-597.0","0","0","19557","","377","","","75","66","k","","","","","","","","","","","","","","",""
"","S2","","html-keyboard-response","430","467271","0.0-1.0-598.0","0","0","19557","","null","","","null","66","","NaN","","","","","","","","","","","","","",""
"","response","","html-keyboard-response","431","467731","0.0-1.0-599.0-0.0","0","0","19557","","459","","","75","66","","","2","66","training","adjacent","EF","5","6","R.jpg","O.jpg","1","1","1","",""
"","feedback","","html-keyboard-response","432","468734","0.0-1.0-600.0-0.0","0","0","19557","","null","","","null","66","","","","","","","","","","","","","","","",""
"","ITI","","html-keyboard-response","433","469737","0.0-1.0-603.0","0","0","19557","","null","","","null","66","","","","","","","","","","","","","","","NaN",""
"","S1","","html-keyboard-response","434","469989","0.0-1.0-605.0","0","0","19557","","null","","","null","67","","","","","","","","","","","","","","","",""
"","ISI","","html-keyboard-response","435","470992","0.0-1.0-606.0","0","0","19557","","null","","","null","67","NaN","","","","","","","","","","","","","","",""
"","S2","","html-keyboard-response","436","471236","0.0-1.0-607.0","0","0","19557","","242","","","75","67","","k","2","67","training","adjacent","ED","5","4","R.jpg","P.jpg","1","0","0","",""
"","feedback","","html-keyboard-response","437","472238","0.0-1.0-609.0-0.0","0","0","19557","","null","","","null","67","","","","","","","","","","","","","","","",""
"","time_out","","html-keyboard-response","438","474241","0.0-1.0-611.0-0.0","0","0","19557","","null","","","null","67","","","","","","","","","","","","","","","",""
"","ITI","","html-keyboard-response","439","475244","0.0-1.0-612.0","0","0","19557","","null","","","null","67","","","","","","","","","","","","","","","NaN",""
"","S1","","html-keyboard-response","440","475497","0.0-1.0-614.0","0","0","19557","","null","","","null","68","","","","","","","","","","","","","","","",""
"","ISI","","html-keyboard-response","441","476500","0.0-1.0-615.0","0","0","19557","","null","","","null","68","NaN","","","","","","","","","","","","","","",""
"","S2","","html-keyboard-response","442","476752","0.0-1.0-616.0","0","0","19557","","null","","","null","68","","NaN","","","","","","","","","","","","","",""
"","response","","html-keyboard-response","443","476781","0.0-1.0-617.0-0.0","0","0","19557","","27","","","68","68","","","2","68","training","adjacent","CD","3","4","M.jpg","P.jpg","0","1","0","",""
"","feedback","","html-keyboard-response","444","477784","0.0-1.0-618.0-0.0","0","0","19557","","null","","","null","68","","","","","","","","","","","","","","","",""
"","time_out","","html-keyboard-response","445","479787","0.0-1.0-620.0-0.0","0","0","19557","","null","","","null","68","","","","","","","","","","","","","","","",""
"","ITI","","html-keyboard-response","446","480789","0.0-1.0-621.0","0","0","19557","","null","","","null","68","","","","","","","","","","","","","","","NaN",""
"","S1","","html-keyboard-response","447","481042","0.0-1.0-623.0","0","0","19557","","null","","","null","69","","","","","","","","","","","","","","","",""
"","ISI","","html-keyboard-response","448","482045","0.0-1.0-624.0","0","0","19557","","null","","","null","69","NaN","","","","","","","","","","","","","","",""
"","S2","","html-keyboard-response","449","482297","0.0-1.0-625.0","0","0","19557","","null","","","null","69","","NaN","","","","","","","","","","","","","",""
"","response","","html-keyboard-response","450","482318","0.0-1.0-626.0-0.0","0","0","19557","","19","","","75","69","","","2","69","training","adjacent","CD","3","4","M.jpg","P.jpg","1","1","1","",""
"","feedback","","html-keyboard-response","451","483322","0.0-1.0-627.0-0.0","0","0","19557","","null","","","null","69","","","","","","","","","","","","","","","",""
"","ITI","","html-keyboard-response","452","484324","0.0-1.0-630.0","0","0","19557","","null","","","null","69","","","","","","","","","","","","","","","NaN",""
"","S1","","html-keyboard-response","453","484577","0.0-1.0-632.0","0","0","19557","","null","","","null","70","","","","","","","","","","","","","","","",""
"","ISI","","html-keyboard-response","454","485579","0.0-1.0-633.0","0","0","19557","","null","","","null","70","NaN","","","","","","","","","","","","","","",""
"","S2","","html-keyboard-response","455","485832","0.0-1.0-634.0","0","0","19557","","null","","","null","70","","NaN","","","","","","","","","","","","","",""
"","response","","html-keyboard-response","456","487329","0.0-1.0-635.0-0.0","0","0","19557","","1495","","","75","70","","","2","70","training","adjacent","BA","2","1","N.jpg","L.jpg","1","0","0","",""
"","feedback","","html-keyboard-response","457","488332","0.0-1.0-636.0-0.0","0","0","19557","","null","","","null","70","","","","","","","","","","","","","","","",""
"","time_out","","html-keyboard-response","458","490334","0.0-1.0-638.0-0.0","0","0","19557","","null","","","null","70","","","","","","","","","","","","","","","",""
"","ITI","","html-keyboard-response","459","491337","0.0-1.0-639.0","0","0","19557","","null","","","null","70","","","","","","","","","","","","","","","NaN",""
"","S1","","html-keyboard-response","460","491589","0.0-1.0-641.0","0","0","19557","","null","","","null","71","","","","","","","","","","","","","","","",""
"","ISI","","html-keyboard-response","461","492591","0.0-1.0-642.0","0","0","19557","","null","","","null","71","NaN","","","","","","","","","","","","","","",""
"","S2","","html-keyboard-response","462","492844","0.0-1.0-643.0","0","0","19557","","null","","","null","71","","NaN","","","","","","","","","","","","","",""
"","response","","html-keyboard-response","463","493836","0.0-1.0-644.0-0.0","0","0","19557","","990","","","68","71","","","2","71","training","adjacent","FE","6","5","O.jpg","R.jpg","0","0","1","",""
"","feedback","","html-keyboard-response","464","494838","0.0-1.0-645.0-0.0","0","0","19557","","null","","","null","71","","","","","","","","","","","","","","","",""
"","ITI","","html-keyboard-response","465","495841","0.0-1.0-648.0","0","0","19557","","null","","","null","71","","","","","","","","","","","","","","","NaN",""
"","S1","","html-keyboard-response","466","496094","0.0-1.0-650.0","0","0","19557","","null","","","null","72","","","","","","","","","","","","","","","",""
"","ISI","","html-keyboard-response","467","497096","0.0-1.0-651.0","0","0","19557","","null","","","null","72","NaN","","","","","","","","","","","","","","",""
"","S2","","html-keyboard-response","468","497349","0.0-1.0-652.0","0","0","19557","","null","","","null","72","","NaN","","","","","","","","","","","","","",""
"","response","","html-keyboard-response","469","498081","0.0-1.0-653.0-0.0","0","0","19557","","730","","","68","72","","","2","72","training","adjacent","DE","4","5","P.jpg","R.jpg","0","1","0","",""
"","feedback","","html-keyboard-response","470","499098","0.0-1.0-654.0-0.0","0","0","19557","","null","","","null","72","","","","","","","","","","","","","","","",""
"","time_out","","html-keyboard-response","471","501101","0.0-1.0-656.0-0.0","0","0","19557","","null","","","null","72","","","","","","","","","","","","","","","",""
"","ITI","","html-keyboard-response","472","502104","0.0-1.0-657.0","0","0","19557","","null","","","null","72","","","","","","","","","","","","","","","NaN",""
"","S1","","html-keyboard-response","473","502357","0.0-1.0-659.0","0","0","19557","","null","","","null","73","","","","","","","","","","","","","","","",""
"","ISI","","html-keyboard-response","474","503359","0.0-1.0-660.0","0","0","19557","","null","","","null","73","NaN","","","","","","","","","","","","","","",""
"","S2","","html-keyboard-response","475","503612","0.0-1.0-661.0","0","0","19557","","null","","","null","73","","NaN","","","","","","","","","","","","","",""
"","response","","html-keyboard-response","476","503659","0.0-1.0-662.0-0.0","0","0","19557","","45","","","75","73","","","2","73","training","adjacent","AB","1","2","L.jpg","N.jpg","1","1","1","",""
"","feedback","","html-keyboard-response","477","504664","0.0-1.0-663.0-0.0","0","0","19557","","null","","","null","73","","","","","","","","","","","","","","","",""
"","ITI","","html-keyboard-response","478","505668","0.0-1.0-666.0","0","0","19557","","null","","","null","73","","","","","","","","","","","","","","","NaN",""
"","S1","","html-keyboard-response","479","505919","0.0-1.0-668.0","0","0","19557","","null","","","null","74","","","","","","","","","","","","","","","",""
"","ISI","","html-keyboard-response","480","506921","0.0-1.0-669.0","0","0","19557","","null","","","null","74","NaN","","","","","","","","","","","","","","",""
"","S2","","html-keyboard-response","481","507174","0.0-1.0-670.0","0","0","19557","","null","","","null","74","","NaN","","","","","","","","","","","","","",""
"","response","","html-keyboard-response","482","507408","0.0-1.0-671.0-0.0","0","0","19557","","232","","","75","74","","","2","74","training","adjacent","ED","5","4","R.jpg","P.jpg","1","0","0","",""
"","feedback","","html-keyboard-response","483","508411","0.0-1.0-672.0-0.0","0","0","19557","","null","","","null","74","","","","","","","","","","","","","","","",""
"","time_out","","html-keyboard-response","484","510414","0.0-1.0-674.0-0.0","0","0","19557","","null","","","null","74","","","","","","","","","","","","","","","",""
"","ITI","","html-keyboard-response","485","511417","0.0-1.0-675.0","0","0","19557","","null","","","null","74","","","","","","","","","","","","","","","NaN",""
"","S1","","html-keyboard-response","486","511670","0.0-1.0-677.0","0","0","19557","","null","","","null","75","","","","","","","","","","","","","","","",""
"","ISI","","html-keyboard-response","487","512672","0.0-1.0-678.0","0","0","19557","","149","","","68","75","d","","","","","","","","","","","","","","",""
"","S2","","html-keyboard-response","488","512924","0.0-1.0-679.0","0","0","19557","","null","","","null","75","","NaN","","","","","","","","","","","","","",""
"","response","","html-keyboard-response","489","513130","0.0-1.0-680.0-0.0","0","0","19557","","203","","","68","75","","","2","75","training","adjacent","BA","2","1","N.jpg","L.jpg","0","0","1","",""
"","feedback","","html-keyboard-response","490","514133","0.0-1.0-681.0-0.0","0","0","19557","","null","","","null","75","","","","","","","","","","","","","","","",""
"","ITI","","html-keyboard-response","491","515136","0.0-1.0-684.0","0","0","19557","","null","","","null","75","","","","","","","","","","","","","","","NaN",""
"","S1","","html-keyboard-response","492","515388","0.0-1.0-686.0","0","0","19557","","null","","","null","76","","","","","","","","","","","","","","","",""
"","ISI","","html-keyboard-response","493","516390","0.0-1.0-687.0","0","0","19557","","null","","","null","76","NaN","","","","","","","","","","","","","","",""
"","S2","","html-keyboard-response","494","516642","0.0-1.0-688.0","0","0","19557","","null","","","null","76","","NaN","","","","","","","","","","","","","",""
"","response","","html-keyboard-response","495","516737","0.0-1.0-689.0-0.0","0","0","19557","","93","","","68","76","","","2","76","training","adjacent","FG","6","7","O.jpg","Q.jpg","0","1","0","",""
"","feedback","","html-keyboard-response","496","517752","0.0-1.0-690.0-0.0","0","0","19557","","null","","","null","76","","","","","","","","","","","","","","","",""
"","time_out","","html-keyboard-response","497","519754","0.0-1.0-692.0-0.0","0","0","19557","","null","","","null","76","","","","","","","","","","","","","","","",""
"","ITI","","html-keyboard-response","498","520756","0.0-1.0-693.0","0","0","19557","","null","","","null","76","","","","","","","","","","","","","","","NaN",""
"","S1","","html-keyboard-response","499","521009","0.0-1.0-695.0","0","0","19557","","null","","","null","77","","","","","","","","","","","","","","","",""
"","ISI","","html-keyboard-response","500","522011","0.0-1.0-696.0","0","0","19557","","null","","","null","77","NaN","","","","","","","","","","","","","","",""
"","S2","","html-keyboard-response","501","522263","0.0-1.0-697.0","0","0","19557","","null","","","null","77","","NaN","","","","","","","","","","","","","",""
"","response","","html-keyboard-response","502","522365","0.0-1.0-698.0-0.0","0","0","19557","","101","","","75","77","","","2","77","training","adjacent","FG","6","7","O.jpg","Q.jpg","1","1","1","",""
"","feedback","","html-keyboard-response","503","523368","0.0-1.0-699.0-0.0","0","0","19557","","null","","","null","77","","","","","","","","","","","","","","","",""
"","ITI","","html-keyboard-response","504","524370","0.0-1.0-702.0","0","0","19557","","null","","","null","77","","","","","","","","","","","","","","","NaN",""
"","S1","","html-keyboard-response","505","524622","0.0-1.0-704.0","0","0","19557","","null","","","null","78","","","","","","","","","","","","","","","",""
"","ISI","","html-keyboard-response","506","525624","0.0-1.0-705.0","0","0","19557","","null","","","null","78","NaN","","","","","","","","","","","","","","",""
"","S2","","html-keyboard-response","507","525877","0.0-1.0-706.0","0","0","19557","","null","","","null","78","","NaN","","","","","","","","","","","","","",""
"","response","","html-keyboard-response","508","526341","0.0-1.0-707.0-0.0","0","0","19557","","462","","","68","78","","","2","78","training","adjacent","DC","4","3","P.jpg","M.jpg","0","0","1","",""
"","feedback","","html-keyboard-response","509","527343","0.0-1.0-708.0-0.0","0","0","19557","","null","","","null","78","","","","","","","","","","","","","","","",""
"","ITI","","html-keyboard-response","510","528346","0.0-1.0-711.0","0","0","19557","","null","","","null","78","","","","","","","","","","","","","","","NaN",""
"","S1","","html-keyboard-response","511","528599","0.0-1.0-713.0","0","0","19557","","null","","","null","79","","","","","","","","","","","","","","","",""
"","ISI","","html-keyboard-response","512","529602","0.0-1.0-714.0","0","0","19557","","null","","","null","79","NaN","","","","","","","","","","","","","","",""
"","S2","","html-keyboard-response","513","529854","0.0-1.0-715.0","0","0","19557","","null","","","null","79","","NaN","","","","","","","","","","","","","",""
"","response","","html-keyboard-response","514","530517","0.0-1.0-716.0-0.0","0","0","19557","","661","","","68","79","","","2","79","training","adjacent","CD","3","4","M.jpg","P.jpg","0","1","0","",""
"","feedback","","html-keyboard-response","515","531519","0.0-1.0-717.0-0.0","0","0","19557","","null","","","null","79","","","","","","","","","","","","","","","",""
"","time_out","","html-keyboard-response","516","533522","0.0-1.0-719.0-0.0","0","0","19557","","null","","","null","79","","","","","","","","","","","","","","","",""
"","ITI","","html-keyboard-response","517","534525","0.0-1.0-720.0","0","0","19557","","null","","","null","79","","","","","","","","","","","","","","","NaN",""
"","S1","","html-keyboard-response","518","534777","0.0-1.0-722.0","0","0","19557","","null","","","null","80","","","","","","","","","","","","","","","",""
"","ISI","","html-keyboard-response","519","535779","0.0-1.0-723.0","0","0","19557","","null","","","null","80","NaN","","","","","","","","","","","","","","",""
"","S2","","html-keyboard-response","520","536032","0.0-1.0-724.0","0","0","19557","","null","","","null","80","","NaN","","","","","","","","","","","","","",""
"","response","","html-keyboard-response","521","536183","0.0-1.0-725.0-0.0","0","0","19557","","150","","","75","80","","","2","80","training","adjacent","CB","3","2","M.jpg","N.jpg","1","0","0","",""
"","feedback","","html-keyboard-response","522","537193","0.0-1.0-726.0-0.0","0","0","19557","","null","","","null","80","","","","","","","","","","","","","","","",""
"","time_out","","html-keyboard-response","523","539196","0.0-1.0-728.0-0.0","0","0","19557","","null","","","null","80","","","","","","","","","","","","","","","",""
"","ITI","","html-keyboard-response","524","540198","0.0-1.0-729.0","0","0","19557","","null","","","null","80","","","","","","","","","","","","","","","NaN",""
"","S1","","html-keyboard-response","525","540450","0.0-1.0-731.0","0","0","19557","","null","","","null","81","","","","","","","","","","","","","","","",""
"","ISI","","html-keyboard-response","526","541453","0.0-1.0-732.0","0","0","19557","","null","","","null","81","NaN","","","","","","","","","","","","","","",""
"","S2","","html-keyboard-response","527","541705","0.0-1.0-733.0","0","0","19557","","null","","","null","81","","NaN","","","","","","","","","","","","","",""
"","response","","html-keyboard-response","528","541784","0.0-1.0-734.0-0.0","0","0","19557","","78","","","75","81","","","2","81","training","adjacent","CB","3","2","M.jpg","N.jpg","1","0","0","",""
"","feedback","","html-keyboard-response","529","542787","0.0-1.0-735.0-0.0","0","0","19557","","null","","","null","81","","","","","","","","","","","","","","","",""
"","time_out","","html-keyboard-response","530","544790","0.0-1.0-737.0-0.0","0","0","19557","","null","","","null","81","","","","","","","","","","","","","","","",""
"","ITI","","html-keyboard-response","531","545792","0.0-1.0-738.0","0","0","19557","","null","","","null","81","","","","","","","","","","","","","","","NaN",""
"","S1","","html-keyboard-response","532","546045","0.0-1.0-740.0","0","0","19557","","null","","","null","82","","","","","","","","","","","","","","","",""
"","ISI","","html-keyboard-response","533","547048","0.0-1.0-741.0","0","0","19557","","155","","","68","82","d","","","","","","","","","","","","","","",""
"","S2","","html-keyboard-response","534","547300","0.0-1.0-742.0","0","0","19557","","null","","","null","82","","NaN","","","","","","","","","","","","","",""
"","response","","html-keyboard-response","535","547672","0.0-1.0-743.0-0.0","0","0","19557","","371","","","68","82","","","2","82","training","adjacent","CD","3","4","M.jpg","P.jpg","0","1","0","",""
"","feedback","","html-keyboard-response","536","548675","0.0-1.0-744.0-0.0","0","0","19557","","null","","","null","82","","","","","","","","","","","","","","","",""
"","time_out","","html-keyboard-response","537","550678","0.0-1.0-746.0-0.0","0","0","19557","","null","","","null","82","","","","","","","","","","","","","","","",""
"","ITI","","html-keyboard-response","538","551680","0.0-1.0-747.0","0","0","19557","","null","","","null","82","","","","","","","","","","","","","","","NaN",""
"","S1","","html-keyboard-response","539","551933","0.0-1.0-749.0","0","0","19557","","null","","","null","83","","","","","","","","","","","","","","","",""
"","ISI","","html-keyboard-response","540","552937","0.0-1.0-750.0","0","0","19557","","273","","","75","83","k","","","","","","","","","","","","","","",""
"","S2","","html-keyboard-response","541","553189","0.0-1.0-751.0","0","0","19557","","null","","","null","83","","NaN","","","","","","","","","","","","","",""
"","response","","html-keyboard-response","542","553238","0.0-1.0-752.0-0.0","0","0","19557","","47","","","75","83","","","2","83","training","adjacent","CB","3","2","M.jpg","N.jpg","1","0","0","",""
"","feedback","","html-keyboard-response","543","554241","0.0-1.0-753.0-0.0","0","0","19557","","null","","","null","83","","","","","","","","","","","","","","","",""
"","time_out","","html-keyboard-response","544","556244","0.0-1.0-755.0-0.0","0","0","19557","","null","","","null","83","","","","","","","","","","","","","","","",""
"","ITI","","html-keyboard-response","545","557246","0.0-1.0-756.0","0","0","19557","","null","","","null","83","","","","","","","","","","","","","","","NaN",""
"","S1","","html-keyboard-response","546","557498","0.0-1.0-758.0","0","0","19557","","null","","","null","84","","","","","","","","","","","","","","","",""
"","ISI","","html-keyboard-response","547","558501","0.0-1.0-759.0","0","0","19557","","678","","","75","84","k","","","","","","","","","","","","","","",""
"","S2","","html-keyboard-response","548","558753","0.0-1.0-760.0","0","0","19557","","null","","","null","84","","NaN","","","","","","","","","","","","","",""
"","response","","html-keyboard-response","549","559915","0.0-1.0-761.0-0.0","0","0","19557","","1159","","","75","84","","","2","84","training","adjacent","ED","5","4","R.jpg","P.jpg","1","0","0","",""
"","feedback","","html-keyboard-response","550","560924","0.0-1.0-762.0-0.0","0","0","19557","","null","","","null","84","","","","","","","","","","","","","","","",""
"","time_out","","html-keyboard-response","551","562927","0.0-1.0-764.0-0.0","0","0","19557","","null","","","null","84","","","","","","","","","","","","","","","",""
"","ITI","","html-keyboard-response","552","563929","0.0-1.0-765.0","0","0","19557","","null","","","null","84","","","","","","","","","","","","","","","NaN",""
"","S1","","html-keyboard-response","553","564182","0.0-1.0-767.0","0","0","19557","","null","","","null","85","","","","","","","","","","","","","","","",""
"","ISI","","html-keyboard-response","554","565185","0.0-1.0-768.0","0","0","19557","","null","","","null","85","NaN","","","","","","","","","","","","","","",""
"","S2","","html-keyboard-response","555","565437","0.0-1.0-769.0","0","0","19557","","null","","","null","85","","NaN","","","","","","","","","","","","","",""
"","response","","html-keyboard-response","556","565622","0.0-1.0-770.0-0.0","0","0","19557","","183","","","75","85","","","2","85","training","adjacent","DC","4","3","P.jpg","M.jpg","1","0","0","",""
"","feedback","","html-keyboard-response","557","566624","0.0-1.0-771.0-0.0","0","0","19557","","null","","","null","85","","","","","","","","","","","","","","","",""
"","time_out","","html-keyboard-response","558","568627","0.0-1.0-773.0-0.0","0","0","19557","","null","","","null","85","","","","","","","","","","","","","","","",""
"","ITI","","html-keyboard-response","559","569629","0.0-1.0-774.0","0","0","19557","","null","","","null","85","","","","","","","","","","","","","","","NaN",""
"","S1","","html-keyboard-response","560","569882","0.0-1.0-776.0","0","0","19557","","null","","","null","86","","","","","","","","","","","","","","","",""
"","ISI","","html-keyboard-response","561","570884","0.0-1.0-777.0","0","0","19557","","null","","","null","86","NaN","","","","","","","","","","","","","","",""
"","S2","","html-keyboard-response","562","571137","0.0-1.0-778.0","0","0","19557","","null","","","null","86","","NaN","","","","","","","","","","","","","",""
"","response","","html-keyboard-response","563","571718","0.0-1.0-779.0-0.0","0","0","19557","","579","","","75","86","","","2","86","training","adjacent","CB","3","2","M.jpg","N.jpg","1","0","0","",""
"","feedback","","html-keyboard-response","564","572720","0.0-1.0-780.0-0.0","0","0","19557","","null","","","null","86","","","","","","","","","","","","","","","",""
"","time_out","","html-keyboard-response","565","574724","0.0-1.0-782.0-0.0","0","0","19557","","null","","","null","86","","","","","","","","","","","","","","","",""
"","ITI","","html-keyboard-response","566","575725","0.0-1.0-783.0","0","0","19557","","null","","","null","86","","","","","","","","","","","","","","","NaN",""
"","S1","","html-keyboard-response","567","575978","0.0-1.0-785.0","0","0","19557","","null","","","null","87","","","","","","","","","","","","","","","",""
"","ISI","","html-keyboard-response","568","576980","0.0-1.0-786.0","0","0","19557","","null","","","null","87","NaN","","","","","","","","","","","","","","",""
"","S2","","html-keyboard-response","569","577232","0.0-1.0-787.0","0","0","19557","","null","","","null","87","","NaN","","","","","","","","","","","","","",""
"","response","","html-keyboard-response","570","577490","0.0-1.0-788.0-0.0","0","0","19557","","255","","","68","87","","","2","87","training","adjacent","BA","2","1","N.jpg","L.jpg","0","0","1","",""
"","feedback","","html-keyboard-response","571","578492","0.0-1.0-789.0-0.0","0","0","19557","","null","","","null","87","","","","","","","","","","","","","","","",""
"","ITI","","html-keyboard-response","572","579495","0.0-1.0-792.0","0","0","19557","","null","","","null","87","","","","","","","","","","","","","","","NaN",""
"","S1","","html-keyboard-response","573","579747","0.0-1.0-794.0","0","0","19557","","null","","","null","88","","","","","","","","","","","","","","","",""
"","ISI","","html-keyboard-response","574","580750","0.0-1.0-795.0","0","0","19557","","null","","","null","88","NaN","","","","","","","","","","","","","","",""
"","S2","","html-keyboard-response","575","581003","0.0-1.0-796.0","0","0","19557","","null","","","null","88","","NaN","","","","","","","","","","","","","",""
"","response","","html-keyboard-response","576","581008","0.0-1.0-797.0-0.0","0","0","19557","","3","","","68","88","","","2","88","training","adjacent","DE","4","5","P.jpg","R.jpg","0","1","0","",""
"","feedback","","html-keyboard-response","577","582011","0.0-1.0-798.0-0.0","0","0","19557","","null","","","null","88","","","","","","","","","","","","","","","",""
"","time_out","","html-keyboard-response","578","584014","0.0-1.0-800.0-0.0","0","0","19557","","null","","","null","88","","","","","","","","","","","","","","","",""
"","ITI","","html-keyboard-response","579","585016","0.0-1.0-801.0","0","0","19557","","null","","","null","88","","","","","","","","","","","","","","","NaN",""
"","S1","","html-keyboard-response","580","585268","0.0-1.0-803.0","0","0","19557","","null","","","null","89","","","","","","","","","","","","","","","",""
"","ISI","","html-keyboard-response","581","586270","0.0-1.0-804.0","0","0","19557","","null","","","null","89","NaN","","","","","","","","","","","","","","",""
"","S2","","html-keyboard-response","582","586524","0.0-1.0-805.0","0","0","19557","","null","","","null","89","","NaN","","","","","","","","","","","","","",""
