"success","ttype","start_time","trial_type","trial_index","time_elapsed","internal_node_id","warning","missed_checkup","PID","view_history","rt","responses","repeat_instructions","key_press","index","keypress_isi","keypress_S2","block","trial_num","phase","group_type","pair_type","S1_stim","S2_stim","S1_img","S2_img","S1_chosen","S1_higher","accuracy","keypress_iti","total_bonus_tally"
"true","full_screen","d03082023hr1648","fullscreen","0","17677","0.0-0.0","0","0","72634","","","","","","","","","","","","","","","","","","","","","",""
"","instructions","","instructions","1","47091","0.0-1.0-0.0-0.0","0","0","72634","[{""page_index"":0,""viewing_time"":7204},{""page_index"":1,""viewing_time"":9920},{""page_index"":2,""viewing_time"":9504},{""page_index"":3,""viewing_time"":2784}]","29412","","","","","","","","","","","","","","","","","","","",""
"","comprehension_check","","survey-multi-choice","2","77076","0.0-1.0-0.0-1.0","0","0","72634","","29980","{""Q0"":""True"",""Q1"":""D"",""Q2"":""Once the second image appears and while the screen 'MAKE A CHOICE' is shown"",""Q3"":""Green mark"",""Q4"":""either D or K""}","0","","","","","","","","","","","","","","","","","",""
"","start_exp","","html-keyboard-response","3","79037","0.0-1.0-1.0","0","0","72634","","1958","","","32","","","","","","","","","","","","","","","","",""
"","S1","","html-keyboard-response","4","79290","0.0-1.0-2.0","0","0","72634","","null","","","null","0","","","","","","","","","","","","","","","",""
"","ISI","","html-keyboard-response","5","79443","0.0-1.0-3.0","0","0","72634","","null","","","null","0","NaN","","","","","","","","","","","","","","",""
"","S2","","html-keyboard-response","6","79696","0.0-1.0-4.0","0","0","72634","","null","","","null","0","","NaN","","","","","","","","","","","","","",""
"","response","","html-keyboard-response","7","81449","0.0-1.0-5.0-0.0","0","0","72634","","null","","","null","0","","","1","0","training","adjacent","GF","7","6","N.jpg","P.jpg","NaN","0","0","",""
"","too_slow_prompt","","html-keyboard-response","8","82452","0.0-1.0-7.0-0.0","1","0","72634","","null","","","null","","","","","","","","","","","","","","","","",""
"","time_out","","html-keyboard-response","9","84454","0.0-1.0-8.0-0.0","0","0","72634","","null","","","null","0","","","","","","","","","","","","","","","",""
"","ITI","","html-keyboard-response","10","85457","0.0-1.0-9.0","0","0","72634","","null","","","null","0","","","","","","","","","","","","","","","NaN",""
"","S1","","html-keyboard-response","11","85710","0.0-1.0-11.0","0","0","72634","","null","","","null","1","","","","","","","","","","","","","","","",""
"","ISI","","html-keyboard-response","12","85863","0.0-1.0-12.0","0","0","72634","","null","","","null","1","NaN","","","","","","","","","","","","","","",""
"","S2","","html-keyboard-response","13","86116","0.0-1.0-13.0","0","0","72634","","null","","","null","1","","NaN","","","","","","","","","","","","","",""
"","response","","html-keyboard-response","14","86268","0.0-1.0-14.0-0.0","0","0","72634","","150","","","68","1","","","1","1","training","adjacent","FG","6","7","P.jpg","N.jpg","1","1","1","",""
"","feedback","","html-keyboard-response","15","87270","0.0-1.0-15.0-0.0","0","0","72634","","null","","","null","1","","","","","","","","","","","","","","","",""
"","ITI","","html-keyboard-response","16","88273","0.0-1.0-18.0","0","0","72634","","null","","","null","1","","","","","","","","","","","","","","","NaN",""
"","S1","","html-keyboard-response","17","88525","0.0-1.0-20.0","0","0","72634","","null","","","null","2","","","","","","","","","","","","","","","",""
"","ISI","","html-keyboard-response","18","88678","0.0-1.0-21.0","0","0","72634","","null","","","null","2","NaN","","","","","","","","","","","","","","",""
"","S2","","html-keyboard-response","19","88931","0.0-1.0-22.0","0","0","72634","","null","","","null","2","","NaN","","","","","","","","","","","","","",""
"","response","","html-keyboard-response","20","89092","0.0-1.0-23.0-0.0","0","0","72634","","159","","","68","2","","","1","2","training","adjacent","DC","4","3","R.jpg","O.jpg","1","0","0","",""
"","feedback","","html-keyboard-response","21","90095","0.0-1.0-24.0-0.0","0","0","72634","","null","","","null","2","","","","","","","","","","","","","","","",""
"","time_out","","html-keyboard-response","22","92098","0.0-1.0-26.0-0.0","0","0","72634","","null","","","null","2","","","","","","","","","","","","","","","",""
"","ITI","","html-keyboard-response","23","93101","0.0-1.0-27.0","0","0","72634","","null","","","null","2","","","","","","","","","","","","","","","NaN",""
"","S1","","html-keyboard-response","24","93354","0.0-1.0-29.0","0","0","72634","","null","","","null","3","","","","","","","","","","","","","","","",""
"","ISI","","html-keyboard-response","25","93508","0.0-1.0-30.0","0","0","72634","","null","","","null","3","NaN","","","","","","","","","","","","","","",""
"","S2","","html-keyboard-response","26","93760","0.0-1.0-31.0","0","0","72634","","null","","","null","3","","NaN","","","","","","","","","","","","","",""
"","response","","html-keyboard-response","27","94011","0.0-1.0-32.0-0.0","0","0","72634","","249","","","75","3","","","1","3","training","adjacent","FG","6","7","P.jpg","N.jpg","0","1","0","",""
"","feedback","","html-keyboard-response","28","95014","0.0-1.0-33.0-0.0","0","0","72634","","null","","","null","3","","","","","","","","","","","","","","","",""
"","time_out","","html-keyboard-response","29","97016","0.0-1.0-35.0-0.0","0","0","72634","","null","","","null","3","","","","","","","","","","","","","","","",""
"","ITI","","html-keyboard-response","30","98018","0.0-1.0-36.0","0","0","72634","","null","","","null","3","","","","","","","","","","","","","","","NaN",""
"","S1","","html-keyboard-response","31","98271","0.0-1.0-38.0","0","0","72634","","null","","","null","4","","","","","","","","","","","","","","","",""
"","ISI","","html-keyboard-response","32","98423","0.0-1.0-39.0","0","0","72634","","null","","","null","4","NaN","","","","","","","","","","","","","","",""
"","S2","","html-keyboard-response","33","98676","0.0-1.0-40.0","0","0","72634","","null","","","null","4","","NaN","","","","","","","","","","","","","",""
"","response","","html-keyboard-response","34","98923","0.0-1.0-41.0-0.0","0","0","72634","","246","","","75","4","","","1","4","training","adjacent","AB","1","2","Q.jpg","M.jpg","0","1","0","",""
"","feedback","","html-keyboard-response","35","99926","0.0-1.0-42.0-0.0","0","0","72634","","null","","","null","4","","","","","","","","","","","","","","","",""
"","time_out","","html-keyboard-response","36","101929","0.0-1.0-44.0-0.0","0","0","72634","","null","","","null","4","","","","","","","","","","","","","","","",""
"","ITI","","html-keyboard-response","37","102932","0.0-1.0-45.0","0","0","72634","","null","","","null","4","","","","","","","","","","","","","","","NaN",""
"","S1","","html-keyboard-response","38","103184","0.0-1.0-47.0","0","0","72634","","null","","","null","5","","","","","","","","","","","","","","","",""
"","ISI","","html-keyboard-response","39","103338","0.0-1.0-48.0","0","0","72634","","98","","","68","5","d","","","","","","","","","","","","","","",""
"","S2","","html-keyboard-response","40","103592","0.0-1.0-49.0","0","0","72634","","null","","","null","5","","NaN","","","","","","","","","","","","","",""
"","response","","html-keyboard-response","41","103947","0.0-1.0-50.0-0.0","0","0","72634","","354","","","68","5","","","1","5","training","adjacent","FG","6","7","P.jpg","N.jpg","1","1","1","",""
"","feedback","","html-keyboard-response","42","104955","0.0-1.0-51.0-0.0","0","0","72634","","null","","","null","5","","","","","","","","","","","","","","","",""
"","ITI","","html-keyboard-response","43","105957","0.0-1.0-54.0","0","0","72634","","null","","","null","5","","","","","","","","","","","","","","","NaN",""
"","S1","","html-keyboard-response","44","106210","0.0-1.0-56.0","0","0","72634","","null","","","null","6","","","","","","","","","","","","","","","",""
"","ISI","","html-keyboard-response","45","106363","0.0-1.0-57.0","0","0","72634","","null","","","null","6","NaN","","","","","","","","","","","","","","",""
"","S2","","html-keyboard-response","46","106615","0.0-1.0-58.0","0","0","72634","","null","","","null","6","","NaN","","","","","","","","","","","","","",""
"","response","","html-keyboard-response","47","106907","0.0-1.0-59.0-0.0","0","0","72634","","290","","","75","6","","","1","6","training","adjacent","CB","3","2","O.jpg","M.jpg","0","0","1","",""
"","feedback","","html-keyboard-response","48","107910","0.0-1.0-60.0-0.0","0","0","72634","","null","","","null","6","","","","","","","","","","","","","","","",""
"","ITI","","html-keyboard-response","49","108912","0.0-1.0-63.0","0","0","72634","","null","","","null","6","","","","","","","","","","","","","","","NaN",""
"","S1","","html-keyboard-response","50","109165","0.0-1.0-65.0","0","0","72634","","null","","","null","7","","","","","","","","","","","","","","","",""
"","ISI","","html-keyboard-response","51","109318","0.0-1.0-66.0","0","0","72634","","null","","","null","7","NaN","","","","","","","","","","","","","","",""
"","S2","","html-keyboard-response","52","109571","0.0-1.0-67.0","0","0","72634","","null","","","null","7","","NaN","","","","","","","","","","","","","",""
"","response","","html-keyboard-response","53","109819","0.0-1.0-68.0-0.0","0","0","72634","","247","","","68","7","","","1","7","training","adjacent","FE","6","5","P.jpg","L.jpg","1","0","0","",""
"","feedback","","html-keyboard-response","54","110822","0.0-1.0-69.0-0.0","0","0","72634","","null","","","null","7","","","","","","","","","","","","","","","",""
"","time_out","","html-keyboard-response","55","112825","0.0-1.0-71.0-0.0","0","0","72634","","null","","","null","7","","","","","","","","","","","","","","","",""
"","ITI","","html-keyboard-response","56","113828","0.0-1.0-72.0","0","0","72634","","null","","","null","7","","","","","","","","","","","","","","","NaN",""
"","S1","","html-keyboard-response","57","114081","0.0-1.0-74.0","0","0","72634","","null","","","null","8","","","","","","","","","","","","","","","",""
"","ISI","","html-keyboard-response","58","114233","0.0-1.0-75.0","0","0","72634","","8","","","75","8","k","","","","","","","","","","","","","","",""
"","S2","","html-keyboard-response","59","114486","0.0-1.0-76.0","0","0","72634","","null","","","null","8","","NaN","","","","","","","","","","","","","",""
"","response","","html-keyboard-response","60","114787","0.0-1.0-77.0-0.0","0","0","72634","","299","","","75","8","","","1","8","training","adjacent","CD","3","4","O.jpg","R.jpg","0","1","0","",""
"","feedback","","html-keyboard-response","61","115790","0.0-1.0-78.0-0.0","0","0","72634","","null","","","null","8","","","","","","","","","","","","","","","",""
"","time_out","","html-keyboard-response","62","117792","0.0-1.0-80.0-0.0","0","0","72634","","null","","","null","8","","","","","","","","","","","","","","","",""
"","ITI","","html-keyboard-response","63","118795","0.0-1.0-81.0","0","0","72634","","null","","","null","8","","","","","","","","","","","","","","","NaN",""
"","S1","","html-keyboard-response","64","119048","0.0-1.0-83.0","0","0","72634","","null","","","null","9","","","","","","","","","","","","","","","",""
"","ISI","","html-keyboard-response","65","119200","0.0-1.0-84.0","0","0","72634","","null","","","null","9","NaN","","","","","","","","","","","","","","",""
"","S2","","html-keyboard-response","66","119372","0.0-1.0-85.0","0","0","72634","","169","","","68","9","","d","1","9","training","adjacent","ED","5","4","L.jpg","R.jpg","1","0","0","",""
"","feedback","","html-keyboard-response","67","120374","0.0-1.0-87.0-0.0","0","0","72634","","null","","","null","9","","","","","","","","","","","","","","","",""
"","time_out","","html-keyboard-response","68","122376","0.0-1.0-89.0-0.0","0","0","72634","","null","","","null","9","","","","","","","","","","","","","","","",""
"","ITI","","html-keyboard-response","69","123379","0.0-1.0-90.0","0","0","72634","","null","","","null","9","","","","","","","","","","","","","","","NaN",""
"","S1","","html-keyboard-response","70","123631","0.0-1.0-92.0","0","0","72634","","null","","","null","10","","","","","","","","","","","","","","","",""
"","ISI","","html-keyboard-response","71","123784","0.0-1.0-93.0","0","0","72634","","null","","","null","10","NaN","","","","","","","","","","","","","","",""
"","S2","","html-keyboard-response","72","124037","0.0-1.0-94.0","0","0","72634","","null","","","null","10","","NaN","","","","","","","","","","","","","",""
"","response","","html-keyboard-response","73","124419","0.0-1.0-95.0-0.0","0","0","72634","","381","","","68","10","","","1","10","training","adjacent","BC","2","3","M.jpg","O.jpg","1","1","1","",""
"","feedback","","html-keyboard-response","74","125422","0.0-1.0-96.0-0.0","0","0","72634","","null","","","null","10","","","","","","","","","","","","","","","",""
"","ITI","","html-keyboard-response","75","126425","0.0-1.0-99.0","0","0","72634","","null","","","null","10","","","","","","","","","","","","","","","NaN",""
"","S1","","html-keyboard-response","76","126678","0.0-1.0-101.0","0","0","72634","","null","","","null","11","","","","","","","","","","","","","","","",""
"","ISI","","html-keyboard-response","77","126830","0.0-1.0-102.0","0","0","72634","","null","","","null","11","NaN","","","","","","","","","","","","","","",""
"","S2","","html-keyboard-response","78","127082","0.0-1.0-103.0","0","0","72634","","null","","","null","11","","NaN","","","","","","","","","","","","","",""
"","response","","html-keyboard-response","79","127355","0.0-1.0-104.0-0.0","0","0","72634","","271","","","75","11","","","1","11","training","adjacent","BA","2","1","M.jpg","Q.jpg","0","0","1","",""
"","feedback","","html-keyboard-response","80","128358","0.0-1.0-105.0-0.0","0","0","72634","","null","","","null","11","","","","","","","","","","","","","","","",""
"","ITI","","html-keyboard-response","81","129361","0.0-1.0-108.0","0","0","72634","","null","","","null","11","","","","","","","","","","","","","","","NaN",""
"","S1","","html-keyboard-response","82","129613","0.0-1.0-110.0","0","0","72634","","null","","","null","12","","","","","","","","","","","","","","","",""
"","ISI","","html-keyboard-response","83","129766","0.0-1.0-111.0","0","0","72634","","null","","","null","12","NaN","","","","","","","","","","","","","","",""
"","S2","","html-keyboard-response","84","130019","0.0-1.0-112.0","0","0","72634","","null","","","null","12","","NaN","","","","","","","","","","","","","",""
"","response","","html-keyboard-response","85","130123","0.0-1.0-113.0-0.0","0","0","72634","","102","","","68","12","","","1","12","training","adjacent","BA","2","1","M.jpg","Q.jpg","1","0","0","",""
"","feedback","","html-keyboard-response","86","131126","0.0-1.0-114.0-0.0","0","0","72634","","null","","","null","12","","","","","","","","","","","","","","","",""
"","time_out","","html-keyboard-response","87","133129","0.0-1.0-116.0-0.0","0","0","72634","","null","","","null","12","","","","","","","","","","","","","","","",""
"","ITI","","html-keyboard-response","88","134131","0.0-1.0-117.0","0","0","72634","","null","","","null","12","","","","","","","","","","","","","","","NaN",""
"","S1","","html-keyboard-response","89","134384","0.0-1.0-119.0","0","0","72634","","null","","","null","13","","","","","","","","","","","","","","","",""
"","ISI","","html-keyboard-response","90","134537","0.0-1.0-120.0","0","0","72634","","null","","","null","13","NaN","","","","","","","","","","","","","","",""
"","S2","","html-keyboard-response","91","134790","0.0-1.0-121.0","0","0","72634","","null","","","null","13","","NaN","","","","","","","","","","","","","",""
"","response","","html-keyboard-response","92","135051","0.0-1.0-122.0-0.0","0","0","72634","","259","","","75","13","","","1","13","training","adjacent","DC","4","3","R.jpg","O.jpg","0","0","1","",""
"","feedback","","html-keyboard-response","93","136055","0.0-1.0-123.0-0.0","0","0","72634","","null","","","null","13","","","","","","","","","","","","","","","",""
"","ITI","","html-keyboard-response","94","137059","0.0-1.0-126.0","0","0","72634","","null","","","null","13","","","","","","","","","","","","","","","NaN",""
"","S1","","html-keyboard-response","95","137311","0.0-1.0-128.0","0","0","72634","","null","","","null","14","","","","","","","","","","","","","","","",""
"","ISI","","html-keyboard-response","96","137464","0.0-1.0-129.0","0","0","72634","","null","","","null","14","NaN","","","","","","","","","","","","","","",""
"","S2","","html-keyboard-response","97","137718","0.0-1.0-130.0","0","0","72634","","null","","","null","14","","NaN","","","","","","","","","","","","","",""
"","response","","html-keyboard-response","98","138092","0.0-1.0-131.0-0.0","0","0","72634","","372","","","75","14","","","1","14","training","adjacent","EF","5","6","L.jpg","P.jpg","0","1","0","",""
"","feedback","","html-keyboard-response","99","139095","0.0-1.0-132.0-0.0","0","0","72634","","null","","","null","14","","","","","","","","","","","","","","","",""
"","time_out","","html-keyboard-response","100","141098","0.0-1.0-134.0-0.0","0","0","72634","","null","","","null","14","","","","","","","","","","","","","","","",""
"","ITI","","html-keyboard-response","101","142100","0.0-1.0-135.0","0","0","72634","","null","","","null","14","","","","","","","","","","","","","","","NaN",""
"","S1","","html-keyboard-response","102","142354","0.0-1.0-137.0","0","0","72634","","null","","","null","15","","","","","","","","","","","","","","","",""
"","ISI","","html-keyboard-response","103","142506","0.0-1.0-138.0","0","0","72634","","null","","","null","15","NaN","","","","","","","","","","","","","","",""
"","S2","","html-keyboard-response","104","142758","0.0-1.0-139.0","0","0","72634","","null","","","null","15","","NaN","","","","","","","","","","","","","",""
"","response","","html-keyboard-response","105","143059","0.0-1.0-140.0-0.0","0","0","72634","","299","","","68","15","","","1","15","training","adjacent","CB","3","2","O.jpg","M.jpg","1","0","0","",""
"","feedback","","html-keyboard-response","106","144063","0.0-1.0-141.0-0.0","0","0","72634","","null","","","null","15","","","","","","","","","","","","","","","",""
"","time_out","","html-keyboard-response","107","146066","0.0-1.0-143.0-0.0","0","0","72634","","null","","","null","15","","","","","","","","","","","","","","","",""
"","ITI","","html-keyboard-response","108","147068","0.0-1.0-144.0","0","0","72634","","null","","","null","15","","","","","","","","","","","","","","","NaN",""
"","S1","","html-keyboard-response","109","147321","0.0-1.0-146.0","0","0","72634","","null","","","null","16","","","","","","","","","","","","","","","",""
"","ISI","","html-keyboard-response","110","147473","0.0-1.0-147.0","0","0","72634","","null","","","null","16","NaN","","","","","","","","","","","","","","",""
"","S2","","html-keyboard-response","111","147725","0.0-1.0-148.0","0","0","72634","","null","","","null","16","","NaN","","","","","","","","","","","","","",""
"","response","","html-keyboard-response","112","147778","0.0-1.0-149.0-0.0","0","0","72634","","52","","","75","16","","","1","16","training","adjacent","ED","5","4","L.jpg","R.jpg","0","0","1","",""
"","feedback","","html-keyboard-response","113","148780","0.0-1.0-150.0-0.0","0","0","72634","","null","","","null","16","","","","","","","","","","","","","","","",""
"","ITI","","html-keyboard-response","114","149782","0.0-1.0-153.0","0","0","72634","","null","","","null","16","","","","","","","","","","","","","","","NaN",""
"","S1","","html-keyboard-response","115","150035","0.0-1.0-155.0","0","0","72634","","null","","","null","17","","","","","","","","","","","","","","","",""
"","ISI","","html-keyboard-response","116","150188","0.0-1.0-156.0","0","0","72634","","null","","","null","17","NaN","","","","","","","","","","","","","","",""
"","S2","","html-keyboard-response","117","150442","0.0-1.0-157.0","0","0","72634","","null","","","null","17","","NaN","","","","","","","","","","","","","",""
"","response","","html-keyboard-response","118","150572","0.0-1.0-158.0-0.0","0","0","72634","","128","","","75","17","","","1","17","training","adjacent","AB","1","2","Q.jpg","M.jpg","0","1","0","",""
"","feedback","","html-keyboard-response","119","151575","0.0-1.0-159.0-0.0","0","0","72634","","null","","","null","17","","","","","","","","","","","","","","","",""
"","time_out","","html-keyboard-response","120","153577","0.0-1.0-161.0-0.0","0","0","72634","","null","","","null","17","","","","","","","","","","","","","","","",""
"","ITI","","html-keyboard-response","121","154581","0.0-1.0-162.0","0","0","72634","","null","","","null","17","","","","","","","","","","","","","","","NaN",""
"","S1","","html-keyboard-response","122","154833","0.0-1.0-164.0","0","0","72634","","null","","","null","18","","","","","","","","","","","","","","","",""
"","ISI","","html-keyboard-response","123","154985","0.0-1.0-165.0","0","0","72634","","null","","","null","18","NaN","","","","","","","","","","","","","","",""
"","S2","","html-keyboard-response","124","155239","0.0-1.0-166.0","0","0","72634","","null","","","null","18","","NaN","","","","","","","","","","","","","",""
"","response","","html-keyboard-response","125","155347","0.0-1.0-167.0-0.0","0","0","72634","","107","","","68","18","","","1","18","training","adjacent","ED","5","4","L.jpg","R.jpg","1","0","0","",""
"","feedback","","html-keyboard-response","126","156350","0.0-1.0-168.0-0.0","0","0","72634","","null","","","null","18","","","","","","","","","","","","","","","",""
"","time_out","","html-keyboard-response","127","158352","0.0-1.0-170.0-0.0","0","0","72634","","null","","","null","18","","","","","","","","","","","","","","","",""
"","ITI","","html-keyboard-response","128","159354","0.0-1.0-171.0","0","0","72634","","null","","","null","18","","","","","","","","","","","","","","","NaN",""
"","S1","","html-keyboard-response","129","159607","0.0-1.0-173.0","0","0","72634","","null","","","null","19","","","","","","","","","","","","","","","",""
"","ISI","","html-keyboard-response","130","159759","0.0-1.0-174.0","0","0","72634","","null","","","null","19","NaN","","","","","","","","","","","","","","",""
"","S2","","html-keyboard-response","131","160015","0.0-1.0-175.0","0","0","72634","","null","","","null","19","","NaN","","","","","","","","","","","","","",""
"","response","","html-keyboard-response","132","160083","0.0-1.0-176.0-0.0","0","0","72634","","66","","","75","19","","","1","19","training","adjacent","ED","5","4","L.jpg","R.jpg","0","0","1","",""
"","feedback","","html-keyboard-response","133","161087","0.0-1.0-177.0-0.0","0","0","72634","","null","","","null","19","","","","","","","","","","","","","","","",""
"","ITI","","html-keyboard-response","134","162090","0.0-1.0-180.0","0","0","72634","","null","","","null","19","","","","","","","","","","","","","","","NaN",""
"","S1","","html-keyboard-response","135","162343","0.0-1.0-182.0","0","0","72634","","null","","","null","20","","","","","","","","","","","","","","","",""
"","ISI","","html-keyboard-response","136","162495","0.0-1.0-183.0","0","0","72634","","null","","","null","20","NaN","","","","","","","","","","","","","","",""
"","S2","","html-keyboard-response","137","162748","0.0-1.0-184.0","0","0","72634","","null","","","null","20","","NaN","","","","","","","","","","","","","",""
"","response","","html-keyboard-response","138","163051","0.0-1.0-185.0-0.0","0","0","72634","","300","","","68","20","","","1","20","training","adjacent","CD","3","4","O.jpg","R.jpg","1","1","1","",""
"","feedback","","html-keyboard-response","139","164053","0.0-1.0-186.0-0.0","0","0","72634","","null","","","null","20","","","","","","","","","","","","","","","",""
"","ITI","","html-keyboard-response","140","165056","0.0-1.0-189.0","0","0","72634","","null","","","null","20","","","","","","","","","","","","","","","NaN",""
"","S1","","html-keyboard-response","141","165309","0.0-1.0-191.0","0","0","72634","","null","","","null","21","","","","","","","","","","","","","","","",""
"","ISI","","html-keyboard-response","142","165461","0.0-1.0-192.0","0","0","72634","","null","","","null","21","NaN","","","","","","","","","","","","","","",""
"","S2","","html-keyboard-response","143","165715","0.0-1.0-193.0","0","0","72634","","null","","","null","21","","NaN","","","","","","","","","","","","","",""
"","response","","html-keyboard-response","144","166019","0.0-1.0-194.0-0.0","0","0","72634","","302","","","75","21","","","1","21","training","adjacent","EF","5","6","L.jpg","P.jpg","0","1","0","",""
"","feedback","","html-keyboard-response","145","167022","0.0-1.0-195.0-0.0","0","0","72634","","null","","","null","21","","","","","","","","","","","","","","","",""
"","time_out","","html-keyboard-response","146","169025","0.0-1.0-197.0-0.0","0","0","72634","","null","","","null","21","","","","","","","","","","","","","","","",""
"","ITI","","html-keyboard-response","147","170027","0.0-1.0-198.0","0","0","72634","","null","","","null","21","","","","","","","","","","","","","","","NaN",""
"","S1","","html-keyboard-response","148","170280","0.0-1.0-200.0","0","0","72634","","null","","","null","22","","","","","","","","","","","","","","","",""
"","ISI","","html-keyboard-response","149","170433","0.0-1.0-201.0","0","0","72634","","null","","","null","22","NaN","","","","","","","","","","","","","","",""
"","S2","","html-keyboard-response","150","170686","0.0-1.0-202.0","0","0","72634","","null","","","null","22","","NaN","","","","","","","","","","","","","",""
"","response","","html-keyboard-response","151","170947","0.0-1.0-203.0-0.0","0","0","72634","","258","","","68","22","","","1","22","training","adjacent","BC","2","3","M.jpg","O.jpg","1","1","1","",""
"","feedback","","html-keyboard-response","152","171950","0.0-1.0-204.0-0.0","0","0","72634","","null","","","null","22","","","","","","","","","","","","","","","",""
"","ITI","","html-keyboard-response","153","172952","0.0-1.0-207.0","0","0","72634","","null","","","null","22","","","","","","","","","","","","","","","NaN",""
"","S1","","html-keyboard-response","154","173206","0.0-1.0-209.0","0","0","72634","","null","","","null","23","","","","","","","","","","","","","","","",""
"","ISI","","html-keyboard-response","155","173358","0.0-1.0-210.0","0","0","72634","","null","","","null","23","NaN","","","","","","","","","","","","","","",""
"","S2","","html-keyboard-response","156","173611","0.0-1.0-211.0","0","0","72634","","null","","","null","23","","NaN","","","","","","","","","","","","","",""
"","response","","html-keyboard-response","157","174115","0.0-1.0-212.0-0.0","0","0","72634","","502","","","68","23","","","1","23","training","adjacent","GF","7","6","N.jpg","P.jpg","1","0","0","",""
"","feedback","","html-keyboard-response","158","175117","0.0-1.0-213.0-0.0","0","0","72634","","null","","","null","23","","","","","","","","","","","","","","","",""
"","time_out","","html-keyboard-response","159","177121","0.0-1.0-215.0-0.0","0","0","72634","","null","","","null","23","","","","","","","","","","","","","","","",""
"","ITI","","html-keyboard-response","160","178123","0.0-1.0-216.0","0","0","72634","","null","","","null","23","","","","","","","","","","","","","","","NaN",""
"","S1","","html-keyboard-response","161","178376","0.0-1.0-218.0","0","0","72634","","null","","","null","24","","","","","","","","","","","","","","","",""
"","ISI","","html-keyboard-response","162","178529","0.0-1.0-219.0","0","0","72634","","null","","","null","24","NaN","","","","","","","","","","","","","","",""
"","S2","","html-keyboard-response","163","178782","0.0-1.0-220.0","0","0","72634","","null","","","null","24","","NaN","","","","","","","","","","","","","",""
"","response","","html-keyboard-response","164","178963","0.0-1.0-221.0-0.0","0","0","72634","","179","","","75","24","","","1","24","training","adjacent","DC","4","3","R.jpg","O.jpg","0","0","1","",""
"","feedback","","html-keyboard-response","165","179965","0.0-1.0-222.0-0.0","0","0","72634","","null","","","null","24","","","","","","","","","","","","","","","",""
"","ITI","","html-keyboard-response","166","180968","0.0-1.0-225.0","0","0","72634","","null","","","null","24","","","","","","","","","","","","","","","NaN",""
"","S1","","html-keyboard-response","167","181221","0.0-1.0-227.0","0","0","72634","","null","","","null","25","","","","","","","","","","","","","","","",""
"","ISI","","html-keyboard-response","168","181373","0.0-1.0-228.0","0","0","72634","","null","","","null","25","NaN","","","","","","","","","","","","","","",""
"","S2","","html-keyboard-response","169","181626","0.0-1.0-229.0","0","0","72634","","null","","","null","25","","NaN","","","","","","","","","","","","","",""
"","response","","html-keyboard-response","170","181971","0.0-1.0-230.0-0.0","0","0","72634","","342","","","68","25","","","1","25","training","adjacent","CB","3","2","O.jpg","M.jpg","1","0","0","",""
"","feedback","","html-keyboard-response","171","182974","0.0-1.0-231.0-0.0","0","0","72634","","null","","","null","25","","","","","","","","","","","","","","","",""
"","time_out","","html-keyboard-response","172","184976","0.0-1.0-233.0-0.0","0","0","72634","","null","","","null","25","","","","","","","","","","","","","","","",""
"","ITI","","html-keyboard-response","173","185979","0.0-1.0-234.0","0","0","72634","","null","","","null","25","","","","","","","","","","","","","","","NaN",""
"","S1","","html-keyboard-response","174","186231","0.0-1.0-236.0","0","0","72634","","null","","","null","26","","","","","","","","","","","","","","","",""
"","ISI","","html-keyboard-response","175","186384","0.0-1.0-237.0","0","0","72634","","null","","","null","26","NaN","","","","","","","","","","","","","","",""
"","S2","","html-keyboard-response","176","186637","0.0-1.0-238.0","0","0","72634","","null","","","null","26","","NaN","","","","","","","","","","","","","",""
"","response","","html-keyboard-response","177","186707","0.0-1.0-239.0-0.0","0","0","72634","","68","","","75","26","","","1","26","training","adjacent","EF","5","6","L.jpg","P.jpg","0","1","0","",""
"","feedback","","html-keyboard-response","178","187710","0.0-1.0-240.0-0.0","0","0","72634","","null","","","null","26","","","","","","","","","","","","","","","",""
"","time_out","","html-keyboard-response","179","189713","0.0-1.0-242.0-0.0","0","0","72634","","null","","","null","26","","","","","","","","","","","","","","","",""
"","ITI","","html-keyboard-response","180","190715","0.0-1.0-243.0","0","0","72634","","null","","","null","26","","","","","","","","","","","","","","","NaN",""
"","S1","","html-keyboard-response","181","190968","0.0-1.0-245.0","0","0","72634","","null","","","null","27","","","","","","","","","","","","","","","",""
"","ISI","","html-keyboard-response","182","191121","0.0-1.0-246.0","0","0","72634","","null","","","null","27","NaN","","","","","","","","","","","","","","",""
"","S2","","html-keyboard-response","183","191373","0.0-1.0-247.0","0","0","72634","","null","","","null","27","","NaN","","","","","","","","","","","","","",""
"","response","","html-keyboard-response","184","191659","0.0-1.0-248.0-0.0","0","0","72634","","283","","","68","27","","","1","27","training","adjacent","DE","4","5","R.jpg","L.jpg","1","1","1","",""
"","feedback","","html-keyboard-response","185","192662","0.0-1.0-249.0-0.0","0","0","72634","","null","","","null","27","","","","","","","","","","","","","","","",""
"","ITI","","html-keyboard-response","186","193664","0.0-1.0-252.0","0","0","72634","","null","","","null","27","","","","","","","","","","","","","","","NaN",""
"","S1","","html-keyboard-response","187","193917","0.0-1.0-254.0","0","0","72634","","null","","","null","28","","","","","","","","","","","","","","","",""
"","ISI","","html-keyboard-response","188","194070","0.0-1.0-255.0","0","0","72634","","null","","","null","28","NaN","","","","","","","","","","","","","","",""
"","S2","","html-keyboard-response","189","194322","0.0-1.0-256.0","0","0","72634","","null","","","null","28","","NaN","","","","","","","","","","","","","",""
"","response","","html-keyboard-response","190","194651","0.0-1.0-257.0-0.0","0","0","72634","","326","","","68","28","","","1","28","training","adjacent","GF","7","6","N.jpg","P.jpg","1","0","0","",""
"","feedback","","html-keyboard-response","191","195655","0.0-1.0-258.0-0.0","0","0","72634","","null","","","null","28","","","","","","","","","","","","","","","",""
"","time_out","","html-keyboard-response","192","197657","0.0-1.0-260.0-0.0","0","0","72634","","null","","","null","28","","","","","","","","","","","","","","","",""
"","ITI","","html-keyboard-response","193","198660","0.0-1.0-261.0","0","0","72634","","null","","","null","28","","","","","","","","","","","","","","","NaN",""
"","S1","","html-keyboard-response","194","198918","0.0-1.0-263.0","0","0","72634","","null","","","null","29","","","","","","","","","","","","","","","",""
"","ISI","","html-keyboard-response","195","199071","0.0-1.0-264.0","0","0","72634","","null","","","null","29","NaN","","","","","","","","","","","","","","",""
"","S2","","html-keyboard-response","196","199324","0.0-1.0-265.0","0","0","72634","","null","","","null","29","","NaN","","","","","","","","","","","","","",""
"","response","","html-keyboard-response","197","199475","0.0-1.0-266.0-0.0","0","0","72634","","148","","","68","29","","","1","29","training","adjacent","AB","1","2","Q.jpg","M.jpg","1","1","1","",""
"","feedback","","html-keyboard-response","198","200478","0.0-1.0-267.0-0.0","0","0","72634","","null","","","null","29","","","","","","","","","","","","","","","",""
"","ITI","","html-keyboard-response","199","201481","0.0-1.0-270.0","0","0","72634","","null","","","null","29","","","","","","","","","","","","","","","NaN",""
"","S1","","html-keyboard-response","200","201733","0.0-1.0-272.0","0","0","72634","","null","","","null","30","","","","","","","","","","","","","","","",""
"","ISI","","html-keyboard-response","201","201895","0.0-1.0-273.0","0","0","72634","","null","","","null","30","NaN","","","","","","","","","","","","","","",""
"","S2","","html-keyboard-response","202","202148","0.0-1.0-274.0","0","0","72634","","null","","","null","30","","NaN","","","","","","","","","","","","","",""
"","response","","html-keyboard-response","203","202218","0.0-1.0-275.0-0.0","0","0","72634","","68","","","75","30","","","1","30","training","adjacent","FG","6","7","P.jpg","N.jpg","0","1","0","",""
"","feedback","","html-keyboard-response","204","203222","0.0-1.0-276.0-0.0","0","0","72634","","null","","","null","30","","","","","","","","","","","","","","","",""
"","time_out","","html-keyboard-response","205","205224","0.0-1.0-278.0-0.0","0","0","72634","","null","","","null","30","","","","","","","","","","","","","","","",""
"","ITI","","html-keyboard-response","206","206227","0.0-1.0-279.0","0","0","72634","","null","","","null","30","","","","","","","","","","","","","","","NaN",""
"","S1","","html-keyboard-response","207","206480","0.0-1.0-281.0","0","0","72634","","null","","","null","31","","","","","","","","","","","","","","","",""
"","ISI","","html-keyboard-response","208","206632","0.0-1.0-282.0","0","0","72634","","null","","","null","31","NaN","","","","","","","","","","","","","","",""
"","S2","","html-keyboard-response","209","206885","0.0-1.0-283.0","0","0","72634","","null","","","null","31","","NaN","","","","","","","","","","","","","",""
"","response","","html-keyboard-response","210","207794","0.0-1.0-284.0-0.0","0","0","72634","","907","","","68","31","","","1","31","training","adjacent","CD","3","4","O.jpg","R.jpg","1","1","1","",""
"","feedback","","html-keyboard-response","211","208797","0.0-1.0-285.0-0.0","0","0","72634","","null","","","null","31","","","","","","","","","","","","","","","",""
"","ITI","","html-keyboard-response","212","209800","0.0-1.0-288.0","0","0","72634","","null","","","null","31","","","","","","","","","","","","","","","NaN",""
"","S1","","html-keyboard-response","213","210052","0.0-1.0-290.0","0","0","72634","","null","","","null","32","","","","","","","","","","","","","","","",""
"","ISI","","html-keyboard-response","214","210206","0.0-1.0-291.0","0","0","72634","","null","","","null","32","NaN","","","","","","","","","","","","","","",""
"","S2","","html-keyboard-response","215","210458","0.0-1.0-292.0","0","0","72634","","null","","","null","32","","NaN","","","","","","","","","","","","","",""
"","response","","html-keyboard-response","216","210659","0.0-1.0-293.0-0.0","0","0","72634","","198","","","75","32","","","1","32","training","adjacent","AB","1","2","Q.jpg","M.jpg","0","1","0","",""
"","feedback","","html-keyboard-response","217","211662","0.0-1.0-294.0-0.0","0","0","72634","","null","","","null","32","","","","","","","","","","","","","","","",""
"","time_out","","html-keyboard-response","218","213664","0.0-1.0-296.0-0.0","0","0","72634","","null","","","null","32","","","","","","","","","","","","","","","",""
"","ITI","","html-keyboard-response","219","214667","0.0-1.0-297.0","0","0","72634","","null","","","null","32","","","","","","","","","","","","","","","NaN",""
"","S1","","html-keyboard-response","220","214920","0.0-1.0-299.0","0","0","72634","","null","","","null","33","","","","","","","","","","","","","","","",""
"","ISI","","html-keyboard-response","221","215073","0.0-1.0-300.0","0","0","72634","","null","","","null","33","NaN","","","","","","","","","","","","","","",""
"","S2","","html-keyboard-response","222","215326","0.0-1.0-301.0","0","0","72634","","null","","","null","33","","NaN","","","","","","","","","","","","","",""
"","response","","html-keyboard-response","223","215578","0.0-1.0-302.0-0.0","0","0","72634","","250","","","68","33","","","1","33","training","adjacent","DE","4","5","R.jpg","L.jpg","1","1","1","",""
"","feedback","","html-keyboard-response","224","216581","0.0-1.0-303.0-0.0","0","0","72634","","null","","","null","33","","","","","","","","","","","","","","","",""
"","ITI","","html-keyboard-response","225","217583","0.0-1.0-306.0","0","0","72634","","null","","","null","33","","","","","","","","","","","","","","","NaN",""
"","S1","","html-keyboard-response","226","217838","0.0-1.0-308.0","0","0","72634","","null","","","null","34","","","","","","","","","","","","","","","",""
"","ISI","","html-keyboard-response","227","217990","0.0-1.0-309.0","0","0","72634","","null","","","null","34","NaN","","","","","","","","","","","","","","",""
"","S2","","html-keyboard-response","228","218243","0.0-1.0-310.0","0","0","72634","","null","","","null","34","","NaN","","","","","","","","","","","","","",""
"","response","","html-keyboard-response","229","218602","0.0-1.0-311.0-0.0","0","0","72634","","357","","","68","34","","","1","34","training","adjacent","BA","2","1","M.jpg","Q.jpg","1","0","0","",""
"","feedback","","html-keyboard-response","230","219605","0.0-1.0-312.0-0.0","0","0","72634","","null","","","null","34","","","","","","","","","","","","","","","",""
"","time_out","","html-keyboard-response","231","221608","0.0-1.0-314.0-0.0","0","0","72634","","null","","","null","34","","","","","","","","","","","","","","","",""
"","ITI","","html-keyboard-response","232","222610","0.0-1.0-315.0","0","0","72634","","null","","","null","34","","","","","","","","","","","","","","","NaN",""
"","S1","","html-keyboard-response","233","222864","0.0-1.0-317.0","0","0","72634","","null","","","null","35","","","","","","","","","","","","","","","",""
"","ISI","","html-keyboard-response","234","223017","0.0-1.0-318.0","0","0","72634","","null","","","null","35","NaN","","","","","","","","","","","","","","",""
"","S2","","html-keyboard-response","235","223270","0.0-1.0-319.0","0","0","72634","","null","","","null","35","","NaN","","","","","","","","","","","","","",""
"","response","","html-keyboard-response","236","223930","0.0-1.0-320.0-0.0","0","0","72634","","658","","","68","35","","","1","35","training","adjacent","GF","7","6","N.jpg","P.jpg","1","0","0","",""
"","feedback","","html-keyboard-response","237","224933","0.0-1.0-321.0-0.0","0","0","72634","","null","","","null","35","","","","","","","","","","","","","","","",""
"","time_out","","html-keyboard-response","238","226937","0.0-1.0-323.0-0.0","0","0","72634","","null","","","null","35","","","","","","","","","","","","","","","",""
"","ITI","","html-keyboard-response","239","227941","0.0-1.0-324.0","0","0","72634","","null","","","null","35","","","","","","","","","","","","","","","NaN",""
"","S1","","html-keyboard-response","240","228193","0.0-1.0-326.0","0","0","72634","","null","","","null","36","","","","","","","","","","","","","","","",""
"","ISI","","html-keyboard-response","241","228347","0.0-1.0-327.0","0","0","72634","","null","","","null","36","NaN","","","","","","","","","","","","","","",""
"","S2","","html-keyboard-response","242","228600","0.0-1.0-328.0","0","0","72634","","null","","","null","36","","NaN","","","","","","","","","","","","","",""
"","response","","html-keyboard-response","243","228642","0.0-1.0-329.0-0.0","0","0","72634","","41","","","75","36","","","1","36","training","adjacent","FE","6","5","P.jpg","L.jpg","0","0","1","",""
"","feedback","","html-keyboard-response","244","229645","0.0-1.0-330.0-0.0","0","0","72634","","null","","","null","36","","","","","","","","","","","","","","","",""
"","ITI","","html-keyboard-response","245","230648","0.0-1.0-333.0","0","0","72634","","null","","","null","36","","","","","","","","","","","","","","","NaN",""
"","S1","","html-keyboard-response","246","230900","0.0-1.0-335.0","0","0","72634","","null","","","null","37","","","","","","","","","","","","","","","",""
"","ISI","","html-keyboard-response","247","231053","0.0-1.0-336.0","0","0","72634","","null","","","null","37","NaN","","","","","","","","","","","","","","",""
"","S2","","html-keyboard-response","248","231307","0.0-1.0-337.0","0","0","72634","","null","","","null","37","","NaN","","","","","","","","","","","","","",""
"","response","","html-keyboard-response","249","231362","0.0-1.0-338.0-0.0","0","0","72634","","54","","","75","37","","","1","37","training","adjacent","DC","4","3","R.jpg","O.jpg","0","0","1","",""
"","feedback","","html-keyboard-response","250","232365","0.0-1.0-339.0-0.0","0","0","72634","","null","","","null","37","","","","","","","","","","","","","","","",""
"","ITI","","html-keyboard-response","251","233368","0.0-1.0-342.0","0","0","72634","","null","","","null","37","","","","","","","","","","","","","","","NaN",""
"","S1","","html-keyboard-response","252","233621","0.0-1.0-344.0","0","0","72634","","null","","","null","38","","","","","","","","","","","","","","","",""
"","ISI","","html-keyboard-response","253","233775","0.0-1.0-345.0","0","0","72634","","null","","","null","38","NaN","","","","","","","","","","","","","","",""
"","S2","","html-keyboard-response","254","234028","0.0-1.0-346.0","0","0","72634","","null","","","null","38","","NaN","","","","","","","","","","","","","",""
"","response","","html-keyboard-response","255","234138","0.0-1.0-347.0-0.0","0","0","72634","","108","","","68","38","","","1","38","training","adjacent","CB","3","2","O.jpg","M.jpg","1","0","0","",""
"","feedback","","html-keyboard-response","256","235141","0.0-1.0-348.0-0.0","0","0","72634","","null","","","null","38","","","","","","","","","","","","","","","",""
"","time_out","","html-keyboard-response","257","237143","0.0-1.0-350.0-0.0","0","0","72634","","null","","","null","38","","","","","","","","","","","","","","","",""
"","ITI","","html-keyboard-response","258","238147","0.0-1.0-351.0","0","0","72634","","null","","","null","38","","","","","","","","","","","","","","","NaN",""
"","S1","","html-keyboard-response","259","238399","0.0-1.0-353.0","0","0","72634","","null","","","null","39","","","","","","","","","","","","","","","",""
"","ISI","","html-keyboard-response","260","238553","0.0-1.0-354.0","0","0","72634","","null","","","null","39","NaN","","","","","","","","","","","","","","",""
"","S2","","html-keyboard-response","261","238746","0.0-1.0-355.0","0","0","72634","","192","","","75","39","","k","1","39","training","adjacent","BC","2","3","M.jpg","O.jpg","0","1","0","",""
"","feedback","","html-keyboard-response","262","239750","0.0-1.0-357.0-0.0","0","0","72634","","null","","","null","39","","","","","","","","","","","","","","","",""
"","time_out","","html-keyboard-response","263","241752","0.0-1.0-359.0-0.0","0","0","72634","","null","","","null","39","","","","","","","","","","","","","","","",""
"","ITI","","html-keyboard-response","264","242756","0.0-1.0-360.0","0","0","72634","","null","","","null","39","","","","","","","","","","","","","","","NaN",""
"","S1","","html-keyboard-response","265","243009","0.0-1.0-362.0","0","0","72634","","null","","","null","40","","","","","","","","","","","","","","","",""
"","ISI","","html-keyboard-response","266","243161","0.0-1.0-363.0","0","0","72634","","null","","","null","40","NaN","","","","","","","","","","","","","","",""
"","S2","","html-keyboard-response","267","243414","0.0-1.0-364.0","0","0","72634","","null","","","null","40","","NaN","","","","","","","","","","","","","",""
"","response","","html-keyboard-response","268","243490","0.0-1.0-365.0-0.0","0","0","72634","","74","","","68","40","","","1","40","training","adjacent","DE","4","5","R.jpg","L.jpg","1","1","1","",""
"","feedback","","html-keyboard-response","269","244492","0.0-1.0-366.0-0.0","0","0","72634","","null","","","null","40","","","","","","","","","","","","","","","",""
"","ITI","","html-keyboard-response","270","245496","0.0-1.0-369.0","0","0","72634","","null","","","null","40","","","","","","","","","","","","","","","NaN",""
"","S1","","html-keyboard-response","271","245748","0.0-1.0-371.0","0","0","72634","","null","","","null","41","","","","","","","","","","","","","","","",""
"","ISI","","html-keyboard-response","272","245901","0.0-1.0-372.0","0","0","72634","","null","","","null","41","NaN","","","","","","","","","","","","","","",""
"","S2","","html-keyboard-response","273","246154","0.0-1.0-373.0","0","0","72634","","null","","","null","41","","NaN","","","","","","","","","","","","","",""
"","response","","html-keyboard-response","274","246258","0.0-1.0-374.0-0.0","0","0","72634","","102","","","75","41","","","1","41","training","adjacent","BA","2","1","M.jpg","Q.jpg","0","0","1","",""
"","feedback","","html-keyboard-response","275","247261","0.0-1.0-375.0-0.0","0","0","72634","","null","","","null","41","","","","","","","","","","","","","","","",""
"","ITI","","html-keyboard-response","276","248263","0.0-1.0-378.0","0","0","72634","","null","","","null","41","","","","","","","","","","","","","","","NaN",""
"","S1","","html-keyboard-response","277","248517","0.0-1.0-380.0","0","0","72634","","null","","","null","42","","","","","","","","","","","","","","","",""
"","ISI","","html-keyboard-response","278","248670","0.0-1.0-381.0","0","0","72634","","null","","","null","42","NaN","","","","","","","","","","","","","","",""
"","S2","","html-keyboard-response","279","248923","0.0-1.0-382.0","0","0","72634","","null","","","null","42","","NaN","","","","","","","","","","","","","",""
"","response","","html-keyboard-response","280","249146","0.0-1.0-383.0-0.0","0","0","72634","","221","","","75","42","","","1","42","training","adjacent","CD","3","4","O.jpg","R.jpg","0","1","0","",""
"","feedback","","html-keyboard-response","281","250149","0.0-1.0-384.0-0.0","0","0","72634","","null","","","null","42","","","","","","","","","","","","","","","",""
"","time_out","","html-keyboard-response","282","252152","0.0-1.0-386.0-0.0","0","0","72634","","null","","","null","42","","","","","","","","","","","","","","","",""
"","ITI","","html-keyboard-response","283","253165","0.0-1.0-387.0","0","0","72634","","null","","","null","42","","","","","","","","","","","","","","","NaN",""
"","S1","","html-keyboard-response","284","253418","0.0-1.0-389.0","0","0","72634","","null","","","null","43","","","","","","","","","","","","","","","",""
"","ISI","","html-keyboard-response","285","253571","0.0-1.0-390.0","0","0","72634","","null","","","null","43","NaN","","","","","","","","","","","","","","",""
"","S2","","html-keyboard-response","286","253824","0.0-1.0-391.0","0","0","72634","","null","","","null","43","","NaN","","","","","","","","","","","","","",""
"","response","","html-keyboard-response","287","253914","0.0-1.0-392.0-0.0","0","0","72634","","88","","","68","43","","","1","43","training","adjacent","FE","6","5","P.jpg","L.jpg","1","0","0","",""
"","feedback","","html-keyboard-response","288","254917","0.0-1.0-393.0-0.0","0","0","72634","","null","","","null","43","","","","","","","","","","","","","","","",""
"","time_out","","html-keyboard-response","289","256919","0.0-1.0-395.0-0.0","0","0","72634","","null","","","null","43","","","","","","","","","","","","","","","",""
"","ITI","","html-keyboard-response","290","257922","0.0-1.0-396.0","0","0","72634","","null","","","null","43","","","","","","","","","","","","","","","NaN",""
"","S1","","html-keyboard-response","291","258175","0.0-1.0-398.0","0","0","72634","","null","","","null","44","","","","","","","","","","","","","","","",""
"","ISI","","html-keyboard-response","292","258327","0.0-1.0-399.0","0","0","72634","","null","","","null","44","NaN","","","","","","","","","","","","","","",""
"","S2","","html-keyboard-response","293","258580","0.0-1.0-400.0","0","0","72634","","null","","","null","44","","NaN","","","","","","","","","","","","","",""
"","response","","html-keyboard-response","294","258618","0.0-1.0-401.0-0.0","0","0","72634","","36","","","75","44","","","1","44","training","adjacent","BC","2","3","M.jpg","O.jpg","0","1","0","",""
"","feedback","","html-keyboard-response","295","259621","0.0-1.0-402.0-0.0","0","0","72634","","null","","","null","44","","","","","","","","","","","","","","","",""
"","time_out","","html-keyboard-response","296","261623","0.0-1.0-404.0-0.0","0","0","72634","","null","","","null","44","","","","","","","","","","","","","","","",""
"","ITI","","html-keyboard-response","297","262626","0.0-1.0-405.0","0","0","72634","","null","","","null","44","","","","","","","","","","","","","","","NaN",""
"","S1","","html-keyboard-response","298","262879","0.0-1.0-407.0","0","0","72634","","null","","","null","45","","","","","","","","","","","","","","","",""
"","ISI","","html-keyboard-response","299","263033","0.0-1.0-408.0","0","0","72634","","null","","","null","45","NaN","","","","","","","","","","","","","","",""
"","S2","","html-keyboard-response","300","263286","0.0-1.0-409.0","0","0","72634","","null","","","null","45","","NaN","","","","","","","","","","","","","",""
"","response","","html-keyboard-response","301","263370","0.0-1.0-410.0-0.0","0","0","72634","","82","","","68","45","","","1","45","training","adjacent","FE","6","5","P.jpg","L.jpg","1","0","0","",""
"","feedback","","html-keyboard-response","302","264373","0.0-1.0-411.0-0.0","0","0","72634","","null","","","null","45","","","","","","","","","","","","","","","",""
"","time_out","","html-keyboard-response","303","266377","0.0-1.0-413.0-0.0","0","0","72634","","null","","","null","45","","","","","","","","","","","","","","","",""
"","ITI","","html-keyboard-response","304","267380","0.0-1.0-414.0","0","0","72634","","null","","","null","45","","","","","","","","","","","","","","","NaN",""
"","S1","","html-keyboard-response","305","267633","0.0-1.0-416.0","0","0","72634","","null","","","null","46","","","","","","","","","","","","","","","",""
"","ISI","","html-keyboard-response","306","267785","0.0-1.0-417.0","0","0","72634","","null","","","null","46","NaN","","","","","","","","","","","","","","",""
"","S2","","html-keyboard-response","307","268038","0.0-1.0-418.0","0","0","72634","","null","","","null","46","","NaN","","","","","","","","","","","","","",""
"","response","","html-keyboard-response","308","268073","0.0-1.0-419.0-0.0","0","0","72634","","34","","","75","46","","","1","46","training","adjacent","DE","4","5","R.jpg","L.jpg","0","1","0","",""
"","feedback","","html-keyboard-response","309","269076","0.0-1.0-420.0-0.0","0","0","72634","","null","","","null","46","","","","","","","","","","","","","","","",""
"","time_out","","html-keyboard-response","310","271079","0.0-1.0-422.0-0.0","0","0","72634","","null","","","null","46","","","","","","","","","","","","","","","",""
"","ITI","","html-keyboard-response","311","272082","0.0-1.0-423.0","0","0","72634","","null","","","null","46","","","","","","","","","","","","","","","NaN",""
"","S1","","html-keyboard-response","312","272335","0.0-1.0-425.0","0","0","72634","","null","","","null","47","","","","","","","","","","","","","","","",""
"","ISI","","html-keyboard-response","313","272487","0.0-1.0-426.0","0","0","72634","","null","","","null","47","NaN","","","","","","","","","","","","","","",""
"","S2","","html-keyboard-response","314","272740","0.0-1.0-427.0","0","0","72634","","null","","","null","47","","NaN","","","","","","","","","","","","","",""
"","response","","html-keyboard-response","315","272842","0.0-1.0-428.0-0.0","0","0","72634","","101","","","68","47","","","1","47","training","adjacent","EF","5","6","L.jpg","P.jpg","1","1","1","",""
"","feedback","","html-keyboard-response","316","273844","0.0-1.0-429.0-0.0","0","0","72634","","null","","","null","47","","","","","","","","","","","","","","","",""
"","ITI","","html-keyboard-response","317","274847","0.0-1.0-432.0","0","0","72634","","null","","","null","47","","","","","","","","","","","","","","","NaN",""
"","block_over","","html-keyboard-response","318","282345","0.0-1.0-433.0-0.0","0","0","72634","","7495","","","32","47","","","","","","","","","","","","","","","",""
"","S1","","html-keyboard-response","319","282598","0.0-1.0-434.0","0","0","72634","","null","","","null","48","","","","","","","","","","","","","","","",""
"","ISI","","html-keyboard-response","320","282751","0.0-1.0-435.0","0","0","72634","","null","","","null","48","NaN","","","","","","","","","","","","","","",""
"","S2","","html-keyboard-response","321","283003","0.0-1.0-436.0","0","0","72634","","null","","","null","48","","NaN","","","","","","","","","","","","","",""
"","response","","html-keyboard-response","322","283609","0.0-1.0-437.0-0.0","0","0","72634","","604","","","68","48","","","2","48","training","adjacent","FG","6","7","P.jpg","N.jpg","1","1","1","",""
"","feedback","","html-keyboard-response","323","284612","0.0-1.0-438.0-0.0","0","0","72634","","null","","","null","48","","","","","","","","","","","","","","","",""
"","ITI","","html-keyboard-response","324","285615","0.0-1.0-441.0","0","0","72634","","null","","","null","48","","","","","","","","","","","","","","","NaN",""
"","S1","","html-keyboard-response","325","285868","0.0-1.0-443.0","0","0","72634","","null","","","null","49","","","","","","","","","","","","","","","",""
"","ISI","","html-keyboard-response","326","286021","0.0-1.0-444.0","0","0","72634","","null","","","null","49","NaN","","","","","","","","","","","","","","",""
"","S2","","html-keyboard-response","327","286274","0.0-1.0-445.0","0","0","72634","","null","","","null","49","","NaN","","","","","","","","","","","","","",""
"","response","","html-keyboard-response","328","286505","0.0-1.0-446.0-0.0","0","0","72634","","228","","","75","49","","","2","49","training","adjacent","EF","5","6","L.jpg","P.jpg","0","1","0","",""
"","feedback","","html-keyboard-response","329","287508","0.0-1.0-447.0-0.0","0","0","72634","","null","","","null","49","","","","","","","","","","","","","","","",""
"","time_out","","html-keyboard-response","330","289511","0.0-1.0-449.0-0.0","0","0","72634","","null","","","null","49","","","","","","","","","","","","","","","",""
"","ITI","","html-keyboard-response","331","290513","0.0-1.0-450.0","0","0","72634","","null","","","null","49","","","","","","","","","","","","","","","NaN",""
"","S1","","html-keyboard-response","332","290766","0.0-1.0-452.0","0","0","72634","","null","","","null","50","","","","","","","","","","","","","","","",""
"","ISI","","html-keyboard-response","333","290919","0.0-1.0-453.0","0","0","72634","","null","","","null","50","NaN","","","","","","","","","","","","","","",""
"","S2","","html-keyboard-response","334","291172","0.0-1.0-454.0","0","0","72634","","null","","","null","50","","NaN","","","","","","","","","","","","","",""
"","response","","html-keyboard-response","335","291216","0.0-1.0-455.0-0.0","0","0","72634","","43","","","68","50","","","2","50","training","adjacent","EF","5","6","L.jpg","P.jpg","1","1","1","",""
"","feedback","","html-keyboard-response","336","292220","0.0-1.0-456.0-0.0","0","0","72634","","null","","","null","50","","","","","","","","","","","","","","","",""
"","ITI","","html-keyboard-response","337","293222","0.0-1.0-459.0","0","0","72634","","null","","","null","50","","","","","","","","","","","","","","","NaN",""
"","S1","","html-keyboard-response","338","293474","0.0-1.0-461.0","0","0","72634","","null","","","null","51","","","","","","","","","","","","","","","",""
"","ISI","","html-keyboard-response","339","293626","0.0-1.0-462.0","0","0","72634","","null","","","null","51","NaN","","","","","","","","","","","","","","",""
"","S2","","html-keyboard-response","340","293881","0.0-1.0-463.0","0","0","72634","","null","","","null","51","","NaN","","","","","","","","","","","","","",""
"","response","","html-keyboard-response","341","294057","0.0-1.0-464.0-0.0","0","0","72634","","175","","","68","51","","","2","51","training","adjacent","GF","7","6","N.jpg","P.jpg","1","0","0","",""
"","feedback","","html-keyboard-response","342","295060","0.0-1.0-465.0-0.0","0","0","72634","","null","","","null","51","","","","","","","","","","","","","","","",""
"","time_out","","html-keyboard-response","343","297063","0.0-1.0-467.0-0.0","0","0","72634","","null","","","null","51","","","","","","","","","","","","","","","",""
"","ITI","","html-keyboard-response","344","298067","0.0-1.0-468.0","0","0","72634","","null","","","null","51","","","","","","","","","","","","","","","NaN",""
"","S1","","html-keyboard-response","345","298321","0.0-1.0-470.0","0","0","72634","","null","","","null","52","","","","","","","","","","","","","","","",""
"","ISI","","html-keyboard-response","346","298474","0.0-1.0-471.0","0","0","72634","","null","","","null","52","NaN","","","","","","","","","","","","","","",""
"","S2","","html-keyboard-response","347","298727","0.0-1.0-472.0","0","0","72634","","null","","","null","52","","NaN","","","","","","","","","","","","","",""
"","response","","html-keyboard-response","348","298737","0.0-1.0-473.0-0.0","0","0","72634","","8","","","75","52","","","2","52","training","adjacent","CB","3","2","O.jpg","M.jpg","0","0","1","",""
"","feedback","","html-keyboard-response","349","299740","0.0-1.0-474.0-0.0","0","0","72634","","null","","","null","52","","","","","","","","","","","","","","","",""
"","ITI","","html-keyboard-response","350","300743","0.0-1.0-477.0","0","0","72634","","null","","","null","52","","","","","","","","","","","","","","","NaN",""
"","S1","","html-keyboard-response","351","300996","0.0-1.0-479.0","0","0","72634","","null","","","null","53","","","","","","","","","","","","","","","",""
"","ISI","","html-keyboard-response","352","301149","0.0-1.0-480.0","0","0","72634","","null","","","null","53","NaN","","","","","","","","","","","","","","",""
"","S2","","html-keyboard-response","353","301402","0.0-1.0-481.0","0","0","72634","","null","","","null","53","","NaN","","","","","","","","","","","","","",""
"","response","","html-keyboard-response","354","301593","0.0-1.0-482.0-0.0","0","0","72634","","188","","","68","53","","","2","53","training","adjacent","AB","1","2","Q.jpg","M.jpg","1","1","1","",""
"","feedback","","html-keyboard-response","355","302596","0.0-1.0-483.0-0.0","0","0","72634","","null","","","null","53","","","","","","","","","","","","","","","",""
"","ITI","","html-keyboard-response","356","303599","0.0-1.0-486.0","0","0","72634","","null","","","null","53","","","","","","","","","","","","","","","NaN",""
"","S1","","html-keyboard-response","357","303852","0.0-1.0-488.0","0","0","72634","","null","","","null","54","","","","","","","","","","","","","","","",""
"","ISI","","html-keyboard-response","358","304007","0.0-1.0-489.0","0","0","72634","","null","","","null","54","NaN","","","","","","","","","","","","","","",""
"","S2","","html-keyboard-response","359","304260","0.0-1.0-490.0","0","0","72634","","null","","","null","54","","NaN","","","","","","","","","","","","","",""
"","response","","html-keyboard-response","360","304409","0.0-1.0-491.0-0.0","0","0","72634","","147","","","75","54","","","2","54","training","adjacent","FE","6","5","P.jpg","L.jpg","0","0","1","",""
"","feedback","","html-keyboard-response","361","305412","0.0-1.0-492.0-0.0","0","0","72634","","null","","","null","54","","","","","","","","","","","","","","","",""
"","ITI","","html-keyboard-response","362","306416","0.0-1.0-495.0","0","0","72634","","null","","","null","54","","","","","","","","","","","","","","","NaN",""
"","S1","","html-keyboard-response","363","306668","0.0-1.0-497.0","0","0","72634","","null","","","null","55","","","","","","","","","","","","","","","",""
"","ISI","","html-keyboard-response","364","306821","0.0-1.0-498.0","0","0","72634","","null","","","null","55","NaN","","","","","","","","","","","","","","",""
"","S2","","html-keyboard-response","365","307074","0.0-1.0-499.0","0","0","72634","","null","","","null","55","","NaN","","","","","","","","","","","","","",""
"","response","","html-keyboard-response","366","307369","0.0-1.0-500.0-0.0","0","0","72634","","294","","","68","55","","","2","55","training","adjacent","GF","7","6","N.jpg","P.jpg","1","0","0","",""
"","feedback","","html-keyboard-response","367","308372","0.0-1.0-501.0-0.0","0","0","72634","","null","","","null","55","","","","","","","","","","","","","","","",""
"","time_out","","html-keyboard-response","368","310376","0.0-1.0-503.0-0.0","0","0","72634","","null","","","null","55","","","","","","","","","","","","","","","",""
"","ITI","","html-keyboard-response","369","311378","0.0-1.0-504.0","0","0","72634","","null","","","null","55","","","","","","","","","","","","","","","NaN",""
"","S1","","html-keyboard-response","370","311631","0.0-1.0-506.0","0","0","72634","","null","","","null","56","","","","","","","","","","","","","","","",""
"","ISI","","html-keyboard-response","371","311783","0.0-1.0-507.0","0","0","72634","","null","","","null","56","NaN","","","","","","","","","","","","","","",""
"","S2","","html-keyboard-response","372","312037","0.0-1.0-508.0","0","0","72634","","null","","","null","56","","NaN","","","","","","","","","","","","","",""
"","response","","html-keyboard-response","373","312064","0.0-1.0-509.0-0.0","0","0","72634","","26","","","75","56","","","2","56","training","adjacent","BC","2","3","M.jpg","O.jpg","0","1","0","",""
"","feedback","","html-keyboard-response","374","313068","0.0-1.0-510.0-0.0","0","0","72634","","null","","","null","56","","","","","","","","","","","","","","","",""
"","time_out","","html-keyboard-response","375","315070","0.0-1.0-512.0-0.0","0","0","72634","","null","","","null","56","","","","","","","","","","","","","","","",""
"","ITI","","html-keyboard-response","376","316074","0.0-1.0-513.0","0","0","72634","","null","","","null","56","","","","","","","","","","","","","","","NaN",""
"","S1","","html-keyboard-response","377","316326","0.0-1.0-515.0","0","0","72634","","null","","","null","57","","","","","","","","","","","","","","","",""
"","ISI","","html-keyboard-response","378","316478","0.0-1.0-516.0","0","0","72634","","null","","","null","57","NaN","","","","","","","","","","","","","","",""
"","S2","","html-keyboard-response","379","316731","0.0-1.0-517.0","0","0","72634","","null","","","null","57","","NaN","","","","","","","","","","","","","",""
"","response","","html-keyboard-response","380","316921","0.0-1.0-518.0-0.0","0","0","72634","","189","","","68","57","","","2","57","training","adjacent","FG","6","7","P.jpg","N.jpg","1","1","1","",""
"","feedback","","html-keyboard-response","381","317924","0.0-1.0-519.0-0.0","0","0","72634","","null","","","null","57","","","","","","","","","","","","","","","",""
"","ITI","","html-keyboard-response","382","318928","0.0-1.0-522.0","0","0","72634","","null","","","null","57","","","","","","","","","","","","","","","NaN",""
"","S1","","html-keyboard-response","383","319181","0.0-1.0-524.0","0","0","72634","","null","","","null","58","","","","","","","","","","","","","","","",""
"","ISI","","html-keyboard-response","384","319333","0.0-1.0-525.0","0","0","72634","","null","","","null","58","NaN","","","","","","","","","","","","","","",""
"","S2","","html-keyboard-response","385","319587","0.0-1.0-526.0","0","0","72634","","null","","","null","58","","NaN","","","","","","","","","","","","","",""
"","response","","html-keyboard-response","386","319617","0.0-1.0-527.0-0.0","0","0","72634","","28","","","68","58","","","2","58","training","adjacent","EF","5","6","L.jpg","P.jpg","1","1","1","",""
"","feedback","","html-keyboard-response","387","320620","0.0-1.0-528.0-0.0","0","0","72634","","null","","","null","58","","","","","","","","","","","","","","","",""
"","ITI","","html-keyboard-response","388","321622","0.0-1.0-531.0","0","0","72634","","null","","","null","58","","","","","","","","","","","","","","","NaN",""
"","S1","","html-keyboard-response","389","321876","0.0-1.0-533.0","0","0","72634","","null","","","null","59","","","","","","","","","","","","","","","",""
"","ISI","","html-keyboard-response","390","322028","0.0-1.0-534.0","0","0","72634","","null","","","null","59","NaN","","","","","","","","","","","","","","",""
"","S2","","html-keyboard-response","391","322283","0.0-1.0-535.0","0","0","72634","","null","","","null","59","","NaN","","","","","","","","","","","","","",""
"","response","","html-keyboard-response","392","322353","0.0-1.0-536.0-0.0","0","0","72634","","68","","","68","59","","","2","59","training","adjacent","CD","3","4","O.jpg","R.jpg","1","1","1","",""
"","feedback","","html-keyboard-response","393","323356","0.0-1.0-537.0-0.0","0","0","72634","","null","","","null","59","","","","","","","","","","","","","","","",""
"","ITI","","html-keyboard-response","394","324359","0.0-1.0-540.0","0","0","72634","","null","","","null","59","","","","","","","","","","","","","","","NaN",""
"","S1","","html-keyboard-response","395","324612","0.0-1.0-542.0","0","0","72634","","null","","","null","60","","","","","","","","","","","","","","","",""
"","ISI","","html-keyboard-response","396","324765","0.0-1.0-543.0","0","0","72634","","null","","","null","60","NaN","","","","","","","","","","","","","","",""
"","S2","","html-keyboard-response","397","325018","0.0-1.0-544.0","0","0","72634","","null","","","null","60","","NaN","","","","","","","","","","","","","",""
"","response","","html-keyboard-response","398","325137","0.0-1.0-545.0-0.0","0","0","72634","","116","","","75","60","","","2","60","training","adjacent","CD","3","4","O.jpg","R.jpg","0","1","0","",""
"","feedback","","html-keyboard-response","399","326140","0.0-1.0-546.0-0.0","0","0","72634","","null","","","null","60","","","","","","","","","","","","","","","",""
"","time_out","","html-keyboard-response","400","328144","0.0-1.0-548.0-0.0","0","0","72634","","null","","","null","60","","","","","","","","","","","","","","","",""
"","ITI","","html-keyboard-response","401","329147","0.0-1.0-549.0","0","0","72634","","null","","","null","60","","","","","","","","","","","","","","","NaN",""
"","S1","","html-keyboard-response","402","329399","0.0-1.0-551.0","0","0","72634","","null","","","null","61","","","","","","","","","","","","","","","",""
"","ISI","","html-keyboard-response","403","329552","0.0-1.0-552.0","0","0","72634","","null","","","null","61","NaN","","","","","","","","","","","","","","",""
"","S2","","html-keyboard-response","404","329805","0.0-1.0-553.0","0","0","72634","","null","","","null","61","","NaN","","","","","","","","","","","","","",""
"","response","","html-keyboard-response","405","329865","0.0-1.0-554.0-0.0","0","0","72634","","58","","","68","61","","","2","61","training","adjacent","CD","3","4","O.jpg","R.jpg","1","1","1","",""
"","feedback","","html-keyboard-response","406","330868","0.0-1.0-555.0-0.0","0","0","72634","","null","","","null","61","","","","","","","","","","","","","","","",""
"","ITI","","html-keyboard-response","407","331871","0.0-1.0-558.0","0","0","72634","","null","","","null","61","","","","","","","","","","","","","","","NaN",""
"","S1","","html-keyboard-response","408","332124","0.0-1.0-560.0","0","0","72634","","null","","","null","62","","","","","","","","","","","","","","","",""
"","ISI","","html-keyboard-response","409","332275","0.0-1.0-561.0","0","0","72634","","null","","","null","62","NaN","","","","","","","","","","","","","","",""
"","S2","","html-keyboard-response","410","332531","0.0-1.0-562.0","0","0","72634","","null","","","null","62","","NaN","","","","","","","","","","","","","",""
"","response","","html-keyboard-response","411","332657","0.0-1.0-563.0-0.0","0","0","72634","","124","","","68","62","","","2","62","training","adjacent","DE","4","5","R.jpg","L.jpg","1","1","1","",""
"","feedback","","html-keyboard-response","412","333660","0.0-1.0-564.0-0.0","0","0","72634","","null","","","null","62","","","","","","","","","","","","","","","",""
"","ITI","","html-keyboard-response","413","334662","0.0-1.0-567.0","0","0","72634","","null","","","null","62","","","","","","","","","","","","","","","NaN",""
"","S1","","html-keyboard-response","414","334916","0.0-1.0-569.0","0","0","72634","","null","","","null","63","","","","","","","","","","","","","","","",""
"","ISI","","html-keyboard-response","415","335068","0.0-1.0-570.0","0","0","72634","","null","","","null","63","NaN","","","","","","","","","","","","","","",""
"","S2","","html-keyboard-response","416","335321","0.0-1.0-571.0","0","0","72634","","null","","","null","63","","NaN","","","","","","","","","","","","","",""
"","response","","html-keyboard-response","417","335416","0.0-1.0-572.0-0.0","0","0","72634","","93","","","68","63","","","2","63","training","adjacent","ED","5","4","L.jpg","R.jpg","1","0","0","",""
"","feedback","","html-keyboard-response","418","336420","0.0-1.0-573.0-0.0","0","0","72634","","null","","","null","63","","","","","","","","","","","","","","","",""
"","time_out","","html-keyboard-response","419","338423","0.0-1.0-575.0-0.0","0","0","72634","","null","","","null","63","","","","","","","","","","","","","","","",""
"","ITI","","html-keyboard-response","420","339427","0.0-1.0-576.0","0","0","72634","","null","","","null","63","","","","","","","","","","","","","","","NaN",""
"","S1","","html-keyboard-response","421","339679","0.0-1.0-578.0","0","0","72634","","null","","","null","64","","","","","","","","","","","","","","","",""
"","ISI","","html-keyboard-response","422","339831","0.0-1.0-579.0","0","0","72634","","null","","","null","64","NaN","","","","","","","","","","","","","","",""
"","S2","","html-keyboard-response","423","340084","0.0-1.0-580.0","0","0","72634","","null","","","null","64","","NaN","","","","","","","","","","","","","",""
"","response","","html-keyboard-response","424","340090","0.0-1.0-581.0-0.0","0","0","72634","","2","","","75","64","","","2","64","training","adjacent","BC","2","3","M.jpg","O.jpg","0","1","0","",""
"","feedback","","html-keyboard-response","425","341093","0.0-1.0-582.0-0.0","0","0","72634","","null","","","null","64","","","","","","","","","","","","","","","",""
"","time_out","","html-keyboard-response","426","343096","0.0-1.0-584.0-0.0","0","0","72634","","null","","","null","64","","","","","","","","","","","","","","","",""
"","ITI","","html-keyboard-response","427","344098","0.0-1.0-585.0","0","0","72634","","null","","","null","64","","","","","","","","","","","","","","","NaN",""
"","S1","","html-keyboard-response","428","344355","0.0-1.0-587.0","0","0","72634","","null","","","null","65","","","","","","","","","","","","","","","",""
"","ISI","","html-keyboard-response","429","344507","0.0-1.0-588.0","0","0","72634","","null","","","null","65","NaN","","","","","","","","","","","","","","",""
"","S2","","html-keyboard-response","430","344760","0.0-1.0-589.0","0","0","72634","","null","","","null","65","","NaN","","","","","","","","","","","","","",""
"","response","","html-keyboard-response","431","344784","0.0-1.0-590.0-0.0","0","0","72634","","22","","","75","65","","","2","65","training","adjacent","BC","2","3","M.jpg","O.jpg","0","1","0","",""
"","feedback","","html-keyboard-response","432","345787","0.0-1.0-591.0-0.0","0","0","72634","","null","","","null","65","","","","","","","","","","","","","","","",""
"","time_out","","html-keyboard-response","433","347790","0.0-1.0-593.0-0.0","0","0","72634","","null","","","null","65","","","","","","","","","","","","","","","",""
"","ITI","","html-keyboard-response","434","348793","0.0-1.0-594.0","0","0","72634","","null","","","null","65","","","","","","","","","","","","","","","NaN",""
"","S1","","html-keyboard-response","435","349045","0.0-1.0-596.0","0","0","72634","","null","","","null","66","","","","","","","","","","","","","","","",""
"","ISI","","html-keyboard-response","436","349198","0.0-1.0-597.0","0","0","72634","","null","","","null","66","NaN","","","","","","","","","","","","","","",""
"","S2","","html-keyboard-response","437","349451","0.0-1.0-598.0","0","0","72634","","null","","","null","66","","NaN","","","","","","","","","","","","","",""
"","response","","html-keyboard-response","438","349496","0.0-1.0-599.0-0.0","0","0","72634","","44","","","75","66","","","2","66","training","adjacent","GF","7","6","N.jpg","P.jpg","0","0","1","",""
"","feedback","","html-keyboard-response","439","350499","0.0-1.0-600.0-0.0","0","0","72634","","null","","","null","66","","","","","","","","","","","","","","","",""
"","ITI","","html-keyboard-response","440","351502","0.0-1.0-603.0","0","0","72634","","null","","","null","66","","","","","","","","","","","","","","","NaN",""
"","S1","","html-keyboard-response","441","351755","0.0-1.0-605.0","0","0","72634","","null","","","null","67","","","","","","","","","","","","","","","",""
"","ISI","","html-keyboard-response","442","351907","0.0-1.0-606.0","0","0","72634","","null","","","null","67","NaN","","","","","","","","","","","","","","",""
"","S2","","html-keyboard-response","443","352161","0.0-1.0-607.0","0","0","72634","","null","","","null","67","","NaN","","","","","","","","","","","","","",""
"","response","","html-keyboard-response","444","352240","0.0-1.0-608.0-0.0","0","0","72634","","77","","","68","67","","","2","67","training","adjacent","DC","4","3","R.jpg","O.jpg","1","0","0","",""
"","feedback","","html-keyboard-response","445","353243","0.0-1.0-609.0-0.0","0","0","72634","","null","","","null","67","","","","","","","","","","","","","","","",""
"","time_out","","html-keyboard-response","446","355245","0.0-1.0-611.0-0.0","0","0","72634","","null","","","null","67","","","","","","","","","","","","","","","",""
"","ITI","","html-keyboard-response","447","356248","0.0-1.0-612.0","0","0","72634","","null","","","null","67","","","","","","","","","","","","","","","NaN",""
"","S1","","html-keyboard-response","448","356501","0.0-1.0-614.0","0","0","72634","","null","","","null","68","","","","","","","","","","","","","","","",""
"","ISI","","html-keyboard-response","449","356653","0.0-1.0-615.0","0","0","72634","","null","","","null","68","NaN","","","","","","","","","","","","","","",""
"","S2","","html-keyboard-response","450","356906","0.0-1.0-616.0","0","0","72634","","null","","","null","68","","NaN","","","","","","","","","","","","","",""
"","response","","html-keyboard-response","451","356953","0.0-1.0-617.0-0.0","0","0","72634","","44","","","68","68","","","2","68","training","adjacent","ED","5","4","L.jpg","R.jpg","1","0","0","",""
"","feedback","","html-keyboard-response","452","357956","0.0-1.0-618.0-0.0","0","0","72634","","null","","","null","68","","","","","","","","","","","","","","","",""
"","time_out","","html-keyboard-response","453","359959","0.0-1.0-620.0-0.0","0","0","72634","","null","","","null","68","","","","","","","","","","","","","","","",""
"","ITI","","html-keyboard-response","454","360962","0.0-1.0-621.0","0","0","72634","","null","","","null","68","","","","","","","","","","","","","","","NaN",""
"","S1","","html-keyboard-response","455","361215","0.0-1.0-623.0","0","0","72634","","null","","","null","69","","","","","","","","","","","","","","","",""
"","ISI","","html-keyboard-response","456","361368","0.0-1.0-624.0","0","0","72634","","null","","","null","69","NaN","","","","","","","","","","","","","","",""
"","S2","","html-keyboard-response","457","361621","0.0-1.0-625.0","0","0","72634","","null","","","null","69","","NaN","","","","","","","","","","","","","",""
"","response","","html-keyboard-response","458","361968","0.0-1.0-626.0-0.0","0","0","72634","","345","","","68","69","","","2","69","training","adjacent","GF","7","6","N.jpg","P.jpg","1","0","0","",""
"","feedback","","html-keyboard-response","459","362972","0.0-1.0-627.0-0.0","0","0","72634","","null","","","null","69","","","","","","","","","","","","","","","",""
"","time_out","","html-keyboard-response","460","364976","0.0-1.0-629.0-0.0","0","0","72634","","null","","","null","69","","","","","","","","","","","","","","","",""
"","ITI","","html-keyboard-response","461","365978","0.0-1.0-630.0","0","0","72634","","null","","","null","69","","","","","","","","","","","","","","","NaN",""
"","S1","","html-keyboard-response","462","366242","0.0-1.0-632.0","0","0","72634","","null","","","null","70","","","","","","","","","","","","","","","",""
"","ISI","","html-keyboard-response","463","366395","0.0-1.0-633.0","0","0","72634","","null","","","null","70","NaN","","","","","","","","","","","","","","",""
"","S2","","html-keyboard-response","464","366648","0.0-1.0-634.0","0","0","72634","","null","","","null","70","","NaN","","","","","","","","","","","","","",""
"","response","","html-keyboard-response","465","366656","0.0-1.0-635.0-0.0","0","0","72634","","6","","","75","70","","","2","70","training","adjacent","FG","6","7","P.jpg","N.jpg","0","1","0","",""
"","feedback","","html-keyboard-response","466","367659","0.0-1.0-636.0-0.0","0","0","72634","","null","","","null","70","","","","","","","","","","","","","","","",""
"","time_out","","html-keyboard-response","467","369663","0.0-1.0-638.0-0.0","0","0","72634","","null","","","null","70","","","","","","","","","","","","","","","",""
"","ITI","","html-keyboard-response","468","370666","0.0-1.0-639.0","0","0","72634","","null","","","null","70","","","","","","","","","","","","","","","NaN",""
"","S1","","html-keyboard-response","469","370919","0.0-1.0-641.0","0","0","72634","","null","","","null","71","","","","","","","","","","","","","","","",""
"","ISI","","html-keyboard-response","470","371071","0.0-1.0-642.0","0","0","72634","","null","","","null","71","NaN","","","","","","","","","","","","","","",""
"","S2","","html-keyboard-response","471","371323","0.0-1.0-643.0","0","0","72634","","null","","","null","71","","NaN","","","","","","","","","","","","","",""
"","response","","html-keyboard-response","472","371513","0.0-1.0-644.0-0.0","0","0","72634","","187","","","75","71","","","2","71","training","adjacent","DE","4","5","R.jpg","L.jpg","0","1","0","",""
"","feedback","","html-keyboard-response","473","372516","0.0-1.0-645.0-0.0","0","0","72634","","null","","","null","71","","","","","","","","","","","","","","","",""
"","time_out","","html-keyboard-response","474","374518","0.0-1.0-647.0-0.0","0","0","72634","","null","","","null","71","","","","","","","","","","","","","","","",""
"","ITI","","html-keyboard-response","475","375531","0.0-1.0-648.0","0","0","72634","","null","","","null","71","","","","","","","","","","","","","","","NaN",""
"","S1","","html-keyboard-response","476","375783","0.0-1.0-650.0","0","0","72634","","null","","","null","72","","","","","","","","","","","","","","","",""
"","ISI","","html-keyboard-response","477","375936","0.0-1.0-651.0","0","0","72634","","null","","","null","72","NaN","","","","","","","","","","","","","","",""
"","S2","","html-keyboard-response","478","376189","0.0-1.0-652.0","0","0","72634","","null","","","null","72","","NaN","","","","","","","","","","","","","",""
"","response","","html-keyboard-response","479","376416","0.0-1.0-653.0-0.0","0","0","72634","","225","","","75","72","","","2","72","training","adjacent","DC","4","3","R.jpg","O.jpg","0","0","1","",""
"","feedback","","html-keyboard-response","480","377419","0.0-1.0-654.0-0.0","0","0","72634","","null","","","null","72","","","","","","","","","","","","","","","",""
"","ITI","","html-keyboard-response","481","378423","0.0-1.0-657.0","0","0","72634","","null","","","null","72","","","","","","","","","","","","","","","NaN",""
"","S1","","html-keyboard-response","482","378677","0.0-1.0-659.0","0","0","72634","","null","","","null","73","","","","","","","","","","","","","","","",""
"","ISI","","html-keyboard-response","483","378829","0.0-1.0-660.0","0","0","72634","","null","","","null","73","NaN","","","","","","","","","","","","","","",""
"","S2","","html-keyboard-response","484","379082","0.0-1.0-661.0","0","0","72634","","null","","","null","73","","NaN","","","","","","","","","","","","","",""
"","response","","html-keyboard-response","485","379401","0.0-1.0-662.0-0.0","0","0","72634","","317","","","75","73","","","2","73","training","adjacent","BA","2","1","M.jpg","Q.jpg","0","0","1","",""
"","feedback","","html-keyboard-response","486","380405","0.0-1.0-663.0-0.0","0","0","72634","","null","","","null","73","","","","","","","","","","","","","","","",""
"","ITI","","html-keyboard-response","487","381408","0.0-1.0-666.0","0","0","72634","","null","","","null","73","","","","","","","","","","","","","","","NaN",""
"","S1","","html-keyboard-response","488","381660","0.0-1.0-668.0","0","0","72634","","null","","","null","74","","","","","","","","","","","","","","","",""
"","ISI","","html-keyboard-response","489","381812","0.0-1.0-669.0","0","0","72634","","null","","","null","74","NaN","","","","","","","","","","","","","","",""
"","S2","","html-keyboard-response","490","382066","0.0-1.0-670.0","0","0","72634","","null","","","null","74","","NaN","","","","","","","","","","","","","",""
"","response","","html-keyboard-response","491","382296","0.0-1.0-671.0-0.0","0","0","72634","","228","","","68","74","","","2","74","training","adjacent","ED","5","4","L.jpg","R.jpg","1","0","0","",""
"","feedback","","html-keyboard-response","492","383299","0.0-1.0-672.0-0.0","0","0","72634","","null","","","null","74","","","","","","","","","","","","","","","",""
"","time_out","","html-keyboard-response","493","385302","0.0-1.0-674.0-0.0","0","0","72634","","null","","","null","74","","","","","","","","","","","","","","","",""
"","ITI","","html-keyboard-response","494","386306","0.0-1.0-675.0","0","0","72634","","null","","","null","74","","","","","","","","","","","","","","","NaN",""
"","S1","","html-keyboard-response","495","386559","0.0-1.0-677.0","0","0","72634","","null","","","null","75","","","","","","","","","","","","","","","",""
"","ISI","","html-keyboard-response","496","386712","0.0-1.0-678.0","0","0","72634","","null","","","null","75","NaN","","","","","","","","","","","","","","",""
"","S2","","html-keyboard-response","497","386966","0.0-1.0-679.0","0","0","72634","","null","","","null","75","","NaN","","","","","","","","","","","","","",""
"","response","","html-keyboard-response","498","387215","0.0-1.0-680.0-0.0","0","0","72634","","248","","","68","75","","","2","75","training","adjacent","FG","6","7","P.jpg","N.jpg","1","1","1","",""
"","feedback","","html-keyboard-response","499","388218","0.0-1.0-681.0-0.0","0","0","72634","","null","","","null","75","","","","","","","","","","","","","","","",""
"","ITI","","html-keyboard-response","500","389220","0.0-1.0-684.0","0","0","72634","","null","","","null","75","","","","","","","","","","","","","","","NaN",""
"","S1","","html-keyboard-response","501","389473","0.0-1.0-686.0","0","0","72634","","null","","","null","76","","","","","","","","","","","","","","","",""
"","ISI","","html-keyboard-response","502","389626","0.0-1.0-687.0","0","0","72634","","null","","","null","76","NaN","","","","","","","","","","","","","","",""
"","S2","","html-keyboard-response","503","389879","0.0-1.0-688.0","0","0","72634","","null","","","null","76","","NaN","","","","","","","","","","","","","",""
"","response","","html-keyboard-response","504","390176","0.0-1.0-689.0-0.0","0","0","72634","","295","","","68","76","","","2","76","training","adjacent","DE","4","5","R.jpg","L.jpg","1","1","1","",""
"","feedback","","html-keyboard-response","505","391179","0.0-1.0-690.0-0.0","0","0","72634","","null","","","null","76","","","","","","","","","","","","","","","",""
"","ITI","","html-keyboard-response","506","392182","0.0-1.0-693.0","0","0","72634","","null","","","null","76","","","","","","","","","","","","","","","NaN",""
"","S1","","html-keyboard-response","507","392436","0.0-1.0-695.0","0","0","72634","","null","","","null","77","","","","","","","","","","","","","","","",""
"","ISI","","html-keyboard-response","508","392588","0.0-1.0-696.0","0","0","72634","","null","","","null","77","NaN","","","","","","","","","","","","","","",""
"","S2","","html-keyboard-response","509","392841","0.0-1.0-697.0","0","0","72634","","null","","","null","77","","NaN","","","","","","","","","","","","","",""
"","response","","html-keyboard-response","510","393096","0.0-1.0-698.0-0.0","0","0","72634","","253","","","68","77","","","2","77","training","adjacent","FE","6","5","P.jpg","L.jpg","1","0","0","",""
"","feedback","","html-keyboard-response","511","394099","0.0-1.0-699.0-0.0","0","0","72634","","null","","","null","77","","","","","","","","","","","","","","","",""
"","time_out","","html-keyboard-response","512","396101","0.0-1.0-701.0-0.0","0","0","72634","","null","","","null","77","","","","","","","","","","","","","","","",""
"","ITI","","html-keyboard-response","513","397105","0.0-1.0-702.0","0","0","72634","","null","","","null","77","","","","","","","","","","","","","","","NaN",""
"","S1","","html-keyboard-response","514","397358","0.0-1.0-704.0","0","0","72634","","null","","","null","78","","","","","","","","","","","","","","","",""
"","ISI","","html-keyboard-response","515","397511","0.0-1.0-705.0","0","0","72634","","null","","","null","78","NaN","","","","","","","","","","","","","","",""
"","S2","","html-keyboard-response","516","397765","0.0-1.0-706.0","0","0","72634","","null","","","null","78","","NaN","","","","","","","","","","","","","",""
"","response","","html-keyboard-response","517","397879","0.0-1.0-707.0-0.0","0","0","72634","","112","","","75","78","","","2","78","training","adjacent","BA","2","1","M.jpg","Q.jpg","0","0","1","",""
"","feedback","","html-keyboard-response","518","398883","0.0-1.0-708.0-0.0","0","0","72634","","null","","","null","78","","","","","","","","","","","","","","","",""
"","ITI","","html-keyboard-response","519","399887","0.0-1.0-711.0","0","0","72634","","null","","","null","78","","","","","","","","","","","","","","","NaN",""
"","S1","","html-keyboard-response","520","400140","0.0-1.0-713.0","0","0","72634","","null","","","null","79","","","","","","","","","","","","","","","",""
"","ISI","","html-keyboard-response","521","400293","0.0-1.0-714.0","0","0","72634","","null","","","null","79","NaN","","","","","","","","","","","","","","",""
"","S2","","html-keyboard-response","522","400546","0.0-1.0-715.0","0","0","72634","","null","","","null","79","","NaN","","","","","","","","","","","","","",""
"","response","","html-keyboard-response","523","400776","0.0-1.0-716.0-0.0","0","0","72634","","228","","","75","79","","","2","79","training","adjacent","ED","5","4","L.jpg","R.jpg","0","0","1","",""
"","feedback","","html-keyboard-response","524","401779","0.0-1.0-717.0-0.0","0","0","72634","","null","","","null","79","","","","","","","","","","","","","","","",""
"","ITI","","html-keyboard-response","525","402782","0.0-1.0-720.0","0","0","72634","","null","","","null","79","","","","","","","","","","","","","","","NaN",""
"","S1","","html-keyboard-response","526","403035","0.0-1.0-722.0","0","0","72634","","null","","","null","80","","","","","","","","","","","","","","","",""
"","ISI","","html-keyboard-response","527","403188","0.0-1.0-723.0","0","0","72634","","null","","","null","80","NaN","","","","","","","","","","","","","","",""
"","S2","","html-keyboard-response","528","403442","0.0-1.0-724.0","0","0","72634","","null","","","null","80","","NaN","","","","","","","","","","","","","",""
"","response","","html-keyboard-response","529","403655","0.0-1.0-725.0-0.0","0","0","72634","","211","","","68","80","","","2","80","training","adjacent","DE","4","5","R.jpg","L.jpg","1","1","1","",""
"","feedback","","html-keyboard-response","530","404658","0.0-1.0-726.0-0.0","0","0","72634","","null","","","null","80","","","","","","","","","","","","","","","",""
"","ITI","","html-keyboard-response","531","405661","0.0-1.0-729.0","0","0","72634","","null","","","null","80","","","","","","","","","","","","","","","NaN",""
"","S1","","html-keyboard-response","532","405915","0.0-1.0-731.0","0","0","72634","","null","","","null","81","","","","","","","","","","","","","","","",""
"","ISI","","html-keyboard-response","533","406068","0.0-1.0-732.0","0","0","72634","","null","","","null","81","NaN","","","","","","","","","","","","","","",""
"","S2","","html-keyboard-response","534","406331","0.0-1.0-733.0","0","0","72634","","null","","","null","81","","NaN","","","","","","","","","","","","","",""
"","response","","html-keyboard-response","535","406584","0.0-1.0-734.0-0.0","0","0","72634","","251","","","68","81","","","2","81","training","adjacent","AB","1","2","Q.jpg","M.jpg","1","1","1","",""
"","feedback","","html-keyboard-response","536","407587","0.0-1.0-735.0-0.0","0","0","72634","","null","","","null","81","","","","","","","","","","","","","","","",""
"","ITI","","html-keyboard-response","537","408590","0.0-1.0-738.0","0","0","72634","","null","","","null","81","","","","","","","","","","","","","","","NaN",""
"","S1","","html-keyboard-response","538","408843","0.0-1.0-740.0","0","0","72634","","null","","","null","82","","","","","","","","","","","","","","","",""
"","ISI","","html-keyboard-response","539","408995","0.0-1.0-741.0","0","0","72634","","null","","","null","82","NaN","","","","","","","","","","","","","","",""
"","S2","","html-keyboard-response","540","409247","0.0-1.0-742.0","0","0","72634","","null","","","null","82","","NaN","","","","","","","","","","","","","",""
"","response","","html-keyboard-response","541","409480","0.0-1.0-743.0-0.0","0","0","72634","","231","","","75","82","","","2","82","training","adjacent","CB","3","2","O.jpg","M.jpg","0","0","1","",""
"","feedback","","html-keyboard-response","542","410483","0.0-1.0-744.0-0.0","0","0","72634","","null","","","null","82","","","","","","","","","","","","","","","",""
"","ITI","","html-keyboard-response","543","411487","0.0-1.0-747.0","0","0","72634","","null","","","null","82","","","","","","","","","","","","","","","NaN",""
"","S1","","html-keyboard-response","544","411740","0.0-1.0-749.0","0","0","72634","","null","","","null","83","","","","","","","","","","","","","","","",""
"","ISI","","html-keyboard-response","545","411892","0.0-1.0-750.0","0","0","72634","","null","","","null","83","NaN","","","","","","","","","","","","","","",""
"","S2","","html-keyboard-response","546","412144","0.0-1.0-751.0","0","0","72634","","null","","","null","83","","NaN","","","","","","","","","","","","","",""
"","response","","html-keyboard-response","547","412216","0.0-1.0-752.0-0.0","0","0","72634","","69","","","75","83","","","2","83","training","adjacent","CB","3","2","O.jpg","M.jpg","0","0","1","",""
"","feedback","","html-keyboard-response","548","413219","0.0-1.0-753.0-0.0","0","0","72634","","null","","","null","83","","","","","","","","","","","","","","","",""
"","ITI","","html-keyboard-response","549","414222","0.0-1.0-756.0","0","0","72634","","null","","","null","83","","","","","","","","","","","","","","","NaN",""
"","S1","","html-keyboard-response","550","414475","0.0-1.0-758.0","0","0","72634","","null","","","null","84","","","","","","","","","","","","","","","",""
"","ISI","","html-keyboard-response","551","414628","0.0-1.0-759.0","0","0","72634","","null","","","null","84","NaN","","","","","","","","","","","","","","",""
"","S2","","html-keyboard-response","552","414893","0.0-1.0-760.0","0","0","72634","","null","","","null","84","","NaN","","","","","","","","","","","","","",""
"","response","","html-keyboard-response","553","415072","0.0-1.0-761.0-0.0","0","0","72634","","177","","","75","84","","","2","84","training","adjacent","CB","3","2","O.jpg","M.jpg","0","0","1","",""
"","feedback","","html-keyboard-response","554","416075","0.0-1.0-762.0-0.0","0","0","72634","","null","","","null","84","","","","","","","","","","","","","","","",""
"","ITI","","html-keyboard-response","555","417078","0.0-1.0-765.0","0","0","72634","","null","","","null","84","","","","","","","","","","","","","","","NaN",""
"","S1","","html-keyboard-response","556","417331","0.0-1.0-767.0","0","0","72634","","null","","","null","85","","","","","","","","","","","","","","","",""
"","ISI","","html-keyboard-response","557","417483","0.0-1.0-768.0","0","0","72634","","null","","","null","85","NaN","","","","","","","","","","","","","","",""
"","S2","","html-keyboard-response","558","417736","0.0-1.0-769.0","0","0","72634","","null","","","null","85","","NaN","","","","","","","","","","","","","",""
"","response","","html-keyboard-response","559","417920","0.0-1.0-770.0-0.0","0","0","72634","","182","","","68","85","","","2","85","training","adjacent","AB","1","2","Q.jpg","M.jpg","1","1","1","",""
"","feedback","","html-keyboard-response","560","418923","0.0-1.0-771.0-0.0","0","0","72634","","null","","","null","85","","","","","","","","","","","","","","","",""
"","ITI","","html-keyboard-response","561","419926","0.0-1.0-774.0","0","0","72634","","null","","","null","85","","","","","","","","","","","","","","","NaN",""
"","S1","","html-keyboard-response","562","420179","0.0-1.0-776.0","0","0","72634","","null","","","null","86","","","","","","","","","","","","","","","",""
"","ISI","","html-keyboard-response","563","420332","0.0-1.0-777.0","0","0","72634","","null","","","null","86","NaN","","","","","","","","","","","","","","",""
"","S2","","html-keyboard-response","564","420585","0.0-1.0-778.0","0","0","72634","","null","","","null","86","","NaN","","","","","","","","","","","","","",""
"","response","","html-keyboard-response","565","420760","0.0-1.0-779.0-0.0","0","0","72634","","172","","","68","86","","","2","86","training","adjacent","BC","2","3","M.jpg","O.jpg","1","1","1","",""
"","feedback","","html-keyboard-response","566","421763","0.0-1.0-780.0-0.0","0","0","72634","","null","","","null","86","","","","","","","","","","","","","","","",""
"","ITI","","html-keyboard-response","567","422766","0.0-1.0-783.0","0","0","72634","","null","","","null","86","","","","","","","","","","","","","","","NaN",""
"","S1","","html-keyboard-response","568","423019","0.0-1.0-785.0","0","0","72634","","null","","","null","87","","","","","","","","","","","","","","","",""
"","ISI","","html-keyboard-response","569","423172","0.0-1.0-786.0","0","0","72634","","null","","","null","87","NaN","","","","","","","","","","","","","","",""
"","S2","","html-keyboard-response","570","423425","0.0-1.0-787.0","0","0","72634","","null","","","null","87","","NaN","","","","","","","","","","","","","",""
"","response","","html-keyboard-response","571","423680","0.0-1.0-788.0-0.0","0","0","72634","","252","","","75","87","","","2","87","training","adjacent","FE","6","5","P.jpg","L.jpg","0","0","1","",""
"","feedback","","html-keyboard-response","572","424683","0.0-1.0-789.0-0.0","0","0","72634","","null","","","null","87","","","","","","","","","","","","","","","",""
"","ITI","","html-keyboard-response","573","425686","0.0-1.0-792.0","0","0","72634","","null","","","null","87","","","","","","","","","","","","","","","NaN",""
"","S1","","html-keyboard-response","574","425939","0.0-1.0-794.0","0","0","72634","","null","","","null","88","","","","","","","","","","","","","","","",""
"","ISI","","html-keyboard-response","575","426092","0.0-1.0-795.0","0","0","72634","","null","","","null","88","NaN","","","","","","","","","","","","","","",""
"","S2","","html-keyboard-response","576","426345","0.0-1.0-796.0","0","0","72634","","null","","","null","88","","NaN","","","","","","","","","","","","","",""
"","response","","html-keyboard-response","577","426488","0.0-1.0-797.0-0.0","0","0","72634","","141","","","75","88","","","2","88","training","adjacent","CD","3","4","O.jpg","R.jpg","0","1","0","",""
"","feedback","","html-keyboard-response","578","427491","0.0-1.0-798.0-0.0","0","0","72634","","null","","","null","88","","","","","","","","","","","","","","","",""
"","time_out","","html-keyboard-response","579","429495","0.0-1.0-800.0-0.0","0","0","72634","","null","","","null","88","","","","","","","","","","","","","","","",""
"","ITI","","html-keyboard-response","580","430498","0.0-1.0-801.0","0","0","72634","","null","","","null","88","","","","","","","","","","","","","","","NaN",""
"","S1","","html-keyboard-response","581","430751","0.0-1.0-803.0","0","0","72634","","null","","","null","89","","","","","","","","","","","","","","","",""
"","ISI","","html-keyboard-response","582","430905","0.0-1.0-804.0","0","0","72634","","null","","","null","89","NaN","","","","","","","","","","","","","","",""
"","S2","","html-keyboard-response","583","431158","0.0-1.0-805.0","0","0","72634","","null","","","null","89","","NaN","","","","","","","","","","","","","",""
