"success","ttype","start_time","trial_type","trial_index","time_elapsed","internal_node_id","warning","missed_checkup","PID","view_history","rt","responses","repeat_instructions","key_press","index","keypress_isi","keypress_S2","block","trial_num","phase","group_type","pair_type","S1_stim","S2_stim","S1_img","S2_img","S1_chosen","S1_higher","accuracy","keypress_iti","total_bonus_tally"
"true","full_screen","d08012022hr1518","fullscreen","0","9485","0.0-0.0","0","0","21116","","","","","","","","","","","","","","","","","","","","","",""
"","instructions","","instructions","1","50578","0.0-1.0-0.0-0.0","0","0","21116","[{""page_index"":0,""viewing_time"":5540},{""page_index"":1,""viewing_time"":22359},{""page_index"":2,""viewing_time"":10224},{""page_index"":3,""viewing_time"":2968}]","41092","","","","","","","","","","","","","","","","","","","",""
"","comprehension_check","","survey-multi-choice","2","66106","0.0-1.0-0.0-1.0","0","0","21116","","15522","{""Q0"":""True"",""Q1"":""D"",""Q2"":""When you see the prompt 'MAKE A CHOICE' after the second image was presented"",""Q3"":""Green mark"",""Q4"":""either D or K""}","0","","","","","","","","","","","","","","","","","",""
"","start_exp","","html-keyboard-response","3","69397","0.0-1.0-1.0","0","0","21116","","3288","","","32","","","","","","","","","","","","","","","","",""
"","S1","","html-keyboard-response","4","69650","0.0-1.0-2.0","0","0","21116","","null","","","null","0","","","","","","","","","","","","","","","",""
"","ISI","","html-keyboard-response","5","71652","0.0-1.0-3.0","0","0","21116","","null","","","null","0","NaN","","","","","","","","","","","","","","",""
"","S2","","html-keyboard-response","6","71904","0.0-1.0-4.0","0","0","21116","","null","","","null","0","","NaN","","","","","","","","","","","","","",""
"","response","","html-keyboard-response","7","72852","0.0-1.0-5.0","0","0","21116","","946","","","75","0","","","1","0","training","adjacent","CD","3","4","N.jpg","L.jpg","0","1","0","",""
"","feedback","","html-keyboard-response","8","73855","0.0-1.0-6.0-0.0","0","0","21116","","null","","","null","0","","","","","","","","","","","","","","","",""
"","time_out","","html-keyboard-response","9","75857","0.0-1.0-8.0-0.0","0","0","21116","","null","","","null","0","","","","","","","","","","","","","","","",""
"","ITI","","html-keyboard-response","10","76859","0.0-1.0-9.0","0","0","21116","","null","","","null","0","","","","","","","","","","","","","","","NaN",""
"","S1","","html-keyboard-response","11","77113","0.0-1.0-11.0","0","0","21116","","null","","","null","1","","","","","","","","","","","","","","","",""
"","ISI","","html-keyboard-response","12","79115","0.0-1.0-12.0","0","0","21116","","null","","","null","1","NaN","","","","","","","","","","","","","","",""
"","S2","","html-keyboard-response","13","79367","0.0-1.0-13.0","0","0","21116","","null","","","null","1","","NaN","","","","","","","","","","","","","",""
"","response","","html-keyboard-response","14","79765","0.0-1.0-14.0","0","0","21116","","397","","","68","1","","","1","1","training","adjacent","FE","6","5","M.jpg","Q.jpg","1","0","0","",""
"","feedback","","html-keyboard-response","15","80766","0.0-1.0-15.0-0.0","0","0","21116","","null","","","null","1","","","","","","","","","","","","","","","",""
"","time_out","","html-keyboard-response","16","82768","0.0-1.0-17.0-0.0","0","0","21116","","null","","","null","1","","","","","","","","","","","","","","","",""
"","ITI","","html-keyboard-response","17","83769","0.0-1.0-18.0","0","0","21116","","null","","","null","1","","","","","","","","","","","","","","","NaN",""
"","S1","","html-keyboard-response","18","84022","0.0-1.0-20.0","0","0","21116","","null","","","null","2","","","","","","","","","","","","","","","",""
"","ISI","","html-keyboard-response","19","86024","0.0-1.0-21.0","0","0","21116","","null","","","null","2","NaN","","","","","","","","","","","","","","",""
"","S2","","html-keyboard-response","20","86277","0.0-1.0-22.0","0","0","21116","","null","","","null","2","","NaN","","","","","","","","","","","","","",""
"","response","","html-keyboard-response","21","86660","0.0-1.0-23.0","0","0","21116","","381","","","75","2","","","1","2","training","adjacent","AB","1","2","R.jpg","O.jpg","0","1","0","",""
"","feedback","","html-keyboard-response","22","87663","0.0-1.0-24.0-0.0","0","0","21116","","null","","","null","2","","","","","","","","","","","","","","","",""
"","time_out","","html-keyboard-response","23","89664","0.0-1.0-26.0-0.0","0","0","21116","","null","","","null","2","","","","","","","","","","","","","","","",""
"","ITI","","html-keyboard-response","24","90667","0.0-1.0-27.0","0","0","21116","","null","","","null","2","","","","","","","","","","","","","","","NaN",""
"","S1","","html-keyboard-response","25","90919","0.0-1.0-29.0","0","0","21116","","null","","","null","3","","","","","","","","","","","","","","","",""
"","ISI","","html-keyboard-response","26","92921","0.0-1.0-30.0","0","0","21116","","null","","","null","3","NaN","","","","","","","","","","","","","","",""
"","S2","","html-keyboard-response","27","93173","0.0-1.0-31.0","0","0","21116","","null","","","null","3","","NaN","","","","","","","","","","","","","",""
"","response","","html-keyboard-response","28","93797","0.0-1.0-32.0","0","0","21116","","623","","","75","3","","","1","3","training","adjacent","EF","5","6","Q.jpg","M.jpg","0","1","0","",""
"","feedback","","html-keyboard-response","29","94799","0.0-1.0-33.0-0.0","0","0","21116","","null","","","null","3","","","","","","","","","","","","","","","",""
"","time_out","","html-keyboard-response","30","96801","0.0-1.0-35.0-0.0","0","0","21116","","null","","","null","3","","","","","","","","","","","","","","","",""
"","ITI","","html-keyboard-response","31","97804","0.0-1.0-36.0","0","0","21116","","null","","","null","3","","","","","","","","","","","","","","","NaN",""
"","S1","","html-keyboard-response","32","98056","0.0-1.0-38.0","0","0","21116","","null","","","null","4","","","","","","","","","","","","","","","",""
"","ISI","","html-keyboard-response","33","100057","0.0-1.0-39.0","0","0","21116","","null","","","null","4","NaN","","","","","","","","","","","","","","",""
"","S2","","html-keyboard-response","34","100310","0.0-1.0-40.0","0","0","21116","","null","","","null","4","","NaN","","","","","","","","","","","","","",""
"","response","","html-keyboard-response","35","100772","0.0-1.0-41.0","0","0","21116","","461","","","68","4","","","1","4","training","adjacent","DE","4","5","L.jpg","Q.jpg","1","1","1","",""
"","feedback","","html-keyboard-response","36","101775","0.0-1.0-42.0-0.0","0","0","21116","","null","","","null","4","","","","","","","","","","","","","","","",""
"","ITI","","html-keyboard-response","37","102776","0.0-1.0-45.0","0","0","21116","","null","","","null","4","","","","","","","","","","","","","","","NaN",""
"","S1","","html-keyboard-response","38","103028","0.0-1.0-47.0","0","0","21116","","null","","","null","5","","","","","","","","","","","","","","","",""
"","ISI","","html-keyboard-response","39","105030","0.0-1.0-48.0","0","0","21116","","null","","","null","5","NaN","","","","","","","","","","","","","","",""
"","S2","","html-keyboard-response","40","105283","0.0-1.0-49.0","0","0","21116","","null","","","null","5","","NaN","","","","","","","","","","","","","",""
"","response","","html-keyboard-response","41","105508","0.0-1.0-50.0","0","0","21116","","225","","","68","5","","","1","5","training","adjacent","GF","7","6","P.jpg","M.jpg","1","0","0","",""
"","feedback","","html-keyboard-response","42","106510","0.0-1.0-51.0-0.0","0","0","21116","","null","","","null","5","","","","","","","","","","","","","","","",""
"","time_out","","html-keyboard-response","43","108512","0.0-1.0-53.0-0.0","0","0","21116","","null","","","null","5","","","","","","","","","","","","","","","",""
"","ITI","","html-keyboard-response","44","109514","0.0-1.0-54.0","0","0","21116","","null","","","null","5","","","","","","","","","","","","","","","NaN",""
"","S1","","html-keyboard-response","45","109766","0.0-1.0-56.0","0","0","21116","","null","","","null","6","","","","","","","","","","","","","","","",""
"","ISI","","html-keyboard-response","46","111768","0.0-1.0-57.0","0","0","21116","","null","","","null","6","NaN","","","","","","","","","","","","","","",""
"","S2","","html-keyboard-response","47","112020","0.0-1.0-58.0","0","0","21116","","null","","","null","6","","NaN","","","","","","","","","","","","","",""
"","response","","html-keyboard-response","48","112468","0.0-1.0-59.0","0","0","21116","","447","","","68","6","","","1","6","training","adjacent","DC","4","3","L.jpg","N.jpg","1","0","0","",""
"","feedback","","html-keyboard-response","49","113471","0.0-1.0-60.0-0.0","0","0","21116","","null","","","null","6","","","","","","","","","","","","","","","",""
"","time_out","","html-keyboard-response","50","115473","0.0-1.0-62.0-0.0","0","0","21116","","null","","","null","6","","","","","","","","","","","","","","","",""
"","ITI","","html-keyboard-response","51","116476","0.0-1.0-63.0","0","0","21116","","null","","","null","6","","","","","","","","","","","","","","","NaN",""
"","S1","","html-keyboard-response","52","116728","0.0-1.0-65.0","0","0","21116","","null","","","null","7","","","","","","","","","","","","","","","",""
"","ISI","","html-keyboard-response","53","118731","0.0-1.0-66.0","0","0","21116","","null","","","null","7","NaN","","","","","","","","","","","","","","",""
"","S2","","html-keyboard-response","54","118997","0.0-1.0-67.0","0","0","21116","","null","","","null","7","","NaN","","","","","","","","","","","","","",""
"","response","","html-keyboard-response","55","119285","0.0-1.0-68.0","0","0","21116","","285","","","68","7","","","1","7","training","adjacent","BC","2","3","O.jpg","N.jpg","1","1","1","",""
"","feedback","","html-keyboard-response","56","120287","0.0-1.0-69.0-0.0","0","0","21116","","null","","","null","7","","","","","","","","","","","","","","","",""
"","ITI","","html-keyboard-response","57","121288","0.0-1.0-72.0","0","0","21116","","null","","","null","7","","","","","","","","","","","","","","","NaN",""
"","S1","","html-keyboard-response","58","121540","0.0-1.0-74.0","0","0","21116","","null","","","null","8","","","","","","","","","","","","","","","",""
"","ISI","","html-keyboard-response","59","123542","0.0-1.0-75.0","0","0","21116","","null","","","null","8","NaN","","","","","","","","","","","","","","",""
"","S2","","html-keyboard-response","60","123795","0.0-1.0-76.0","0","0","21116","","null","","","null","8","","NaN","","","","","","","","","","","","","",""
"","response","","html-keyboard-response","61","124323","0.0-1.0-77.0","0","0","21116","","527","","","75","8","","","1","8","training","adjacent","EF","5","6","Q.jpg","M.jpg","0","1","0","",""
"","feedback","","html-keyboard-response","62","125325","0.0-1.0-78.0-0.0","0","0","21116","","null","","","null","8","","","","","","","","","","","","","","","",""
"","time_out","","html-keyboard-response","63","127327","0.0-1.0-80.0-0.0","0","0","21116","","null","","","null","8","","","","","","","","","","","","","","","",""
"","ITI","","html-keyboard-response","64","128328","0.0-1.0-81.0","0","0","21116","","null","","","null","8","","","","","","","","","","","","","","","NaN",""
"","S1","","html-keyboard-response","65","128581","0.0-1.0-83.0","0","0","21116","","null","","","null","9","","","","","","","","","","","","","","","",""
"","ISI","","html-keyboard-response","66","130583","0.0-1.0-84.0","0","0","21116","","null","","","null","9","NaN","","","","","","","","","","","","","","",""
"","S2","","html-keyboard-response","67","130835","0.0-1.0-85.0","0","0","21116","","null","","","null","9","","NaN","","","","","","","","","","","","","",""
"","response","","html-keyboard-response","68","131172","0.0-1.0-86.0","0","0","21116","","335","","","68","9","","","1","9","training","adjacent","BC","2","3","O.jpg","N.jpg","1","1","1","",""
"","feedback","","html-keyboard-response","69","132174","0.0-1.0-87.0-0.0","0","0","21116","","null","","","null","9","","","","","","","","","","","","","","","",""
"","ITI","","html-keyboard-response","70","133176","0.0-1.0-90.0","0","0","21116","","null","","","null","9","","","","","","","","","","","","","","","NaN",""
"","S1","","html-keyboard-response","71","133428","0.0-1.0-92.0","0","0","21116","","null","","","null","10","","","","","","","","","","","","","","","",""
"","ISI","","html-keyboard-response","72","135430","0.0-1.0-93.0","0","0","21116","","null","","","null","10","NaN","","","","","","","","","","","","","","",""
"","S2","","html-keyboard-response","73","135682","0.0-1.0-94.0","0","0","21116","","null","","","null","10","","NaN","","","","","","","","","","","","","",""
"","response","","html-keyboard-response","74","136355","0.0-1.0-95.0","0","0","21116","","672","","","75","10","","","1","10","training","adjacent","ED","5","4","Q.jpg","L.jpg","0","0","1","",""
"","feedback","","html-keyboard-response","75","137357","0.0-1.0-96.0-0.0","0","0","21116","","null","","","null","10","","","","","","","","","","","","","","","",""
"","ITI","","html-keyboard-response","76","138359","0.0-1.0-99.0","0","0","21116","","null","","","null","10","","","","","","","","","","","","","","","NaN",""
"","S1","","html-keyboard-response","77","138612","0.0-1.0-101.0","0","0","21116","","null","","","null","11","","","","","","","","","","","","","","","",""
"","ISI","","html-keyboard-response","78","140614","0.0-1.0-102.0","0","0","21116","","null","","","null","11","NaN","","","","","","","","","","","","","","",""
"","S2","","html-keyboard-response","79","140866","0.0-1.0-103.0","0","0","21116","","null","","","null","11","","NaN","","","","","","","","","","","","","",""
"","response","","html-keyboard-response","80","141268","0.0-1.0-104.0","0","0","21116","","401","","","68","11","","","1","11","training","adjacent","BA","2","1","O.jpg","R.jpg","1","0","0","",""
"","feedback","","html-keyboard-response","81","142270","0.0-1.0-105.0-0.0","0","0","21116","","null","","","null","11","","","","","","","","","","","","","","","",""
"","time_out","","html-keyboard-response","82","144272","0.0-1.0-107.0-0.0","0","0","21116","","null","","","null","11","","","","","","","","","","","","","","","",""
"","ITI","","html-keyboard-response","83","145275","0.0-1.0-108.0","0","0","21116","","null","","","null","11","","","","","","","","","","","","","","","NaN",""
"","S1","","html-keyboard-response","84","145526","0.0-1.0-110.0","0","0","21116","","null","","","null","12","","","","","","","","","","","","","","","",""
"","ISI","","html-keyboard-response","85","147528","0.0-1.0-111.0","0","0","21116","","null","","","null","12","NaN","","","","","","","","","","","","","","",""
"","S2","","html-keyboard-response","86","147780","0.0-1.0-112.0","0","0","21116","","null","","","null","12","","NaN","","","","","","","","","","","","","",""
"","response","","html-keyboard-response","87","148195","0.0-1.0-113.0","0","0","21116","","413","","","75","12","","","1","12","training","adjacent","CD","3","4","N.jpg","L.jpg","0","1","0","",""
"","feedback","","html-keyboard-response","88","149197","0.0-1.0-114.0-0.0","0","0","21116","","null","","","null","12","","","","","","","","","","","","","","","",""
"","time_out","","html-keyboard-response","89","151213","0.0-1.0-116.0-0.0","0","0","21116","","null","","","null","12","","","","","","","","","","","","","","","",""
"","ITI","","html-keyboard-response","90","152215","0.0-1.0-117.0","0","0","21116","","null","","","null","12","","","","","","","","","","","","","","","NaN",""
"","S1","","html-keyboard-response","91","152466","0.0-1.0-119.0","0","0","21116","","null","","","null","13","","","","","","","","","","","","","","","",""
"","ISI","","html-keyboard-response","92","154469","0.0-1.0-120.0","0","0","21116","","null","","","null","13","NaN","","","","","","","","","","","","","","",""
"","S2","","html-keyboard-response","93","154722","0.0-1.0-121.0","0","0","21116","","null","","","null","13","","NaN","","","","","","","","","","","","","",""
"","response","","html-keyboard-response","94","155220","0.0-1.0-122.0","0","0","21116","","496","","","75","13","","","1","13","training","adjacent","EF","5","6","Q.jpg","M.jpg","0","1","0","",""
"","feedback","","html-keyboard-response","95","156222","0.0-1.0-123.0-0.0","0","0","21116","","null","","","null","13","","","","","","","","","","","","","","","",""
"","time_out","","html-keyboard-response","96","158224","0.0-1.0-125.0-0.0","0","0","21116","","null","","","null","13","","","","","","","","","","","","","","","",""
"","ITI","","html-keyboard-response","97","159225","0.0-1.0-126.0","0","0","21116","","null","","","null","13","","","","","","","","","","","","","","","NaN",""
"","S1","","html-keyboard-response","98","159477","0.0-1.0-128.0","0","0","21116","","null","","","null","14","","","","","","","","","","","","","","","",""
"","ISI","","html-keyboard-response","99","161479","0.0-1.0-129.0","0","0","21116","","877","","","75","14","k","","","","","","","","","","","","","","",""
"","S2","","html-keyboard-response","100","161743","0.0-1.0-130.0","0","0","21116","","null","","","null","14","","NaN","","","","","","","","","","","","","",""
"","response","","html-keyboard-response","101","162531","0.0-1.0-131.0","0","0","21116","","787","","","68","14","","","1","14","training","adjacent","DE","4","5","L.jpg","Q.jpg","1","1","1","",""
"","feedback","","html-keyboard-response","102","163533","0.0-1.0-132.0-0.0","0","0","21116","","null","","","null","14","","","","","","","","","","","","","","","",""
"","ITI","","html-keyboard-response","103","164540","0.0-1.0-135.0","0","0","21116","","null","","","null","14","","","","","","","","","","","","","","","NaN",""
"","S1","","html-keyboard-response","104","164792","0.0-1.0-137.0","0","0","21116","","null","","","null","15","","","","","","","","","","","","","","","",""
"","ISI","","html-keyboard-response","105","166796","0.0-1.0-138.0","0","0","21116","","null","","","null","15","NaN","","","","","","","","","","","","","","",""
"","S2","","html-keyboard-response","106","167049","0.0-1.0-139.0","0","0","21116","","null","","","null","15","","NaN","","","","","","","","","","","","","",""
"","response","","html-keyboard-response","107","167412","0.0-1.0-140.0","0","0","21116","","362","","","68","15","","","1","15","training","adjacent","DE","4","5","L.jpg","Q.jpg","1","1","1","",""
"","feedback","","html-keyboard-response","108","168413","0.0-1.0-141.0-0.0","0","0","21116","","null","","","null","15","","","","","","","","","","","","","","","",""
"","ITI","","html-keyboard-response","109","169415","0.0-1.0-144.0","0","0","21116","","null","","","null","15","","","","","","","","","","","","","","","NaN",""
"","S1","","html-keyboard-response","110","169666","0.0-1.0-146.0","0","0","21116","","null","","","null","16","","","","","","","","","","","","","","","",""
"","ISI","","html-keyboard-response","111","171668","0.0-1.0-147.0","0","0","21116","","null","","","null","16","NaN","","","","","","","","","","","","","","",""
"","S2","","html-keyboard-response","112","171920","0.0-1.0-148.0","0","0","21116","","null","","","null","16","","NaN","","","","","","","","","","","","","",""
"","response","","html-keyboard-response","113","172211","0.0-1.0-149.0","0","0","21116","","290","","","68","16","","","1","16","training","adjacent","DC","4","3","L.jpg","N.jpg","1","0","0","",""
"","feedback","","html-keyboard-response","114","173213","0.0-1.0-150.0-0.0","0","0","21116","","null","","","null","16","","","","","","","","","","","","","","","",""
"","time_out","","html-keyboard-response","115","175215","0.0-1.0-152.0-0.0","0","0","21116","","null","","","null","16","","","","","","","","","","","","","","","",""
"","ITI","","html-keyboard-response","116","176218","0.0-1.0-153.0","0","0","21116","","null","","","null","16","","","","","","","","","","","","","","","NaN",""
"","S1","","html-keyboard-response","117","176470","0.0-1.0-155.0","0","0","21116","","null","","","null","17","","","","","","","","","","","","","","","",""
"","ISI","","html-keyboard-response","118","178472","0.0-1.0-156.0","0","0","21116","","null","","","null","17","NaN","","","","","","","","","","","","","","",""
"","S2","","html-keyboard-response","119","178724","0.0-1.0-157.0","0","0","21116","","null","","","null","17","","NaN","","","","","","","","","","","","","",""
"","response","","html-keyboard-response","120","179075","0.0-1.0-158.0","0","0","21116","","351","","","68","17","","","1","17","training","adjacent","DE","4","5","L.jpg","Q.jpg","1","1","1","",""
"","feedback","","html-keyboard-response","121","180079","0.0-1.0-159.0-0.0","0","0","21116","","null","","","null","17","","","","","","","","","","","","","","","",""
"","ITI","","html-keyboard-response","122","181081","0.0-1.0-162.0","0","0","21116","","null","","","null","17","","","","","","","","","","","","","","","NaN",""
"","S1","","html-keyboard-response","123","181333","0.0-1.0-164.0","0","0","21116","","null","","","null","18","","","","","","","","","","","","","","","",""
"","ISI","","html-keyboard-response","124","183336","0.0-1.0-165.0","0","0","21116","","null","","","null","18","NaN","","","","","","","","","","","","","","",""
"","S2","","html-keyboard-response","125","183588","0.0-1.0-166.0","0","0","21116","","null","","","null","18","","NaN","","","","","","","","","","","","","",""
"","response","","html-keyboard-response","126","184179","0.0-1.0-167.0","0","0","21116","","589","","","68","18","","","1","18","training","adjacent","FE","6","5","M.jpg","Q.jpg","1","0","0","",""
"","feedback","","html-keyboard-response","127","185182","0.0-1.0-168.0-0.0","0","0","21116","","null","","","null","18","","","","","","","","","","","","","","","",""
"","time_out","","html-keyboard-response","128","187184","0.0-1.0-170.0-0.0","0","0","21116","","null","","","null","18","","","","","","","","","","","","","","","",""
"","ITI","","html-keyboard-response","129","188186","0.0-1.0-171.0","0","0","21116","","null","","","null","18","","","","","","","","","","","","","","","NaN",""
"","S1","","html-keyboard-response","130","188437","0.0-1.0-173.0","0","0","21116","","null","","","null","19","","","","","","","","","","","","","","","",""
"","ISI","","html-keyboard-response","131","190439","0.0-1.0-174.0","0","0","21116","","null","","","null","19","NaN","","","","","","","","","","","","","","",""
"","S2","","html-keyboard-response","132","190692","0.0-1.0-175.0","0","0","21116","","null","","","null","19","","NaN","","","","","","","","","","","","","",""
"","response","","html-keyboard-response","133","191603","0.0-1.0-176.0","0","0","21116","","909","","","68","19","","","1","19","training","adjacent","CB","3","2","N.jpg","O.jpg","1","0","0","",""
"","feedback","","html-keyboard-response","134","192605","0.0-1.0-177.0-0.0","0","0","21116","","null","","","null","19","","","","","","","","","","","","","","","",""
"","time_out","","html-keyboard-response","135","194608","0.0-1.0-179.0-0.0","0","0","21116","","null","","","null","19","","","","","","","","","","","","","","","",""
"","ITI","","html-keyboard-response","136","195610","0.0-1.0-180.0","0","0","21116","","null","","","null","19","","","","","","","","","","","","","","","NaN",""
"","S1","","html-keyboard-response","137","195871","0.0-1.0-182.0","0","0","21116","","null","","","null","20","","","","","","","","","","","","","","","",""
"","ISI","","html-keyboard-response","138","197873","0.0-1.0-183.0","0","0","21116","","null","","","null","20","NaN","","","","","","","","","","","","","","",""
"","S2","","html-keyboard-response","139","198126","0.0-1.0-184.0","0","0","21116","","null","","","null","20","","NaN","","","","","","","","","","","","","",""
"","response","","html-keyboard-response","140","198787","0.0-1.0-185.0","0","0","21116","","660","","","75","20","","","1","20","training","adjacent","ED","5","4","Q.jpg","L.jpg","0","0","1","",""
"","feedback","","html-keyboard-response","141","199788","0.0-1.0-186.0-0.0","0","0","21116","","null","","","null","20","","","","","","","","","","","","","","","",""
"","ITI","","html-keyboard-response","142","200791","0.0-1.0-189.0","0","0","21116","","null","","","null","20","","","","","","","","","","","","","","","NaN",""
"","S1","","html-keyboard-response","143","201044","0.0-1.0-191.0","0","0","21116","","null","","","null","21","","","","","","","","","","","","","","","",""
"","ISI","","html-keyboard-response","144","203066","0.0-1.0-192.0","0","0","21116","","null","","","null","21","NaN","","","","","","","","","","","","","","",""
"","S2","","html-keyboard-response","145","203319","0.0-1.0-193.0","0","0","21116","","null","","","null","21","","NaN","","","","","","","","","","","","","",""
"","response","","html-keyboard-response","146","203860","0.0-1.0-194.0","0","0","21116","","540","","","75","21","","","1","21","training","adjacent","ED","5","4","Q.jpg","L.jpg","0","0","1","",""
"","feedback","","html-keyboard-response","147","204862","0.0-1.0-195.0-0.0","0","0","21116","","null","","","null","21","","","","","","","","","","","","","","","",""
"","ITI","","html-keyboard-response","148","205865","0.0-1.0-198.0","0","0","21116","","null","","","null","21","","","","","","","","","","","","","","","NaN",""
"","S1","","html-keyboard-response","149","206116","0.0-1.0-200.0","0","0","21116","","null","","","null","22","","","","","","","","","","","","","","","",""
"","ISI","","html-keyboard-response","150","208118","0.0-1.0-201.0","0","0","21116","","null","","","null","22","NaN","","","","","","","","","","","","","","",""
"","S2","","html-keyboard-response","151","208369","0.0-1.0-202.0","0","0","21116","","null","","","null","22","","NaN","","","","","","","","","","","","","",""
"","response","","html-keyboard-response","152","208642","0.0-1.0-203.0","0","0","21116","","271","","","68","22","","","1","22","training","adjacent","BC","2","3","O.jpg","N.jpg","1","1","1","",""
"","feedback","","html-keyboard-response","153","209644","0.0-1.0-204.0-0.0","0","0","21116","","null","","","null","22","","","","","","","","","","","","","","","",""
"","ITI","","html-keyboard-response","154","210646","0.0-1.0-207.0","0","0","21116","","null","","","null","22","","","","","","","","","","","","","","","NaN",""
"","S1","","html-keyboard-response","155","210899","0.0-1.0-209.0","0","0","21116","","null","","","null","23","","","","","","","","","","","","","","","",""
"","ISI","","html-keyboard-response","156","212902","0.0-1.0-210.0","0","0","21116","","null","","","null","23","NaN","","","","","","","","","","","","","","",""
"","S2","","html-keyboard-response","157","213153","0.0-1.0-211.0","0","0","21116","","null","","","null","23","","NaN","","","","","","","","","","","","","",""
"","response","","html-keyboard-response","158","213875","0.0-1.0-212.0","0","0","21116","","720","","","68","23","","","1","23","training","adjacent","AB","1","2","R.jpg","O.jpg","1","1","1","",""
"","feedback","","html-keyboard-response","159","214878","0.0-1.0-213.0-0.0","0","0","21116","","null","","","null","23","","","","","","","","","","","","","","","",""
"","ITI","","html-keyboard-response","160","215879","0.0-1.0-216.0","0","0","21116","","null","","","null","23","","","","","","","","","","","","","","","NaN",""
"","S1","","html-keyboard-response","161","216131","0.0-1.0-218.0","0","0","21116","","null","","","null","24","","","","","","","","","","","","","","","",""
"","ISI","","html-keyboard-response","162","218133","0.0-1.0-219.0","0","0","21116","","null","","","null","24","NaN","","","","","","","","","","","","","","",""
"","S2","","html-keyboard-response","163","218385","0.0-1.0-220.0","0","0","21116","","null","","","null","24","","NaN","","","","","","","","","","","","","",""
"","response","","html-keyboard-response","164","219141","0.0-1.0-221.0","0","0","21116","","754","","","75","24","","","1","24","training","adjacent","GF","7","6","P.jpg","M.jpg","0","0","1","",""
"","feedback","","html-keyboard-response","165","220147","0.0-1.0-222.0-0.0","0","0","21116","","null","","","null","24","","","","","","","","","","","","","","","",""
"","ITI","","html-keyboard-response","166","221149","0.0-1.0-225.0","0","0","21116","","null","","","null","24","","","","","","","","","","","","","","","NaN",""
"","S1","","html-keyboard-response","167","221401","0.0-1.0-227.0","0","0","21116","","null","","","null","25","","","","","","","","","","","","","","","",""
"","ISI","","html-keyboard-response","168","223403","0.0-1.0-228.0","0","0","21116","","null","","","null","25","NaN","","","","","","","","","","","","","","",""
"","S2","","html-keyboard-response","169","223656","0.0-1.0-229.0","0","0","21116","","null","","","null","25","","NaN","","","","","","","","","","","","","",""
"","response","","html-keyboard-response","170","224163","0.0-1.0-230.0","0","0","21116","","506","","","75","25","","","1","25","training","adjacent","BA","2","1","O.jpg","R.jpg","0","0","1","",""
"","feedback","","html-keyboard-response","171","225166","0.0-1.0-231.0-0.0","0","0","21116","","null","","","null","25","","","","","","","","","","","","","","","",""
"","ITI","","html-keyboard-response","172","226169","0.0-1.0-234.0","0","0","21116","","null","","","null","25","","","","","","","","","","","","","","","NaN",""
"","S1","","html-keyboard-response","173","226423","0.0-1.0-236.0","0","0","21116","","null","","","null","26","","","","","","","","","","","","","","","",""
"","ISI","","html-keyboard-response","174","228424","0.0-1.0-237.0","0","0","21116","","null","","","null","26","NaN","","","","","","","","","","","","","","",""
"","S2","","html-keyboard-response","175","228677","0.0-1.0-238.0","0","0","21116","","null","","","null","26","","NaN","","","","","","","","","","","","","",""
"","response","","html-keyboard-response","176","229282","0.0-1.0-239.0","0","0","21116","","605","","","75","26","","","1","26","training","adjacent","FG","6","7","M.jpg","P.jpg","0","1","0","",""
"","feedback","","html-keyboard-response","177","230284","0.0-1.0-240.0-0.0","0","0","21116","","null","","","null","26","","","","","","","","","","","","","","","",""
"","time_out","","html-keyboard-response","178","232286","0.0-1.0-242.0-0.0","0","0","21116","","null","","","null","26","","","","","","","","","","","","","","","",""
"","ITI","","html-keyboard-response","179","233288","0.0-1.0-243.0","0","0","21116","","null","","","null","26","","","","","","","","","","","","","","","NaN",""
"","S1","","html-keyboard-response","180","233540","0.0-1.0-245.0","0","0","21116","","null","","","null","27","","","","","","","","","","","","","","","",""
"","ISI","","html-keyboard-response","181","235542","0.0-1.0-246.0","0","0","21116","","null","","","null","27","NaN","","","","","","","","","","","","","","",""
"","S2","","html-keyboard-response","182","235794","0.0-1.0-247.0","0","0","21116","","null","","","null","27","","NaN","","","","","","","","","","","","","",""
"","response","","html-keyboard-response","183","236340","0.0-1.0-248.0","0","0","21116","","544","","","75","27","","","1","27","training","adjacent","FE","6","5","M.jpg","Q.jpg","0","0","1","",""
"","feedback","","html-keyboard-response","184","237341","0.0-1.0-249.0-0.0","0","0","21116","","null","","","null","27","","","","","","","","","","","","","","","",""
"","ITI","","html-keyboard-response","185","238343","0.0-1.0-252.0","0","0","21116","","null","","","null","27","","","","","","","","","","","","","","","NaN",""
"","S1","","html-keyboard-response","186","238596","0.0-1.0-254.0","0","0","21116","","null","","","null","28","","","","","","","","","","","","","","","",""
"","ISI","","html-keyboard-response","187","240603","0.0-1.0-255.0","0","0","21116","","null","","","null","28","NaN","","","","","","","","","","","","","","",""
"","S2","","html-keyboard-response","188","240856","0.0-1.0-256.0","0","0","21116","","null","","","null","28","","NaN","","","","","","","","","","","","","",""
"","response","","html-keyboard-response","189","241683","0.0-1.0-257.0","0","0","21116","","826","","","75","28","","","1","28","training","adjacent","BC","2","3","O.jpg","N.jpg","0","1","0","",""
"","feedback","","html-keyboard-response","190","242686","0.0-1.0-258.0-0.0","0","0","21116","","null","","","null","28","","","","","","","","","","","","","","","",""
"","time_out","","html-keyboard-response","191","244693","0.0-1.0-260.0-0.0","0","0","21116","","null","","","null","28","","","","","","","","","","","","","","","",""
"","ITI","","html-keyboard-response","192","245695","0.0-1.0-261.0","0","0","21116","","null","","","null","28","","","","","","","","","","","","","","","NaN",""
"","S1","","html-keyboard-response","193","245947","0.0-1.0-263.0","0","0","21116","","null","","","null","29","","","","","","","","","","","","","","","",""
"","ISI","","html-keyboard-response","194","247949","0.0-1.0-264.0","0","0","21116","","null","","","null","29","NaN","","","","","","","","","","","","","","",""
"","S2","","html-keyboard-response","195","248201","0.0-1.0-265.0","0","0","21116","","null","","","null","29","","NaN","","","","","","","","","","","","","",""
"","response","","html-keyboard-response","196","248595","0.0-1.0-266.0","0","0","21116","","392","","","75","29","","","1","29","training","adjacent","CB","3","2","N.jpg","O.jpg","0","0","1","",""
"","feedback","","html-keyboard-response","197","249597","0.0-1.0-267.0-0.0","0","0","21116","","null","","","null","29","","","","","","","","","","","","","","","",""
"","ITI","","html-keyboard-response","198","250599","0.0-1.0-270.0","0","0","21116","","null","","","null","29","","","","","","","","","","","","","","","NaN",""
"","S1","","html-keyboard-response","199","250865","0.0-1.0-272.0","0","0","21116","","null","","","null","30","","","","","","","","","","","","","","","",""
"","ISI","","html-keyboard-response","200","252868","0.0-1.0-273.0","0","0","21116","","null","","","null","30","NaN","","","","","","","","","","","","","","",""
"","S2","","html-keyboard-response","201","253121","0.0-1.0-274.0","0","0","21116","","null","","","null","30","","NaN","","","","","","","","","","","","","",""
"","response","","html-keyboard-response","202","253731","0.0-1.0-275.0","0","0","21116","","609","","","75","30","","","1","30","training","adjacent","BA","2","1","O.jpg","R.jpg","0","0","1","",""
"","feedback","","html-keyboard-response","203","254733","0.0-1.0-276.0-0.0","0","0","21116","","null","","","null","30","","","","","","","","","","","","","","","",""
"","ITI","","html-keyboard-response","204","255736","0.0-1.0-279.0","0","0","21116","","null","","","null","30","","","","","","","","","","","","","","","NaN",""
"","S1","","html-keyboard-response","205","255998","0.0-1.0-281.0","0","0","21116","","null","","","null","31","","","","","","","","","","","","","","","",""
"","ISI","","html-keyboard-response","206","258000","0.0-1.0-282.0","0","0","21116","","1539","","","9","31","tab","","","","","","","","","","","","","","",""
"","S2","","html-keyboard-response","207","258251","0.0-1.0-283.0","0","0","21116","","null","","","null","31","","NaN","","","","","","","","","","","","","",""
"","response","","html-keyboard-response","208","258659","0.0-1.0-284.0","0","0","21116","","406","","","68","31","","","1","31","training","adjacent","EF","5","6","Q.jpg","M.jpg","1","1","1","",""
"","feedback","","html-keyboard-response","209","259661","0.0-1.0-285.0-0.0","0","0","21116","","null","","","null","31","","","","","","","","","","","","","","","",""
"","ITI","","html-keyboard-response","210","260664","0.0-1.0-288.0","0","0","21116","","null","","","null","31","","","","","","","","","","","","","","","NaN",""
"","S1","","html-keyboard-response","211","260916","0.0-1.0-290.0","0","0","21116","","null","","","null","32","","","","","","","","","","","","","","","",""
"","ISI","","html-keyboard-response","212","262932","0.0-1.0-291.0","0","0","21116","","null","","","null","32","NaN","","","","","","","","","","","","","","",""
"","S2","","html-keyboard-response","213","263185","0.0-1.0-292.0","0","0","21116","","null","","","null","32","","NaN","","","","","","","","","","","","","",""
"","response","","html-keyboard-response","214","263747","0.0-1.0-293.0","0","0","21116","","561","","","75","32","","","1","32","training","adjacent","ED","5","4","Q.jpg","L.jpg","0","0","1","",""
"","feedback","","html-keyboard-response","215","264749","0.0-1.0-294.0-0.0","0","0","21116","","null","","","null","32","","","","","","","","","","","","","","","",""
"","ITI","","html-keyboard-response","216","265751","0.0-1.0-297.0","0","0","21116","","null","","","null","32","","","","","","","","","","","","","","","NaN",""
"","S1","","html-keyboard-response","217","266004","0.0-1.0-299.0","0","0","21116","","null","","","null","33","","","","","","","","","","","","","","","",""
"","ISI","","html-keyboard-response","218","268007","0.0-1.0-300.0","0","0","21116","","null","","","null","33","NaN","","","","","","","","","","","","","","",""
"","S2","","html-keyboard-response","219","268259","0.0-1.0-301.0","0","0","21116","","null","","","null","33","","NaN","","","","","","","","","","","","","",""
"","response","","html-keyboard-response","220","268723","0.0-1.0-302.0","0","0","21116","","462","","","68","33","","","1","33","training","adjacent","DC","4","3","L.jpg","N.jpg","1","0","0","",""
"","feedback","","html-keyboard-response","221","269725","0.0-1.0-303.0-0.0","0","0","21116","","null","","","null","33","","","","","","","","","","","","","","","",""
"","time_out","","html-keyboard-response","222","271726","0.0-1.0-305.0-0.0","0","0","21116","","null","","","null","33","","","","","","","","","","","","","","","",""
"","ITI","","html-keyboard-response","223","272728","0.0-1.0-306.0","0","0","21116","","null","","","null","33","","","","","","","","","","","","","","","NaN",""
"","S1","","html-keyboard-response","224","272980","0.0-1.0-308.0","0","0","21116","","null","","","null","34","","","","","","","","","","","","","","","",""
"","ISI","","html-keyboard-response","225","274982","0.0-1.0-309.0","0","0","21116","","null","","","null","34","NaN","","","","","","","","","","","","","","",""
"","S2","","html-keyboard-response","226","275246","0.0-1.0-310.0","0","0","21116","","null","","","null","34","","NaN","","","","","","","","","","","","","",""
"","response","","html-keyboard-response","227","275571","0.0-1.0-311.0","0","0","21116","","323","","","68","34","","","1","34","training","adjacent","AB","1","2","R.jpg","O.jpg","1","1","1","",""
"","feedback","","html-keyboard-response","228","276581","0.0-1.0-312.0-0.0","0","0","21116","","null","","","null","34","","","","","","","","","","","","","","","",""
"","ITI","","html-keyboard-response","229","277584","0.0-1.0-315.0","0","0","21116","","null","","","null","34","","","","","","","","","","","","","","","NaN",""
"","S1","","html-keyboard-response","230","277837","0.0-1.0-317.0","0","0","21116","","null","","","null","35","","","","","","","","","","","","","","","",""
"","ISI","","html-keyboard-response","231","279855","0.0-1.0-318.0","0","0","21116","","null","","","null","35","NaN","","","","","","","","","","","","","","",""
"","S2","","html-keyboard-response","232","280108","0.0-1.0-319.0","0","0","21116","","null","","","null","35","","NaN","","","","","","","","","","","","","",""
"","response","","html-keyboard-response","233","280787","0.0-1.0-320.0","0","0","21116","","678","","","68","35","","","1","35","training","adjacent","FG","6","7","M.jpg","P.jpg","1","1","1","",""
"","feedback","","html-keyboard-response","234","281789","0.0-1.0-321.0-0.0","0","0","21116","","null","","","null","35","","","","","","","","","","","","","","","",""
"","ITI","","html-keyboard-response","235","282791","0.0-1.0-324.0","0","0","21116","","null","","","null","35","","","","","","","","","","","","","","","NaN",""
"","S1","","html-keyboard-response","236","283043","0.0-1.0-326.0","0","0","21116","","null","","","null","36","","","","","","","","","","","","","","","",""
"","ISI","","html-keyboard-response","237","285045","0.0-1.0-327.0","0","0","21116","","null","","","null","36","NaN","","","","","","","","","","","","","","",""
"","S2","","html-keyboard-response","238","285297","0.0-1.0-328.0","0","0","21116","","null","","","null","36","","NaN","","","","","","","","","","","","","",""
"","response","","html-keyboard-response","239","286018","0.0-1.0-329.0","0","0","21116","","721","","","75","36","","","1","36","training","adjacent","CB","3","2","N.jpg","O.jpg","0","0","1","",""
"","feedback","","html-keyboard-response","240","287021","0.0-1.0-330.0-0.0","0","0","21116","","null","","","null","36","","","","","","","","","","","","","","","",""
"","ITI","","html-keyboard-response","241","288023","0.0-1.0-333.0","0","0","21116","","null","","","null","36","","","","","","","","","","","","","","","NaN",""
"","S1","","html-keyboard-response","242","288275","0.0-1.0-335.0","0","0","21116","","null","","","null","37","","","","","","","","","","","","","","","",""
"","ISI","","html-keyboard-response","243","290277","0.0-1.0-336.0","0","0","21116","","null","","","null","37","NaN","","","","","","","","","","","","","","",""
"","S2","","html-keyboard-response","244","290529","0.0-1.0-337.0","0","0","21116","","null","","","null","37","","NaN","","","","","","","","","","","","","",""
"","response","","html-keyboard-response","245","291059","0.0-1.0-338.0","0","0","21116","","529","","","75","37","","","1","37","training","adjacent","AB","1","2","R.jpg","O.jpg","0","1","0","",""
"","feedback","","html-keyboard-response","246","292061","0.0-1.0-339.0-0.0","0","0","21116","","null","","","null","37","","","","","","","","","","","","","","","",""
"","time_out","","html-keyboard-response","247","294064","0.0-1.0-341.0-0.0","0","0","21116","","null","","","null","37","","","","","","","","","","","","","","","",""
"","ITI","","html-keyboard-response","248","295065","0.0-1.0-342.0","0","0","21116","","null","","","null","37","","","","","","","","","","","","","","","NaN",""
"","S1","","html-keyboard-response","249","295317","0.0-1.0-344.0","0","0","21116","","null","","","null","38","","","","","","","","","","","","","","","",""
"","ISI","","html-keyboard-response","250","297319","0.0-1.0-345.0","0","0","21116","","null","","","null","38","NaN","","","","","","","","","","","","","","",""
"","S2","","html-keyboard-response","251","297572","0.0-1.0-346.0","0","0","21116","","null","","","null","38","","NaN","","","","","","","","","","","","","",""
"","response","","html-keyboard-response","252","298626","0.0-1.0-347.0","0","0","21116","","1053","","","68","38","","","1","38","training","adjacent","FG","6","7","M.jpg","P.jpg","1","1","1","",""
"","feedback","","html-keyboard-response","253","299629","0.0-1.0-348.0-0.0","0","0","21116","","null","","","null","38","","","","","","","","","","","","","","","",""
"","ITI","","html-keyboard-response","254","300633","0.0-1.0-351.0","0","0","21116","","null","","","null","38","","","","","","","","","","","","","","","NaN",""
"","S1","","html-keyboard-response","255","300886","0.0-1.0-353.0","0","0","21116","","null","","","null","39","","","","","","","","","","","","","","","",""
"","ISI","","html-keyboard-response","256","302888","0.0-1.0-354.0","0","0","21116","","null","","","null","39","NaN","","","","","","","","","","","","","","",""
"","S2","","html-keyboard-response","257","303140","0.0-1.0-355.0","0","0","21116","","null","","","null","39","","NaN","","","","","","","","","","","","","",""
"","response","","html-keyboard-response","258","303699","0.0-1.0-356.0","0","0","21116","","557","","","68","39","","","1","39","training","adjacent","DC","4","3","L.jpg","N.jpg","1","0","0","",""
"","feedback","","html-keyboard-response","259","304701","0.0-1.0-357.0-0.0","0","0","21116","","null","","","null","39","","","","","","","","","","","","","","","",""
"","time_out","","html-keyboard-response","260","306703","0.0-1.0-359.0-0.0","0","0","21116","","null","","","null","39","","","","","","","","","","","","","","","",""
"","ITI","","html-keyboard-response","261","307705","0.0-1.0-360.0","0","0","21116","","null","","","null","39","","","","","","","","","","","","","","","NaN",""
"","S1","","html-keyboard-response","262","307958","0.0-1.0-362.0","0","0","21116","","null","","","null","40","","","","","","","","","","","","","","","",""
"","ISI","","html-keyboard-response","263","309960","0.0-1.0-363.0","0","0","21116","","null","","","null","40","NaN","","","","","","","","","","","","","","",""
"","S2","","html-keyboard-response","264","310212","0.0-1.0-364.0","0","0","21116","","null","","","null","40","","NaN","","","","","","","","","","","","","",""
"","response","","html-keyboard-response","265","311123","0.0-1.0-365.0","0","0","21116","","910","","","68","40","","","1","40","training","adjacent","CB","3","2","N.jpg","O.jpg","1","0","0","",""
"","feedback","","html-keyboard-response","266","312125","0.0-1.0-366.0-0.0","0","0","21116","","null","","","null","40","","","","","","","","","","","","","","","",""
"","time_out","","html-keyboard-response","267","314127","0.0-1.0-368.0-0.0","0","0","21116","","null","","","null","40","","","","","","","","","","","","","","","",""
"","ITI","","html-keyboard-response","268","315142","0.0-1.0-369.0","0","0","21116","","null","","","null","40","","","","","","","","","","","","","","","NaN",""
"","S1","","html-keyboard-response","269","315394","0.0-1.0-371.0","0","0","21116","","null","","","null","41","","","","","","","","","","","","","","","",""
"","ISI","","html-keyboard-response","270","317397","0.0-1.0-372.0","0","0","21116","","null","","","null","41","NaN","","","","","","","","","","","","","","",""
"","S2","","html-keyboard-response","271","317649","0.0-1.0-373.0","0","0","21116","","null","","","null","41","","NaN","","","","","","","","","","","","","",""
"","response","","html-keyboard-response","272","318323","0.0-1.0-374.0","0","0","21116","","673","","","75","41","","","1","41","training","adjacent","GF","7","6","P.jpg","M.jpg","0","0","1","",""
"","feedback","","html-keyboard-response","273","319325","0.0-1.0-375.0-0.0","0","0","21116","","null","","","null","41","","","","","","","","","","","","","","","",""
"","ITI","","html-keyboard-response","274","320327","0.0-1.0-378.0","0","0","21116","","null","","","null","41","","","","","","","","","","","","","","","NaN",""
"","S1","","html-keyboard-response","275","320580","0.0-1.0-380.0","0","0","21116","","null","","","null","42","","","","","","","","","","","","","","","",""
"","ISI","","html-keyboard-response","276","322583","0.0-1.0-381.0","0","0","21116","","null","","","null","42","NaN","","","","","","","","","","","","","","",""
"","S2","","html-keyboard-response","277","322835","0.0-1.0-382.0","0","0","21116","","null","","","null","42","","NaN","","","","","","","","","","","","","",""
"","response","","html-keyboard-response","278","323154","0.0-1.0-383.0","0","0","21116","","317","","","75","42","","","1","42","training","adjacent","GF","7","6","P.jpg","M.jpg","0","0","1","",""
"","feedback","","html-keyboard-response","279","324156","0.0-1.0-384.0-0.0","0","0","21116","","null","","","null","42","","","","","","","","","","","","","","","",""
"","ITI","","html-keyboard-response","280","325159","0.0-1.0-387.0","0","0","21116","","null","","","null","42","","","","","","","","","","","","","","","NaN",""
"","S1","","html-keyboard-response","281","325411","0.0-1.0-389.0","0","0","21116","","null","","","null","43","","","","","","","","","","","","","","","",""
"","ISI","","html-keyboard-response","282","327413","0.0-1.0-390.0","0","0","21116","","null","","","null","43","NaN","","","","","","","","","","","","","","",""
"","S2","","html-keyboard-response","283","327664","0.0-1.0-391.0","0","0","21116","","null","","","null","43","","NaN","","","","","","","","","","","","","",""
"","response","","html-keyboard-response","284","328259","0.0-1.0-392.0","0","0","21116","","593","","","75","43","","","1","43","training","adjacent","FE","6","5","M.jpg","Q.jpg","0","0","1","",""
"","feedback","","html-keyboard-response","285","329261","0.0-1.0-393.0-0.0","0","0","21116","","null","","","null","43","","","","","","","","","","","","","","","",""
"","ITI","","html-keyboard-response","286","330264","0.0-1.0-396.0","0","0","21116","","null","","","null","43","","","","","","","","","","","","","","","NaN",""
"","S1","","html-keyboard-response","287","330516","0.0-1.0-398.0","0","0","21116","","null","","","null","44","","","","","","","","","","","","","","","",""
"","ISI","","html-keyboard-response","288","332519","0.0-1.0-399.0","0","0","21116","","null","","","null","44","NaN","","","","","","","","","","","","","","",""
"","S2","","html-keyboard-response","289","332771","0.0-1.0-400.0","0","0","21116","","null","","","null","44","","NaN","","","","","","","","","","","","","",""
"","response","","html-keyboard-response","290","333443","0.0-1.0-401.0","0","0","21116","","670","","","68","44","","","1","44","training","adjacent","CD","3","4","N.jpg","L.jpg","1","1","1","",""
"","feedback","","html-keyboard-response","291","334445","0.0-1.0-402.0-0.0","0","0","21116","","null","","","null","44","","","","","","","","","","","","","","","",""
"","ITI","","html-keyboard-response","292","335447","0.0-1.0-405.0","0","0","21116","","null","","","null","44","","","","","","","","","","","","","","","NaN",""
"","S1","","html-keyboard-response","293","335699","0.0-1.0-407.0","0","0","21116","","null","","","null","45","","","","","","","","","","","","","","","",""
"","ISI","","html-keyboard-response","294","337701","0.0-1.0-408.0","0","0","21116","","null","","","null","45","NaN","","","","","","","","","","","","","","",""
"","S2","","html-keyboard-response","295","337952","0.0-1.0-409.0","0","0","21116","","null","","","null","45","","NaN","","","","","","","","","","","","","",""
"","response","","html-keyboard-response","296","338242","0.0-1.0-410.0","0","0","21116","","288","","","68","45","","","1","45","training","adjacent","CD","3","4","N.jpg","L.jpg","1","1","1","",""
"","feedback","","html-keyboard-response","297","339244","0.0-1.0-411.0-0.0","0","0","21116","","null","","","null","45","","","","","","","","","","","","","","","",""
"","ITI","","html-keyboard-response","298","340245","0.0-1.0-414.0","0","0","21116","","null","","","null","45","","","","","","","","","","","","","","","NaN",""
"","S1","","html-keyboard-response","299","340498","0.0-1.0-416.0","0","0","21116","","null","","","null","46","","","","","","","","","","","","","","","",""
"","ISI","","html-keyboard-response","300","342500","0.0-1.0-417.0","0","0","21116","","null","","","null","46","NaN","","","","","","","","","","","","","","",""
"","S2","","html-keyboard-response","301","342751","0.0-1.0-418.0","0","0","21116","","null","","","null","46","","NaN","","","","","","","","","","","","","",""
"","response","","html-keyboard-response","302","343459","0.0-1.0-419.0","0","0","21116","","706","","","68","46","","","1","46","training","adjacent","FG","6","7","M.jpg","P.jpg","1","1","1","",""
"","feedback","","html-keyboard-response","303","344461","0.0-1.0-420.0-0.0","0","0","21116","","null","","","null","46","","","","","","","","","","","","","","","",""
"","ITI","","html-keyboard-response","304","345464","0.0-1.0-423.0","0","0","21116","","null","","","null","46","","","","","","","","","","","","","","","NaN",""
"","S1","","html-keyboard-response","305","345716","0.0-1.0-425.0","0","0","21116","","null","","","null","47","","","","","","","","","","","","","","","",""
"","ISI","","html-keyboard-response","306","347718","0.0-1.0-426.0","0","0","21116","","null","","","null","47","NaN","","","","","","","","","","","","","","",""
"","S2","","html-keyboard-response","307","347970","0.0-1.0-427.0","0","0","21116","","null","","","null","47","","NaN","","","","","","","","","","","","","",""
"","response","","html-keyboard-response","308","348674","0.0-1.0-428.0","0","0","21116","","702","","","75","47","","","1","47","training","adjacent","BA","2","1","O.jpg","R.jpg","0","0","1","",""
"","feedback","","html-keyboard-response","309","349676","0.0-1.0-429.0-0.0","0","0","21116","","null","","","null","47","","","","","","","","","","","","","","","",""
"","ITI","","html-keyboard-response","310","350679","0.0-1.0-432.0","0","0","21116","","null","","","null","47","","","","","","","","","","","","","","","NaN",""
"","block_over","","html-keyboard-response","311","354035","0.0-1.0-433.0-0.0","0","0","21116","","3355","","","32","47","","","","","","","","","","","","","","","",""
"","S1","","html-keyboard-response","312","354287","0.0-1.0-434.0","0","0","21116","","null","","","null","48","","","","","","","","","","","","","","","",""
"","ISI","","html-keyboard-response","313","356289","0.0-1.0-435.0","0","0","21116","","null","","","null","48","NaN","","","","","","","","","","","","","","",""
"","S2","","html-keyboard-response","314","356541","0.0-1.0-436.0","0","0","21116","","null","","","null","48","","NaN","","","","","","","","","","","","","",""
"","response","","html-keyboard-response","315","357122","0.0-1.0-437.0","0","0","21116","","579","","","75","48","","","2","48","training","adjacent","DE","4","5","L.jpg","Q.jpg","0","1","0","",""
"","feedback","","html-keyboard-response","316","358125","0.0-1.0-438.0-0.0","0","0","21116","","null","","","null","48","","","","","","","","","","","","","","","",""
"","time_out","","html-keyboard-response","317","360127","0.0-1.0-440.0-0.0","0","0","21116","","null","","","null","48","","","","","","","","","","","","","","","",""
"","ITI","","html-keyboard-response","318","361129","0.0-1.0-441.0","0","0","21116","","null","","","null","48","","","","","","","","","","","","","","","NaN",""
"","S1","","html-keyboard-response","319","361380","0.0-1.0-443.0","0","0","21116","","null","","","null","49","","","","","","","","","","","","","","","",""
"","ISI","","html-keyboard-response","320","363382","0.0-1.0-444.0","0","0","21116","","null","","","null","49","NaN","","","","","","","","","","","","","","",""
"","S2","","html-keyboard-response","321","363634","0.0-1.0-445.0","0","0","21116","","null","","","null","49","","NaN","","","","","","","","","","","","","",""
"","response","","html-keyboard-response","322","364306","0.0-1.0-446.0","0","0","21116","","670","","","75","49","","","2","49","training","adjacent","CD","3","4","N.jpg","L.jpg","0","1","0","",""
"","feedback","","html-keyboard-response","323","365308","0.0-1.0-447.0-0.0","0","0","21116","","null","","","null","49","","","","","","","","","","","","","","","",""
"","time_out","","html-keyboard-response","324","367310","0.0-1.0-449.0-0.0","0","0","21116","","null","","","null","49","","","","","","","","","","","","","","","",""
"","ITI","","html-keyboard-response","325","368313","0.0-1.0-450.0","0","0","21116","","null","","","null","49","","","","","","","","","","","","","","","NaN",""
"","S1","","html-keyboard-response","326","368566","0.0-1.0-452.0","0","0","21116","","null","","","null","50","","","","","","","","","","","","","","","",""
"","ISI","","html-keyboard-response","327","370568","0.0-1.0-453.0","0","0","21116","","null","","","null","50","NaN","","","","","","","","","","","","","","",""
"","S2","","html-keyboard-response","328","370822","0.0-1.0-454.0","0","0","21116","","null","","","null","50","","NaN","","","","","","","","","","","","","",""
"","response","","html-keyboard-response","329","371297","0.0-1.0-455.0","0","0","21116","","474","","","68","50","","","2","50","training","adjacent","ED","5","4","Q.jpg","L.jpg","1","0","0","",""
"","feedback","","html-keyboard-response","330","372299","0.0-1.0-456.0-0.0","0","0","21116","","null","","","null","50","","","","","","","","","","","","","","","",""
"","time_out","","html-keyboard-response","331","374301","0.0-1.0-458.0-0.0","0","0","21116","","null","","","null","50","","","","","","","","","","","","","","","",""
"","ITI","","html-keyboard-response","332","375304","0.0-1.0-459.0","0","0","21116","","null","","","null","50","","","","","","","","","","","","","","","NaN",""
"","S1","","html-keyboard-response","333","375556","0.0-1.0-461.0","0","0","21116","","null","","","null","51","","","","","","","","","","","","","","","",""
"","ISI","","html-keyboard-response","334","377559","0.0-1.0-462.0","0","0","21116","","null","","","null","51","NaN","","","","","","","","","","","","","","",""
"","S2","","html-keyboard-response","335","377811","0.0-1.0-463.0","0","0","21116","","null","","","null","51","","NaN","","","","","","","","","","","","","",""
"","response","","html-keyboard-response","336","378322","0.0-1.0-464.0","0","0","21116","","509","","","75","51","","","2","51","training","adjacent","BC","2","3","O.jpg","N.jpg","0","1","0","",""
"","feedback","","html-keyboard-response","337","379324","0.0-1.0-465.0-0.0","0","0","21116","","null","","","null","51","","","","","","","","","","","","","","","",""
"","time_out","","html-keyboard-response","338","381327","0.0-1.0-467.0-0.0","0","0","21116","","null","","","null","51","","","","","","","","","","","","","","","",""
"","ITI","","html-keyboard-response","339","382329","0.0-1.0-468.0","0","0","21116","","null","","","null","51","","","","","","","","","","","","","","","NaN",""
"","S1","","html-keyboard-response","340","382582","0.0-1.0-470.0","0","0","21116","","null","","","null","52","","","","","","","","","","","","","","","",""
"","ISI","","html-keyboard-response","341","384585","0.0-1.0-471.0","0","0","21116","","null","","","null","52","NaN","","","","","","","","","","","","","","",""
"","S2","","html-keyboard-response","342","384837","0.0-1.0-472.0","0","0","21116","","null","","","null","52","","NaN","","","","","","","","","","","","","",""
"","response","","html-keyboard-response","343","385249","0.0-1.0-473.0","0","0","21116","","411","","","68","52","","","2","52","training","adjacent","CB","3","2","N.jpg","O.jpg","1","0","0","",""
"","feedback","","html-keyboard-response","344","386252","0.0-1.0-474.0-0.0","0","0","21116","","null","","","null","52","","","","","","","","","","","","","","","",""
"","time_out","","html-keyboard-response","345","388254","0.0-1.0-476.0-0.0","0","0","21116","","null","","","null","52","","","","","","","","","","","","","","","",""
"","ITI","","html-keyboard-response","346","389255","0.0-1.0-477.0","0","0","21116","","null","","","null","52","","","","","","","","","","","","","","","NaN",""
"","S1","","html-keyboard-response","347","389508","0.0-1.0-479.0","0","0","21116","","null","","","null","53","","","","","","","","","","","","","","","",""
"","ISI","","html-keyboard-response","348","391510","0.0-1.0-480.0","0","0","21116","","null","","","null","53","NaN","","","","","","","","","","","","","","",""
"","S2","","html-keyboard-response","349","391765","0.0-1.0-481.0","0","0","21116","","null","","","null","53","","NaN","","","","","","","","","","","","","",""
"","response","","html-keyboard-response","350","392258","0.0-1.0-482.0","0","0","21116","","491","","","68","53","","","2","53","training","adjacent","GF","7","6","P.jpg","M.jpg","1","0","0","",""
"","feedback","","html-keyboard-response","351","393261","0.0-1.0-483.0-0.0","0","0","21116","","null","","","null","53","","","","","","","","","","","","","","","",""
"","time_out","","html-keyboard-response","352","395263","0.0-1.0-485.0-0.0","0","0","21116","","null","","","null","53","","","","","","","","","","","","","","","",""
"","ITI","","html-keyboard-response","353","396264","0.0-1.0-486.0","0","0","21116","","null","","","null","53","","","","","","","","","","","","","","","NaN",""
"","S1","","html-keyboard-response","354","396517","0.0-1.0-488.0","0","0","21116","","null","","","null","54","","","","","","","","","","","","","","","",""
"","ISI","","html-keyboard-response","355","398519","0.0-1.0-489.0","0","0","21116","","null","","","null","54","NaN","","","","","","","","","","","","","","",""
"","S2","","html-keyboard-response","356","398772","0.0-1.0-490.0","0","0","21116","","null","","","null","54","","NaN","","","","","","","","","","","","","",""
"","response","","html-keyboard-response","357","399537","0.0-1.0-491.0","0","0","21116","","764","","","75","54","","","2","54","training","adjacent","CB","3","2","N.jpg","O.jpg","0","0","1","",""
"","feedback","","html-keyboard-response","358","400553","0.0-1.0-492.0-0.0","0","0","21116","","null","","","null","54","","","","","","","","","","","","","","","",""
"","ITI","","html-keyboard-response","359","401554","0.0-1.0-495.0","0","0","21116","","null","","","null","54","","","","","","","","","","","","","","","NaN",""
"","S1","","html-keyboard-response","360","401807","0.0-1.0-497.0","0","0","21116","","null","","","null","55","","","","","","","","","","","","","","","",""
"","ISI","","html-keyboard-response","361","403810","0.0-1.0-498.0","0","0","21116","","null","","","null","55","NaN","","","","","","","","","","","","","","",""
"","S2","","html-keyboard-response","362","404062","0.0-1.0-499.0","0","0","21116","","null","","","null","55","","NaN","","","","","","","","","","","","","",""
"","response","","html-keyboard-response","363","404450","0.0-1.0-500.0","0","0","21116","","386","","","68","55","","","2","55","training","adjacent","DC","4","3","L.jpg","N.jpg","1","0","0","",""
"","feedback","","html-keyboard-response","364","405453","0.0-1.0-501.0-0.0","0","0","21116","","null","","","null","55","","","","","","","","","","","","","","","",""
"","time_out","","html-keyboard-response","365","407465","0.0-1.0-503.0-0.0","0","0","21116","","null","","","null","55","","","","","","","","","","","","","","","",""
"","ITI","","html-keyboard-response","366","408467","0.0-1.0-504.0","0","0","21116","","null","","","null","55","","","","","","","","","","","","","","","NaN",""
"","S1","","html-keyboard-response","367","408720","0.0-1.0-506.0","0","0","21116","","null","","","null","56","","","","","","","","","","","","","","","",""
"","ISI","","html-keyboard-response","368","410722","0.0-1.0-507.0","0","0","21116","","null","","","null","56","NaN","","","","","","","","","","","","","","",""
"","S2","","html-keyboard-response","369","410974","0.0-1.0-508.0","0","0","21116","","null","","","null","56","","NaN","","","","","","","","","","","","","",""
"","response","","html-keyboard-response","370","411441","0.0-1.0-509.0","0","0","21116","","465","","","75","56","","","2","56","training","adjacent","ED","5","4","Q.jpg","L.jpg","0","0","1","",""
"","feedback","","html-keyboard-response","371","412443","0.0-1.0-510.0-0.0","0","0","21116","","null","","","null","56","","","","","","","","","","","","","","","",""
"","ITI","","html-keyboard-response","372","413446","0.0-1.0-513.0","0","0","21116","","null","","","null","56","","","","","","","","","","","","","","","NaN",""
"","S1","","html-keyboard-response","373","413698","0.0-1.0-515.0","0","0","21116","","null","","","null","57","","","","","","","","","","","","","","","",""
"","ISI","","html-keyboard-response","374","415701","0.0-1.0-516.0","0","0","21116","","null","","","null","57","NaN","","","","","","","","","","","","","","",""
"","S2","","html-keyboard-response","375","415953","0.0-1.0-517.0","0","0","21116","","null","","","null","57","","NaN","","","","","","","","","","","","","",""
"","response","","html-keyboard-response","376","416434","0.0-1.0-518.0","0","0","21116","","479","","","68","57","","","2","57","training","adjacent","DE","4","5","L.jpg","Q.jpg","1","1","1","",""
"","feedback","","html-keyboard-response","377","417436","0.0-1.0-519.0-0.0","0","0","21116","","null","","","null","57","","","","","","","","","","","","","","","",""
"","ITI","","html-keyboard-response","378","418438","0.0-1.0-522.0","0","0","21116","","null","","","null","57","","","","","","","","","","","","","","","NaN",""
"","S1","","html-keyboard-response","379","418689","0.0-1.0-524.0","0","0","21116","","null","","","null","58","","","","","","","","","","","","","","","",""
"","ISI","","html-keyboard-response","380","420692","0.0-1.0-525.0","0","0","21116","","null","","","null","58","NaN","","","","","","","","","","","","","","",""
"","S2","","html-keyboard-response","381","420943","0.0-1.0-526.0","0","0","21116","","null","","","null","58","","NaN","","","","","","","","","","","","","",""
"","response","","html-keyboard-response","382","421361","0.0-1.0-527.0","0","0","21116","","416","","","68","58","","","2","58","training","adjacent","DE","4","5","L.jpg","Q.jpg","1","1","1","",""
"","feedback","","html-keyboard-response","383","422363","0.0-1.0-528.0-0.0","0","0","21116","","null","","","null","58","","","","","","","","","","","","","","","",""
"","ITI","","html-keyboard-response","384","423366","0.0-1.0-531.0","0","0","21116","","null","","","null","58","","","","","","","","","","","","","","","NaN",""
"","S1","","html-keyboard-response","385","423617","0.0-1.0-533.0","0","0","21116","","null","","","null","59","","","","","","","","","","","","","","","",""
"","ISI","","html-keyboard-response","386","425619","0.0-1.0-534.0","0","0","21116","","null","","","null","59","NaN","","","","","","","","","","","","","","",""
"","S2","","html-keyboard-response","387","425871","0.0-1.0-535.0","0","0","21116","","null","","","null","59","","NaN","","","","","","","","","","","","","",""
"","response","","html-keyboard-response","388","426770","0.0-1.0-536.0","0","0","21116","","898","","","68","59","","","2","59","training","adjacent","FG","6","7","M.jpg","P.jpg","1","1","1","",""
"","feedback","","html-keyboard-response","389","427773","0.0-1.0-537.0-0.0","0","0","21116","","null","","","null","59","","","","","","","","","","","","","","","",""
"","ITI","","html-keyboard-response","390","428775","0.0-1.0-540.0","0","0","21116","","null","","","null","59","","","","","","","","","","","","","","","NaN",""
"","S1","","html-keyboard-response","391","429069","0.0-1.0-542.0","0","0","21116","","null","","","null","60","","","","","","","","","","","","","","","",""
"","ISI","","html-keyboard-response","392","431070","0.0-1.0-543.0","0","0","21116","","null","","","null","60","NaN","","","","","","","","","","","","","","",""
"","S2","","html-keyboard-response","393","431332","0.0-1.0-544.0","0","0","21116","","null","","","null","60","","NaN","","","","","","","","","","","","","",""
"","response","","html-keyboard-response","394","432081","0.0-1.0-545.0","0","0","21116","","747","","","75","60","","","2","60","training","adjacent","BA","2","1","O.jpg","R.jpg","0","0","1","",""
"","feedback","","html-keyboard-response","395","433084","0.0-1.0-546.0-0.0","0","0","21116","","null","","","null","60","","","","","","","","","","","","","","","",""
"","ITI","","html-keyboard-response","396","434086","0.0-1.0-549.0","0","0","21116","","null","","","null","60","","","","","","","","","","","","","","","NaN",""
"","S1","","html-keyboard-response","397","434337","0.0-1.0-551.0","0","0","21116","","null","","","null","61","","","","","","","","","","","","","","","",""
"","ISI","","html-keyboard-response","398","436339","0.0-1.0-552.0","0","0","21116","","null","","","null","61","NaN","","","","","","","","","","","","","","",""
"","S2","","html-keyboard-response","399","436591","0.0-1.0-553.0","0","0","21116","","null","","","null","61","","NaN","","","","","","","","","","","","","",""
"","response","","html-keyboard-response","400","437010","0.0-1.0-554.0","0","0","21116","","417","","","68","61","","","2","61","training","adjacent","CD","3","4","N.jpg","L.jpg","1","1","1","",""
"","feedback","","html-keyboard-response","401","438012","0.0-1.0-555.0-0.0","0","0","21116","","null","","","null","61","","","","","","","","","","","","","","","",""
"","ITI","","html-keyboard-response","402","439017","0.0-1.0-558.0","0","0","21116","","null","","","null","61","","","","","","","","","","","","","","","NaN",""
"","S1","","html-keyboard-response","403","439270","0.0-1.0-560.0","0","0","21116","","null","","","null","62","","","","","","","","","","","","","","","",""
"","ISI","","html-keyboard-response","404","441300","0.0-1.0-561.0","0","0","21116","","null","","","null","62","NaN","","","","","","","","","","","","","","",""
"","S2","","html-keyboard-response","405","441553","0.0-1.0-562.0","0","0","21116","","null","","","null","62","","NaN","","","","","","","","","","","","","",""
"","response","","html-keyboard-response","406","442545","0.0-1.0-563.0","0","0","21116","","991","","","75","62","","","2","62","training","adjacent","GF","7","6","P.jpg","M.jpg","0","0","1","",""
"","feedback","","html-keyboard-response","407","443547","0.0-1.0-564.0-0.0","0","0","21116","","null","","","null","62","","","","","","","","","","","","","","","",""
"","ITI","","html-keyboard-response","408","444550","0.0-1.0-567.0","0","0","21116","","null","","","null","62","","","","","","","","","","","","","","","NaN",""
"","S1","","html-keyboard-response","409","444808","0.0-1.0-569.0","0","0","21116","","null","","","null","63","","","","","","","","","","","","","","","",""
"","ISI","","html-keyboard-response","410","446810","0.0-1.0-570.0","0","0","21116","","null","","","null","63","NaN","","","","","","","","","","","","","","",""
"","S2","","html-keyboard-response","411","447062","0.0-1.0-571.0","0","0","21116","","null","","","null","63","","NaN","","","","","","","","","","","","","",""
"","response","","html-keyboard-response","412","448033","0.0-1.0-572.0","0","0","21116","","969","","","75","63","","","2","63","training","adjacent","DE","4","5","L.jpg","Q.jpg","0","1","0","",""
"","feedback","","html-keyboard-response","413","449035","0.0-1.0-573.0-0.0","0","0","21116","","null","","","null","63","","","","","","","","","","","","","","","",""
"","time_out","","html-keyboard-response","414","451037","0.0-1.0-575.0-0.0","0","0","21116","","null","","","null","63","","","","","","","","","","","","","","","",""
"","ITI","","html-keyboard-response","415","452040","0.0-1.0-576.0","0","0","21116","","null","","","null","63","","","","","","","","","","","","","","","NaN",""
"","S1","","html-keyboard-response","416","452292","0.0-1.0-578.0","0","0","21116","","null","","","null","64","","","","","","","","","","","","","","","",""
"","ISI","","html-keyboard-response","417","454293","0.0-1.0-579.0","0","0","21116","","null","","","null","64","NaN","","","","","","","","","","","","","","",""
"","S2","","html-keyboard-response","418","454545","0.0-1.0-580.0","0","0","21116","","null","","","null","64","","NaN","","","","","","","","","","","","","",""
"","response","","html-keyboard-response","419","455489","0.0-1.0-581.0","0","0","21116","","943","","","75","64","","","2","64","training","adjacent","BA","2","1","O.jpg","R.jpg","0","0","1","",""
"","feedback","","html-keyboard-response","420","456491","0.0-1.0-582.0-0.0","0","0","21116","","null","","","null","64","","","","","","","","","","","","","","","",""
"","ITI","","html-keyboard-response","421","457493","0.0-1.0-585.0","0","0","21116","","null","","","null","64","","","","","","","","","","","","","","","NaN",""
"","S1","","html-keyboard-response","422","457746","0.0-1.0-587.0","0","0","21116","","null","","","null","65","","","","","","","","","","","","","","","",""
"","ISI","","html-keyboard-response","423","459748","0.0-1.0-588.0","0","0","21116","","null","","","null","65","NaN","","","","","","","","","","","","","","",""
"","S2","","html-keyboard-response","424","460000","0.0-1.0-589.0","0","0","21116","","null","","","null","65","","NaN","","","","","","","","","","","","","",""
"","response","","html-keyboard-response","425","460769","0.0-1.0-590.0","0","0","21116","","767","","","68","65","","","2","65","training","adjacent","EF","5","6","Q.jpg","M.jpg","1","1","1","",""
"","feedback","","html-keyboard-response","426","461771","0.0-1.0-591.0-0.0","0","0","21116","","null","","","null","65","","","","","","","","","","","","","","","",""
"","ITI","","html-keyboard-response","427","462777","0.0-1.0-594.0","0","0","21116","","null","","","null","65","","","","","","","","","","","","","","","NaN",""
"","S1","","html-keyboard-response","428","463030","0.0-1.0-596.0","0","0","21116","","null","","","null","66","","","","","","","","","","","","","","","",""
"","ISI","","html-keyboard-response","429","465032","0.0-1.0-597.0","0","0","21116","","null","","","null","66","NaN","","","","","","","","","","","","","","",""
"","S2","","html-keyboard-response","430","465285","0.0-1.0-598.0","0","0","21116","","null","","","null","66","","NaN","","","","","","","","","","","","","",""
"","response","","html-keyboard-response","431","465649","0.0-1.0-599.0","0","0","21116","","363","","","68","66","","","2","66","training","adjacent","EF","5","6","Q.jpg","M.jpg","1","1","1","",""
"","feedback","","html-keyboard-response","432","466651","0.0-1.0-600.0-0.0","0","0","21116","","null","","","null","66","","","","","","","","","","","","","","","",""
"","ITI","","html-keyboard-response","433","467654","0.0-1.0-603.0","0","0","21116","","null","","","null","66","","","","","","","","","","","","","","","NaN",""
"","S1","","html-keyboard-response","434","467906","0.0-1.0-605.0","0","0","21116","","null","","","null","67","","","","","","","","","","","","","","","",""
"","ISI","","html-keyboard-response","435","469908","0.0-1.0-606.0","0","0","21116","","null","","","null","67","NaN","","","","","","","","","","","","","","",""
"","S2","","html-keyboard-response","436","470160","0.0-1.0-607.0","0","0","21116","","null","","","null","67","","NaN","","","","","","","","","","","","","",""
"","response","","html-keyboard-response","437","470609","0.0-1.0-608.0","0","0","21116","","448","","","68","67","","","2","67","training","adjacent","DC","4","3","L.jpg","N.jpg","1","0","0","",""
"","feedback","","html-keyboard-response","438","471612","0.0-1.0-609.0-0.0","0","0","21116","","null","","","null","67","","","","","","","","","","","","","","","",""
"","time_out","","html-keyboard-response","439","473613","0.0-1.0-611.0-0.0","0","0","21116","","null","","","null","67","","","","","","","","","","","","","","","",""
"","ITI","","html-keyboard-response","440","474616","0.0-1.0-612.0","0","0","21116","","null","","","null","67","","","","","","","","","","","","","","","NaN",""
"","S1","","html-keyboard-response","441","474868","0.0-1.0-614.0","0","0","21116","","null","","","null","68","","","","","","","","","","","","","","","",""
"","ISI","","html-keyboard-response","442","476870","0.0-1.0-615.0","0","0","21116","","null","","","null","68","NaN","","","","","","","","","","","","","","",""
"","S2","","html-keyboard-response","443","477123","0.0-1.0-616.0","0","0","21116","","null","","","null","68","","NaN","","","","","","","","","","","","","",""
"","response","","html-keyboard-response","444","478209","0.0-1.0-617.0","0","0","21116","","1084","","","75","68","","","2","68","training","adjacent","FG","6","7","M.jpg","P.jpg","0","1","0","",""
"","feedback","","html-keyboard-response","445","479211","0.0-1.0-618.0-0.0","0","0","21116","","null","","","null","68","","","","","","","","","","","","","","","",""
"","time_out","","html-keyboard-response","446","481214","0.0-1.0-620.0-0.0","0","0","21116","","null","","","null","68","","","","","","","","","","","","","","","",""
"","ITI","","html-keyboard-response","447","482215","0.0-1.0-621.0","0","0","21116","","null","","","null","68","","","","","","","","","","","","","","","NaN",""
"","S1","","html-keyboard-response","448","482467","0.0-1.0-623.0","0","0","21116","","null","","","null","69","","","","","","","","","","","","","","","",""
"","ISI","","html-keyboard-response","449","484471","0.0-1.0-624.0","0","0","21116","","null","","","null","69","NaN","","","","","","","","","","","","","","",""
"","S2","","html-keyboard-response","450","484725","0.0-1.0-625.0","0","0","21116","","null","","","null","69","","NaN","","","","","","","","","","","","","",""
"","response","","html-keyboard-response","451","485761","0.0-1.0-626.0","0","0","21116","","1034","","","68","69","","","2","69","training","adjacent","ED","5","4","Q.jpg","L.jpg","1","0","0","",""
"","feedback","","html-keyboard-response","452","486763","0.0-1.0-627.0-0.0","0","0","21116","","null","","","null","69","","","","","","","","","","","","","","","",""
"","time_out","","html-keyboard-response","453","488765","0.0-1.0-629.0-0.0","0","0","21116","","null","","","null","69","","","","","","","","","","","","","","","",""
"","ITI","","html-keyboard-response","454","489767","0.0-1.0-630.0","0","0","21116","","null","","","null","69","","","","","","","","","","","","","","","NaN",""
"","S1","","html-keyboard-response","455","490019","0.0-1.0-632.0","0","0","21116","","null","","","null","70","","","","","","","","","","","","","","","",""
"","ISI","","html-keyboard-response","456","492021","0.0-1.0-633.0","0","0","21116","","null","","","null","70","NaN","","","","","","","","","","","","","","",""
"","S2","","html-keyboard-response","457","492273","0.0-1.0-634.0","0","0","21116","","null","","","null","70","","NaN","","","","","","","","","","","","","",""
"","response","","html-keyboard-response","458","493025","0.0-1.0-635.0","0","0","21116","","750","","","75","70","","","2","70","training","adjacent","GF","7","6","P.jpg","M.jpg","0","0","1","",""
"","feedback","","html-keyboard-response","459","494027","0.0-1.0-636.0-0.0","0","0","21116","","null","","","null","70","","","","","","","","","","","","","","","",""
"","ITI","","html-keyboard-response","460","495029","0.0-1.0-639.0","0","0","21116","","null","","","null","70","","","","","","","","","","","","","","","NaN",""
"","S1","","html-keyboard-response","461","495281","0.0-1.0-641.0","0","0","21116","","null","","","null","71","","","","","","","","","","","","","","","",""
"","ISI","","html-keyboard-response","462","497283","0.0-1.0-642.0","0","0","21116","","null","","","null","71","NaN","","","","","","","","","","","","","","",""
"","S2","","html-keyboard-response","463","497536","0.0-1.0-643.0","0","0","21116","","null","","","null","71","","NaN","","","","","","","","","","","","","",""
"","response","","html-keyboard-response","464","498144","0.0-1.0-644.0","0","0","21116","","608","","","68","71","","","2","71","training","adjacent","FE","6","5","M.jpg","Q.jpg","1","0","0","",""
"","feedback","","html-keyboard-response","465","499147","0.0-1.0-645.0-0.0","0","0","21116","","null","","","null","71","","","","","","","","","","","","","","","",""
"","time_out","","html-keyboard-response","466","501150","0.0-1.0-647.0-0.0","0","0","21116","","null","","","null","71","","","","","","","","","","","","","","","",""
"","ITI","","html-keyboard-response","467","502152","0.0-1.0-648.0","0","0","21116","","null","","","null","71","","","","","","","","","","","","","","","NaN",""
"","S1","","html-keyboard-response","468","502404","0.0-1.0-650.0","0","0","21116","","null","","","null","72","","","","","","","","","","","","","","","",""
"","ISI","","html-keyboard-response","469","504405","0.0-1.0-651.0","0","0","21116","","892","","","75","72","k","","","","","","","","","","","","","","",""
"","S2","","html-keyboard-response","470","504658","0.0-1.0-652.0","0","0","21116","","null","","","null","72","","NaN","","","","","","","","","","","","","",""
"","response","","html-keyboard-response","471","505713","0.0-1.0-653.0","0","0","21116","","1054","","","68","72","","","2","72","training","adjacent","AB","1","2","R.jpg","O.jpg","1","1","1","",""
"","feedback","","html-keyboard-response","472","506716","0.0-1.0-654.0-0.0","0","0","21116","","null","","","null","72","","","","","","","","","","","","","","","",""
"","ITI","","html-keyboard-response","473","507718","0.0-1.0-657.0","0","0","21116","","null","","","null","72","","","","","","","","","","","","","","","NaN",""
"","S1","","html-keyboard-response","474","507972","0.0-1.0-659.0","0","0","21116","","null","","","null","73","","","","","","","","","","","","","","","",""
"","ISI","","html-keyboard-response","475","509974","0.0-1.0-660.0","0","0","21116","","null","","","null","73","NaN","","","","","","","","","","","","","","",""
"","S2","","html-keyboard-response","476","510226","0.0-1.0-661.0","0","0","21116","","null","","","null","73","","NaN","","","","","","","","","","","","","",""
"","response","","html-keyboard-response","477","511168","0.0-1.0-662.0","0","0","21116","","940","","","68","73","","","2","73","training","adjacent","BC","2","3","O.jpg","N.jpg","1","1","1","",""
"","feedback","","html-keyboard-response","478","512170","0.0-1.0-663.0-0.0","0","0","21116","","null","","","null","73","","","","","","","","","","","","","","","",""
"","ITI","","html-keyboard-response","479","513173","0.0-1.0-666.0","0","0","21116","","null","","","null","73","","","","","","","","","","","","","","","NaN",""
"","S1","","html-keyboard-response","480","513426","0.0-1.0-668.0","0","0","21116","","null","","","null","74","","","","","","","","","","","","","","","",""
"","ISI","","html-keyboard-response","481","515428","0.0-1.0-669.0","0","0","21116","","null","","","null","74","NaN","","","","","","","","","","","","","","",""
"","S2","","html-keyboard-response","482","515680","0.0-1.0-670.0","0","0","21116","","null","","","null","74","","NaN","","","","","","","","","","","","","",""
"","response","","html-keyboard-response","483","516993","0.0-1.0-671.0","0","0","21116","","1312","","","75","74","","","2","74","training","adjacent","EF","5","6","Q.jpg","M.jpg","0","1","0","",""
"","feedback","","html-keyboard-response","484","517996","0.0-1.0-672.0-0.0","0","0","21116","","null","","","null","74","","","","","","","","","","","","","","","",""
"","time_out","","html-keyboard-response","485","519998","0.0-1.0-674.0-0.0","0","0","21116","","null","","","null","74","","","","","","","","","","","","","","","",""
"","ITI","","html-keyboard-response","486","521001","0.0-1.0-675.0","0","0","21116","","null","","","null","74","","","","","","","","","","","","","","","NaN",""
"","S1","","html-keyboard-response","487","521254","0.0-1.0-677.0","0","0","21116","","null","","","null","75","","","","","","","","","","","","","","","",""
"","ISI","","html-keyboard-response","488","523255","0.0-1.0-678.0","0","0","21116","","null","","","null","75","NaN","","","","","","","","","","","","","","",""
"","S2","","html-keyboard-response","489","523507","0.0-1.0-679.0","0","0","21116","","null","","","null","75","","NaN","","","","","","","","","","","","","",""
"","response","","html-keyboard-response","490","524144","0.0-1.0-680.0","0","0","21116","","635","","","68","75","","","2","75","training","adjacent","FG","6","7","M.jpg","P.jpg","1","1","1","",""
"","feedback","","html-keyboard-response","491","525146","0.0-1.0-681.0-0.0","0","0","21116","","null","","","null","75","","","","","","","","","","","","","","","",""
"","ITI","","html-keyboard-response","492","526148","0.0-1.0-684.0","0","0","21116","","null","","","null","75","","","","","","","","","","","","","","","NaN",""
"","S1","","html-keyboard-response","493","526400","0.0-1.0-686.0","0","0","21116","","null","","","null","76","","","","","","","","","","","","","","","",""
"","ISI","","html-keyboard-response","494","528402","0.0-1.0-687.0","0","0","21116","","null","","","null","76","NaN","","","","","","","","","","","","","","",""
"","S2","","html-keyboard-response","495","528654","0.0-1.0-688.0","0","0","21116","","null","","","null","76","","NaN","","","","","","","","","","","","","",""
"","response","","html-keyboard-response","496","529297","0.0-1.0-689.0","0","0","21116","","641","","","68","76","","","2","76","training","adjacent","AB","1","2","R.jpg","O.jpg","1","1","1","",""
"","feedback","","html-keyboard-response","497","530299","0.0-1.0-690.0-0.0","0","0","21116","","null","","","null","76","","","","","","","","","","","","","","","",""
"","ITI","","html-keyboard-response","498","531302","0.0-1.0-693.0","0","0","21116","","null","","","null","76","","","","","","","","","","","","","","","NaN",""
"","S1","","html-keyboard-response","499","531554","0.0-1.0-695.0","0","0","21116","","null","","","null","77","","","","","","","","","","","","","","","",""
"","ISI","","html-keyboard-response","500","533556","0.0-1.0-696.0","0","0","21116","","null","","","null","77","NaN","","","","","","","","","","","","","","",""
"","S2","","html-keyboard-response","501","533808","0.0-1.0-697.0","0","0","21116","","null","","","null","77","","NaN","","","","","","","","","","","","","",""
"","response","","html-keyboard-response","502","534320","0.0-1.0-698.0","0","0","21116","","511","","","75","77","","","2","77","training","adjacent","DC","4","3","L.jpg","N.jpg","0","0","1","",""
"","feedback","","html-keyboard-response","503","535323","0.0-1.0-699.0-0.0","0","0","21116","","null","","","null","77","","","","","","","","","","","","","","","",""
"","ITI","","html-keyboard-response","504","536325","0.0-1.0-702.0","0","0","21116","","null","","","null","77","","","","","","","","","","","","","","","NaN",""
"","S1","","html-keyboard-response","505","536577","0.0-1.0-704.0","0","0","21116","","null","","","null","78","","","","","","","","","","","","","","","",""
"","ISI","","html-keyboard-response","506","538579","0.0-1.0-705.0","0","0","21116","","null","","","null","78","NaN","","","","","","","","","","","","","","",""
"","S2","","html-keyboard-response","507","538831","0.0-1.0-706.0","0","0","21116","","null","","","null","78","","NaN","","","","","","","","","","","","","",""
"","response","","html-keyboard-response","508","539168","0.0-1.0-707.0","0","0","21116","","335","","","75","78","","","2","78","training","adjacent","FE","6","5","M.jpg","Q.jpg","0","0","1","",""
"","feedback","","html-keyboard-response","509","540170","0.0-1.0-708.0-0.0","0","0","21116","","null","","","null","78","","","","","","","","","","","","","","","",""
"","ITI","","html-keyboard-response","510","541173","0.0-1.0-711.0","0","0","21116","","null","","","null","78","","","","","","","","","","","","","","","NaN",""
"","S1","","html-keyboard-response","511","541425","0.0-1.0-713.0","0","0","21116","","null","","","null","79","","","","","","","","","","","","","","","",""
"","ISI","","html-keyboard-response","512","543427","0.0-1.0-714.0","0","0","21116","","null","","","null","79","NaN","","","","","","","","","","","","","","",""
"","S2","","html-keyboard-response","513","543679","0.0-1.0-715.0","0","0","21116","","null","","","null","79","","NaN","","","","","","","","","","","","","",""
"","response","","html-keyboard-response","514","544417","0.0-1.0-716.0","0","0","21116","","737","","","75","79","","","2","79","training","adjacent","BC","2","3","O.jpg","N.jpg","0","1","0","",""
"","feedback","","html-keyboard-response","515","545418","0.0-1.0-717.0-0.0","0","0","21116","","null","","","null","79","","","","","","","","","","","","","","","",""
"","time_out","","html-keyboard-response","516","547421","0.0-1.0-719.0-0.0","0","0","21116","","null","","","null","79","","","","","","","","","","","","","","","",""
"","ITI","","html-keyboard-response","517","548423","0.0-1.0-720.0","0","0","21116","","null","","","null","79","","","","","","","","","","","","","","","NaN",""
"","S1","","html-keyboard-response","518","548676","0.0-1.0-722.0","0","0","21116","","null","","","null","80","","","","","","","","","","","","","","","",""
"","ISI","","html-keyboard-response","519","550678","0.0-1.0-723.0","0","0","21116","","null","","","null","80","NaN","","","","","","","","","","","","","","",""
"","S2","","html-keyboard-response","520","550931","0.0-1.0-724.0","0","0","21116","","null","","","null","80","","NaN","","","","","","","","","","","","","",""
"","response","","html-keyboard-response","521","552016","0.0-1.0-725.0","0","0","21116","","1084","","","75","80","","","2","80","training","adjacent","DC","4","3","L.jpg","N.jpg","0","0","1","",""
"","feedback","","html-keyboard-response","522","553019","0.0-1.0-726.0-0.0","0","0","21116","","null","","","null","80","","","","","","","","","","","","","","","",""
"","ITI","","html-keyboard-response","523","554022","0.0-1.0-729.0","0","0","21116","","null","","","null","80","","","","","","","","","","","","","","","NaN",""
"","S1","","html-keyboard-response","524","554273","0.0-1.0-731.0","0","0","21116","","null","","","null","81","","","","","","","","","","","","","","","",""
"","ISI","","html-keyboard-response","525","556274","0.0-1.0-732.0","0","0","21116","","null","","","null","81","NaN","","","","","","","","","","","","","","",""
"","S2","","html-keyboard-response","526","556527","0.0-1.0-733.0","0","0","21116","","null","","","null","81","","NaN","","","","","","","","","","","","","",""
"","response","","html-keyboard-response","527","557105","0.0-1.0-734.0","0","0","21116","","577","","","68","81","","","2","81","training","adjacent","AB","1","2","R.jpg","O.jpg","1","1","1","",""
"","feedback","","html-keyboard-response","528","558106","0.0-1.0-735.0-0.0","0","0","21116","","null","","","null","81","","","","","","","","","","","","","","","",""
"","ITI","","html-keyboard-response","529","559108","0.0-1.0-738.0","0","0","21116","","null","","","null","81","","","","","","","","","","","","","","","NaN",""
"","S1","","html-keyboard-response","530","559362","0.0-1.0-740.0","0","0","21116","","null","","","null","82","","","","","","","","","","","","","","","",""
"","ISI","","html-keyboard-response","531","561364","0.0-1.0-741.0","0","0","21116","","null","","","null","82","NaN","","","","","","","","","","","","","","",""
"","S2","","html-keyboard-response","532","561617","0.0-1.0-742.0","0","0","21116","","null","","","null","82","","NaN","","","","","","","","","","","","","",""
"","response","","html-keyboard-response","533","562896","0.0-1.0-743.0","0","0","21116","","1278","","","75","82","","","2","82","training","adjacent","AB","1","2","R.jpg","O.jpg","0","1","0","",""
"","feedback","","html-keyboard-response","534","563899","0.0-1.0-744.0-0.0","0","0","21116","","null","","","null","82","","","","","","","","","","","","","","","",""
"","time_out","","html-keyboard-response","535","565900","0.0-1.0-746.0-0.0","0","0","21116","","null","","","null","82","","","","","","","","","","","","","","","",""
"","ITI","","html-keyboard-response","536","566903","0.0-1.0-747.0","0","0","21116","","null","","","null","82","","","","","","","","","","","","","","","NaN",""
"","S1","","html-keyboard-response","537","567171","0.0-1.0-749.0","0","0","21116","","null","","","null","83","","","","","","","","","","","","","","","",""
"","ISI","","html-keyboard-response","538","569173","0.0-1.0-750.0","0","0","21116","","null","","","null","83","NaN","","","","","","","","","","","","","","",""
"","S2","","html-keyboard-response","539","569425","0.0-1.0-751.0","0","0","21116","","null","","","null","83","","NaN","","","","","","","","","","","","","",""
"","response","","html-keyboard-response","540","570288","0.0-1.0-752.0","0","0","21116","","862","","","75","83","","","2","83","training","adjacent","BA","2","1","O.jpg","R.jpg","0","0","1","",""
"","feedback","","html-keyboard-response","541","571291","0.0-1.0-753.0-0.0","0","0","21116","","null","","","null","83","","","","","","","","","","","","","","","",""
"","ITI","","html-keyboard-response","542","572293","0.0-1.0-756.0","0","0","21116","","null","","","null","83","","","","","","","","","","","","","","","NaN",""
"","S1","","html-keyboard-response","543","572545","0.0-1.0-758.0","0","0","21116","","null","","","null","84","","","","","","","","","","","","","","","",""
"","ISI","","html-keyboard-response","544","574547","0.0-1.0-759.0","0","0","21116","","null","","","null","84","NaN","","","","","","","","","","","","","","",""
"","S2","","html-keyboard-response","545","574799","0.0-1.0-760.0","0","0","21116","","null","","","null","84","","NaN","","","","","","","","","","","","","",""
"","response","","html-keyboard-response","546","575696","0.0-1.0-761.0","0","0","21116","","895","","","68","84","","","2","84","training","adjacent","CB","3","2","N.jpg","O.jpg","1","0","0","",""
"","feedback","","html-keyboard-response","547","576698","0.0-1.0-762.0-0.0","0","0","21116","","null","","","null","84","","","","","","","","","","","","","","","",""
"","time_out","","html-keyboard-response","548","578701","0.0-1.0-764.0-0.0","0","0","21116","","null","","","null","84","","","","","","","","","","","","","","","",""
"","ITI","","html-keyboard-response","549","579703","0.0-1.0-765.0","0","0","21116","","null","","","null","84","","","","","","","","","","","","","","","NaN",""
"","S1","","html-keyboard-response","550","579956","0.0-1.0-767.0","0","0","21116","","null","","","null","85","","","","","","","","","","","","","","","",""
"","ISI","","html-keyboard-response","551","581958","0.0-1.0-768.0","0","0","21116","","null","","","null","85","NaN","","","","","","","","","","","","","","",""
"","S2","","html-keyboard-response","552","582210","0.0-1.0-769.0","0","0","21116","","null","","","null","85","","NaN","","","","","","","","","","","","","",""
"","response","","html-keyboard-response","553","582736","0.0-1.0-770.0","0","0","21116","","525","","","68","85","","","2","85","training","adjacent","ED","5","4","Q.jpg","L.jpg","1","0","0","",""
"","feedback","","html-keyboard-response","554","583740","0.0-1.0-771.0-0.0","0","0","21116","","null","","","null","85","","","","","","","","","","","","","","","",""
"","time_out","","html-keyboard-response","555","585742","0.0-1.0-773.0-0.0","0","0","21116","","null","","","null","85","","","","","","","","","","","","","","","",""
"","ITI","","html-keyboard-response","556","586744","0.0-1.0-774.0","0","0","21116","","null","","","null","85","","","","","","","","","","","","","","","NaN",""
"","S1","","html-keyboard-response","557","586996","0.0-1.0-776.0","0","0","21116","","null","","","null","86","","","","","","","","","","","","","","","",""
"","ISI","","html-keyboard-response","558","588998","0.0-1.0-777.0","0","0","21116","","null","","","null","86","NaN","","","","","","","","","","","","","","",""
"","S2","","html-keyboard-response","559","589251","0.0-1.0-778.0","0","0","21116","","null","","","null","86","","NaN","","","","","","","","","","","","","",""
"","response","","html-keyboard-response","560","590639","0.0-1.0-779.0","0","0","21116","","1387","","","75","86","","","2","86","training","adjacent","CB","3","2","N.jpg","O.jpg","0","0","1","",""
"","feedback","","html-keyboard-response","561","591642","0.0-1.0-780.0-0.0","0","0","21116","","null","","","null","86","","","","","","","","","","","","","","","",""
"","ITI","","html-keyboard-response","562","592645","0.0-1.0-783.0","0","0","21116","","null","","","null","86","","","","","","","","","","","","","","","NaN",""
"","S1","","html-keyboard-response","563","592897","0.0-1.0-785.0","0","0","21116","","null","","","null","87","","","","","","","","","","","","","","","",""
"","ISI","","html-keyboard-response","564","594898","0.0-1.0-786.0","0","0","21116","","null","","","null","87","NaN","","","","","","","","","","","","","","",""
"","S2","","html-keyboard-response","565","595150","0.0-1.0-787.0","0","0","21116","","null","","","null","87","","NaN","","","","","","","","","","","","","",""
"","response","","html-keyboard-response","566","596129","0.0-1.0-788.0","0","0","21116","","977","","","68","87","","","2","87","training","adjacent","CD","3","4","N.jpg","L.jpg","1","1","1","",""
"","feedback","","html-keyboard-response","567","597132","0.0-1.0-789.0-0.0","0","0","21116","","null","","","null","87","","","","","","","","","","","","","","","",""
"","ITI","","html-keyboard-response","568","598136","0.0-1.0-792.0","0","0","21116","","null","","","null","87","","","","","","","","","","","","","","","NaN",""
"","S1","","html-keyboard-response","569","598388","0.0-1.0-794.0","0","0","21116","","null","","","null","88","","","","","","","","","","","","","","","",""
"","ISI","","html-keyboard-response","570","600390","0.0-1.0-795.0","0","0","21116","","null","","","null","88","NaN","","","","","","","","","","","","","","",""
"","S2","","html-keyboard-response","571","600643","0.0-1.0-796.0","0","0","21116","","null","","","null","88","","NaN","","","","","","","","","","","","","",""
"","response","","html-keyboard-response","572","601040","0.0-1.0-797.0","0","0","21116","","396","","","68","88","","","2","88","training","adjacent","CD","3","4","N.jpg","L.jpg","1","1","1","",""
"","feedback","","html-keyboard-response","573","602042","0.0-1.0-798.0-0.0","0","0","21116","","null","","","null","88","","","","","","","","","","","","","","","",""
"","ITI","","html-keyboard-response","574","603045","0.0-1.0-801.0","0","0","21116","","null","","","null","88","","","","","","","","","","","","","","","NaN",""
"","S1","","html-keyboard-response","575","603296","0.0-1.0-803.0","0","0","21116","","null","","","null","89","","","","","","","","","","","","","","","",""
"","ISI","","html-keyboard-response","576","605298","0.0-1.0-804.0","0","0","21116","","null","","","null","89","NaN","","","","","","","","","","","","","","",""
"","S2","","html-keyboard-response","577","605553","0.0-1.0-805.0","0","0","21116","","null","","","null","89","","NaN","","","","","","","","","","","","","",""
"","response","","html-keyboard-response","578","606448","0.0-1.0-806.0","0","0","21116","","893","","","68","89","","","2","89","training","adjacent","FG","6","7","M.jpg","P.jpg","1","1","1","",""
"","feedback","","html-keyboard-response","579","607451","0.0-1.0-807.0-0.0","0","0","21116","","null","","","null","89","","","","","","","","","","","","","","","",""
"","ITI","","html-keyboard-response","580","608453","0.0-1.0-810.0","0","0","21116","","null","","","null","89","","","","","","","","","","","","","","","NaN",""
"","S1","","html-keyboard-response","581","608706","0.0-1.0-812.0","0","0","21116","","null","","","null","90","","","","","","","","","","","","","","","",""
"","ISI","","html-keyboard-response","582","610708","0.0-1.0-813.0","0","0","21116","","null","","","null","90","NaN","","","","","","","","","","","","","","",""
"","S2","","html-keyboard-response","583","610960","0.0-1.0-814.0","0","0","21116","","null","","","null","90","","NaN","","","","","","","","","","","","","",""
"","response","","html-keyboard-response","584","611760","0.0-1.0-815.0","0","0","21116","","798","","","75","90","","","2","90","training","adjacent","BA","2","1","O.jpg","R.jpg","0","0","1","",""
