"success","ttype","start_time","trial_type","trial_index","time_elapsed","internal_node_id","warning","missed_checkup","PID","view_history","rt","responses","repeat_instructions","key_press","index","keypress_isi","keypress_S2","block","trial_num","phase","group_type","pair_type","S1_stim","S2_stim","S1_img","S2_img","S1_chosen","S1_higher","accuracy","keypress_iti","total_bonus_tally"
"true","full_screen","d04062023hr1815","fullscreen","0","10165","0.0-0.0","0","0","98537","","","","","","","","","","","","","","","","","","","","","",""
"","instructions","","instructions","1","74781","0.0-1.0-0.0-0.0","0","0","98537","[{""page_index"":0,""viewing_time"":7128},{""page_index"":1,""viewing_time"":32},{""page_index"":0,""viewing_time"":3215},{""page_index"":1,""viewing_time"":34629},{""page_index"":2,""viewing_time"":17918},{""page_index"":3,""viewing_time"":1692}]","64614","","","","","","","","","","","","","","","","","","","",""
"","comprehension_check","","survey-multi-choice","2","225831","0.0-1.0-0.0-1.0","0","0","98537","","151046","{""Q0"":""True"",""Q1"":""K"",""Q2"":""Once the second image appears and while the screen 'MAKE A CHOICE' is shown"",""Q3"":"""",""Q4"":""either D or K""}","1","","","","","","","","","","","","","","","","","",""
"","missed_instruction_checkup","","html-keyboard-response","3","227708","0.0-1.0-0.0-2.0-0.0","0","1","98537","","1874","","","32","","","","","","","","","","","","","","","","",""
"","instructions","","instructions","4","234698","0.0-1.0-0.1-0.1","0","0","98537","[{""page_index"":0,""viewing_time"":2109},{""page_index"":1,""viewing_time"":2989},{""page_index"":2,""viewing_time"":788},{""page_index"":3,""viewing_time"":1101}]","6987","","","","","","","","","","","","","","","","","","","",""
"","comprehension_check","","survey-multi-choice","5","248627","0.0-1.0-0.1-1.1","0","0","98537","","13927","{""Q0"":""True"",""Q1"":""K"",""Q2"":""Once the second image appears and while the screen 'MAKE A CHOICE' is shown"",""Q3"":""Green mark"",""Q4"":""either D or K""}","0","","","","","","","","","","","","","","","","","",""
"","start_exp","","html-keyboard-response","6","250114","0.0-1.0-1.0","0","0","98537","","1485","","","32","","","","","","","","","","","","","","","","",""
"","S1","","html-keyboard-response","7","250280","0.0-1.0-2.0","0","0","98537","","null","","","null","0","","","","","","","","","","","","","","","",""
"","ISI","","html-keyboard-response","8","252285","0.0-1.0-3.0","0","0","98537","","null","","","null","0","NaN","","","","","","","","","","","","","","",""
"","S2","","html-keyboard-response","9","252441","0.0-1.0-4.0","0","0","98537","","null","","","null","0","","NaN","","","","","","","","","","","","","",""
"","response","","html-keyboard-response","10","254295","0.0-1.0-5.0-0.0","0","0","98537","","null","","","null","0","","","1","0","training","adjacent","CB","3","2","R.jpg","L.jpg","NaN","0","0","",""
"","too_slow_prompt","","html-keyboard-response","11","255299","0.0-1.0-7.0-0.0","1","0","98537","","null","","","null","","","","","","","","","","","","","","","","",""
"","time_out","","html-keyboard-response","12","257303","0.0-1.0-8.0-0.0","0","0","98537","","null","","","null","0","","","","","","","","","","","","","","","",""
"","ITI","","html-keyboard-response","13","258309","0.0-1.0-9.0","0","0","98537","","null","","","null","0","","","","","","","","","","","","","","","NaN",""
"","S1","","html-keyboard-response","14","258463","0.0-1.0-11.0","0","0","98537","","null","","","null","1","","","","","","","","","","","","","","","",""
"","ISI","","html-keyboard-response","15","260466","0.0-1.0-12.0","0","0","98537","","null","","","null","1","NaN","","","","","","","","","","","","","","",""
"","S2","","html-keyboard-response","16","260621","0.0-1.0-13.0","0","0","98537","","null","","","null","1","","NaN","","","","","","","","","","","","","",""
"","response","","html-keyboard-response","17","261016","0.0-1.0-14.0-0.0","0","0","98537","","393","","","75","1","","","1","1","training","adjacent","CD","3","4","R.jpg","O.jpg","1","1","1","",""
"","feedback","","html-keyboard-response","18","262028","0.0-1.0-15.0-0.0","0","0","98537","","null","","","null","1","","","","","","","","","","","","","","","",""
"","ITI","","html-keyboard-response","19","263038","0.0-1.0-18.0","0","0","98537","","null","","","null","1","","","","","","","","","","","","","","","NaN",""
"","S1","","html-keyboard-response","20","263192","0.0-1.0-20.0","0","0","98537","","null","","","null","2","","","","","","","","","","","","","","","",""
"","ISI","","html-keyboard-response","21","265194","0.0-1.0-21.0","0","0","98537","","null","","","null","2","NaN","","","","","","","","","","","","","","",""
"","S2","","html-keyboard-response","22","265353","0.0-1.0-22.0","0","0","98537","","null","","","null","2","","NaN","","","","","","","","","","","","","",""
"","response","","html-keyboard-response","23","265909","0.0-1.0-23.0-0.0","0","0","98537","","555","","","68","2","","","1","2","training","adjacent","ED","5","4","M.jpg","O.jpg","0","0","1","",""
"","feedback","","html-keyboard-response","24","266915","0.0-1.0-24.0-0.0","0","0","98537","","null","","","null","2","","","","","","","","","","","","","","","",""
"","ITI","","html-keyboard-response","25","267916","0.0-1.0-27.0","0","0","98537","","null","","","null","2","","","","","","","","","","","","","","","NaN",""
"","S1","","html-keyboard-response","26","268073","0.0-1.0-29.0","0","0","98537","","null","","","null","3","","","","","","","","","","","","","","","",""
"","ISI","","html-keyboard-response","27","270084","0.0-1.0-30.0","0","0","98537","","null","","","null","3","NaN","","","","","","","","","","","","","","",""
"","S2","","html-keyboard-response","28","270240","0.0-1.0-31.0","0","0","98537","","null","","","null","3","","NaN","","","","","","","","","","","","","",""
"","response","","html-keyboard-response","29","271187","0.0-1.0-32.0-0.0","0","0","98537","","946","","","75","3","","","1","3","training","adjacent","EF","5","6","M.jpg","Q.jpg","1","1","1","",""
"","feedback","","html-keyboard-response","30","272194","0.0-1.0-33.0-0.0","0","0","98537","","null","","","null","3","","","","","","","","","","","","","","","",""
"","ITI","","html-keyboard-response","31","273199","0.0-1.0-36.0","0","0","98537","","null","","","null","3","","","","","","","","","","","","","","","NaN",""
"","S1","","html-keyboard-response","32","273357","0.0-1.0-38.0","0","0","98537","","null","","","null","4","","","","","","","","","","","","","","","",""
"","ISI","","html-keyboard-response","33","275373","0.0-1.0-39.0","0","0","98537","","null","","","null","4","NaN","","","","","","","","","","","","","","",""
"","S2","","html-keyboard-response","34","275525","0.0-1.0-40.0","0","0","98537","","null","","","null","4","","NaN","","","","","","","","","","","","","",""
"","response","","html-keyboard-response","35","276088","0.0-1.0-41.0-0.0","0","0","98537","","561","","","75","4","","","1","4","training","adjacent","DC","4","3","O.jpg","R.jpg","1","0","0","",""
"","feedback","","html-keyboard-response","36","277104","0.0-1.0-42.0-0.0","0","0","98537","","null","","","null","4","","","","","","","","","","","","","","","",""
"","time_out","","html-keyboard-response","37","279117","0.0-1.0-44.0-0.0","0","0","98537","","null","","","null","4","","","","","","","","","","","","","","","",""
"","ITI","","html-keyboard-response","38","280121","0.0-1.0-45.0","0","0","98537","","null","","","null","4","","","","","","","","","","","","","","","NaN",""
"","S1","","html-keyboard-response","39","280278","0.0-1.0-47.0","0","0","98537","","null","","","null","5","","","","","","","","","","","","","","","",""
"","ISI","","html-keyboard-response","40","282290","0.0-1.0-48.0","0","0","98537","","null","","","null","5","NaN","","","","","","","","","","","","","","",""
"","S2","","html-keyboard-response","41","282445","0.0-1.0-49.0","0","0","98537","","null","","","null","5","","NaN","","","","","","","","","","","","","",""
"","response","","html-keyboard-response","42","283102","0.0-1.0-50.0-0.0","0","0","98537","","656","","","68","5","","","1","5","training","adjacent","BC","2","3","L.jpg","R.jpg","0","1","0","",""
"","feedback","","html-keyboard-response","43","284117","0.0-1.0-51.0-0.0","0","0","98537","","null","","","null","5","","","","","","","","","","","","","","","",""
"","time_out","","html-keyboard-response","44","286132","0.0-1.0-53.0-0.0","0","0","98537","","null","","","null","5","","","","","","","","","","","","","","","",""
"","ITI","","html-keyboard-response","45","287136","0.0-1.0-54.0","0","0","98537","","null","","","null","5","","","","","","","","","","","","","","","NaN",""
"","S1","","html-keyboard-response","46","287291","0.0-1.0-56.0","0","0","98537","","null","","","null","6","","","","","","","","","","","","","","","",""
"","ISI","","html-keyboard-response","47","289306","0.0-1.0-57.0","0","0","98537","","null","","","null","6","NaN","","","","","","","","","","","","","","",""
"","S2","","html-keyboard-response","48","289461","0.0-1.0-58.0","0","0","98537","","null","","","null","6","","NaN","","","","","","","","","","","","","",""
"","response","","html-keyboard-response","49","290276","0.0-1.0-59.0-0.0","0","0","98537","","814","","","75","6","","","1","6","training","adjacent","FG","6","7","Q.jpg","N.jpg","1","1","1","",""
"","feedback","","html-keyboard-response","50","291290","0.0-1.0-60.0-0.0","0","0","98537","","null","","","null","6","","","","","","","","","","","","","","","",""
"","ITI","","html-keyboard-response","51","292297","0.0-1.0-63.0","0","0","98537","","null","","","null","6","","","","","","","","","","","","","","","NaN",""
"","S1","","html-keyboard-response","52","292454","0.0-1.0-65.0","0","0","98537","","null","","","null","7","","","","","","","","","","","","","","","",""
"","ISI","","html-keyboard-response","53","294465","0.0-1.0-66.0","0","0","98537","","null","","","null","7","NaN","","","","","","","","","","","","","","",""
"","S2","","html-keyboard-response","54","294618","0.0-1.0-67.0","0","0","98537","","null","","","null","7","","NaN","","","","","","","","","","","","","",""
"","response","","html-keyboard-response","55","295523","0.0-1.0-68.0-0.0","0","0","98537","","901","","","68","7","","","1","7","training","adjacent","GF","7","6","N.jpg","Q.jpg","0","0","1","",""
"","feedback","","html-keyboard-response","56","296541","0.0-1.0-69.0-0.0","0","0","98537","","null","","","null","7","","","","","","","","","","","","","","","",""
"","ITI","","html-keyboard-response","57","297554","0.0-1.0-72.0","0","0","98537","","null","","","null","7","","","","","","","","","","","","","","","NaN",""
"","S1","","html-keyboard-response","58","297709","0.0-1.0-74.0","0","0","98537","","null","","","null","8","","","","","","","","","","","","","","","",""
"","ISI","","html-keyboard-response","59","299714","0.0-1.0-75.0","0","0","98537","","null","","","null","8","NaN","","","","","","","","","","","","","","",""
"","S2","","html-keyboard-response","60","299869","0.0-1.0-76.0","0","0","98537","","null","","","null","8","","NaN","","","","","","","","","","","","","",""
"","response","","html-keyboard-response","61","300962","0.0-1.0-77.0-0.0","0","0","98537","","1092","","","68","8","","","1","8","training","adjacent","AB","1","2","P.jpg","L.jpg","0","1","0","",""
"","feedback","","html-keyboard-response","62","301965","0.0-1.0-78.0-0.0","0","0","98537","","null","","","null","8","","","","","","","","","","","","","","","",""
"","time_out","","html-keyboard-response","63","303980","0.0-1.0-80.0-0.0","0","0","98537","","null","","","null","8","","","","","","","","","","","","","","","",""
"","ITI","","html-keyboard-response","64","304989","0.0-1.0-81.0","0","0","98537","","null","","","null","8","","","","","","","","","","","","","","","NaN",""
"","S1","","html-keyboard-response","65","305145","0.0-1.0-83.0","0","0","98537","","null","","","null","9","","","","","","","","","","","","","","","",""
"","ISI","","html-keyboard-response","66","307148","0.0-1.0-84.0","0","0","98537","","null","","","null","9","NaN","","","","","","","","","","","","","","",""
"","S2","","html-keyboard-response","67","307305","0.0-1.0-85.0","0","0","98537","","null","","","null","9","","NaN","","","","","","","","","","","","","",""
"","response","","html-keyboard-response","68","308137","0.0-1.0-86.0-0.0","0","0","98537","","830","","","68","9","","","1","9","training","adjacent","GF","7","6","N.jpg","Q.jpg","0","0","1","",""
"","feedback","","html-keyboard-response","69","309140","0.0-1.0-87.0-0.0","0","0","98537","","null","","","null","9","","","","","","","","","","","","","","","",""
"","ITI","","html-keyboard-response","70","310146","0.0-1.0-90.0","0","0","98537","","null","","","null","9","","","","","","","","","","","","","","","NaN",""
"","S1","","html-keyboard-response","71","310303","0.0-1.0-92.0","0","0","98537","","null","","","null","10","","","","","","","","","","","","","","","",""
"","ISI","","html-keyboard-response","72","312320","0.0-1.0-93.0","0","0","98537","","null","","","null","10","NaN","","","","","","","","","","","","","","",""
"","S2","","html-keyboard-response","73","312475","0.0-1.0-94.0","0","0","98537","","null","","","null","10","","NaN","","","","","","","","","","","","","",""
"","response","","html-keyboard-response","74","313807","0.0-1.0-95.0-0.0","0","0","98537","","1331","","","68","10","","","1","10","training","adjacent","BA","2","1","L.jpg","P.jpg","0","0","1","",""
"","feedback","","html-keyboard-response","75","314818","0.0-1.0-96.0-0.0","0","0","98537","","null","","","null","10","","","","","","","","","","","","","","","",""
"","ITI","","html-keyboard-response","76","315825","0.0-1.0-99.0","0","0","98537","","null","","","null","10","","","","","","","","","","","","","","","NaN",""
"","S1","","html-keyboard-response","77","315983","0.0-1.0-101.0","0","0","98537","","null","","","null","11","","","","","","","","","","","","","","","",""
"","ISI","","html-keyboard-response","78","317998","0.0-1.0-102.0","0","0","98537","","null","","","null","11","NaN","","","","","","","","","","","","","","",""
"","S2","","html-keyboard-response","79","318152","0.0-1.0-103.0","0","0","98537","","null","","","null","11","","NaN","","","","","","","","","","","","","",""
"","response","","html-keyboard-response","80","319687","0.0-1.0-104.0-0.0","0","0","98537","","1533","","","68","11","","","1","11","training","adjacent","ED","5","4","M.jpg","O.jpg","0","0","1","",""
"","feedback","","html-keyboard-response","81","320698","0.0-1.0-105.0-0.0","0","0","98537","","null","","","null","11","","","","","","","","","","","","","","","",""
"","ITI","","html-keyboard-response","82","321701","0.0-1.0-108.0","0","0","98537","","null","","","null","11","","","","","","","","","","","","","","","NaN",""
"","S1","","html-keyboard-response","83","321859","0.0-1.0-110.0","0","0","98537","","null","","","null","12","","","","","","","","","","","","","","","",""
"","ISI","","html-keyboard-response","84","323875","0.0-1.0-111.0","0","0","98537","","null","","","null","12","NaN","","","","","","","","","","","","","","",""
"","S2","","html-keyboard-response","85","324034","0.0-1.0-112.0","0","0","98537","","null","","","null","12","","NaN","","","","","","","","","","","","","",""
"","response","","html-keyboard-response","86","324865","0.0-1.0-113.0-0.0","0","0","98537","","829","","","68","12","","","1","12","training","adjacent","ED","5","4","M.jpg","O.jpg","0","0","1","",""
"","feedback","","html-keyboard-response","87","325867","0.0-1.0-114.0-0.0","0","0","98537","","null","","","null","12","","","","","","","","","","","","","","","",""
"","ITI","","html-keyboard-response","88","326870","0.0-1.0-117.0","0","0","98537","","null","","","null","12","","","","","","","","","","","","","","","NaN",""
"","S1","","html-keyboard-response","89","327028","0.0-1.0-119.0","0","0","98537","","null","","","null","13","","","","","","","","","","","","","","","",""
"","ISI","","html-keyboard-response","90","329043","0.0-1.0-120.0","0","0","98537","","null","","","null","13","NaN","","","","","","","","","","","","","","",""
"","S2","","html-keyboard-response","91","329197","0.0-1.0-121.0","0","0","98537","","null","","","null","13","","NaN","","","","","","","","","","","","","",""
"","response","","html-keyboard-response","92","329805","0.0-1.0-122.0-0.0","0","0","98537","","606","","","75","13","","","1","13","training","adjacent","DC","4","3","O.jpg","R.jpg","1","0","0","",""
"","feedback","","html-keyboard-response","93","330816","0.0-1.0-123.0-0.0","0","0","98537","","null","","","null","13","","","","","","","","","","","","","","","",""
"","time_out","","html-keyboard-response","94","332830","0.0-1.0-125.0-0.0","0","0","98537","","null","","","null","13","","","","","","","","","","","","","","","",""
"","ITI","","html-keyboard-response","95","333833","0.0-1.0-126.0","0","0","98537","","null","","","null","13","","","","","","","","","","","","","","","NaN",""
"","S1","","html-keyboard-response","96","333993","0.0-1.0-128.0","0","0","98537","","null","","","null","14","","","","","","","","","","","","","","","",""
"","ISI","","html-keyboard-response","97","336003","0.0-1.0-129.0","0","0","98537","","null","","","null","14","NaN","","","","","","","","","","","","","","",""
"","S2","","html-keyboard-response","98","336159","0.0-1.0-130.0","0","0","98537","","null","","","null","14","","NaN","","","","","","","","","","","","","",""
"","response","","html-keyboard-response","99","336784","0.0-1.0-131.0-0.0","0","0","98537","","624","","","68","14","","","1","14","training","adjacent","GF","7","6","N.jpg","Q.jpg","0","0","1","",""
"","feedback","","html-keyboard-response","100","337796","0.0-1.0-132.0-0.0","0","0","98537","","null","","","null","14","","","","","","","","","","","","","","","",""
"","ITI","","html-keyboard-response","101","338799","0.0-1.0-135.0","0","0","98537","","null","","","null","14","","","","","","","","","","","","","","","NaN",""
"","S1","","html-keyboard-response","102","338956","0.0-1.0-137.0","0","0","98537","","null","","","null","15","","","","","","","","","","","","","","","",""
"","ISI","","html-keyboard-response","103","340965","0.0-1.0-138.0","0","0","98537","","null","","","null","15","NaN","","","","","","","","","","","","","","",""
"","S2","","html-keyboard-response","104","341123","0.0-1.0-139.0","0","0","98537","","null","","","null","15","","NaN","","","","","","","","","","","","","",""
"","response","","html-keyboard-response","105","341675","0.0-1.0-140.0-0.0","0","0","98537","","550","","","68","15","","","1","15","training","adjacent","EF","5","6","M.jpg","Q.jpg","0","1","0","",""
"","feedback","","html-keyboard-response","106","342684","0.0-1.0-141.0-0.0","0","0","98537","","null","","","null","15","","","","","","","","","","","","","","","",""
"","time_out","","html-keyboard-response","107","344697","0.0-1.0-143.0-0.0","0","0","98537","","null","","","null","15","","","","","","","","","","","","","","","",""
"","ITI","","html-keyboard-response","108","345699","0.0-1.0-144.0","0","0","98537","","null","","","null","15","","","","","","","","","","","","","","","NaN",""
"","S1","","html-keyboard-response","109","345853","0.0-1.0-146.0","0","0","98537","","null","","","null","16","","","","","","","","","","","","","","","",""
"","ISI","","html-keyboard-response","110","347863","0.0-1.0-147.0","0","0","98537","","null","","","null","16","NaN","","","","","","","","","","","","","","",""
"","S2","","html-keyboard-response","111","348023","0.0-1.0-148.0","0","0","98537","","null","","","null","16","","NaN","","","","","","","","","","","","","",""
"","response","","html-keyboard-response","112","348882","0.0-1.0-149.0-0.0","0","0","98537","","858","","","75","16","","","1","16","training","adjacent","FG","6","7","Q.jpg","N.jpg","1","1","1","",""
"","feedback","","html-keyboard-response","113","349899","0.0-1.0-150.0-0.0","0","0","98537","","null","","","null","16","","","","","","","","","","","","","","","",""
"","ITI","","html-keyboard-response","114","350916","0.0-1.0-153.0","0","0","98537","","null","","","null","16","","","","","","","","","","","","","","","NaN",""
"","S1","","html-keyboard-response","115","351073","0.0-1.0-155.0","0","0","98537","","null","","","null","17","","","","","","","","","","","","","","","",""
"","ISI","","html-keyboard-response","116","353080","0.0-1.0-156.0","0","0","98537","","null","","","null","17","NaN","","","","","","","","","","","","","","",""
"","S2","","html-keyboard-response","117","353240","0.0-1.0-157.0","0","0","98537","","null","","","null","17","","NaN","","","","","","","","","","","","","",""
"","response","","html-keyboard-response","118","353761","0.0-1.0-158.0-0.0","0","0","98537","","519","","","68","17","","","1","17","training","adjacent","CB","3","2","R.jpg","L.jpg","0","0","1","",""
"","feedback","","html-keyboard-response","119","354778","0.0-1.0-159.0-0.0","0","0","98537","","null","","","null","17","","","","","","","","","","","","","","","",""
"","ITI","","html-keyboard-response","120","355791","0.0-1.0-162.0","0","0","98537","","null","","","null","17","","","","","","","","","","","","","","","NaN",""
"","S1","","html-keyboard-response","121","355946","0.0-1.0-164.0","0","0","98537","","null","","","null","18","","","","","","","","","","","","","","","",""
"","ISI","","html-keyboard-response","122","357957","0.0-1.0-165.0","0","0","98537","","null","","","null","18","NaN","","","","","","","","","","","","","","",""
"","S2","","html-keyboard-response","123","358113","0.0-1.0-166.0","0","0","98537","","null","","","null","18","","NaN","","","","","","","","","","","","","",""
"","response","","html-keyboard-response","124","358545","0.0-1.0-167.0-0.0","0","0","98537","","429","","","75","18","","","1","18","training","adjacent","CB","3","2","R.jpg","L.jpg","1","0","0","",""
"","feedback","","html-keyboard-response","125","359558","0.0-1.0-168.0-0.0","0","0","98537","","null","","","null","18","","","","","","","","","","","","","","","",""
"","time_out","","html-keyboard-response","126","361568","0.0-1.0-170.0-0.0","0","0","98537","","null","","","null","18","","","","","","","","","","","","","","","",""
"","ITI","","html-keyboard-response","127","362577","0.0-1.0-171.0","0","0","98537","","null","","","null","18","","","","","","","","","","","","","","","NaN",""
"","S1","","html-keyboard-response","128","362736","0.0-1.0-173.0","0","0","98537","","null","","","null","19","","","","","","","","","","","","","","","",""
"","ISI","","html-keyboard-response","129","364752","0.0-1.0-174.0","0","0","98537","","null","","","null","19","NaN","","","","","","","","","","","","","","",""
"","S2","","html-keyboard-response","130","364912","0.0-1.0-175.0","0","0","98537","","null","","","null","19","","NaN","","","","","","","","","","","","","",""
"","response","","html-keyboard-response","131","365642","0.0-1.0-176.0-0.0","0","0","98537","","728","","","68","19","","","1","19","training","adjacent","CB","3","2","R.jpg","L.jpg","0","0","1","",""
"","feedback","","html-keyboard-response","132","366647","0.0-1.0-177.0-0.0","0","0","98537","","null","","","null","19","","","","","","","","","","","","","","","",""
"","ITI","","html-keyboard-response","133","367657","0.0-1.0-180.0","0","0","98537","","null","","","null","19","","","","","","","","","","","","","","","NaN",""
"","S1","","html-keyboard-response","134","367814","0.0-1.0-182.0","0","0","98537","","null","","","null","20","","","","","","","","","","","","","","","",""
"","ISI","","html-keyboard-response","135","369826","0.0-1.0-183.0","0","0","98537","","null","","","null","20","NaN","","","","","","","","","","","","","","",""
"","S2","","html-keyboard-response","136","369982","0.0-1.0-184.0","0","0","98537","","null","","","null","20","","NaN","","","","","","","","","","","","","",""
"","response","","html-keyboard-response","137","370306","0.0-1.0-185.0-0.0","0","0","98537","","322","","","75","20","","","1","20","training","adjacent","AB","1","2","P.jpg","L.jpg","1","1","1","",""
"","feedback","","html-keyboard-response","138","371321","0.0-1.0-186.0-0.0","0","0","98537","","null","","","null","20","","","","","","","","","","","","","","","",""
"","ITI","","html-keyboard-response","139","372323","0.0-1.0-189.0","0","0","98537","","null","","","null","20","","","","","","","","","","","","","","","NaN",""
"","S1","","html-keyboard-response","140","372481","0.0-1.0-191.0","0","0","98537","","null","","","null","21","","","","","","","","","","","","","","","",""
"","ISI","","html-keyboard-response","141","374493","0.0-1.0-192.0","0","0","98537","","null","","","null","21","NaN","","","","","","","","","","","","","","",""
"","S2","","html-keyboard-response","142","374646","0.0-1.0-193.0","0","0","98537","","null","","","null","21","","NaN","","","","","","","","","","","","","",""
"","response","","html-keyboard-response","143","375120","0.0-1.0-194.0-0.0","0","0","98537","","472","","","75","21","","","1","21","training","adjacent","FE","6","5","Q.jpg","M.jpg","1","0","0","",""
"","feedback","","html-keyboard-response","144","376127","0.0-1.0-195.0-0.0","0","0","98537","","null","","","null","21","","","","","","","","","","","","","","","",""
"","time_out","","html-keyboard-response","145","378142","0.0-1.0-197.0-0.0","0","0","98537","","null","","","null","21","","","","","","","","","","","","","","","",""
"","ITI","","html-keyboard-response","146","379151","0.0-1.0-198.0","0","0","98537","","null","","","null","21","","","","","","","","","","","","","","","NaN",""
"","S1","","html-keyboard-response","147","379307","0.0-1.0-200.0","0","0","98537","","null","","","null","22","","","","","","","","","","","","","","","",""
"","ISI","","html-keyboard-response","148","381321","0.0-1.0-201.0","0","0","98537","","null","","","null","22","NaN","","","","","","","","","","","","","","",""
"","S2","","html-keyboard-response","149","381476","0.0-1.0-202.0","0","0","98537","","null","","","null","22","","NaN","","","","","","","","","","","","","",""
"","response","","html-keyboard-response","150","382071","0.0-1.0-203.0-0.0","0","0","98537","","594","","","68","22","","","1","22","training","adjacent","BA","2","1","L.jpg","P.jpg","0","0","1","",""
"","feedback","","html-keyboard-response","151","383087","0.0-1.0-204.0-0.0","0","0","98537","","null","","","null","22","","","","","","","","","","","","","","","",""
"","ITI","","html-keyboard-response","152","384103","0.0-1.0-207.0","0","0","98537","","null","","","null","22","","","","","","","","","","","","","","","NaN",""
"","S1","","html-keyboard-response","153","384259","0.0-1.0-209.0","0","0","98537","","null","","","null","23","","","","","","","","","","","","","","","",""
"","ISI","","html-keyboard-response","154","386268","0.0-1.0-210.0","0","0","98537","","null","","","null","23","NaN","","","","","","","","","","","","","","",""
"","S2","","html-keyboard-response","155","386427","0.0-1.0-211.0","0","0","98537","","null","","","null","23","","NaN","","","","","","","","","","","","","",""
"","response","","html-keyboard-response","156","386906","0.0-1.0-212.0-0.0","0","0","98537","","478","","","75","23","","","1","23","training","adjacent","EF","5","6","M.jpg","Q.jpg","1","1","1","",""
"","feedback","","html-keyboard-response","157","387915","0.0-1.0-213.0-0.0","0","0","98537","","null","","","null","23","","","","","","","","","","","","","","","",""
"","ITI","","html-keyboard-response","158","388926","0.0-1.0-216.0","0","0","98537","","null","","","null","23","","","","","","","","","","","","","","","NaN",""
"","S1","","html-keyboard-response","159","389083","0.0-1.0-218.0","0","0","98537","","null","","","null","24","","","","","","","","","","","","","","","",""
"","ISI","","html-keyboard-response","160","391089","0.0-1.0-219.0","0","0","98537","","null","","","null","24","NaN","","","","","","","","","","","","","","",""
"","S2","","html-keyboard-response","161","391247","0.0-1.0-220.0","0","0","98537","","null","","","null","24","","NaN","","","","","","","","","","","","","",""
"","response","","html-keyboard-response","162","391815","0.0-1.0-221.0-0.0","0","0","98537","","567","","","68","24","","","1","24","training","adjacent","BA","2","1","L.jpg","P.jpg","0","0","1","",""
"","feedback","","html-keyboard-response","163","392829","0.0-1.0-222.0-0.0","0","0","98537","","null","","","null","24","","","","","","","","","","","","","","","",""
"","ITI","","html-keyboard-response","164","393842","0.0-1.0-225.0","0","0","98537","","null","","","null","24","","","","","","","","","","","","","","","NaN",""
"","S1","","html-keyboard-response","165","393996","0.0-1.0-227.0","0","0","98537","","null","","","null","25","","","","","","","","","","","","","","","",""
"","ISI","","html-keyboard-response","166","396003","0.0-1.0-228.0","0","0","98537","","null","","","null","25","NaN","","","","","","","","","","","","","","",""
"","S2","","html-keyboard-response","167","396160","0.0-1.0-229.0","0","0","98537","","null","","","null","25","","NaN","","","","","","","","","","","","","",""
"","response","","html-keyboard-response","168","396634","0.0-1.0-230.0-0.0","0","0","98537","","472","","","68","25","","","1","25","training","adjacent","GF","7","6","N.jpg","Q.jpg","0","0","1","",""
"","feedback","","html-keyboard-response","169","397643","0.0-1.0-231.0-0.0","0","0","98537","","null","","","null","25","","","","","","","","","","","","","","","",""
"","ITI","","html-keyboard-response","170","398649","0.0-1.0-234.0","0","0","98537","","null","","","null","25","","","","","","","","","","","","","","","NaN",""
"","S1","","html-keyboard-response","171","398805","0.0-1.0-236.0","0","0","98537","","null","","","null","26","","","","","","","","","","","","","","","",""
"","ISI","","html-keyboard-response","172","400819","0.0-1.0-237.0","0","0","98537","","null","","","null","26","NaN","","","","","","","","","","","","","","",""
"","S2","","html-keyboard-response","173","400976","0.0-1.0-238.0","0","0","98537","","null","","","null","26","","NaN","","","","","","","","","","","","","",""
"","response","","html-keyboard-response","174","402002","0.0-1.0-239.0-0.0","0","0","98537","","1024","","","68","26","","","1","26","training","adjacent","FE","6","5","Q.jpg","M.jpg","0","0","1","",""
"","feedback","","html-keyboard-response","175","403006","0.0-1.0-240.0-0.0","0","0","98537","","null","","","null","26","","","","","","","","","","","","","","","",""
"","ITI","","html-keyboard-response","176","404013","0.0-1.0-243.0","0","0","98537","","null","","","null","26","","","","","","","","","","","","","","","NaN",""
"","S1","","html-keyboard-response","177","404168","0.0-1.0-245.0","0","0","98537","","null","","","null","27","","","","","","","","","","","","","","","",""
"","ISI","","html-keyboard-response","178","406180","0.0-1.0-246.0","0","0","98537","","null","","","null","27","NaN","","","","","","","","","","","","","","",""
"","S2","","html-keyboard-response","179","406340","0.0-1.0-247.0","0","0","98537","","null","","","null","27","","NaN","","","","","","","","","","","","","",""
"","response","","html-keyboard-response","180","407077","0.0-1.0-248.0-0.0","0","0","98537","","736","","","68","27","","","1","27","training","adjacent","DE","4","5","O.jpg","M.jpg","0","1","0","",""
"","feedback","","html-keyboard-response","181","408088","0.0-1.0-249.0-0.0","0","0","98537","","null","","","null","27","","","","","","","","","","","","","","","",""
"","time_out","","html-keyboard-response","182","410101","0.0-1.0-251.0-0.0","0","0","98537","","null","","","null","27","","","","","","","","","","","","","","","",""
"","ITI","","html-keyboard-response","183","411108","0.0-1.0-252.0","0","0","98537","","null","","","null","27","","","","","","","","","","","","","","","NaN",""
"","S1","","html-keyboard-response","184","411266","0.0-1.0-254.0","0","0","98537","","null","","","null","28","","","","","","","","","","","","","","","",""
"","ISI","","html-keyboard-response","185","413282","0.0-1.0-255.0","0","0","98537","","null","","","null","28","NaN","","","","","","","","","","","","","","",""
"","S2","","html-keyboard-response","186","413442","0.0-1.0-256.0","0","0","98537","","null","","","null","28","","NaN","","","","","","","","","","","","","",""
"","response","","html-keyboard-response","187","413915","0.0-1.0-257.0-0.0","0","0","98537","","470","","","75","28","","","1","28","training","adjacent","AB","1","2","P.jpg","L.jpg","1","1","1","",""
"","feedback","","html-keyboard-response","188","414931","0.0-1.0-258.0-0.0","0","0","98537","","null","","","null","28","","","","","","","","","","","","","","","",""
"","ITI","","html-keyboard-response","189","415938","0.0-1.0-261.0","0","0","98537","","null","","","null","28","","","","","","","","","","","","","","","NaN",""
"","S1","","html-keyboard-response","190","416095","0.0-1.0-263.0","0","0","98537","","null","","","null","29","","","","","","","","","","","","","","","",""
"","ISI","","html-keyboard-response","191","418104","0.0-1.0-264.0","0","0","98537","","null","","","null","29","NaN","","","","","","","","","","","","","","",""
"","S2","","html-keyboard-response","192","418259","0.0-1.0-265.0","0","0","98537","","null","","","null","29","","NaN","","","","","","","","","","","","","",""
"","response","","html-keyboard-response","193","418891","0.0-1.0-266.0-0.0","0","0","98537","","629","","","68","29","","","1","29","training","adjacent","CD","3","4","R.jpg","O.jpg","0","1","0","",""
"","feedback","","html-keyboard-response","194","419900","0.0-1.0-267.0-0.0","0","0","98537","","null","","","null","29","","","","","","","","","","","","","","","",""
"","time_out","","html-keyboard-response","195","421910","0.0-1.0-269.0-0.0","0","0","98537","","null","","","null","29","","","","","","","","","","","","","","","",""
"","ITI","","html-keyboard-response","196","422916","0.0-1.0-270.0","0","0","98537","","null","","","null","29","","","","","","","","","","","","","","","NaN",""
"","S1","","html-keyboard-response","197","423073","0.0-1.0-272.0","0","0","98537","","null","","","null","30","","","","","","","","","","","","","","","",""
"","ISI","","html-keyboard-response","198","425077","0.0-1.0-273.0","0","0","98537","","354","","","75","30","k","","","","","","","","","","","","","","",""
"","S2","","html-keyboard-response","199","425237","0.0-1.0-274.0","0","0","98537","","null","","","null","30","","NaN","","","","","","","","","","","","","",""
"","response","","html-keyboard-response","200","425621","0.0-1.0-275.0-0.0","0","0","98537","","383","","","68","30","","","1","30","training","adjacent","BC","2","3","L.jpg","R.jpg","0","1","0","",""
"","feedback","","html-keyboard-response","201","426628","0.0-1.0-276.0-0.0","0","0","98537","","null","","","null","30","","","","","","","","","","","","","","","",""
"","time_out","","html-keyboard-response","202","428642","0.0-1.0-278.0-0.0","0","0","98537","","null","","","null","30","","","","","","","","","","","","","","","",""
"","ITI","","html-keyboard-response","203","429651","0.0-1.0-279.0","0","0","98537","","null","","","null","30","","","","","","","","","","","","","","","NaN",""
"","S1","","html-keyboard-response","204","429806","0.0-1.0-281.0","0","0","98537","","null","","","null","31","","","","","","","","","","","","","","","",""
"","ISI","","html-keyboard-response","205","431819","0.0-1.0-282.0","0","0","98537","","495","","","75","31","k","","","","","","","","","","","","","","",""
"","S2","","html-keyboard-response","206","431976","0.0-1.0-283.0","0","0","98537","","null","","","null","31","","NaN","","","","","","","","","","","","","",""
"","response","","html-keyboard-response","207","432493","0.0-1.0-284.0-0.0","0","0","98537","","516","","","75","31","","","1","31","training","adjacent","ED","5","4","M.jpg","O.jpg","1","0","0","",""
"","feedback","","html-keyboard-response","208","433498","0.0-1.0-285.0-0.0","0","0","98537","","null","","","null","31","","","","","","","","","","","","","","","",""
"","time_out","","html-keyboard-response","209","435513","0.0-1.0-287.0-0.0","0","0","98537","","null","","","null","31","","","","","","","","","","","","","","","",""
"","ITI","","html-keyboard-response","210","436526","0.0-1.0-288.0","0","0","98537","","null","","","null","31","","","","","","","","","","","","","","","NaN",""
"","S1","","html-keyboard-response","211","436683","0.0-1.0-290.0","0","0","98537","","null","","","null","32","","","","","","","","","","","","","","","",""
"","ISI","","html-keyboard-response","212","438699","0.0-1.0-291.0","0","0","98537","","null","","","null","32","NaN","","","","","","","","","","","","","","",""
"","S2","","html-keyboard-response","213","438856","0.0-1.0-292.0","0","0","98537","","null","","","null","32","","NaN","","","","","","","","","","","","","",""
"","response","","html-keyboard-response","214","439349","0.0-1.0-293.0-0.0","0","0","98537","","492","","","68","32","","","1","32","training","adjacent","DE","4","5","O.jpg","M.jpg","0","1","0","",""
"","feedback","","html-keyboard-response","215","440353","0.0-1.0-294.0-0.0","0","0","98537","","null","","","null","32","","","","","","","","","","","","","","","",""
"","time_out","","html-keyboard-response","216","442369","0.0-1.0-296.0-0.0","0","0","98537","","null","","","null","32","","","","","","","","","","","","","","","",""
"","ITI","","html-keyboard-response","217","443371","0.0-1.0-297.0","0","0","98537","","null","","","null","32","","","","","","","","","","","","","","","NaN",""
"","S1","","html-keyboard-response","218","443527","0.0-1.0-299.0","0","0","98537","","null","","","null","33","","","","","","","","","","","","","","","",""
"","ISI","","html-keyboard-response","219","445544","0.0-1.0-300.0","0","0","98537","","null","","","null","33","NaN","","","","","","","","","","","","","","",""
"","S2","","html-keyboard-response","220","445703","0.0-1.0-301.0","0","0","98537","","null","","","null","33","","NaN","","","","","","","","","","","","","",""
"","response","","html-keyboard-response","221","446069","0.0-1.0-302.0-0.0","0","0","98537","","365","","","75","33","","","1","33","training","adjacent","AB","1","2","P.jpg","L.jpg","1","1","1","",""
"","feedback","","html-keyboard-response","222","447080","0.0-1.0-303.0-0.0","0","0","98537","","null","","","null","33","","","","","","","","","","","","","","","",""
"","ITI","","html-keyboard-response","223","448089","0.0-1.0-306.0","0","0","98537","","null","","","null","33","","","","","","","","","","","","","","","NaN",""
"","S1","","html-keyboard-response","224","448245","0.0-1.0-308.0","0","0","98537","","null","","","null","34","","","","","","","","","","","","","","","",""
"","ISI","","html-keyboard-response","225","450247","0.0-1.0-309.0","0","0","98537","","null","","","null","34","NaN","","","","","","","","","","","","","","",""
"","S2","","html-keyboard-response","226","450401","0.0-1.0-310.0","0","0","98537","","null","","","null","34","","NaN","","","","","","","","","","","","","",""
"","response","","html-keyboard-response","227","450969","0.0-1.0-311.0-0.0","0","0","98537","","566","","","68","34","","","1","34","training","adjacent","BC","2","3","L.jpg","R.jpg","0","1","0","",""
"","feedback","","html-keyboard-response","228","451979","0.0-1.0-312.0-0.0","0","0","98537","","null","","","null","34","","","","","","","","","","","","","","","",""
"","time_out","","html-keyboard-response","229","453988","0.0-1.0-314.0-0.0","0","0","98537","","null","","","null","34","","","","","","","","","","","","","","","",""
"","ITI","","html-keyboard-response","230","454999","0.0-1.0-315.0","0","0","98537","","null","","","null","34","","","","","","","","","","","","","","","NaN",""
"","S1","","html-keyboard-response","231","455156","0.0-1.0-317.0","0","0","98537","","null","","","null","35","","","","","","","","","","","","","","","",""
"","ISI","","html-keyboard-response","232","457166","0.0-1.0-318.0","0","0","98537","","null","","","null","35","NaN","","","","","","","","","","","","","","",""
"","S2","","html-keyboard-response","233","457321","0.0-1.0-319.0","0","0","98537","","null","","","null","35","","NaN","","","","","","","","","","","","","",""
"","response","","html-keyboard-response","234","457604","0.0-1.0-320.0-0.0","0","0","98537","","282","","","75","35","","","1","35","training","adjacent","DC","4","3","O.jpg","R.jpg","1","0","0","",""
"","feedback","","html-keyboard-response","235","458614","0.0-1.0-321.0-0.0","0","0","98537","","null","","","null","35","","","","","","","","","","","","","","","",""
"","time_out","","html-keyboard-response","236","460631","0.0-1.0-323.0-0.0","0","0","98537","","null","","","null","35","","","","","","","","","","","","","","","",""
"","ITI","","html-keyboard-response","237","461637","0.0-1.0-324.0","0","0","98537","","null","","","null","35","","","","","","","","","","","","","","","NaN",""
"","S1","","html-keyboard-response","238","461794","0.0-1.0-326.0","0","0","98537","","null","","","null","36","","","","","","","","","","","","","","","",""
"","ISI","","html-keyboard-response","239","463812","0.0-1.0-327.0","0","0","98537","","null","","","null","36","NaN","","","","","","","","","","","","","","",""
"","S2","","html-keyboard-response","240","463969","0.0-1.0-328.0","0","0","98537","","null","","","null","36","","NaN","","","","","","","","","","","","","",""
"","response","","html-keyboard-response","241","464398","0.0-1.0-329.0-0.0","0","0","98537","","428","","","68","36","","","1","36","training","adjacent","CD","3","4","R.jpg","O.jpg","0","1","0","",""
"","feedback","","html-keyboard-response","242","465401","0.0-1.0-330.0-0.0","0","0","98537","","null","","","null","36","","","","","","","","","","","","","","","",""
"","time_out","","html-keyboard-response","243","467416","0.0-1.0-332.0-0.0","0","0","98537","","null","","","null","36","","","","","","","","","","","","","","","",""
"","ITI","","html-keyboard-response","244","468419","0.0-1.0-333.0","0","0","98537","","null","","","null","36","","","","","","","","","","","","","","","NaN",""
"","S1","","html-keyboard-response","245","468575","0.0-1.0-335.0","0","0","98537","","null","","","null","37","","","","","","","","","","","","","","","",""
"","ISI","","html-keyboard-response","246","470580","0.0-1.0-336.0","0","0","98537","","null","","","null","37","NaN","","","","","","","","","","","","","","",""
"","S2","","html-keyboard-response","247","470735","0.0-1.0-337.0","0","0","98537","","null","","","null","37","","NaN","","","","","","","","","","","","","",""
"","response","","html-keyboard-response","248","471124","0.0-1.0-338.0-0.0","0","0","98537","","386","","","75","37","","","1","37","training","adjacent","FG","6","7","Q.jpg","N.jpg","1","1","1","",""
"","feedback","","html-keyboard-response","249","472129","0.0-1.0-339.0-0.0","0","0","98537","","null","","","null","37","","","","","","","","","","","","","","","",""
"","ITI","","html-keyboard-response","250","473135","0.0-1.0-342.0","0","0","98537","","null","","","null","37","","","","","","","","","","","","","","","NaN",""
"","S1","","html-keyboard-response","251","473290","0.0-1.0-344.0","0","0","98537","","null","","","null","38","","","","","","","","","","","","","","","",""
"","ISI","","html-keyboard-response","252","475292","0.0-1.0-345.0","0","0","98537","","null","","","null","38","NaN","","","","","","","","","","","","","","",""
"","S2","","html-keyboard-response","253","475448","0.0-1.0-346.0","0","0","98537","","null","","","null","38","","NaN","","","","","","","","","","","","","",""
"","response","","html-keyboard-response","254","475888","0.0-1.0-347.0-0.0","0","0","98537","","439","","","75","38","","","1","38","training","adjacent","FG","6","7","Q.jpg","N.jpg","1","1","1","",""
"","feedback","","html-keyboard-response","255","476901","0.0-1.0-348.0-0.0","0","0","98537","","null","","","null","38","","","","","","","","","","","","","","","",""
"","ITI","","html-keyboard-response","256","477914","0.0-1.0-351.0","0","0","98537","","null","","","null","38","","","","","","","","","","","","","","","NaN",""
"","S1","","html-keyboard-response","257","478071","0.0-1.0-353.0","0","0","98537","","null","","","null","39","","","","","","","","","","","","","","","",""
"","ISI","","html-keyboard-response","258","480087","0.0-1.0-354.0","0","0","98537","","null","","","null","39","NaN","","","","","","","","","","","","","","",""
"","S2","","html-keyboard-response","259","480244","0.0-1.0-355.0","0","0","98537","","null","","","null","39","","NaN","","","","","","","","","","","","","",""
"","response","","html-keyboard-response","260","480766","0.0-1.0-356.0-0.0","0","0","98537","","520","","","75","39","","","1","39","training","adjacent","DC","4","3","O.jpg","R.jpg","1","0","0","",""
"","feedback","","html-keyboard-response","261","481771","0.0-1.0-357.0-0.0","0","0","98537","","null","","","null","39","","","","","","","","","","","","","","","",""
"","time_out","","html-keyboard-response","262","483778","0.0-1.0-359.0-0.0","0","0","98537","","null","","","null","39","","","","","","","","","","","","","","","",""
"","ITI","","html-keyboard-response","263","484784","0.0-1.0-360.0","0","0","98537","","null","","","null","39","","","","","","","","","","","","","","","NaN",""
"","S1","","html-keyboard-response","264","484938","0.0-1.0-362.0","0","0","98537","","null","","","null","40","","","","","","","","","","","","","","","",""
"","ISI","","html-keyboard-response","265","486945","0.0-1.0-363.0","0","0","98537","","null","","","null","40","NaN","","","","","","","","","","","","","","",""
"","S2","","html-keyboard-response","266","487102","0.0-1.0-364.0","0","0","98537","","null","","","null","40","","NaN","","","","","","","","","","","","","",""
"","response","","html-keyboard-response","267","488586","0.0-1.0-365.0-0.0","0","0","98537","","1483","","","75","40","","","1","40","training","adjacent","FE","6","5","Q.jpg","M.jpg","1","0","0","",""
"","feedback","","html-keyboard-response","268","489589","0.0-1.0-366.0-0.0","0","0","98537","","null","","","null","40","","","","","","","","","","","","","","","",""
"","time_out","","html-keyboard-response","269","491605","0.0-1.0-368.0-0.0","0","0","98537","","null","","","null","40","","","","","","","","","","","","","","","",""
"","ITI","","html-keyboard-response","270","492608","0.0-1.0-369.0","0","0","98537","","null","","","null","40","","","","","","","","","","","","","","","NaN",""
"","S1","","html-keyboard-response","271","492763","0.0-1.0-371.0","0","0","98537","","null","","","null","41","","","","","","","","","","","","","","","",""
"","ISI","","html-keyboard-response","272","494777","0.0-1.0-372.0","0","0","98537","","null","","","null","41","NaN","","","","","","","","","","","","","","",""
"","S2","","html-keyboard-response","273","494935","0.0-1.0-373.0","0","0","98537","","null","","","null","41","","NaN","","","","","","","","","","","","","",""
"","response","","html-keyboard-response","274","496181","0.0-1.0-374.0-0.0","0","0","98537","","1244","","","75","41","","","1","41","training","adjacent","DE","4","5","O.jpg","M.jpg","1","1","1","",""
"","feedback","","html-keyboard-response","275","497188","0.0-1.0-375.0-0.0","0","0","98537","","null","","","null","41","","","","","","","","","","","","","","","",""
"","ITI","","html-keyboard-response","276","498191","0.0-1.0-378.0","0","0","98537","","null","","","null","41","","","","","","","","","","","","","","","NaN",""
"","S1","","html-keyboard-response","277","498351","0.0-1.0-380.0","0","0","98537","","null","","","null","42","","","","","","","","","","","","","","","",""
"","ISI","","html-keyboard-response","278","500365","0.0-1.0-381.0","0","0","98537","","null","","","null","42","NaN","","","","","","","","","","","","","","",""
"","S2","","html-keyboard-response","279","500522","0.0-1.0-382.0","0","0","98537","","null","","","null","42","","NaN","","","","","","","","","","","","","",""
"","response","","html-keyboard-response","280","502036","0.0-1.0-383.0-0.0","0","0","98537","","1512","","","75","42","","","1","42","training","adjacent","EF","5","6","M.jpg","Q.jpg","1","1","1","",""
"","feedback","","html-keyboard-response","281","503050","0.0-1.0-384.0-0.0","0","0","98537","","null","","","null","42","","","","","","","","","","","","","","","",""
"","ITI","","html-keyboard-response","282","504055","0.0-1.0-387.0","0","0","98537","","null","","","null","42","","","","","","","","","","","","","","","NaN",""
"","S1","","html-keyboard-response","283","504214","0.0-1.0-389.0","0","0","98537","","null","","","null","43","","","","","","","","","","","","","","","",""
"","ISI","","html-keyboard-response","284","506227","0.0-1.0-390.0","0","0","98537","","null","","","null","43","NaN","","","","","","","","","","","","","","",""
"","S2","","html-keyboard-response","285","506384","0.0-1.0-391.0","0","0","98537","","null","","","null","43","","NaN","","","","","","","","","","","","","",""
"","response","","html-keyboard-response","286","506800","0.0-1.0-392.0-0.0","0","0","98537","","415","","","75","43","","","1","43","training","adjacent","DE","4","5","O.jpg","M.jpg","1","1","1","",""
"","feedback","","html-keyboard-response","287","507805","0.0-1.0-393.0-0.0","0","0","98537","","null","","","null","43","","","","","","","","","","","","","","","",""
"","ITI","","html-keyboard-response","288","508812","0.0-1.0-396.0","0","0","98537","","null","","","null","43","","","","","","","","","","","","","","","NaN",""
"","S1","","html-keyboard-response","289","508970","0.0-1.0-398.0","0","0","98537","","null","","","null","44","","","","","","","","","","","","","","","",""
"","ISI","","html-keyboard-response","290","510986","0.0-1.0-399.0","0","0","98537","","null","","","null","44","NaN","","","","","","","","","","","","","","",""
"","S2","","html-keyboard-response","291","511144","0.0-1.0-400.0","0","0","98537","","null","","","null","44","","NaN","","","","","","","","","","","","","",""
"","response","","html-keyboard-response","292","511595","0.0-1.0-401.0-0.0","0","0","98537","","449","","","68","44","","","1","44","training","adjacent","BA","2","1","L.jpg","P.jpg","0","0","1","",""
"","feedback","","html-keyboard-response","293","512603","0.0-1.0-402.0-0.0","0","0","98537","","null","","","null","44","","","","","","","","","","","","","","","",""
"","ITI","","html-keyboard-response","294","513608","0.0-1.0-405.0","0","0","98537","","null","","","null","44","","","","","","","","","","","","","","","NaN",""
"","S1","","html-keyboard-response","295","513763","0.0-1.0-407.0","0","0","98537","","null","","","null","45","","","","","","","","","","","","","","","",""
"","ISI","","html-keyboard-response","296","515773","0.0-1.0-408.0","0","0","98537","","494","","","75","45","k","","","","","","","","","","","","","","",""
"","S2","","html-keyboard-response","297","515931","0.0-1.0-409.0","0","0","98537","","null","","","null","45","","NaN","","","","","","","","","","","","","",""
"","response","","html-keyboard-response","298","516663","0.0-1.0-410.0-0.0","0","0","98537","","731","","","75","45","","","1","45","training","adjacent","BC","2","3","L.jpg","R.jpg","1","1","1","",""
"","feedback","","html-keyboard-response","299","517667","0.0-1.0-411.0-0.0","0","0","98537","","null","","","null","45","","","","","","","","","","","","","","","",""
"","ITI","","html-keyboard-response","300","518678","0.0-1.0-414.0","0","0","98537","","null","","","null","45","","","","","","","","","","","","","","","NaN",""
"","S1","","html-keyboard-response","301","518834","0.0-1.0-416.0","0","0","98537","","null","","","null","46","","","","","","","","","","","","","","","",""
"","ISI","","html-keyboard-response","302","520839","0.0-1.0-417.0","0","0","98537","","null","","","null","46","NaN","","","","","","","","","","","","","","",""
"","S2","","html-keyboard-response","303","520994","0.0-1.0-418.0","0","0","98537","","null","","","null","46","","NaN","","","","","","","","","","","","","",""
"","response","","html-keyboard-response","304","522217","0.0-1.0-419.0-0.0","0","0","98537","","1220","","","68","46","","","1","46","training","adjacent","FE","6","5","Q.jpg","M.jpg","0","0","1","",""
"","feedback","","html-keyboard-response","305","523229","0.0-1.0-420.0-0.0","0","0","98537","","null","","","null","46","","","","","","","","","","","","","","","",""
"","ITI","","html-keyboard-response","306","524248","0.0-1.0-423.0","0","0","98537","","null","","","null","46","","","","","","","","","","","","","","","NaN",""
"","S1","","html-keyboard-response","307","524407","0.0-1.0-425.0","0","0","98537","","null","","","null","47","","","","","","","","","","","","","","","",""
"","ISI","","html-keyboard-response","308","526414","0.0-1.0-426.0","0","0","98537","","null","","","null","47","NaN","","","","","","","","","","","","","","",""
"","S2","","html-keyboard-response","309","526572","0.0-1.0-427.0","0","0","98537","","null","","","null","47","","NaN","","","","","","","","","","","","","",""
"","response","","html-keyboard-response","310","527803","0.0-1.0-428.0-0.0","0","0","98537","","1228","","","68","47","","","1","47","training","adjacent","CD","3","4","R.jpg","O.jpg","0","1","0","",""
"","feedback","","html-keyboard-response","311","528810","0.0-1.0-429.0-0.0","0","0","98537","","null","","","null","47","","","","","","","","","","","","","","","",""
"","time_out","","html-keyboard-response","312","530818","0.0-1.0-431.0-0.0","0","0","98537","","null","","","null","47","","","","","","","","","","","","","","","",""
"","ITI","","html-keyboard-response","313","531821","0.0-1.0-432.0","0","0","98537","","null","","","null","47","","","","","","","","","","","","","","","NaN",""
"","block_over","","html-keyboard-response","314","547396","0.0-1.0-433.0-0.0","0","0","98537","","15572","","","32","47","","","","","","","","","","","","","","","",""
"","S1","","html-keyboard-response","315","547564","0.0-1.0-434.0","0","0","98537","","null","","","null","48","","","","","","","","","","","","","","","",""
"","ISI","","html-keyboard-response","316","549566","0.0-1.0-435.0","0","0","98537","","null","","","null","48","NaN","","","","","","","","","","","","","","",""
"","S2","","html-keyboard-response","317","549723","0.0-1.0-436.0","0","0","98537","","null","","","null","48","","NaN","","","","","","","","","","","","","",""
"","response","","html-keyboard-response","318","550467","0.0-1.0-437.0-0.0","0","0","98537","","742","","","68","48","","","2","48","training","adjacent","CD","3","4","R.jpg","O.jpg","0","1","0","",""
"","feedback","","html-keyboard-response","319","551478","0.0-1.0-438.0-0.0","0","0","98537","","null","","","null","48","","","","","","","","","","","","","","","",""
"","time_out","","html-keyboard-response","320","553483","0.0-1.0-440.0-0.0","0","0","98537","","null","","","null","48","","","","","","","","","","","","","","","",""
"","ITI","","html-keyboard-response","321","554490","0.0-1.0-441.0","0","0","98537","","null","","","null","48","","","","","","","","","","","","","","","NaN",""
"","S1","","html-keyboard-response","322","554646","0.0-1.0-443.0","0","0","98537","","null","","","null","49","","","","","","","","","","","","","","","",""
"","ISI","","html-keyboard-response","323","556658","0.0-1.0-444.0","0","0","98537","","null","","","null","49","NaN","","","","","","","","","","","","","","",""
"","S2","","html-keyboard-response","324","556816","0.0-1.0-445.0","0","0","98537","","null","","","null","49","","NaN","","","","","","","","","","","","","",""
"","response","","html-keyboard-response","325","557291","0.0-1.0-446.0-0.0","0","0","98537","","473","","","68","49","","","2","49","training","adjacent","GF","7","6","N.jpg","Q.jpg","0","0","1","",""
"","feedback","","html-keyboard-response","326","558303","0.0-1.0-447.0-0.0","0","0","98537","","null","","","null","49","","","","","","","","","","","","","","","",""
"","ITI","","html-keyboard-response","327","559310","0.0-1.0-450.0","0","0","98537","","null","","","null","49","","","","","","","","","","","","","","","NaN",""
"","S1","","html-keyboard-response","328","559468","0.0-1.0-452.0","0","0","98537","","null","","","null","50","","","","","","","","","","","","","","","",""
"","ISI","","html-keyboard-response","329","561478","0.0-1.0-453.0","0","0","98537","","null","","","null","50","NaN","","","","","","","","","","","","","","",""
"","S2","","html-keyboard-response","330","561633","0.0-1.0-454.0","0","0","98537","","null","","","null","50","","NaN","","","","","","","","","","","","","",""
"","response","","html-keyboard-response","331","561926","0.0-1.0-455.0-0.0","0","0","98537","","291","","","68","50","","","2","50","training","adjacent","GF","7","6","N.jpg","Q.jpg","0","0","1","",""
"","feedback","","html-keyboard-response","332","562930","0.0-1.0-456.0-0.0","0","0","98537","","null","","","null","50","","","","","","","","","","","","","","","",""
"","ITI","","html-keyboard-response","333","563936","0.0-1.0-459.0","0","0","98537","","null","","","null","50","","","","","","","","","","","","","","","NaN",""
"","S1","","html-keyboard-response","334","564094","0.0-1.0-461.0","0","0","98537","","null","","","null","51","","","","","","","","","","","","","","","",""
"","ISI","","html-keyboard-response","335","566108","0.0-1.0-462.0","0","0","98537","","null","","","null","51","NaN","","","","","","","","","","","","","","",""
"","S2","","html-keyboard-response","336","566263","0.0-1.0-463.0","0","0","98537","","null","","","null","51","","NaN","","","","","","","","","","","","","",""
"","response","","html-keyboard-response","337","567056","0.0-1.0-464.0-0.0","0","0","98537","","791","","","75","51","","","2","51","training","adjacent","CB","3","2","R.jpg","L.jpg","1","0","0","",""
"","feedback","","html-keyboard-response","338","568073","0.0-1.0-465.0-0.0","0","0","98537","","null","","","null","51","","","","","","","","","","","","","","","",""
"","time_out","","html-keyboard-response","339","570089","0.0-1.0-467.0-0.0","0","0","98537","","null","","","null","51","","","","","","","","","","","","","","","",""
"","ITI","","html-keyboard-response","340","571102","0.0-1.0-468.0","0","0","98537","","null","","","null","51","","","","","","","","","","","","","","","NaN",""
"","S1","","html-keyboard-response","341","571258","0.0-1.0-470.0","0","0","98537","","null","","","null","52","","","","","","","","","","","","","","","",""
"","ISI","","html-keyboard-response","342","573274","0.0-1.0-471.0","0","0","98537","","null","","","null","52","NaN","","","","","","","","","","","","","","",""
"","S2","","html-keyboard-response","343","573430","0.0-1.0-472.0","0","0","98537","","null","","","null","52","","NaN","","","","","","","","","","","","","",""
"","response","","html-keyboard-response","344","574183","0.0-1.0-473.0-0.0","0","0","98537","","751","","","68","52","","","2","52","training","adjacent","FE","6","5","Q.jpg","M.jpg","0","0","1","",""
"","feedback","","html-keyboard-response","345","575193","0.0-1.0-474.0-0.0","0","0","98537","","null","","","null","52","","","","","","","","","","","","","","","",""
"","ITI","","html-keyboard-response","346","576207","0.0-1.0-477.0","0","0","98537","","null","","","null","52","","","","","","","","","","","","","","","NaN",""
"","S1","","html-keyboard-response","347","576363","0.0-1.0-479.0","0","0","98537","","null","","","null","53","","","","","","","","","","","","","","","",""
"","ISI","","html-keyboard-response","348","578369","0.0-1.0-480.0","0","0","98537","","null","","","null","53","NaN","","","","","","","","","","","","","","",""
"","S2","","html-keyboard-response","349","578526","0.0-1.0-481.0","0","0","98537","","null","","","null","53","","NaN","","","","","","","","","","","","","",""
"","response","","html-keyboard-response","350","579656","0.0-1.0-482.0-0.0","0","0","98537","","1128","","","68","53","","","2","53","training","adjacent","BC","2","3","L.jpg","R.jpg","0","1","0","",""
"","feedback","","html-keyboard-response","351","580660","0.0-1.0-483.0-0.0","0","0","98537","","null","","","null","53","","","","","","","","","","","","","","","",""
"","time_out","","html-keyboard-response","352","582673","0.0-1.0-485.0-0.0","0","0","98537","","null","","","null","53","","","","","","","","","","","","","","","",""
"","ITI","","html-keyboard-response","353","583682","0.0-1.0-486.0","0","0","98537","","null","","","null","53","","","","","","","","","","","","","","","NaN",""
"","S1","","html-keyboard-response","354","583841","0.0-1.0-488.0","0","0","98537","","null","","","null","54","","","","","","","","","","","","","","","",""
"","ISI","","html-keyboard-response","355","585852","0.0-1.0-489.0","0","0","98537","","null","","","null","54","NaN","","","","","","","","","","","","","","",""
"","S2","","html-keyboard-response","356","586011","0.0-1.0-490.0","0","0","98537","","null","","","null","54","","NaN","","","","","","","","","","","","","",""
"","response","","html-keyboard-response","357","587714","0.0-1.0-491.0-0.0","0","0","98537","","1701","","","68","54","","","2","54","training","adjacent","CB","3","2","R.jpg","L.jpg","0","0","1","",""
"","feedback","","html-keyboard-response","358","588730","0.0-1.0-492.0-0.0","0","0","98537","","null","","","null","54","","","","","","","","","","","","","","","",""
"","ITI","","html-keyboard-response","359","589738","0.0-1.0-495.0","0","0","98537","","null","","","null","54","","","","","","","","","","","","","","","NaN",""
"","S1","","html-keyboard-response","360","589894","0.0-1.0-497.0","0","0","98537","","null","","","null","55","","","","","","","","","","","","","","","",""
"","ISI","","html-keyboard-response","361","591900","0.0-1.0-498.0","0","0","98537","","null","","","null","55","NaN","","","","","","","","","","","","","","",""
"","S2","","html-keyboard-response","362","592056","0.0-1.0-499.0","0","0","98537","","null","","","null","55","","NaN","","","","","","","","","","","","","",""
"","response","","html-keyboard-response","363","593225","0.0-1.0-500.0-0.0","0","0","98537","","1167","","","75","55","","","2","55","training","adjacent","EF","5","6","M.jpg","Q.jpg","1","1","1","",""
"","feedback","","html-keyboard-response","364","594237","0.0-1.0-501.0-0.0","0","0","98537","","null","","","null","55","","","","","","","","","","","","","","","",""
"","ITI","","html-keyboard-response","365","595240","0.0-1.0-504.0","0","0","98537","","null","","","null","55","","","","","","","","","","","","","","","NaN",""
"","S1","","html-keyboard-response","366","595397","0.0-1.0-506.0","0","0","98537","","null","","","null","56","","","","","","","","","","","","","","","",""
"","ISI","","html-keyboard-response","367","597406","0.0-1.0-507.0","0","0","98537","","null","","","null","56","NaN","","","","","","","","","","","","","","",""
"","S2","","html-keyboard-response","368","597565","0.0-1.0-508.0","0","0","98537","","null","","","null","56","","NaN","","","","","","","","","","","","","",""
"","response","","html-keyboard-response","369","598572","0.0-1.0-509.0-0.0","0","0","98537","","1006","","","75","56","","","2","56","training","adjacent","DC","4","3","O.jpg","R.jpg","1","0","0","",""
"","feedback","","html-keyboard-response","370","599577","0.0-1.0-510.0-0.0","0","0","98537","","null","","","null","56","","","","","","","","","","","","","","","",""
"","time_out","","html-keyboard-response","371","601583","0.0-1.0-512.0-0.0","0","0","98537","","null","","","null","56","","","","","","","","","","","","","","","",""
"","ITI","","html-keyboard-response","372","602587","0.0-1.0-513.0","0","0","98537","","null","","","null","56","","","","","","","","","","","","","","","NaN",""
"","S1","","html-keyboard-response","373","602745","0.0-1.0-515.0","0","0","98537","","null","","","null","57","","","","","","","","","","","","","","","",""
"","ISI","","html-keyboard-response","374","604761","0.0-1.0-516.0","0","0","98537","","null","","","null","57","NaN","","","","","","","","","","","","","","",""
"","S2","","html-keyboard-response","375","604920","0.0-1.0-517.0","0","0","98537","","null","","","null","57","","NaN","","","","","","","","","","","","","",""
"","response","","html-keyboard-response","376","605257","0.0-1.0-518.0-0.0","0","0","98537","","335","","","75","57","","","2","57","training","adjacent","DC","4","3","O.jpg","R.jpg","1","0","0","",""
"","feedback","","html-keyboard-response","377","606263","0.0-1.0-519.0-0.0","0","0","98537","","null","","","null","57","","","","","","","","","","","","","","","",""
"","time_out","","html-keyboard-response","378","608278","0.0-1.0-521.0-0.0","0","0","98537","","null","","","null","57","","","","","","","","","","","","","","","",""
"","ITI","","html-keyboard-response","379","609287","0.0-1.0-522.0","0","0","98537","","null","","","null","57","","","","","","","","","","","","","","","NaN",""
"","S1","","html-keyboard-response","380","609442","0.0-1.0-524.0","0","0","98537","","null","","","null","58","","","","","","","","","","","","","","","",""
"","ISI","","html-keyboard-response","381","611453","0.0-1.0-525.0","0","0","98537","","939","","","75","58","k","","","","","","","","","","","","","","",""
"","S2","","html-keyboard-response","382","611610","0.0-1.0-526.0","0","0","98537","","null","","","null","58","","NaN","","","","","","","","","","","","","",""
"","response","","html-keyboard-response","383","611738","0.0-1.0-527.0-0.0","0","0","98537","","126","","","75","58","","","2","58","training","adjacent","AB","1","2","P.jpg","L.jpg","1","1","1","",""
"","feedback","","html-keyboard-response","384","612755","0.0-1.0-528.0-0.0","0","0","98537","","null","","","null","58","","","","","","","","","","","","","","","",""
"","ITI","","html-keyboard-response","385","613759","0.0-1.0-531.0","0","0","98537","","null","","","null","58","","","","","","","","","","","","","","","NaN",""
"","S1","","html-keyboard-response","386","613916","0.0-1.0-533.0","0","0","98537","","null","","","null","59","","","","","","","","","","","","","","","",""
"","ISI","","html-keyboard-response","387","615933","0.0-1.0-534.0","0","0","98537","","null","","","null","59","NaN","","","","","","","","","","","","","","",""
"","S2","","html-keyboard-response","388","616088","0.0-1.0-535.0","0","0","98537","","null","","","null","59","","NaN","","","","","","","","","","","","","",""
"","response","","html-keyboard-response","389","616827","0.0-1.0-536.0-0.0","0","0","98537","","738","","","68","59","","","2","59","training","adjacent","BA","2","1","L.jpg","P.jpg","0","0","1","",""
"","feedback","","html-keyboard-response","390","617840","0.0-1.0-537.0-0.0","0","0","98537","","null","","","null","59","","","","","","","","","","","","","","","",""
"","ITI","","html-keyboard-response","391","618851","0.0-1.0-540.0","0","0","98537","","null","","","null","59","","","","","","","","","","","","","","","NaN",""
"","S1","","html-keyboard-response","392","619008","0.0-1.0-542.0","0","0","98537","","null","","","null","60","","","","","","","","","","","","","","","",""
"","ISI","","html-keyboard-response","393","621025","0.0-1.0-543.0","0","0","98537","","null","","","null","60","NaN","","","","","","","","","","","","","","",""
"","S2","","html-keyboard-response","394","621180","0.0-1.0-544.0","0","0","98537","","null","","","null","60","","NaN","","","","","","","","","","","","","",""
"","response","","html-keyboard-response","395","622987","0.0-1.0-545.0-0.0","0","0","98537","","1806","","","68","60","","","2","60","training","adjacent","GF","7","6","N.jpg","Q.jpg","0","0","1","",""
"","feedback","","html-keyboard-response","396","623999","0.0-1.0-546.0-0.0","0","0","98537","","null","","","null","60","","","","","","","","","","","","","","","",""
"","ITI","","html-keyboard-response","397","625006","0.0-1.0-549.0","0","0","98537","","null","","","null","60","","","","","","","","","","","","","","","NaN",""
"","S1","","html-keyboard-response","398","625163","0.0-1.0-551.0","0","0","98537","","null","","","null","61","","","","","","","","","","","","","","","",""
"","ISI","","html-keyboard-response","399","627175","0.0-1.0-552.0","0","0","98537","","null","","","null","61","NaN","","","","","","","","","","","","","","",""
"","S2","","html-keyboard-response","400","627332","0.0-1.0-553.0","0","0","98537","","null","","","null","61","","NaN","","","","","","","","","","","","","",""
"","response","","html-keyboard-response","401","628092","0.0-1.0-554.0-0.0","0","0","98537","","757","","","75","61","","","2","61","training","adjacent","EF","5","6","M.jpg","Q.jpg","1","1","1","",""
"","feedback","","html-keyboard-response","402","629102","0.0-1.0-555.0-0.0","0","0","98537","","null","","","null","61","","","","","","","","","","","","","","","",""
"","ITI","","html-keyboard-response","403","630111","0.0-1.0-558.0","0","0","98537","","null","","","null","61","","","","","","","","","","","","","","","NaN",""
"","S1","","html-keyboard-response","404","630269","0.0-1.0-560.0","0","0","98537","","null","","","null","62","","","","","","","","","","","","","","","",""
"","ISI","","html-keyboard-response","405","632287","0.0-1.0-561.0","0","0","98537","","null","","","null","62","NaN","","","","","","","","","","","","","","",""
"","S2","","html-keyboard-response","406","632443","0.0-1.0-562.0","0","0","98537","","null","","","null","62","","NaN","","","","","","","","","","","","","",""
"","response","","html-keyboard-response","407","633757","0.0-1.0-563.0-0.0","0","0","98537","","1314","","","68","62","","","2","62","training","adjacent","FG","6","7","Q.jpg","N.jpg","0","1","0","",""
"","feedback","","html-keyboard-response","408","634767","0.0-1.0-564.0-0.0","0","0","98537","","null","","","null","62","","","","","","","","","","","","","","","",""
"","time_out","","html-keyboard-response","409","636774","0.0-1.0-566.0-0.0","0","0","98537","","null","","","null","62","","","","","","","","","","","","","","","",""
"","ITI","","html-keyboard-response","410","637786","0.0-1.0-567.0","0","0","98537","","null","","","null","62","","","","","","","","","","","","","","","NaN",""
"","S1","","html-keyboard-response","411","637943","0.0-1.0-569.0","0","0","98537","","null","","","null","63","","","","","","","","","","","","","","","",""
"","ISI","","html-keyboard-response","412","639947","0.0-1.0-570.0","0","0","98537","","null","","","null","63","NaN","","","","","","","","","","","","","","",""
"","S2","","html-keyboard-response","413","640104","0.0-1.0-571.0","0","0","98537","","null","","","null","63","","NaN","","","","","","","","","","","","","",""
"","response","","html-keyboard-response","414","640881","0.0-1.0-572.0-0.0","0","0","98537","","775","","","75","63","","","2","63","training","adjacent","BA","2","1","L.jpg","P.jpg","1","0","0","",""
"","feedback","","html-keyboard-response","415","641898","0.0-1.0-573.0-0.0","0","0","98537","","null","","","null","63","","","","","","","","","","","","","","","",""
"","time_out","","html-keyboard-response","416","643907","0.0-1.0-575.0-0.0","0","0","98537","","null","","","null","63","","","","","","","","","","","","","","","",""
"","ITI","","html-keyboard-response","417","644916","0.0-1.0-576.0","0","0","98537","","null","","","null","63","","","","","","","","","","","","","","","NaN",""
"","S1","","html-keyboard-response","418","645073","0.0-1.0-578.0","0","0","98537","","null","","","null","64","","","","","","","","","","","","","","","",""
"","ISI","","html-keyboard-response","419","647091","0.0-1.0-579.0","0","0","98537","","null","","","null","64","NaN","","","","","","","","","","","","","","",""
"","S2","","html-keyboard-response","420","647246","0.0-1.0-580.0","0","0","98537","","null","","","null","64","","NaN","","","","","","","","","","","","","",""
"","response","","html-keyboard-response","421","648650","0.0-1.0-581.0-0.0","0","0","98537","","1402","","","75","64","","","2","64","training","adjacent","FG","6","7","Q.jpg","N.jpg","1","1","1","",""
"","feedback","","html-keyboard-response","422","649656","0.0-1.0-582.0-0.0","0","0","98537","","null","","","null","64","","","","","","","","","","","","","","","",""
"","ITI","","html-keyboard-response","423","650667","0.0-1.0-585.0","0","0","98537","","null","","","null","64","","","","","","","","","","","","","","","NaN",""
"","S1","","html-keyboard-response","424","650823","0.0-1.0-587.0","0","0","98537","","null","","","null","65","","","","","","","","","","","","","","","",""
"","ISI","","html-keyboard-response","425","652832","0.0-1.0-588.0","0","0","98537","","null","","","null","65","NaN","","","","","","","","","","","","","","",""
"","S2","","html-keyboard-response","426","652987","0.0-1.0-589.0","0","0","98537","","null","","","null","65","","NaN","","","","","","","","","","","","","",""
"","response","","html-keyboard-response","427","653906","0.0-1.0-590.0-0.0","0","0","98537","","918","","","68","65","","","2","65","training","adjacent","CB","3","2","R.jpg","L.jpg","0","0","1","",""
"","feedback","","html-keyboard-response","428","654923","0.0-1.0-591.0-0.0","0","0","98537","","null","","","null","65","","","","","","","","","","","","","","","",""
"","ITI","","html-keyboard-response","429","655929","0.0-1.0-594.0","0","0","98537","","null","","","null","65","","","","","","","","","","","","","","","NaN",""
"","S1","","html-keyboard-response","430","656086","0.0-1.0-596.0","0","0","98537","","null","","","null","66","","","","","","","","","","","","","","","",""
"","ISI","","html-keyboard-response","431","658103","0.0-1.0-597.0","0","0","98537","","null","","","null","66","NaN","","","","","","","","","","","","","","",""
"","S2","","html-keyboard-response","432","658258","0.0-1.0-598.0","0","0","98537","","null","","","null","66","","NaN","","","","","","","","","","","","","",""
"","response","","html-keyboard-response","433","659823","0.0-1.0-599.0-0.0","0","0","98537","","1564","","","68","66","","","2","66","training","adjacent","CD","3","4","R.jpg","O.jpg","0","1","0","",""
"","feedback","","html-keyboard-response","434","660841","0.0-1.0-600.0-0.0","0","0","98537","","null","","","null","66","","","","","","","","","","","","","","","",""
"","time_out","","html-keyboard-response","435","662845","0.0-1.0-602.0-0.0","0","0","98537","","null","","","null","66","","","","","","","","","","","","","","","",""
"","ITI","","html-keyboard-response","436","663852","0.0-1.0-603.0","0","0","98537","","null","","","null","66","","","","","","","","","","","","","","","NaN",""
"","S1","","html-keyboard-response","437","664008","0.0-1.0-605.0","0","0","98537","","null","","","null","67","","","","","","","","","","","","","","","",""
"","ISI","","html-keyboard-response","438","666022","0.0-1.0-606.0","0","0","98537","","null","","","null","67","NaN","","","","","","","","","","","","","","",""
"","S2","","html-keyboard-response","439","666181","0.0-1.0-607.0","0","0","98537","","null","","","null","67","","NaN","","","","","","","","","","","","","",""
"","response","","html-keyboard-response","440","667051","0.0-1.0-608.0-0.0","0","0","98537","","867","","","75","67","","","2","67","training","adjacent","BC","2","3","L.jpg","R.jpg","1","1","1","",""
"","feedback","","html-keyboard-response","441","668059","0.0-1.0-609.0-0.0","0","0","98537","","null","","","null","67","","","","","","","","","","","","","","","",""
"","ITI","","html-keyboard-response","442","669069","0.0-1.0-612.0","0","0","98537","","null","","","null","67","","","","","","","","","","","","","","","NaN",""
"","S1","","html-keyboard-response","443","669228","0.0-1.0-614.0","0","0","98537","","null","","","null","68","","","","","","","","","","","","","","","",""
"","ISI","","html-keyboard-response","444","671243","0.0-1.0-615.0","0","0","98537","","null","","","null","68","NaN","","","","","","","","","","","","","","",""
"","S2","","html-keyboard-response","445","671397","0.0-1.0-616.0","0","0","98537","","null","","","null","68","","NaN","","","","","","","","","","","","","",""
"","response","","html-keyboard-response","446","672676","0.0-1.0-617.0-0.0","0","0","98537","","1278","","","75","68","","","2","68","training","adjacent","EF","5","6","M.jpg","Q.jpg","1","1","1","",""
"","feedback","","html-keyboard-response","447","673690","0.0-1.0-618.0-0.0","0","0","98537","","null","","","null","68","","","","","","","","","","","","","","","",""
"","ITI","","html-keyboard-response","448","674706","0.0-1.0-621.0","0","0","98537","","null","","","null","68","","","","","","","","","","","","","","","NaN",""
"","S1","","html-keyboard-response","449","674863","0.0-1.0-623.0","0","0","98537","","null","","","null","69","","","","","","","","","","","","","","","",""
"","ISI","","html-keyboard-response","450","676870","0.0-1.0-624.0","0","0","98537","","null","","","null","69","NaN","","","","","","","","","","","","","","",""
"","S2","","html-keyboard-response","451","677027","0.0-1.0-625.0","0","0","98537","","null","","","null","69","","NaN","","","","","","","","","","","","","",""
"","response","","html-keyboard-response","452","677826","0.0-1.0-626.0-0.0","0","0","98537","","796","","","75","69","","","2","69","training","adjacent","AB","1","2","P.jpg","L.jpg","1","1","1","",""
"","feedback","","html-keyboard-response","453","678837","0.0-1.0-627.0-0.0","0","0","98537","","null","","","null","69","","","","","","","","","","","","","","","",""
"","ITI","","html-keyboard-response","454","679851","0.0-1.0-630.0","0","0","98537","","null","","","null","69","","","","","","","","","","","","","","","NaN",""
"","S1","","html-keyboard-response","455","680010","0.0-1.0-632.0","0","0","98537","","null","","","null","70","","","","","","","","","","","","","","","",""
"","ISI","","html-keyboard-response","456","682014","0.0-1.0-633.0","0","0","98537","","null","","","null","70","NaN","","","","","","","","","","","","","","",""
"","S2","","html-keyboard-response","457","682173","0.0-1.0-634.0","0","0","98537","","null","","","null","70","","NaN","","","","","","","","","","","","","",""
"","response","","html-keyboard-response","458","682900","0.0-1.0-635.0-0.0","0","0","98537","","724","","","75","70","","","2","70","training","adjacent","EF","5","6","M.jpg","Q.jpg","1","1","1","",""
"","feedback","","html-keyboard-response","459","683909","0.0-1.0-636.0-0.0","0","0","98537","","null","","","null","70","","","","","","","","","","","","","","","",""
"","ITI","","html-keyboard-response","460","684920","0.0-1.0-639.0","0","0","98537","","null","","","null","70","","","","","","","","","","","","","","","NaN",""
"","S1","","html-keyboard-response","461","685075","0.0-1.0-641.0","0","0","98537","","null","","","null","71","","","","","","","","","","","","","","","",""
"","ISI","","html-keyboard-response","462","687088","0.0-1.0-642.0","0","0","98537","","null","","","null","71","NaN","","","","","","","","","","","","","","",""
"","S2","","html-keyboard-response","463","687245","0.0-1.0-643.0","0","0","98537","","null","","","null","71","","NaN","","","","","","","","","","","","","",""
"","response","","html-keyboard-response","464","689100","0.0-1.0-644.0-0.0","0","0","98537","","1854","","","68","71","","","2","71","training","adjacent","CD","3","4","R.jpg","O.jpg","0","1","0","",""
"","feedback","","html-keyboard-response","465","690105","0.0-1.0-645.0-0.0","0","0","98537","","null","","","null","71","","","","","","","","","","","","","","","",""
"","time_out","","html-keyboard-response","466","692118","0.0-1.0-647.0-0.0","0","0","98537","","null","","","null","71","","","","","","","","","","","","","","","",""
"","ITI","","html-keyboard-response","467","693120","0.0-1.0-648.0","0","0","98537","","null","","","null","71","","","","","","","","","","","","","","","NaN",""
"","S1","","html-keyboard-response","468","693276","0.0-1.0-650.0","0","0","98537","","null","","","null","72","","","","","","","","","","","","","","","",""
"","ISI","","html-keyboard-response","469","695280","0.0-1.0-651.0","0","0","98537","","null","","","null","72","NaN","","","","","","","","","","","","","","",""
"","S2","","html-keyboard-response","470","695440","0.0-1.0-652.0","0","0","98537","","null","","","null","72","","NaN","","","","","","","","","","","","","",""
"","response","","html-keyboard-response","471","696183","0.0-1.0-653.0-0.0","0","0","98537","","742","","","75","72","","","2","72","training","adjacent","FG","6","7","Q.jpg","N.jpg","1","1","1","",""
"","feedback","","html-keyboard-response","472","697196","0.0-1.0-654.0-0.0","0","0","98537","","null","","","null","72","","","","","","","","","","","","","","","",""
"","ITI","","html-keyboard-response","473","698212","0.0-1.0-657.0","0","0","98537","","null","","","null","72","","","","","","","","","","","","","","","NaN",""
"","S1","","html-keyboard-response","474","698372","0.0-1.0-659.0","0","0","98537","","null","","","null","73","","","","","","","","","","","","","","","",""
"","ISI","","html-keyboard-response","475","700386","0.0-1.0-660.0","0","0","98537","","null","","","null","73","NaN","","","","","","","","","","","","","","",""
"","S2","","html-keyboard-response","476","700542","0.0-1.0-661.0","0","0","98537","","null","","","null","73","","NaN","","","","","","","","","","","","","",""
"","response","","html-keyboard-response","477","701079","0.0-1.0-662.0-0.0","0","0","98537","","536","","","75","73","","","2","73","training","adjacent","FE","6","5","Q.jpg","M.jpg","1","0","0","",""
"","feedback","","html-keyboard-response","478","702095","0.0-1.0-663.0-0.0","0","0","98537","","null","","","null","73","","","","","","","","","","","","","","","",""
"","time_out","","html-keyboard-response","479","704101","0.0-1.0-665.0-0.0","0","0","98537","","null","","","null","73","","","","","","","","","","","","","","","",""
"","ITI","","html-keyboard-response","480","705120","0.0-1.0-666.0","0","0","98537","","null","","","null","73","","","","","","","","","","","","","","","NaN",""
"","S1","","html-keyboard-response","481","705272","0.0-1.0-668.0","0","0","98537","","null","","","null","74","","","","","","","","","","","","","","","",""
"","ISI","","html-keyboard-response","482","707276","0.0-1.0-669.0","0","0","98537","","null","","","null","74","NaN","","","","","","","","","","","","","","",""
"","S2","","html-keyboard-response","483","707433","0.0-1.0-670.0","0","0","98537","","null","","","null","74","","NaN","","","","","","","","","","","","","",""
"","response","","html-keyboard-response","484","709289","0.0-1.0-671.0-0.0","0","0","98537","","null","","","null","74","","","2","74","training","adjacent","DC","4","3","O.jpg","R.jpg","NaN","0","0","",""
"","too_slow_prompt","","html-keyboard-response","485","710293","0.0-1.0-673.0-0.0","1","0","98537","","null","","","null","","","","","","","","","","","","","","","","",""
"","time_out","","html-keyboard-response","486","712309","0.0-1.0-674.0-0.0","0","0","98537","","null","","","null","74","","","","","","","","","","","","","","","",""
"","ITI","","html-keyboard-response","487","713321","0.0-1.0-675.0","0","0","98537","","null","","","null","74","","","","","","","","","","","","","","","NaN",""
"","S1","","html-keyboard-response","488","713480","0.0-1.0-677.0","0","0","98537","","null","","","null","75","","","","","","","","","","","","","","","",""
"","ISI","","html-keyboard-response","489","715487","0.0-1.0-678.0","0","0","98537","","null","","","null","75","NaN","","","","","","","","","","","","","","",""
"","S2","","html-keyboard-response","490","715643","0.0-1.0-679.0","0","0","98537","","null","","","null","75","","NaN","","","","","","","","","","","","","",""
"","response","","html-keyboard-response","491","716337","0.0-1.0-680.0-0.0","0","0","98537","","691","","","68","75","","","2","75","training","adjacent","GF","7","6","N.jpg","Q.jpg","0","0","1","",""
"","feedback","","html-keyboard-response","492","717343","0.0-1.0-681.0-0.0","0","0","98537","","null","","","null","75","","","","","","","","","","","","","","","",""
"","ITI","","html-keyboard-response","493","718349","0.0-1.0-684.0","0","0","98537","","null","","","null","75","","","","","","","","","","","","","","","NaN",""
"","S1","","html-keyboard-response","494","718507","0.0-1.0-686.0","0","0","98537","","null","","","null","76","","","","","","","","","","","","","","","",""
"","ISI","","html-keyboard-response","495","720517","0.0-1.0-687.0","0","0","98537","","null","","","null","76","NaN","","","","","","","","","","","","","","",""
"","S2","","html-keyboard-response","496","720672","0.0-1.0-688.0","0","0","98537","","null","","","null","76","","NaN","","","","","","","","","","","","","",""
"","response","","html-keyboard-response","497","721100","0.0-1.0-689.0-0.0","0","0","98537","","427","","","75","76","","","2","76","training","adjacent","DE","4","5","O.jpg","M.jpg","1","1","1","",""
"","feedback","","html-keyboard-response","498","722116","0.0-1.0-690.0-0.0","0","0","98537","","null","","","null","76","","","","","","","","","","","","","","","",""
"","ITI","","html-keyboard-response","499","723127","0.0-1.0-693.0","0","0","98537","","null","","","null","76","","","","","","","","","","","","","","","NaN",""
"","S1","","html-keyboard-response","500","723284","0.0-1.0-695.0","0","0","98537","","null","","","null","77","","","","","","","","","","","","","","","",""
"","ISI","","html-keyboard-response","501","725295","0.0-1.0-696.0","0","0","98537","","null","","","null","77","NaN","","","","","","","","","","","","","","",""
"","S2","","html-keyboard-response","502","725453","0.0-1.0-697.0","0","0","98537","","null","","","null","77","","NaN","","","","","","","","","","","","","",""
"","response","","html-keyboard-response","503","726207","0.0-1.0-698.0-0.0","0","0","98537","","753","","","75","77","","","2","77","training","adjacent","FG","6","7","Q.jpg","N.jpg","1","1","1","",""
"","feedback","","html-keyboard-response","504","727214","0.0-1.0-699.0-0.0","0","0","98537","","null","","","null","77","","","","","","","","","","","","","","","",""
"","ITI","","html-keyboard-response","505","728230","0.0-1.0-702.0","0","0","98537","","null","","","null","77","","","","","","","","","","","","","","","NaN",""
"","S1","","html-keyboard-response","506","728389","0.0-1.0-704.0","0","0","98537","","null","","","null","78","","","","","","","","","","","","","","","",""
"","ISI","","html-keyboard-response","507","730406","0.0-1.0-705.0","0","0","98537","","null","","","null","78","NaN","","","","","","","","","","","","","","",""
"","S2","","html-keyboard-response","508","730560","0.0-1.0-706.0","0","0","98537","","null","","","null","78","","NaN","","","","","","","","","","","","","",""
"","response","","html-keyboard-response","509","730843","0.0-1.0-707.0-0.0","0","0","98537","","281","","","75","78","","","2","78","training","adjacent","BC","2","3","L.jpg","R.jpg","1","1","1","",""
"","feedback","","html-keyboard-response","510","731852","0.0-1.0-708.0-0.0","0","0","98537","","null","","","null","78","","","","","","","","","","","","","","","",""
"","ITI","","html-keyboard-response","511","732860","0.0-1.0-711.0","0","0","98537","","null","","","null","78","","","","","","","","","","","","","","","NaN",""
"","S1","","html-keyboard-response","512","733016","0.0-1.0-713.0","0","0","98537","","null","","","null","79","","","","","","","","","","","","","","","",""
"","ISI","","html-keyboard-response","513","735026","0.0-1.0-714.0","0","0","98537","","null","","","null","79","NaN","","","","","","","","","","","","","","",""
"","S2","","html-keyboard-response","514","735181","0.0-1.0-715.0","0","0","98537","","null","","","null","79","","NaN","","","","","","","","","","","","","",""
"","response","","html-keyboard-response","515","735713","0.0-1.0-716.0-0.0","0","0","98537","","530","","","68","79","","","2","79","training","adjacent","FE","6","5","Q.jpg","M.jpg","0","0","1","",""
"","feedback","","html-keyboard-response","516","736719","0.0-1.0-717.0-0.0","0","0","98537","","null","","","null","79","","","","","","","","","","","","","","","",""
"","ITI","","html-keyboard-response","517","737728","0.0-1.0-720.0","0","0","98537","","null","","","null","79","","","","","","","","","","","","","","","NaN",""
"","S1","","html-keyboard-response","518","737883","0.0-1.0-722.0","0","0","98537","","null","","","null","80","","","","","","","","","","","","","","","",""
"","ISI","","html-keyboard-response","519","739887","0.0-1.0-723.0","0","0","98537","","null","","","null","80","NaN","","","","","","","","","","","","","","",""
"","S2","","html-keyboard-response","520","740042","0.0-1.0-724.0","0","0","98537","","null","","","null","80","","NaN","","","","","","","","","","","","","",""
"","response","","html-keyboard-response","521","741203","0.0-1.0-725.0-0.0","0","0","98537","","1160","","","75","80","","","2","80","training","adjacent","AB","1","2","P.jpg","L.jpg","1","1","1","",""
"","feedback","","html-keyboard-response","522","742215","0.0-1.0-726.0-0.0","0","0","98537","","null","","","null","80","","","","","","","","","","","","","","","",""
"","ITI","","html-keyboard-response","523","743224","0.0-1.0-729.0","0","0","98537","","null","","","null","80","","","","","","","","","","","","","","","NaN",""
"","S1","","html-keyboard-response","524","743383","0.0-1.0-731.0","0","0","98537","","null","","","null","81","","","","","","","","","","","","","","","",""
"","ISI","","html-keyboard-response","525","745400","0.0-1.0-732.0","0","0","98537","","null","","","null","81","NaN","","","","","","","","","","","","","","",""
"","S2","","html-keyboard-response","526","745557","0.0-1.0-733.0","0","0","98537","","null","","","null","81","","NaN","","","","","","","","","","","","","",""
"","response","","html-keyboard-response","527","746405","0.0-1.0-734.0-0.0","0","0","98537","","847","","","68","81","","","2","81","training","adjacent","DE","4","5","O.jpg","M.jpg","0","1","0","",""
"","feedback","","html-keyboard-response","528","747414","0.0-1.0-735.0-0.0","0","0","98537","","null","","","null","81","","","","","","","","","","","","","","","",""
"","time_out","","html-keyboard-response","529","749421","0.0-1.0-737.0-0.0","0","0","98537","","null","","","null","81","","","","","","","","","","","","","","","",""
"","ITI","","html-keyboard-response","530","750431","0.0-1.0-738.0","0","0","98537","","null","","","null","81","","","","","","","","","","","","","","","NaN",""
"","S1","","html-keyboard-response","531","750589","0.0-1.0-740.0","0","0","98537","","null","","","null","82","","","","","","","","","","","","","","","",""
"","ISI","","html-keyboard-response","532","752596","0.0-1.0-741.0","0","0","98537","","null","","","null","82","NaN","","","","","","","","","","","","","","",""
"","S2","","html-keyboard-response","533","752752","0.0-1.0-742.0","0","0","98537","","null","","","null","82","","NaN","","","","","","","","","","","","","",""
"","response","","html-keyboard-response","534","753687","0.0-1.0-743.0-0.0","0","0","98537","","932","","","75","82","","","2","82","training","adjacent","CB","3","2","R.jpg","L.jpg","1","0","0","",""
"","feedback","","html-keyboard-response","535","754698","0.0-1.0-744.0-0.0","0","0","98537","","null","","","null","82","","","","","","","","","","","","","","","",""
"","time_out","","html-keyboard-response","536","756708","0.0-1.0-746.0-0.0","0","0","98537","","null","","","null","82","","","","","","","","","","","","","","","",""
"","ITI","","html-keyboard-response","537","757713","0.0-1.0-747.0","0","0","98537","","null","","","null","82","","","","","","","","","","","","","","","NaN",""
"","S1","","html-keyboard-response","538","757870","0.0-1.0-749.0","0","0","98537","","null","","","null","83","","","","","","","","","","","","","","","",""
"","ISI","","html-keyboard-response","539","759884","0.0-1.0-750.0","0","0","98537","","null","","","null","83","NaN","","","","","","","","","","","","","","",""
"","S2","","html-keyboard-response","540","760041","0.0-1.0-751.0","0","0","98537","","null","","","null","83","","NaN","","","","","","","","","","","","","",""
"","response","","html-keyboard-response","541","760647","0.0-1.0-752.0-0.0","0","0","98537","","606","","","68","83","","","2","83","training","adjacent","ED","5","4","M.jpg","O.jpg","0","0","1","",""
"","feedback","","html-keyboard-response","542","761665","0.0-1.0-753.0-0.0","0","0","98537","","null","","","null","83","","","","","","","","","","","","","","","",""
"","ITI","","html-keyboard-response","543","762677","0.0-1.0-756.0","0","0","98537","","null","","","null","83","","","","","","","","","","","","","","","NaN",""
"","S1","","html-keyboard-response","544","762832","0.0-1.0-758.0","0","0","98537","","null","","","null","84","","","","","","","","","","","","","","","",""
"","ISI","","html-keyboard-response","545","764839","0.0-1.0-759.0","0","0","98537","","null","","","null","84","NaN","","","","","","","","","","","","","","",""
"","S2","","html-keyboard-response","546","764999","0.0-1.0-760.0","0","0","98537","","null","","","null","84","","NaN","","","","","","","","","","","","","",""
"","response","","html-keyboard-response","547","766318","0.0-1.0-761.0-0.0","0","0","98537","","1317","","","68","84","","","2","84","training","adjacent","DE","4","5","O.jpg","M.jpg","0","1","0","",""
"","feedback","","html-keyboard-response","548","767330","0.0-1.0-762.0-0.0","0","0","98537","","null","","","null","84","","","","","","","","","","","","","","","",""
"","time_out","","html-keyboard-response","549","769335","0.0-1.0-764.0-0.0","0","0","98537","","null","","","null","84","","","","","","","","","","","","","","","",""
"","ITI","","html-keyboard-response","550","770353","0.0-1.0-765.0","0","0","98537","","null","","","null","84","","","","","","","","","","","","","","","NaN",""
"","S1","","html-keyboard-response","551","770510","0.0-1.0-767.0","0","0","98537","","null","","","null","85","","","","","","","","","","","","","","","",""
"","ISI","","html-keyboard-response","552","772526","0.0-1.0-768.0","0","0","98537","","null","","","null","85","NaN","","","","","","","","","","","","","","",""
"","S2","","html-keyboard-response","553","772681","0.0-1.0-769.0","0","0","98537","","null","","","null","85","","NaN","","","","","","","","","","","","","",""
"","response","","html-keyboard-response","554","773523","0.0-1.0-770.0-0.0","0","0","98537","","840","","","75","85","","","2","85","training","adjacent","AB","1","2","P.jpg","L.jpg","1","1","1","",""
"","feedback","","html-keyboard-response","555","774530","0.0-1.0-771.0-0.0","0","0","98537","","null","","","null","85","","","","","","","","","","","","","","","",""
"","ITI","","html-keyboard-response","556","775545","0.0-1.0-774.0","0","0","98537","","null","","","null","85","","","","","","","","","","","","","","","NaN",""
"","S1","","html-keyboard-response","557","775703","0.0-1.0-776.0","0","0","98537","","null","","","null","86","","","","","","","","","","","","","","","",""
"","ISI","","html-keyboard-response","558","777716","0.0-1.0-777.0","0","0","98537","","null","","","null","86","NaN","","","","","","","","","","","","","","",""
"","S2","","html-keyboard-response","559","777871","0.0-1.0-778.0","0","0","98537","","null","","","null","86","","NaN","","","","","","","","","","","","","",""
"","response","","html-keyboard-response","560","779060","0.0-1.0-779.0-0.0","0","0","98537","","1187","","","75","86","","","2","86","training","adjacent","DE","4","5","O.jpg","M.jpg","1","1","1","",""
"","feedback","","html-keyboard-response","561","780068","0.0-1.0-780.0-0.0","0","0","98537","","null","","","null","86","","","","","","","","","","","","","","","",""
"","ITI","","html-keyboard-response","562","781075","0.0-1.0-783.0","0","0","98537","","null","","","null","86","","","","","","","","","","","","","","","NaN",""
"","S1","","html-keyboard-response","563","781232","0.0-1.0-785.0","0","0","98537","","null","","","null","87","","","","","","","","","","","","","","","",""
"","ISI","","html-keyboard-response","564","783242","0.0-1.0-786.0","0","0","98537","","null","","","null","87","NaN","","","","","","","","","","","","","","",""
"","S2","","html-keyboard-response","565","783399","0.0-1.0-787.0","0","0","98537","","null","","","null","87","","NaN","","","","","","","","","","","","","",""
"","response","","html-keyboard-response","566","784123","0.0-1.0-788.0-0.0","0","0","98537","","720","","","75","87","","","2","87","training","adjacent","DC","4","3","O.jpg","R.jpg","1","0","0","",""
"","feedback","","html-keyboard-response","567","785130","0.0-1.0-789.0-0.0","0","0","98537","","null","","","null","87","","","","","","","","","","","","","","","",""
"","time_out","","html-keyboard-response","568","787146","0.0-1.0-791.0-0.0","0","0","98537","","null","","","null","87","","","","","","","","","","","","","","","",""
"","ITI","","html-keyboard-response","569","788152","0.0-1.0-792.0","0","0","98537","","null","","","null","87","","","","","","","","","","","","","","","NaN",""
"","S1","","html-keyboard-response","570","788306","0.0-1.0-794.0","0","0","98537","","null","","","null","88","","","","","","","","","","","","","","","",""
"","ISI","","html-keyboard-response","571","790318","0.0-1.0-795.0","0","0","98537","","null","","","null","88","NaN","","","","","","","","","","","","","","",""
"","S2","","html-keyboard-response","572","790471","0.0-1.0-796.0","0","0","98537","","null","","","null","88","","NaN","","","","","","","","","","","","","",""
"","response","","html-keyboard-response","573","791101","0.0-1.0-797.0-0.0","0","0","98537","","629","","","75","88","","","2","88","training","adjacent","BA","2","1","L.jpg","P.jpg","1","0","0","",""
"","feedback","","html-keyboard-response","574","792107","0.0-1.0-798.0-0.0","0","0","98537","","null","","","null","88","","","","","","","","","","","","","","","",""
"","time_out","","html-keyboard-response","575","794120","0.0-1.0-800.0-0.0","0","0","98537","","null","","","null","88","","","","","","","","","","","","","","","",""
"","ITI","","html-keyboard-response","576","795138","0.0-1.0-801.0","0","0","98537","","null","","","null","88","","","","","","","","","","","","","","","NaN",""
"","S1","","html-keyboard-response","577","795294","0.0-1.0-803.0","0","0","98537","","null","","","null","89","","","","","","","","","","","","","","","",""
"","ISI","","html-keyboard-response","578","797301","0.0-1.0-804.0","0","0","98537","","null","","","null","89","NaN","","","","","","","","","","","","","","",""
"","S2","","html-keyboard-response","579","797457","0.0-1.0-805.0","0","0","98537","","null","","","null","89","","NaN","","","","","","","","","","","","","",""
"","response","","html-keyboard-response","580","797733","0.0-1.0-806.0-0.0","0","0","98537","","273","","","75","89","","","2","89","training","adjacent","CD","3","4","R.jpg","O.jpg","1","1","1","",""
