"success","ttype","start_time","trial_type","trial_index","time_elapsed","internal_node_id","warning","missed_checkup","PID","view_history","rt","responses","repeat_instructions","key_press","index","keypress_isi","keypress_S2","block","trial_num","phase","group_type","pair_type","S1_stim","S2_stim","S1_img","S2_img","S1_chosen","S1_higher","accuracy","keypress_iti","total_bonus_tally"
"true","full_screen","d03082023hr1843","fullscreen","0","7372","0.0-0.0","0","0","45495","","","","","","","","","","","","","","","","","","","","","",""
"","instructions","","instructions","1","46501","0.0-1.0-0.0-0.0","0","0","45495","[{""page_index"":0,""viewing_time"":4881},{""page_index"":1,""viewing_time"":23238},{""page_index"":2,""viewing_time"":9616},{""page_index"":3,""viewing_time"":1391}]","39127","","","","","","","","","","","","","","","","","","","",""
"","comprehension_check","","survey-multi-choice","2","70961","0.0-1.0-0.0-1.0","0","0","45495","","24453","{""Q0"":""True"",""Q1"":""K"",""Q2"":""Only when the screen 'MAKE A CHOICE' is shown"",""Q3"":""Green mark"",""Q4"":""either D or K""}","1","","","","","","","","","","","","","","","","","",""
"","missed_instruction_checkup","","html-keyboard-response","3","72642","0.0-1.0-0.0-2.0-0.0","0","1","45495","","1675","","","32","","","","","","","","","","","","","","","","",""
"","instructions","","instructions","4","87041","0.0-1.0-0.1-0.1","0","0","45495","[{""page_index"":0,""viewing_time"":3017},{""page_index"":1,""viewing_time"":7795},{""page_index"":2,""viewing_time"":2181},{""page_index"":3,""viewing_time"":1404}]","14397","","","","","","","","","","","","","","","","","","","",""
"","comprehension_check","","survey-multi-choice","5","101697","0.0-1.0-0.1-1.1","0","0","45495","","14650","{""Q0"":""True"",""Q1"":""K"",""Q2"":""Once the second image appears and while the screen 'MAKE A CHOICE' is shown"",""Q3"":""Green mark"",""Q4"":""either D or K""}","0","","","","","","","","","","","","","","","","","",""
"","start_exp","","html-keyboard-response","6","103373","0.0-1.0-1.0","0","0","45495","","1673","","","32","","","","","","","","","","","","","","","","",""
"","S1","","html-keyboard-response","7","103627","0.0-1.0-2.0","0","0","45495","","null","","","null","0","","","","","","","","","","","","","","","",""
"","ISI","","html-keyboard-response","8","103780","0.0-1.0-3.0","0","0","45495","","null","","","null","0","NaN","","","","","","","","","","","","","","",""
"","S2","","html-keyboard-response","9","104034","0.0-1.0-4.0","0","0","45495","","null","","","null","0","","NaN","","","","","","","","","","","","","",""
"","response","","html-keyboard-response","10","104763","0.0-1.0-5.0-0.0","0","0","45495","","727","","","75","0","","","1","0","training","adjacent","CD","3","4","Q.jpg","R.jpg","1","1","1","",""
"","feedback","","html-keyboard-response","11","105767","0.0-1.0-6.0-0.0","0","0","45495","","null","","","null","0","","","","","","","","","","","","","","","",""
"","ITI","","html-keyboard-response","12","106771","0.0-1.0-9.0","0","0","45495","","null","","","null","0","","","","","","","","","","","","","","","NaN",""
"","S1","","html-keyboard-response","13","107025","0.0-1.0-11.0","0","0","45495","","null","","","null","1","","","","","","","","","","","","","","","",""
"","ISI","","html-keyboard-response","14","107177","0.0-1.0-12.0","0","0","45495","","null","","","null","1","NaN","","","","","","","","","","","","","","",""
"","S2","","html-keyboard-response","15","107432","0.0-1.0-13.0","0","0","45495","","null","","","null","1","","NaN","","","","","","","","","","","","","",""
"","response","","html-keyboard-response","16","107552","0.0-1.0-14.0-0.0","0","0","45495","","118","","","75","1","","","1","1","training","adjacent","CD","3","4","Q.jpg","R.jpg","1","1","1","",""
"","feedback","","html-keyboard-response","17","108556","0.0-1.0-15.0-0.0","0","0","45495","","null","","","null","1","","","","","","","","","","","","","","","",""
"","ITI","","html-keyboard-response","18","109559","0.0-1.0-18.0","0","0","45495","","null","","","null","1","","","","","","","","","","","","","","","NaN",""
"","S1","","html-keyboard-response","19","109813","0.0-1.0-20.0","0","0","45495","","null","","","null","2","","","","","","","","","","","","","","","",""
"","ISI","","html-keyboard-response","20","109967","0.0-1.0-21.0","0","0","45495","","null","","","null","2","NaN","","","","","","","","","","","","","","",""
"","S2","","html-keyboard-response","21","110220","0.0-1.0-22.0","0","0","45495","","null","","","null","2","","NaN","","","","","","","","","","","","","",""
"","response","","html-keyboard-response","22","110582","0.0-1.0-23.0-0.0","0","0","45495","","360","","","68","2","","","1","2","training","adjacent","ED","5","4","O.jpg","R.jpg","0","0","1","",""
"","feedback","","html-keyboard-response","23","111585","0.0-1.0-24.0-0.0","0","0","45495","","null","","","null","2","","","","","","","","","","","","","","","",""
"","ITI","","html-keyboard-response","24","112589","0.0-1.0-27.0","0","0","45495","","null","","","null","2","","","","","","","","","","","","","","","NaN",""
"","S1","","html-keyboard-response","25","112842","0.0-1.0-29.0","0","0","45495","","null","","","null","3","","","","","","","","","","","","","","","",""
"","ISI","","html-keyboard-response","26","112997","0.0-1.0-30.0","0","0","45495","","null","","","null","3","NaN","","","","","","","","","","","","","","",""
"","S2","","html-keyboard-response","27","113250","0.0-1.0-31.0","0","0","45495","","null","","","null","3","","NaN","","","","","","","","","","","","","",""
"","response","","html-keyboard-response","28","113403","0.0-1.0-32.0-0.0","0","0","45495","","150","","","68","3","","","1","3","training","adjacent","ED","5","4","O.jpg","R.jpg","0","0","1","",""
"","feedback","","html-keyboard-response","29","114407","0.0-1.0-33.0-0.0","0","0","45495","","null","","","null","3","","","","","","","","","","","","","","","",""
"","ITI","","html-keyboard-response","30","115412","0.0-1.0-36.0","0","0","45495","","null","","","null","3","","","","","","","","","","","","","","","NaN",""
"","S1","","html-keyboard-response","31","115665","0.0-1.0-38.0","0","0","45495","","null","","","null","4","","","","","","","","","","","","","","","",""
"","ISI","","html-keyboard-response","32","115818","0.0-1.0-39.0","0","0","45495","","null","","","null","4","NaN","","","","","","","","","","","","","","",""
"","S2","","html-keyboard-response","33","116071","0.0-1.0-40.0","0","0","45495","","null","","","null","4","","NaN","","","","","","","","","","","","","",""
"","response","","html-keyboard-response","34","116423","0.0-1.0-41.0-0.0","0","0","45495","","349","","","75","4","","","1","4","training","adjacent","DE","4","5","R.jpg","O.jpg","1","1","1","",""
"","feedback","","html-keyboard-response","35","117427","0.0-1.0-42.0-0.0","0","0","45495","","null","","","null","4","","","","","","","","","","","","","","","",""
"","ITI","","html-keyboard-response","36","118431","0.0-1.0-45.0","0","0","45495","","null","","","null","4","","","","","","","","","","","","","","","NaN",""
"","S1","","html-keyboard-response","37","118685","0.0-1.0-47.0","0","0","45495","","null","","","null","5","","","","","","","","","","","","","","","",""
"","ISI","","html-keyboard-response","38","118839","0.0-1.0-48.0","0","0","45495","","null","","","null","5","NaN","","","","","","","","","","","","","","",""
"","S2","","html-keyboard-response","39","119092","0.0-1.0-49.0","0","0","45495","","null","","","null","5","","NaN","","","","","","","","","","","","","",""
"","response","","html-keyboard-response","40","119514","0.0-1.0-50.0-0.0","0","0","45495","","419","","","75","5","","","1","5","training","adjacent","DC","4","3","R.jpg","Q.jpg","1","0","0","",""
"","feedback","","html-keyboard-response","41","120517","0.0-1.0-51.0-0.0","0","0","45495","","null","","","null","5","","","","","","","","","","","","","","","",""
"","time_out","","html-keyboard-response","42","122520","0.0-1.0-53.0-0.0","0","0","45495","","null","","","null","5","","","","","","","","","","","","","","","",""
"","ITI","","html-keyboard-response","43","123523","0.0-1.0-54.0","0","0","45495","","100","","","75","5","","","","","","","","","","","","","","","k",""
"","S1","","html-keyboard-response","44","123777","0.0-1.0-56.0","0","0","45495","","null","","","null","6","","","","","","","","","","","","","","","",""
"","ISI","","html-keyboard-response","45","123930","0.0-1.0-57.0","0","0","45495","","null","","","null","6","NaN","","","","","","","","","","","","","","",""
"","S2","","html-keyboard-response","46","124183","0.0-1.0-58.0","0","0","45495","","null","","","null","6","","NaN","","","","","","","","","","","","","",""
"","response","","html-keyboard-response","47","124543","0.0-1.0-59.0-0.0","0","0","45495","","357","","","75","6","","","1","6","training","adjacent","EF","5","6","O.jpg","M.jpg","1","1","1","",""
"","feedback","","html-keyboard-response","48","125547","0.0-1.0-60.0-0.0","0","0","45495","","null","","","null","6","","","","","","","","","","","","","","","",""
"","ITI","","html-keyboard-response","49","126551","0.0-1.0-63.0","0","0","45495","","null","","","null","6","","","","","","","","","","","","","","","NaN",""
"","S1","","html-keyboard-response","50","126805","0.0-1.0-65.0","0","0","45495","","null","","","null","7","","","","","","","","","","","","","","","",""
"","ISI","","html-keyboard-response","51","126958","0.0-1.0-66.0","0","0","45495","","null","","","null","7","NaN","","","","","","","","","","","","","","",""
"","S2","","html-keyboard-response","52","127212","0.0-1.0-67.0","0","0","45495","","null","","","null","7","","NaN","","","","","","","","","","","","","",""
"","response","","html-keyboard-response","53","127614","0.0-1.0-68.0-0.0","0","0","45495","","400","","","75","7","","","1","7","training","adjacent","AB","1","2","P.jpg","N.jpg","1","1","1","",""
"","feedback","","html-keyboard-response","54","128618","0.0-1.0-69.0-0.0","0","0","45495","","null","","","null","7","","","","","","","","","","","","","","","",""
"","ITI","","html-keyboard-response","55","129621","0.0-1.0-72.0","0","0","45495","","null","","","null","7","","","","","","","","","","","","","","","NaN",""
"","S1","","html-keyboard-response","56","129877","0.0-1.0-74.0","0","0","45495","","null","","","null","8","","","","","","","","","","","","","","","",""
"","ISI","","html-keyboard-response","57","130030","0.0-1.0-75.0","0","0","45495","","null","","","null","8","NaN","","","","","","","","","","","","","","",""
"","S2","","html-keyboard-response","58","130284","0.0-1.0-76.0","0","0","45495","","null","","","null","8","","NaN","","","","","","","","","","","","","",""
"","response","","html-keyboard-response","59","130602","0.0-1.0-77.0-0.0","0","0","45495","","316","","","75","8","","","1","8","training","adjacent","DC","4","3","R.jpg","Q.jpg","1","0","0","",""
"","feedback","","html-keyboard-response","60","131605","0.0-1.0-78.0-0.0","0","0","45495","","null","","","null","8","","","","","","","","","","","","","","","",""
"","time_out","","html-keyboard-response","61","133608","0.0-1.0-80.0-0.0","0","0","45495","","null","","","null","8","","","","","","","","","","","","","","","",""
"","ITI","","html-keyboard-response","62","134611","0.0-1.0-81.0","0","0","45495","","null","","","null","8","","","","","","","","","","","","","","","NaN",""
"","S1","","html-keyboard-response","63","134864","0.0-1.0-83.0","0","0","45495","","null","","","null","9","","","","","","","","","","","","","","","",""
"","ISI","","html-keyboard-response","64","135018","0.0-1.0-84.0","0","0","45495","","null","","","null","9","NaN","","","","","","","","","","","","","","",""
"","S2","","html-keyboard-response","65","135276","0.0-1.0-85.0","0","0","45495","","null","","","null","9","","NaN","","","","","","","","","","","","","",""
"","response","","html-keyboard-response","66","135654","0.0-1.0-86.0-0.0","0","0","45495","","375","","","68","9","","","1","9","training","adjacent","BC","2","3","N.jpg","Q.jpg","0","1","0","",""
"","feedback","","html-keyboard-response","67","136657","0.0-1.0-87.0-0.0","0","0","45495","","null","","","null","9","","","","","","","","","","","","","","","",""
"","time_out","","html-keyboard-response","68","138660","0.0-1.0-89.0-0.0","0","0","45495","","null","","","null","9","","","","","","","","","","","","","","","",""
"","ITI","","html-keyboard-response","69","139663","0.0-1.0-90.0","0","0","45495","","null","","","null","9","","","","","","","","","","","","","","","NaN",""
"","S1","","html-keyboard-response","70","139917","0.0-1.0-92.0","0","0","45495","","null","","","null","10","","","","","","","","","","","","","","","",""
"","ISI","","html-keyboard-response","71","140070","0.0-1.0-93.0","0","0","45495","","null","","","null","10","NaN","","","","","","","","","","","","","","",""
"","S2","","html-keyboard-response","72","140324","0.0-1.0-94.0","0","0","45495","","null","","","null","10","","NaN","","","","","","","","","","","","","",""
"","response","","html-keyboard-response","73","140724","0.0-1.0-95.0-0.0","0","0","45495","","397","","","75","10","","","1","10","training","adjacent","CB","3","2","Q.jpg","N.jpg","1","0","0","",""
"","feedback","","html-keyboard-response","74","141728","0.0-1.0-96.0-0.0","0","0","45495","","null","","","null","10","","","","","","","","","","","","","","","",""
"","time_out","","html-keyboard-response","75","143732","0.0-1.0-98.0-0.0","0","0","45495","","null","","","null","10","","","","","","","","","","","","","","","",""
"","ITI","","html-keyboard-response","76","144735","0.0-1.0-99.0","0","0","45495","","null","","","null","10","","","","","","","","","","","","","","","NaN",""
"","S1","","html-keyboard-response","77","144989","0.0-1.0-101.0","0","0","45495","","null","","","null","11","","","","","","","","","","","","","","","",""
"","ISI","","html-keyboard-response","78","145152","0.0-1.0-102.0","0","0","45495","","null","","","null","11","NaN","","","","","","","","","","","","","","",""
"","S2","","html-keyboard-response","79","145406","0.0-1.0-103.0","0","0","45495","","null","","","null","11","","NaN","","","","","","","","","","","","","",""
"","response","","html-keyboard-response","80","145865","0.0-1.0-104.0-0.0","0","0","45495","","457","","","68","11","","","1","11","training","adjacent","BC","2","3","N.jpg","Q.jpg","0","1","0","",""
"","feedback","","html-keyboard-response","81","146869","0.0-1.0-105.0-0.0","0","0","45495","","null","","","null","11","","","","","","","","","","","","","","","",""
"","time_out","","html-keyboard-response","82","148872","0.0-1.0-107.0-0.0","0","0","45495","","null","","","null","11","","","","","","","","","","","","","","","",""
"","ITI","","html-keyboard-response","83","149876","0.0-1.0-108.0","0","0","45495","","null","","","null","11","","","","","","","","","","","","","","","NaN",""
"","S1","","html-keyboard-response","84","150130","0.0-1.0-110.0","0","0","45495","","null","","","null","12","","","","","","","","","","","","","","","",""
"","ISI","","html-keyboard-response","85","150284","0.0-1.0-111.0","0","0","45495","","null","","","null","12","NaN","","","","","","","","","","","","","","",""
"","S2","","html-keyboard-response","86","150538","0.0-1.0-112.0","0","0","45495","","null","","","null","12","","NaN","","","","","","","","","","","","","",""
"","response","","html-keyboard-response","87","151553","0.0-1.0-113.0-0.0","0","0","45495","","1013","","","68","12","","","1","12","training","adjacent","ED","5","4","O.jpg","R.jpg","0","0","1","",""
"","feedback","","html-keyboard-response","88","152558","0.0-1.0-114.0-0.0","0","0","45495","","null","","","null","12","","","","","","","","","","","","","","","",""
"","ITI","","html-keyboard-response","89","153561","0.0-1.0-117.0","0","0","45495","","null","","","null","12","","","","","","","","","","","","","","","NaN",""
"","S1","","html-keyboard-response","90","153814","0.0-1.0-119.0","0","0","45495","","null","","","null","13","","","","","","","","","","","","","","","",""
"","ISI","","html-keyboard-response","91","153967","0.0-1.0-120.0","0","0","45495","","null","","","null","13","NaN","","","","","","","","","","","","","","",""
"","S2","","html-keyboard-response","92","154221","0.0-1.0-121.0","0","0","45495","","null","","","null","13","","NaN","","","","","","","","","","","","","",""
"","response","","html-keyboard-response","93","155224","0.0-1.0-122.0-0.0","0","0","45495","","1001","","","75","13","","","1","13","training","adjacent","GF","7","6","L.jpg","M.jpg","1","0","0","",""
"","feedback","","html-keyboard-response","94","156228","0.0-1.0-123.0-0.0","0","0","45495","","null","","","null","13","","","","","","","","","","","","","","","",""
"","time_out","","html-keyboard-response","95","158232","0.0-1.0-125.0-0.0","0","0","45495","","null","","","null","13","","","","","","","","","","","","","","","",""
"","ITI","","html-keyboard-response","96","159235","0.0-1.0-126.0","0","0","45495","","null","","","null","13","","","","","","","","","","","","","","","NaN",""
"","S1","","html-keyboard-response","97","159488","0.0-1.0-128.0","0","0","45495","","null","","","null","14","","","","","","","","","","","","","","","",""
"","ISI","","html-keyboard-response","98","159641","0.0-1.0-129.0","0","0","45495","","null","","","null","14","NaN","","","","","","","","","","","","","","",""
"","S2","","html-keyboard-response","99","159894","0.0-1.0-130.0","0","0","45495","","null","","","null","14","","NaN","","","","","","","","","","","","","",""
"","response","","html-keyboard-response","100","160394","0.0-1.0-131.0-0.0","0","0","45495","","497","","","75","14","","","1","14","training","adjacent","FG","6","7","M.jpg","L.jpg","1","1","1","",""
"","feedback","","html-keyboard-response","101","161398","0.0-1.0-132.0-0.0","0","0","45495","","null","","","null","14","","","","","","","","","","","","","","","",""
"","ITI","","html-keyboard-response","102","162401","0.0-1.0-135.0","0","0","45495","","null","","","null","14","","","","","","","","","","","","","","","NaN",""
"","S1","","html-keyboard-response","103","162654","0.0-1.0-137.0","0","0","45495","","null","","","null","15","","","","","","","","","","","","","","","",""
"","ISI","","html-keyboard-response","104","162807","0.0-1.0-138.0","0","0","45495","","null","","","null","15","NaN","","","","","","","","","","","","","","",""
"","S2","","html-keyboard-response","105","163062","0.0-1.0-139.0","0","0","45495","","null","","","null","15","","NaN","","","","","","","","","","","","","",""
"","response","","html-keyboard-response","106","163904","0.0-1.0-140.0-0.0","0","0","45495","","840","","","68","15","","","1","15","training","adjacent","EF","5","6","O.jpg","M.jpg","0","1","0","",""
"","feedback","","html-keyboard-response","107","164908","0.0-1.0-141.0-0.0","0","0","45495","","null","","","null","15","","","","","","","","","","","","","","","",""
"","time_out","","html-keyboard-response","108","166912","0.0-1.0-143.0-0.0","0","0","45495","","null","","","null","15","","","","","","","","","","","","","","","",""
"","ITI","","html-keyboard-response","109","167915","0.0-1.0-144.0","0","0","45495","","null","","","null","15","","","","","","","","","","","","","","","NaN",""
"","S1","","html-keyboard-response","110","168168","0.0-1.0-146.0","0","0","45495","","null","","","null","16","","","","","","","","","","","","","","","",""
"","ISI","","html-keyboard-response","111","168321","0.0-1.0-147.0","0","0","45495","","null","","","null","16","NaN","","","","","","","","","","","","","","",""
"","S2","","html-keyboard-response","112","168574","0.0-1.0-148.0","0","0","45495","","null","","","null","16","","NaN","","","","","","","","","","","","","",""
"","response","","html-keyboard-response","113","169025","0.0-1.0-149.0-0.0","0","0","45495","","449","","","75","16","","","1","16","training","adjacent","FE","6","5","M.jpg","O.jpg","1","0","0","",""
"","feedback","","html-keyboard-response","114","170028","0.0-1.0-150.0-0.0","0","0","45495","","null","","","null","16","","","","","","","","","","","","","","","",""
"","time_out","","html-keyboard-response","115","172032","0.0-1.0-152.0-0.0","0","0","45495","","null","","","null","16","","","","","","","","","","","","","","","",""
"","ITI","","html-keyboard-response","116","173035","0.0-1.0-153.0","0","0","45495","","null","","","null","16","","","","","","","","","","","","","","","NaN",""
"","S1","","html-keyboard-response","117","173288","0.0-1.0-155.0","0","0","45495","","null","","","null","17","","","","","","","","","","","","","","","",""
"","ISI","","html-keyboard-response","118","173442","0.0-1.0-156.0","0","0","45495","","null","","","null","17","NaN","","","","","","","","","","","","","","",""
"","S2","","html-keyboard-response","119","173695","0.0-1.0-157.0","0","0","45495","","null","","","null","17","","NaN","","","","","","","","","","","","","",""
"","response","","html-keyboard-response","120","174414","0.0-1.0-158.0-0.0","0","0","45495","","717","","","75","17","","","1","17","training","adjacent","BC","2","3","N.jpg","Q.jpg","1","1","1","",""
"","feedback","","html-keyboard-response","121","175417","0.0-1.0-159.0-0.0","0","0","45495","","null","","","null","17","","","","","","","","","","","","","","","",""
"","ITI","","html-keyboard-response","122","176420","0.0-1.0-162.0","0","0","45495","","null","","","null","17","","","","","","","","","","","","","","","NaN",""
"","S1","","html-keyboard-response","123","176674","0.0-1.0-164.0","0","0","45495","","null","","","null","18","","","","","","","","","","","","","","","",""
"","ISI","","html-keyboard-response","124","176828","0.0-1.0-165.0","0","0","45495","","null","","","null","18","NaN","","","","","","","","","","","","","","",""
"","S2","","html-keyboard-response","125","177080","0.0-1.0-166.0","0","0","45495","","null","","","null","18","","NaN","","","","","","","","","","","","","",""
"","response","","html-keyboard-response","126","177944","0.0-1.0-167.0-0.0","0","0","45495","","861","","","68","18","","","1","18","training","adjacent","DC","4","3","R.jpg","Q.jpg","0","0","1","",""
"","feedback","","html-keyboard-response","127","178948","0.0-1.0-168.0-0.0","0","0","45495","","null","","","null","18","","","","","","","","","","","","","","","",""
"","ITI","","html-keyboard-response","128","179951","0.0-1.0-171.0","0","0","45495","","null","","","null","18","","","","","","","","","","","","","","","NaN",""
"","S1","","html-keyboard-response","129","180205","0.0-1.0-173.0","0","0","45495","","null","","","null","19","","","","","","","","","","","","","","","",""
"","ISI","","html-keyboard-response","130","180359","0.0-1.0-174.0","0","0","45495","","null","","","null","19","NaN","","","","","","","","","","","","","","",""
"","S2","","html-keyboard-response","131","180612","0.0-1.0-175.0","0","0","45495","","null","","","null","19","","NaN","","","","","","","","","","","","","",""
"","response","","html-keyboard-response","132","181994","0.0-1.0-176.0-0.0","0","0","45495","","1379","","","75","19","","","1","19","training","adjacent","FG","6","7","M.jpg","L.jpg","1","1","1","",""
"","feedback","","html-keyboard-response","133","182998","0.0-1.0-177.0-0.0","0","0","45495","","null","","","null","19","","","","","","","","","","","","","","","",""
"","ITI","","html-keyboard-response","134","184001","0.0-1.0-180.0","0","0","45495","","null","","","null","19","","","","","","","","","","","","","","","NaN",""
"","S1","","html-keyboard-response","135","184255","0.0-1.0-182.0","0","0","45495","","null","","","null","20","","","","","","","","","","","","","","","",""
"","ISI","","html-keyboard-response","136","184407","0.0-1.0-183.0","0","0","45495","","null","","","null","20","NaN","","","","","","","","","","","","","","",""
"","S2","","html-keyboard-response","137","184661","0.0-1.0-184.0","0","0","45495","","null","","","null","20","","NaN","","","","","","","","","","","","","",""
"","response","","html-keyboard-response","138","185954","0.0-1.0-185.0-0.0","0","0","45495","","1291","","","68","20","","","1","20","training","adjacent","AB","1","2","P.jpg","N.jpg","0","1","0","",""
"","feedback","","html-keyboard-response","139","186959","0.0-1.0-186.0-0.0","0","0","45495","","null","","","null","20","","","","","","","","","","","","","","","",""
"","time_out","","html-keyboard-response","140","188962","0.0-1.0-188.0-0.0","0","0","45495","","null","","","null","20","","","","","","","","","","","","","","","",""
"","ITI","","html-keyboard-response","141","189964","0.0-1.0-189.0","0","0","45495","","null","","","null","20","","","","","","","","","","","","","","","NaN",""
"","S1","","html-keyboard-response","142","190218","0.0-1.0-191.0","0","0","45495","","null","","","null","21","","","","","","","","","","","","","","","",""
"","ISI","","html-keyboard-response","143","190371","0.0-1.0-192.0","0","0","45495","","null","","","null","21","NaN","","","","","","","","","","","","","","",""
"","S2","","html-keyboard-response","144","190625","0.0-1.0-193.0","0","0","45495","","null","","","null","21","","NaN","","","","","","","","","","","","","",""
"","response","","html-keyboard-response","145","191624","0.0-1.0-194.0-0.0","0","0","45495","","997","","","68","21","","","1","21","training","adjacent","AB","1","2","P.jpg","N.jpg","0","1","0","",""
"","feedback","","html-keyboard-response","146","192627","0.0-1.0-195.0-0.0","0","0","45495","","null","","","null","21","","","","","","","","","","","","","","","",""
"","time_out","","html-keyboard-response","147","194630","0.0-1.0-197.0-0.0","0","0","45495","","null","","","null","21","","","","","","","","","","","","","","","",""
"","ITI","","html-keyboard-response","148","195633","0.0-1.0-198.0","0","0","45495","","null","","","null","21","","","","","","","","","","","","","","","NaN",""
"","S1","","html-keyboard-response","149","195886","0.0-1.0-200.0","0","0","45495","","null","","","null","22","","","","","","","","","","","","","","","",""
"","ISI","","html-keyboard-response","150","196040","0.0-1.0-201.0","0","0","45495","","null","","","null","22","NaN","","","","","","","","","","","","","","",""
"","S2","","html-keyboard-response","151","196294","0.0-1.0-202.0","0","0","45495","","null","","","null","22","","NaN","","","","","","","","","","","","","",""
"","response","","html-keyboard-response","152","196804","0.0-1.0-203.0-0.0","0","0","45495","","507","","","75","22","","","1","22","training","adjacent","DE","4","5","R.jpg","O.jpg","1","1","1","",""
"","feedback","","html-keyboard-response","153","197808","0.0-1.0-204.0-0.0","0","0","45495","","null","","","null","22","","","","","","","","","","","","","","","",""
"","ITI","","html-keyboard-response","154","198811","0.0-1.0-207.0","0","0","45495","","null","","","null","22","","","","","","","","","","","","","","","NaN",""
"","S1","","html-keyboard-response","155","199064","0.0-1.0-209.0","0","0","45495","","null","","","null","23","","","","","","","","","","","","","","","",""
"","ISI","","html-keyboard-response","156","199217","0.0-1.0-210.0","0","0","45495","","null","","","null","23","NaN","","","","","","","","","","","","","","",""
"","S2","","html-keyboard-response","157","199470","0.0-1.0-211.0","0","0","45495","","null","","","null","23","","NaN","","","","","","","","","","","","","",""
"","response","","html-keyboard-response","158","199905","0.0-1.0-212.0-0.0","0","0","45495","","432","","","68","23","","","1","23","training","adjacent","GF","7","6","L.jpg","M.jpg","0","0","1","",""
"","feedback","","html-keyboard-response","159","200909","0.0-1.0-213.0-0.0","0","0","45495","","null","","","null","23","","","","","","","","","","","","","","","",""
"","ITI","","html-keyboard-response","160","201913","0.0-1.0-216.0","0","0","45495","","null","","","null","23","","","","","","","","","","","","","","","NaN",""
"","S1","","html-keyboard-response","161","202166","0.0-1.0-218.0","0","0","45495","","null","","","null","24","","","","","","","","","","","","","","","",""
"","ISI","","html-keyboard-response","162","202320","0.0-1.0-219.0","0","0","45495","","null","","","null","24","NaN","","","","","","","","","","","","","","",""
"","S2","","html-keyboard-response","163","202588","0.0-1.0-220.0","0","0","45495","","null","","","null","24","","NaN","","","","","","","","","","","","","",""
"","response","","html-keyboard-response","164","203015","0.0-1.0-221.0-0.0","0","0","45495","","424","","","68","24","","","1","24","training","adjacent","CB","3","2","Q.jpg","N.jpg","0","0","1","",""
"","feedback","","html-keyboard-response","165","204018","0.0-1.0-222.0-0.0","0","0","45495","","null","","","null","24","","","","","","","","","","","","","","","",""
"","ITI","","html-keyboard-response","166","205022","0.0-1.0-225.0","0","0","45495","","null","","","null","24","","","","","","","","","","","","","","","NaN",""
"","S1","","html-keyboard-response","167","205275","0.0-1.0-227.0","0","0","45495","","null","","","null","25","","","","","","","","","","","","","","","",""
"","ISI","","html-keyboard-response","168","205429","0.0-1.0-228.0","0","0","45495","","null","","","null","25","NaN","","","","","","","","","","","","","","",""
"","S2","","html-keyboard-response","169","205684","0.0-1.0-229.0","0","0","45495","","null","","","null","25","","NaN","","","","","","","","","","","","","",""
"","response","","html-keyboard-response","170","206016","0.0-1.0-230.0-0.0","0","0","45495","","330","","","68","25","","","1","25","training","adjacent","AB","1","2","P.jpg","N.jpg","0","1","0","",""
"","feedback","","html-keyboard-response","171","207020","0.0-1.0-231.0-0.0","0","0","45495","","null","","","null","25","","","","","","","","","","","","","","","",""
"","time_out","","html-keyboard-response","172","209024","0.0-1.0-233.0-0.0","0","0","45495","","null","","","null","25","","","","","","","","","","","","","","","",""
"","ITI","","html-keyboard-response","173","210027","0.0-1.0-234.0","0","0","45495","","null","","","null","25","","","","","","","","","","","","","","","NaN",""
"","S1","","html-keyboard-response","174","210281","0.0-1.0-236.0","0","0","45495","","null","","","null","26","","","","","","","","","","","","","","","",""
"","ISI","","html-keyboard-response","175","210433","0.0-1.0-237.0","0","0","45495","","null","","","null","26","NaN","","","","","","","","","","","","","","",""
"","S2","","html-keyboard-response","176","210686","0.0-1.0-238.0","0","0","45495","","null","","","null","26","","NaN","","","","","","","","","","","","","",""
"","response","","html-keyboard-response","177","211334","0.0-1.0-239.0-0.0","0","0","45495","","646","","","75","26","","","1","26","training","adjacent","BC","2","3","N.jpg","Q.jpg","1","1","1","",""
"","feedback","","html-keyboard-response","178","212337","0.0-1.0-240.0-0.0","0","0","45495","","null","","","null","26","","","","","","","","","","","","","","","",""
"","ITI","","html-keyboard-response","179","213340","0.0-1.0-243.0","0","0","45495","","null","","","null","26","","","","","","","","","","","","","","","NaN",""
"","S1","","html-keyboard-response","180","213593","0.0-1.0-245.0","0","0","45495","","null","","","null","27","","","","","","","","","","","","","","","",""
"","ISI","","html-keyboard-response","181","213746","0.0-1.0-246.0","0","0","45495","","null","","","null","27","NaN","","","","","","","","","","","","","","",""
"","S2","","html-keyboard-response","182","214000","0.0-1.0-247.0","0","0","45495","","null","","","null","27","","NaN","","","","","","","","","","","","","",""
"","response","","html-keyboard-response","183","214824","0.0-1.0-248.0-0.0","0","0","45495","","821","","","68","27","","","1","27","training","adjacent","GF","7","6","L.jpg","M.jpg","0","0","1","",""
"","feedback","","html-keyboard-response","184","215828","0.0-1.0-249.0-0.0","0","0","45495","","null","","","null","27","","","","","","","","","","","","","","","",""
"","ITI","","html-keyboard-response","185","216830","0.0-1.0-252.0","0","0","45495","","null","","","null","27","","","","","","","","","","","","","","","NaN",""
"","S1","","html-keyboard-response","186","217084","0.0-1.0-254.0","0","0","45495","","null","","","null","28","","","","","","","","","","","","","","","",""
"","ISI","","html-keyboard-response","187","217237","0.0-1.0-255.0","0","0","45495","","null","","","null","28","NaN","","","","","","","","","","","","","","",""
"","S2","","html-keyboard-response","188","217506","0.0-1.0-256.0","0","0","45495","","null","","","null","28","","NaN","","","","","","","","","","","","","",""
"","response","","html-keyboard-response","189","217925","0.0-1.0-257.0-0.0","0","0","45495","","416","","","75","28","","","1","28","training","adjacent","DE","4","5","R.jpg","O.jpg","1","1","1","",""
"","feedback","","html-keyboard-response","190","218929","0.0-1.0-258.0-0.0","0","0","45495","","null","","","null","28","","","","","","","","","","","","","","","",""
"","ITI","","html-keyboard-response","191","219932","0.0-1.0-261.0","0","0","45495","","null","","","null","28","","","","","","","","","","","","","","","NaN",""
"","S1","","html-keyboard-response","192","220185","0.0-1.0-263.0","0","0","45495","","null","","","null","29","","","","","","","","","","","","","","","",""
"","ISI","","html-keyboard-response","193","220339","0.0-1.0-264.0","0","0","45495","","null","","","null","29","NaN","","","","","","","","","","","","","","",""
"","S2","","html-keyboard-response","194","220592","0.0-1.0-265.0","0","0","45495","","null","","","null","29","","NaN","","","","","","","","","","","","","",""
"","response","","html-keyboard-response","195","221184","0.0-1.0-266.0-0.0","0","0","45495","","589","","","68","29","","","1","29","training","adjacent","CD","3","4","Q.jpg","R.jpg","0","1","0","",""
"","feedback","","html-keyboard-response","196","222188","0.0-1.0-267.0-0.0","0","0","45495","","null","","","null","29","","","","","","","","","","","","","","","",""
"","time_out","","html-keyboard-response","197","224192","0.0-1.0-269.0-0.0","0","0","45495","","null","","","null","29","","","","","","","","","","","","","","","",""
"","ITI","","html-keyboard-response","198","225195","0.0-1.0-270.0","0","0","45495","","null","","","null","29","","","","","","","","","","","","","","","NaN",""
"","S1","","html-keyboard-response","199","225448","0.0-1.0-272.0","0","0","45495","","null","","","null","30","","","","","","","","","","","","","","","",""
"","ISI","","html-keyboard-response","200","225602","0.0-1.0-273.0","0","0","45495","","null","","","null","30","NaN","","","","","","","","","","","","","","",""
"","S2","","html-keyboard-response","201","225856","0.0-1.0-274.0","0","0","45495","","null","","","null","30","","NaN","","","","","","","","","","","","","",""
"","response","","html-keyboard-response","202","226165","0.0-1.0-275.0-0.0","0","0","45495","","306","","","75","30","","","1","30","training","adjacent","FE","6","5","M.jpg","O.jpg","1","0","0","",""
"","feedback","","html-keyboard-response","203","227168","0.0-1.0-276.0-0.0","0","0","45495","","null","","","null","30","","","","","","","","","","","","","","","",""
"","time_out","","html-keyboard-response","204","229172","0.0-1.0-278.0-0.0","0","0","45495","","null","","","null","30","","","","","","","","","","","","","","","",""
"","ITI","","html-keyboard-response","205","230174","0.0-1.0-279.0","0","0","45495","","null","","","null","30","","","","","","","","","","","","","","","NaN",""
"","S1","","html-keyboard-response","206","230428","0.0-1.0-281.0","0","0","45495","","null","","","null","31","","","","","","","","","","","","","","","",""
"","ISI","","html-keyboard-response","207","230582","0.0-1.0-282.0","0","0","45495","","null","","","null","31","NaN","","","","","","","","","","","","","","",""
"","S2","","html-keyboard-response","208","230836","0.0-1.0-283.0","0","0","45495","","null","","","null","31","","NaN","","","","","","","","","","","","","",""
"","response","","html-keyboard-response","209","231304","0.0-1.0-284.0-0.0","0","0","45495","","466","","","68","31","","","1","31","training","adjacent","CB","3","2","Q.jpg","N.jpg","0","0","1","",""
"","feedback","","html-keyboard-response","210","232307","0.0-1.0-285.0-0.0","0","0","45495","","null","","","null","31","","","","","","","","","","","","","","","",""
"","ITI","","html-keyboard-response","211","233311","0.0-1.0-288.0","0","0","45495","","null","","","null","31","","","","","","","","","","","","","","","NaN",""
"","S1","","html-keyboard-response","212","233564","0.0-1.0-290.0","0","0","45495","","null","","","null","32","","","","","","","","","","","","","","","",""
"","ISI","","html-keyboard-response","213","233718","0.0-1.0-291.0","0","0","45495","","null","","","null","32","NaN","","","","","","","","","","","","","","",""
"","S2","","html-keyboard-response","214","233971","0.0-1.0-292.0","0","0","45495","","null","","","null","32","","NaN","","","","","","","","","","","","","",""
"","response","","html-keyboard-response","215","234635","0.0-1.0-293.0-0.0","0","0","45495","","661","","","75","32","","","1","32","training","adjacent","FE","6","5","M.jpg","O.jpg","1","0","0","",""
"","feedback","","html-keyboard-response","216","235638","0.0-1.0-294.0-0.0","0","0","45495","","null","","","null","32","","","","","","","","","","","","","","","",""
"","time_out","","html-keyboard-response","217","237643","0.0-1.0-296.0-0.0","0","0","45495","","null","","","null","32","","","","","","","","","","","","","","","",""
"","ITI","","html-keyboard-response","218","238647","0.0-1.0-297.0","0","0","45495","","null","","","null","32","","","","","","","","","","","","","","","NaN",""
"","S1","","html-keyboard-response","219","238901","0.0-1.0-299.0","0","0","45495","","null","","","null","33","","","","","","","","","","","","","","","",""
"","ISI","","html-keyboard-response","220","239054","0.0-1.0-300.0","0","0","45495","","null","","","null","33","NaN","","","","","","","","","","","","","","",""
"","S2","","html-keyboard-response","221","239307","0.0-1.0-301.0","0","0","45495","","null","","","null","33","","NaN","","","","","","","","","","","","","",""
"","response","","html-keyboard-response","222","239645","0.0-1.0-302.0-0.0","0","0","45495","","336","","","75","33","","","1","33","training","adjacent","DE","4","5","R.jpg","O.jpg","1","1","1","",""
"","feedback","","html-keyboard-response","223","240649","0.0-1.0-303.0-0.0","0","0","45495","","null","","","null","33","","","","","","","","","","","","","","","",""
"","ITI","","html-keyboard-response","224","241653","0.0-1.0-306.0","0","0","45495","","null","","","null","33","","","","","","","","","","","","","","","NaN",""
"","S1","","html-keyboard-response","225","241906","0.0-1.0-308.0","0","0","45495","","null","","","null","34","","","","","","","","","","","","","","","",""
"","ISI","","html-keyboard-response","226","242059","0.0-1.0-309.0","0","0","45495","","null","","","null","34","NaN","","","","","","","","","","","","","","",""
"","S2","","html-keyboard-response","227","242318","0.0-1.0-310.0","0","0","45495","","null","","","null","34","","NaN","","","","","","","","","","","","","",""
"","response","","html-keyboard-response","228","242945","0.0-1.0-311.0-0.0","0","0","45495","","625","","","68","34","","","1","34","training","adjacent","EF","5","6","O.jpg","M.jpg","0","1","0","",""
"","feedback","","html-keyboard-response","229","243948","0.0-1.0-312.0-0.0","0","0","45495","","null","","","null","34","","","","","","","","","","","","","","","",""
"","time_out","","html-keyboard-response","230","245951","0.0-1.0-314.0-0.0","0","0","45495","","null","","","null","34","","","","","","","","","","","","","","","",""
"","ITI","","html-keyboard-response","231","246955","0.0-1.0-315.0","0","0","45495","","null","","","null","34","","","","","","","","","","","","","","","NaN",""
"","S1","","html-keyboard-response","232","247209","0.0-1.0-317.0","0","0","45495","","null","","","null","35","","","","","","","","","","","","","","","",""
"","ISI","","html-keyboard-response","233","247362","0.0-1.0-318.0","0","0","45495","","null","","","null","35","NaN","","","","","","","","","","","","","","",""
"","S2","","html-keyboard-response","234","247615","0.0-1.0-319.0","0","0","45495","","null","","","null","35","","NaN","","","","","","","","","","","","","",""
"","response","","html-keyboard-response","235","247874","0.0-1.0-320.0-0.0","0","0","45495","","256","","","75","35","","","1","35","training","adjacent","EF","5","6","O.jpg","M.jpg","1","1","1","",""
"","feedback","","html-keyboard-response","236","248878","0.0-1.0-321.0-0.0","0","0","45495","","null","","","null","35","","","","","","","","","","","","","","","",""
"","ITI","","html-keyboard-response","237","249882","0.0-1.0-324.0","0","0","45495","","null","","","null","35","","","","","","","","","","","","","","","NaN",""
"","S1","","html-keyboard-response","238","250150","0.0-1.0-326.0","0","0","45495","","null","","","null","36","","","","","","","","","","","","","","","",""
"","ISI","","html-keyboard-response","239","250306","0.0-1.0-327.0","0","0","45495","","null","","","null","36","NaN","","","","","","","","","","","","","","",""
"","S2","","html-keyboard-response","240","250559","0.0-1.0-328.0","0","0","45495","","null","","","null","36","","NaN","","","","","","","","","","","","","",""
"","response","","html-keyboard-response","241","250845","0.0-1.0-329.0-0.0","0","0","45495","","283","","","68","36","","","1","36","training","adjacent","GF","7","6","L.jpg","M.jpg","0","0","1","",""
"","feedback","","html-keyboard-response","242","251848","0.0-1.0-330.0-0.0","0","0","45495","","null","","","null","36","","","","","","","","","","","","","","","",""
"","ITI","","html-keyboard-response","243","252851","0.0-1.0-333.0","0","0","45495","","null","","","null","36","","","","","","","","","","","","","","","NaN",""
"","S1","","html-keyboard-response","244","253104","0.0-1.0-335.0","0","0","45495","","null","","","null","37","","","","","","","","","","","","","","","",""
"","ISI","","html-keyboard-response","245","253258","0.0-1.0-336.0","0","0","45495","","null","","","null","37","NaN","","","","","","","","","","","","","","",""
"","S2","","html-keyboard-response","246","253511","0.0-1.0-337.0","0","0","45495","","null","","","null","37","","NaN","","","","","","","","","","","","","",""
"","response","","html-keyboard-response","247","253884","0.0-1.0-338.0-0.0","0","0","45495","","370","","","75","37","","","1","37","training","adjacent","CB","3","2","Q.jpg","N.jpg","1","0","0","",""
"","feedback","","html-keyboard-response","248","254887","0.0-1.0-339.0-0.0","0","0","45495","","null","","","null","37","","","","","","","","","","","","","","","",""
"","time_out","","html-keyboard-response","249","256890","0.0-1.0-341.0-0.0","0","0","45495","","null","","","null","37","","","","","","","","","","","","","","","",""
"","ITI","","html-keyboard-response","250","257893","0.0-1.0-342.0","0","0","45495","","null","","","null","37","","","","","","","","","","","","","","","NaN",""
"","S1","","html-keyboard-response","251","258147","0.0-1.0-344.0","0","0","45495","","null","","","null","38","","","","","","","","","","","","","","","",""
"","ISI","","html-keyboard-response","252","258301","0.0-1.0-345.0","0","0","45495","","null","","","null","38","NaN","","","","","","","","","","","","","","",""
"","S2","","html-keyboard-response","253","258555","0.0-1.0-346.0","0","0","45495","","null","","","null","38","","NaN","","","","","","","","","","","","","",""
"","response","","html-keyboard-response","254","258874","0.0-1.0-347.0-0.0","0","0","45495","","318","","","68","38","","","1","38","training","adjacent","BA","2","1","N.jpg","P.jpg","0","0","1","",""
"","feedback","","html-keyboard-response","255","259878","0.0-1.0-348.0-0.0","0","0","45495","","null","","","null","38","","","","","","","","","","","","","","","",""
"","ITI","","html-keyboard-response","256","260883","0.0-1.0-351.0","0","0","45495","","null","","","null","38","","","","","","","","","","","","","","","NaN",""
"","S1","","html-keyboard-response","257","261136","0.0-1.0-353.0","0","0","45495","","null","","","null","39","","","","","","","","","","","","","","","",""
"","ISI","","html-keyboard-response","258","261288","0.0-1.0-354.0","0","0","45495","","null","","","null","39","NaN","","","","","","","","","","","","","","",""
"","S2","","html-keyboard-response","259","261541","0.0-1.0-355.0","0","0","45495","","null","","","null","39","","NaN","","","","","","","","","","","","","",""
"","response","","html-keyboard-response","260","261865","0.0-1.0-356.0-0.0","0","0","45495","","322","","","75","39","","","1","39","training","adjacent","FG","6","7","M.jpg","L.jpg","1","1","1","",""
"","feedback","","html-keyboard-response","261","262869","0.0-1.0-357.0-0.0","0","0","45495","","null","","","null","39","","","","","","","","","","","","","","","",""
"","ITI","","html-keyboard-response","262","263878","0.0-1.0-360.0","0","0","45495","","null","","","null","39","","","","","","","","","","","","","","","NaN",""
"","S1","","html-keyboard-response","263","264132","0.0-1.0-362.0","0","0","45495","","null","","","null","40","","","","","","","","","","","","","","","",""
"","ISI","","html-keyboard-response","264","264285","0.0-1.0-363.0","0","0","45495","","null","","","null","40","NaN","","","","","","","","","","","","","","",""
"","S2","","html-keyboard-response","265","264540","0.0-1.0-364.0","0","0","45495","","null","","","null","40","","NaN","","","","","","","","","","","","","",""
"","response","","html-keyboard-response","266","264995","0.0-1.0-365.0-0.0","0","0","45495","","454","","","75","40","","","1","40","training","adjacent","BA","2","1","N.jpg","P.jpg","1","0","0","",""
"","feedback","","html-keyboard-response","267","265999","0.0-1.0-366.0-0.0","0","0","45495","","null","","","null","40","","","","","","","","","","","","","","","",""
"","time_out","","html-keyboard-response","268","268002","0.0-1.0-368.0-0.0","0","0","45495","","null","","","null","40","","","","","","","","","","","","","","","",""
"","ITI","","html-keyboard-response","269","269007","0.0-1.0-369.0","0","0","45495","","null","","","null","40","","","","","","","","","","","","","","","NaN",""
"","S1","","html-keyboard-response","270","269262","0.0-1.0-371.0","0","0","45495","","null","","","null","41","","","","","","","","","","","","","","","",""
"","ISI","","html-keyboard-response","271","269414","0.0-1.0-372.0","0","0","45495","","null","","","null","41","NaN","","","","","","","","","","","","","","",""
"","S2","","html-keyboard-response","272","269668","0.0-1.0-373.0","0","0","45495","","null","","","null","41","","NaN","","","","","","","","","","","","","",""
"","response","","html-keyboard-response","273","270175","0.0-1.0-374.0-0.0","0","0","45495","","505","","","68","41","","","1","41","training","adjacent","BA","2","1","N.jpg","P.jpg","0","0","1","",""
"","feedback","","html-keyboard-response","274","271180","0.0-1.0-375.0-0.0","0","0","45495","","null","","","null","41","","","","","","","","","","","","","","","",""
"","ITI","","html-keyboard-response","275","272183","0.0-1.0-378.0","0","0","45495","","null","","","null","41","","","","","","","","","","","","","","","NaN",""
"","S1","","html-keyboard-response","276","272437","0.0-1.0-380.0","0","0","45495","","null","","","null","42","","","","","","","","","","","","","","","",""
"","ISI","","html-keyboard-response","277","272590","0.0-1.0-381.0","0","0","45495","","null","","","null","42","NaN","","","","","","","","","","","","","","",""
"","S2","","html-keyboard-response","278","272843","0.0-1.0-382.0","0","0","45495","","null","","","null","42","","NaN","","","","","","","","","","","","","",""
"","response","","html-keyboard-response","279","273166","0.0-1.0-383.0-0.0","0","0","45495","","320","","","68","42","","","1","42","training","adjacent","BA","2","1","N.jpg","P.jpg","0","0","1","",""
"","feedback","","html-keyboard-response","280","274170","0.0-1.0-384.0-0.0","0","0","45495","","null","","","null","42","","","","","","","","","","","","","","","",""
"","ITI","","html-keyboard-response","281","275173","0.0-1.0-387.0","0","0","45495","","null","","","null","42","","","","","","","","","","","","","","","NaN",""
"","S1","","html-keyboard-response","282","275427","0.0-1.0-389.0","0","0","45495","","null","","","null","43","","","","","","","","","","","","","","","",""
"","ISI","","html-keyboard-response","283","275579","0.0-1.0-390.0","0","0","45495","","null","","","null","43","NaN","","","","","","","","","","","","","","",""
"","S2","","html-keyboard-response","284","275832","0.0-1.0-391.0","0","0","45495","","null","","","null","43","","NaN","","","","","","","","","","","","","",""
"","response","","html-keyboard-response","285","276125","0.0-1.0-392.0-0.0","0","0","45495","","290","","","75","43","","","1","43","training","adjacent","FG","6","7","M.jpg","L.jpg","1","1","1","",""
"","feedback","","html-keyboard-response","286","277129","0.0-1.0-393.0-0.0","0","0","45495","","null","","","null","43","","","","","","","","","","","","","","","",""
"","ITI","","html-keyboard-response","287","278135","0.0-1.0-396.0","0","0","45495","","null","","","null","43","","","","","","","","","","","","","","","NaN",""
"","S1","","html-keyboard-response","288","278390","0.0-1.0-398.0","0","0","45495","","null","","","null","44","","","","","","","","","","","","","","","",""
"","ISI","","html-keyboard-response","289","278543","0.0-1.0-399.0","0","0","45495","","null","","","null","44","NaN","","","","","","","","","","","","","","",""
"","S2","","html-keyboard-response","290","278797","0.0-1.0-400.0","0","0","45495","","null","","","null","44","","NaN","","","","","","","","","","","","","",""
"","response","","html-keyboard-response","291","279246","0.0-1.0-401.0-0.0","0","0","45495","","445","","","75","44","","","1","44","training","adjacent","FE","6","5","M.jpg","O.jpg","1","0","0","",""
"","feedback","","html-keyboard-response","292","280250","0.0-1.0-402.0-0.0","0","0","45495","","null","","","null","44","","","","","","","","","","","","","","","",""
"","time_out","","html-keyboard-response","293","282253","0.0-1.0-404.0-0.0","0","0","45495","","null","","","null","44","","","","","","","","","","","","","","","",""
"","ITI","","html-keyboard-response","294","283257","0.0-1.0-405.0","0","0","45495","","null","","","null","44","","","","","","","","","","","","","","","NaN",""
"","S1","","html-keyboard-response","295","283511","0.0-1.0-407.0","0","0","45495","","null","","","null","45","","","","","","","","","","","","","","","",""
"","ISI","","html-keyboard-response","296","283663","0.0-1.0-408.0","0","0","45495","","null","","","null","45","NaN","","","","","","","","","","","","","","",""
"","S2","","html-keyboard-response","297","283917","0.0-1.0-409.0","0","0","45495","","null","","","null","45","","NaN","","","","","","","","","","","","","",""
"","response","","html-keyboard-response","298","283995","0.0-1.0-410.0-0.0","0","0","45495","","75","","","75","45","","","1","45","training","adjacent","ED","5","4","O.jpg","R.jpg","1","0","0","",""
"","feedback","","html-keyboard-response","299","284999","0.0-1.0-411.0-0.0","0","0","45495","","null","","","null","45","","","","","","","","","","","","","","","",""
"","time_out","","html-keyboard-response","300","287003","0.0-1.0-413.0-0.0","0","0","45495","","null","","","null","45","","","","","","","","","","","","","","","",""
"","ITI","","html-keyboard-response","301","288006","0.0-1.0-414.0","0","0","45495","","null","","","null","45","","","","","","","","","","","","","","","NaN",""
"","S1","","html-keyboard-response","302","288260","0.0-1.0-416.0","0","0","45495","","null","","","null","46","","","","","","","","","","","","","","","",""
"","ISI","","html-keyboard-response","303","288413","0.0-1.0-417.0","0","0","45495","","null","","","null","46","NaN","","","","","","","","","","","","","","",""
"","S2","","html-keyboard-response","304","288666","0.0-1.0-418.0","0","0","45495","","null","","","null","46","","NaN","","","","","","","","","","","","","",""
"","response","","html-keyboard-response","305","288945","0.0-1.0-419.0-0.0","0","0","45495","","277","","","68","46","","","1","46","training","adjacent","CD","3","4","Q.jpg","R.jpg","0","1","0","",""
"","feedback","","html-keyboard-response","306","289949","0.0-1.0-420.0-0.0","0","0","45495","","null","","","null","46","","","","","","","","","","","","","","","",""
"","time_out","","html-keyboard-response","307","291952","0.0-1.0-422.0-0.0","0","0","45495","","null","","","null","46","","","","","","","","","","","","","","","",""
"","ITI","","html-keyboard-response","308","292955","0.0-1.0-423.0","0","0","45495","","null","","","null","46","","","","","","","","","","","","","","","NaN",""
"","S1","","html-keyboard-response","309","293208","0.0-1.0-425.0","0","0","45495","","null","","","null","47","","","","","","","","","","","","","","","",""
"","ISI","","html-keyboard-response","310","293360","0.0-1.0-426.0","0","0","45495","","null","","","null","47","NaN","","","","","","","","","","","","","","",""
"","S2","","html-keyboard-response","311","293614","0.0-1.0-427.0","0","0","45495","","null","","","null","47","","NaN","","","","","","","","","","","","","",""
"","response","","html-keyboard-response","312","294026","0.0-1.0-428.0-0.0","0","0","45495","","409","","","75","47","","","1","47","training","adjacent","DC","4","3","R.jpg","Q.jpg","1","0","0","",""
"","feedback","","html-keyboard-response","313","295030","0.0-1.0-429.0-0.0","0","0","45495","","null","","","null","47","","","","","","","","","","","","","","","",""
"","time_out","","html-keyboard-response","314","297033","0.0-1.0-431.0-0.0","0","0","45495","","null","","","null","47","","","","","","","","","","","","","","","",""
"","ITI","","html-keyboard-response","315","298037","0.0-1.0-432.0","0","0","45495","","null","","","null","47","","","","","","","","","","","","","","","NaN",""
"","block_over","","html-keyboard-response","316","305595","0.0-1.0-433.0-0.0","0","0","45495","","7555","","","32","47","","","","","","","","","","","","","","","",""
"","S1","","html-keyboard-response","317","305850","0.0-1.0-434.0","0","0","45495","","null","","","null","48","","","","","","","","","","","","","","","",""
"","ISI","","html-keyboard-response","318","306003","0.0-1.0-435.0","0","0","45495","","null","","","null","48","NaN","","","","","","","","","","","","","","",""
"","S2","","html-keyboard-response","319","306258","0.0-1.0-436.0","0","0","45495","","null","","","null","48","","NaN","","","","","","","","","","","","","",""
"","response","","html-keyboard-response","320","306685","0.0-1.0-437.0-0.0","0","0","45495","","425","","","75","48","","","2","48","training","adjacent","EF","5","6","O.jpg","M.jpg","1","1","1","",""
"","feedback","","html-keyboard-response","321","307689","0.0-1.0-438.0-0.0","0","0","45495","","null","","","null","48","","","","","","","","","","","","","","","",""
"","ITI","","html-keyboard-response","322","308692","0.0-1.0-441.0","0","0","45495","","null","","","null","48","","","","","","","","","","","","","","","NaN",""
"","S1","","html-keyboard-response","323","308945","0.0-1.0-443.0","0","0","45495","","null","","","null","49","","","","","","","","","","","","","","","",""
"","ISI","","html-keyboard-response","324","309098","0.0-1.0-444.0","0","0","45495","","null","","","null","49","NaN","","","","","","","","","","","","","","",""
"","S2","","html-keyboard-response","325","309352","0.0-1.0-445.0","0","0","45495","","null","","","null","49","","NaN","","","","","","","","","","","","","",""
"","response","","html-keyboard-response","326","309465","0.0-1.0-446.0-0.0","0","0","45495","","110","","","75","49","","","2","49","training","adjacent","GF","7","6","L.jpg","M.jpg","1","0","0","",""
"","feedback","","html-keyboard-response","327","310470","0.0-1.0-447.0-0.0","0","0","45495","","null","","","null","49","","","","","","","","","","","","","","","",""
"","time_out","","html-keyboard-response","328","312473","0.0-1.0-449.0-0.0","0","0","45495","","null","","","null","49","","","","","","","","","","","","","","","",""
"","ITI","","html-keyboard-response","329","313476","0.0-1.0-450.0","0","0","45495","","null","","","null","49","","","","","","","","","","","","","","","NaN",""
"","S1","","html-keyboard-response","330","313729","0.0-1.0-452.0","0","0","45495","","null","","","null","50","","","","","","","","","","","","","","","",""
"","ISI","","html-keyboard-response","331","313882","0.0-1.0-453.0","0","0","45495","","73","","","68","50","d","","","","","","","","","","","","","","",""
"","S2","","html-keyboard-response","332","314135","0.0-1.0-454.0","0","0","45495","","null","","","null","50","","NaN","","","","","","","","","","","","","",""
"","response","","html-keyboard-response","333","314645","0.0-1.0-455.0-0.0","0","0","45495","","507","","","68","50","","","2","50","training","adjacent","BA","2","1","N.jpg","P.jpg","0","0","1","",""
"","feedback","","html-keyboard-response","334","315648","0.0-1.0-456.0-0.0","0","0","45495","","null","","","null","50","","","","","","","","","","","","","","","",""
"","ITI","","html-keyboard-response","335","316651","0.0-1.0-459.0","0","0","45495","","null","","","null","50","","","","","","","","","","","","","","","NaN",""
"","S1","","html-keyboard-response","336","316905","0.0-1.0-461.0","0","0","45495","","null","","","null","51","","","","","","","","","","","","","","","",""
"","ISI","","html-keyboard-response","337","317059","0.0-1.0-462.0","0","0","45495","","null","","","null","51","NaN","","","","","","","","","","","","","","",""
"","S2","","html-keyboard-response","338","317311","0.0-1.0-463.0","0","0","45495","","null","","","null","51","","NaN","","","","","","","","","","","","","",""
"","response","","html-keyboard-response","339","317675","0.0-1.0-464.0-0.0","0","0","45495","","361","","","75","51","","","2","51","training","adjacent","BA","2","1","N.jpg","P.jpg","1","0","0","",""
"","feedback","","html-keyboard-response","340","318679","0.0-1.0-465.0-0.0","0","0","45495","","null","","","null","51","","","","","","","","","","","","","","","",""
"","time_out","","html-keyboard-response","341","320683","0.0-1.0-467.0-0.0","0","0","45495","","null","","","null","51","","","","","","","","","","","","","","","",""
"","ITI","","html-keyboard-response","342","321687","0.0-1.0-468.0","0","0","45495","","130","","","68","51","","","","","","","","","","","","","","","d",""
"","S1","","html-keyboard-response","343","321941","0.0-1.0-470.0","0","0","45495","","null","","","null","52","","","","","","","","","","","","","","","",""
"","ISI","","html-keyboard-response","344","322094","0.0-1.0-471.0","0","0","45495","","null","","","null","52","NaN","","","","","","","","","","","","","","",""
"","S2","","html-keyboard-response","345","322348","0.0-1.0-472.0","0","0","45495","","null","","","null","52","","NaN","","","","","","","","","","","","","",""
"","response","","html-keyboard-response","346","322476","0.0-1.0-473.0-0.0","0","0","45495","","125","","","75","52","","","2","52","training","adjacent","ED","5","4","O.jpg","R.jpg","1","0","0","",""
"","feedback","","html-keyboard-response","347","323480","0.0-1.0-474.0-0.0","0","0","45495","","null","","","null","52","","","","","","","","","","","","","","","",""
"","time_out","","html-keyboard-response","348","325484","0.0-1.0-476.0-0.0","0","0","45495","","null","","","null","52","","","","","","","","","","","","","","","",""
"","ITI","","html-keyboard-response","349","326487","0.0-1.0-477.0","0","0","45495","","null","","","null","52","","","","","","","","","","","","","","","NaN",""
"","S1","","html-keyboard-response","350","326740","0.0-1.0-479.0","0","0","45495","","null","","","null","53","","","","","","","","","","","","","","","",""
"","ISI","","html-keyboard-response","351","326893","0.0-1.0-480.0","0","0","45495","","114","","","68","53","d","","","","","","","","","","","","","","",""
"","S2","","html-keyboard-response","352","327147","0.0-1.0-481.0","0","0","45495","","null","","","null","53","","NaN","","","","","","","","","","","","","",""
"","response","","html-keyboard-response","353","327525","0.0-1.0-482.0-0.0","0","0","45495","","375","","","68","53","","","2","53","training","adjacent","FG","6","7","M.jpg","L.jpg","0","1","0","",""
"","feedback","","html-keyboard-response","354","328529","0.0-1.0-483.0-0.0","0","0","45495","","null","","","null","53","","","","","","","","","","","","","","","",""
"","time_out","","html-keyboard-response","355","330533","0.0-1.0-485.0-0.0","0","0","45495","","null","","","null","53","","","","","","","","","","","","","","","",""
"","ITI","","html-keyboard-response","356","331536","0.0-1.0-486.0","0","0","45495","","null","","","null","53","","","","","","","","","","","","","","","NaN",""
"","S1","","html-keyboard-response","357","331789","0.0-1.0-488.0","0","0","45495","","null","","","null","54","","","","","","","","","","","","","","","",""
"","ISI","","html-keyboard-response","358","331942","0.0-1.0-489.0","0","0","45495","","null","","","null","54","NaN","","","","","","","","","","","","","","",""
"","S2","","html-keyboard-response","359","332196","0.0-1.0-490.0","0","0","45495","","null","","","null","54","","NaN","","","","","","","","","","","","","",""
"","response","","html-keyboard-response","360","332296","0.0-1.0-491.0-0.0","0","0","45495","","97","","","75","54","","","2","54","training","adjacent","BC","2","3","N.jpg","Q.jpg","1","1","1","",""
"","feedback","","html-keyboard-response","361","333299","0.0-1.0-492.0-0.0","0","0","45495","","null","","","null","54","","","","","","","","","","","","","","","",""
"","ITI","","html-keyboard-response","362","334303","0.0-1.0-495.0","0","0","45495","","null","","","null","54","","","","","","","","","","","","","","","NaN",""
"","S1","","html-keyboard-response","363","334557","0.0-1.0-497.0","0","0","45495","","null","","","null","55","","","","","","","","","","","","","","","",""
"","ISI","","html-keyboard-response","364","334710","0.0-1.0-498.0","0","0","45495","","null","","","null","55","NaN","","","","","","","","","","","","","","",""
"","S2","","html-keyboard-response","365","334964","0.0-1.0-499.0","0","0","45495","","null","","","null","55","","NaN","","","","","","","","","","","","","",""
"","response","","html-keyboard-response","366","335456","0.0-1.0-500.0-0.0","0","0","45495","","490","","","75","55","","","2","55","training","adjacent","FG","6","7","M.jpg","L.jpg","1","1","1","",""
"","feedback","","html-keyboard-response","367","336460","0.0-1.0-501.0-0.0","0","0","45495","","null","","","null","55","","","","","","","","","","","","","","","",""
"","ITI","","html-keyboard-response","368","337463","0.0-1.0-504.0","0","0","45495","","null","","","null","55","","","","","","","","","","","","","","","NaN",""
"","S1","","html-keyboard-response","369","337717","0.0-1.0-506.0","0","0","45495","","null","","","null","56","","","","","","","","","","","","","","","",""
"","ISI","","html-keyboard-response","370","337871","0.0-1.0-507.0","0","0","45495","","null","","","null","56","NaN","","","","","","","","","","","","","","",""
"","S2","","html-keyboard-response","371","338124","0.0-1.0-508.0","0","0","45495","","null","","","null","56","","NaN","","","","","","","","","","","","","",""
"","response","","html-keyboard-response","372","338476","0.0-1.0-509.0-0.0","0","0","45495","","350","","","75","56","","","2","56","training","adjacent","ED","5","4","O.jpg","R.jpg","1","0","0","",""
"","feedback","","html-keyboard-response","373","339479","0.0-1.0-510.0-0.0","0","0","45495","","null","","","null","56","","","","","","","","","","","","","","","",""
"","time_out","","html-keyboard-response","374","341482","0.0-1.0-512.0-0.0","0","0","45495","","null","","","null","56","","","","","","","","","","","","","","","",""
"","ITI","","html-keyboard-response","375","342485","0.0-1.0-513.0","0","0","45495","","null","","","null","56","","","","","","","","","","","","","","","NaN",""
"","S1","","html-keyboard-response","376","342738","0.0-1.0-515.0","0","0","45495","","null","","","null","57","","","","","","","","","","","","","","","",""
"","ISI","","html-keyboard-response","377","342891","0.0-1.0-516.0","0","0","45495","","null","","","null","57","NaN","","","","","","","","","","","","","","",""
"","S2","","html-keyboard-response","378","343144","0.0-1.0-517.0","0","0","45495","","null","","","null","57","","NaN","","","","","","","","","","","","","",""
"","response","","html-keyboard-response","379","343206","0.0-1.0-518.0-0.0","0","0","45495","","59","","","75","57","","","2","57","training","adjacent","CD","3","4","Q.jpg","R.jpg","1","1","1","",""
"","feedback","","html-keyboard-response","380","344209","0.0-1.0-519.0-0.0","0","0","45495","","null","","","null","57","","","","","","","","","","","","","","","",""
"","ITI","","html-keyboard-response","381","345213","0.0-1.0-522.0","0","0","45495","","null","","","null","57","","","","","","","","","","","","","","","NaN",""
"","S1","","html-keyboard-response","382","345467","0.0-1.0-524.0","0","0","45495","","null","","","null","58","","","","","","","","","","","","","","","",""
"","ISI","","html-keyboard-response","383","345620","0.0-1.0-525.0","0","0","45495","","null","","","null","58","NaN","","","","","","","","","","","","","","",""
"","S2","","html-keyboard-response","384","345874","0.0-1.0-526.0","0","0","45495","","null","","","null","58","","NaN","","","","","","","","","","","","","",""
"","response","","html-keyboard-response","385","345955","0.0-1.0-527.0-0.0","0","0","45495","","79","","","75","58","","","2","58","training","adjacent","CD","3","4","Q.jpg","R.jpg","1","1","1","",""
"","feedback","","html-keyboard-response","386","346959","0.0-1.0-528.0-0.0","0","0","45495","","null","","","null","58","","","","","","","","","","","","","","","",""
"","ITI","","html-keyboard-response","387","347963","0.0-1.0-531.0","0","0","45495","","null","","","null","58","","","","","","","","","","","","","","","NaN",""
"","S1","","html-keyboard-response","388","348216","0.0-1.0-533.0","0","0","45495","","null","","","null","59","","","","","","","","","","","","","","","",""
"","ISI","","html-keyboard-response","389","348369","0.0-1.0-534.0","0","0","45495","","null","","","null","59","NaN","","","","","","","","","","","","","","",""
"","S2","","html-keyboard-response","390","348623","0.0-1.0-535.0","0","0","45495","","null","","","null","59","","NaN","","","","","","","","","","","","","",""
"","response","","html-keyboard-response","391","349385","0.0-1.0-536.0-0.0","0","0","45495","","759","","","68","59","","","2","59","training","adjacent","CB","3","2","Q.jpg","N.jpg","0","0","1","",""
"","feedback","","html-keyboard-response","392","350389","0.0-1.0-537.0-0.0","0","0","45495","","null","","","null","59","","","","","","","","","","","","","","","",""
"","ITI","","html-keyboard-response","393","351392","0.0-1.0-540.0","0","0","45495","","null","","","null","59","","","","","","","","","","","","","","","NaN",""
"","S1","","html-keyboard-response","394","351646","0.0-1.0-542.0","0","0","45495","","null","","","null","60","","","","","","","","","","","","","","","",""
"","ISI","","html-keyboard-response","395","351799","0.0-1.0-543.0","0","0","45495","","null","","","null","60","NaN","","","","","","","","","","","","","","",""
"","S2","","html-keyboard-response","396","352054","0.0-1.0-544.0","0","0","45495","","null","","","null","60","","NaN","","","","","","","","","","","","","",""
"","response","","html-keyboard-response","397","352146","0.0-1.0-545.0-0.0","0","0","45495","","91","","","75","60","","","2","60","training","adjacent","AB","1","2","P.jpg","N.jpg","1","1","1","",""
"","feedback","","html-keyboard-response","398","353151","0.0-1.0-546.0-0.0","0","0","45495","","null","","","null","60","","","","","","","","","","","","","","","",""
"","ITI","","html-keyboard-response","399","354154","0.0-1.0-549.0","0","0","45495","","null","","","null","60","","","","","","","","","","","","","","","NaN",""
"","S1","","html-keyboard-response","400","354407","0.0-1.0-551.0","0","0","45495","","null","","","null","61","","","","","","","","","","","","","","","",""
"","ISI","","html-keyboard-response","401","354560","0.0-1.0-552.0","0","0","45495","","null","","","null","61","NaN","","","","","","","","","","","","","","",""
"","S2","","html-keyboard-response","402","354814","0.0-1.0-553.0","0","0","45495","","null","","","null","61","","NaN","","","","","","","","","","","","","",""
"","response","","html-keyboard-response","403","354946","0.0-1.0-554.0-0.0","0","0","45495","","130","","","75","61","","","2","61","training","adjacent","DC","4","3","R.jpg","Q.jpg","1","0","0","",""
"","feedback","","html-keyboard-response","404","355949","0.0-1.0-555.0-0.0","0","0","45495","","null","","","null","61","","","","","","","","","","","","","","","",""
"","time_out","","html-keyboard-response","405","357954","0.0-1.0-557.0-0.0","0","0","45495","","null","","","null","61","","","","","","","","","","","","","","","",""
"","ITI","","html-keyboard-response","406","358957","0.0-1.0-558.0","0","0","45495","","null","","","null","61","","","","","","","","","","","","","","","NaN",""
"","S1","","html-keyboard-response","407","359210","0.0-1.0-560.0","0","0","45495","","null","","","null","62","","","","","","","","","","","","","","","",""
"","ISI","","html-keyboard-response","408","359364","0.0-1.0-561.0","0","0","45495","","null","","","null","62","NaN","","","","","","","","","","","","","","",""
"","S2","","html-keyboard-response","409","359618","0.0-1.0-562.0","0","0","45495","","null","","","null","62","","NaN","","","","","","","","","","","","","",""
"","response","","html-keyboard-response","410","359775","0.0-1.0-563.0-0.0","0","0","45495","","156","","","75","62","","","2","62","training","adjacent","CB","3","2","Q.jpg","N.jpg","1","0","0","",""
"","feedback","","html-keyboard-response","411","360779","0.0-1.0-564.0-0.0","0","0","45495","","null","","","null","62","","","","","","","","","","","","","","","",""
"","time_out","","html-keyboard-response","412","362783","0.0-1.0-566.0-0.0","0","0","45495","","null","","","null","62","","","","","","","","","","","","","","","",""
"","ITI","","html-keyboard-response","413","363786","0.0-1.0-567.0","0","0","45495","","null","","","null","62","","","","","","","","","","","","","","","NaN",""
"","S1","","html-keyboard-response","414","364039","0.0-1.0-569.0","0","0","45495","","null","","","null","63","","","","","","","","","","","","","","","",""
"","ISI","","html-keyboard-response","415","364204","0.0-1.0-570.0","0","0","45495","","null","","","null","63","NaN","","","","","","","","","","","","","","",""
"","S2","","html-keyboard-response","416","364458","0.0-1.0-571.0","0","0","45495","","null","","","null","63","","NaN","","","","","","","","","","","","","",""
"","response","","html-keyboard-response","417","364865","0.0-1.0-572.0-0.0","0","0","45495","","405","","","75","63","","","2","63","training","adjacent","EF","5","6","O.jpg","M.jpg","1","1","1","",""
"","feedback","","html-keyboard-response","418","365869","0.0-1.0-573.0-0.0","0","0","45495","","null","","","null","63","","","","","","","","","","","","","","","",""
"","ITI","","html-keyboard-response","419","366886","0.0-1.0-576.0","0","0","45495","","null","","","null","63","","","","","","","","","","","","","","","NaN",""
"","S1","","html-keyboard-response","420","367140","0.0-1.0-578.0","0","0","45495","","null","","","null","64","","","","","","","","","","","","","","","",""
"","ISI","","html-keyboard-response","421","367293","0.0-1.0-579.0","0","0","45495","","null","","","null","64","NaN","","","","","","","","","","","","","","",""
"","S2","","html-keyboard-response","422","367547","0.0-1.0-580.0","0","0","45495","","null","","","null","64","","NaN","","","","","","","","","","","","","",""
"","response","","html-keyboard-response","423","367936","0.0-1.0-581.0-0.0","0","0","45495","","386","","","68","64","","","2","64","training","adjacent","DC","4","3","R.jpg","Q.jpg","0","0","1","",""
"","feedback","","html-keyboard-response","424","368940","0.0-1.0-582.0-0.0","0","0","45495","","null","","","null","64","","","","","","","","","","","","","","","",""
"","ITI","","html-keyboard-response","425","369944","0.0-1.0-585.0","0","0","45495","","null","","","null","64","","","","","","","","","","","","","","","NaN",""
"","S1","","html-keyboard-response","426","370198","0.0-1.0-587.0","0","0","45495","","null","","","null","65","","","","","","","","","","","","","","","",""
"","ISI","","html-keyboard-response","427","370358","0.0-1.0-588.0","0","0","45495","","null","","","null","65","NaN","","","","","","","","","","","","","","",""
"","S2","","html-keyboard-response","428","370611","0.0-1.0-589.0","0","0","45495","","null","","","null","65","","NaN","","","","","","","","","","","","","",""
"","response","","html-keyboard-response","429","371035","0.0-1.0-590.0-0.0","0","0","45495","","421","","","75","65","","","2","65","training","adjacent","AB","1","2","P.jpg","N.jpg","1","1","1","",""
"","feedback","","html-keyboard-response","430","372038","0.0-1.0-591.0-0.0","0","0","45495","","null","","","null","65","","","","","","","","","","","","","","","",""
"","ITI","","html-keyboard-response","431","373042","0.0-1.0-594.0","0","0","45495","","null","","","null","65","","","","","","","","","","","","","","","NaN",""
"","S1","","html-keyboard-response","432","373295","0.0-1.0-596.0","0","0","45495","","null","","","null","66","","","","","","","","","","","","","","","",""
"","ISI","","html-keyboard-response","433","373448","0.0-1.0-597.0","0","0","45495","","null","","","null","66","NaN","","","","","","","","","","","","","","",""
"","S2","","html-keyboard-response","434","373702","0.0-1.0-598.0","0","0","45495","","null","","","null","66","","NaN","","","","","","","","","","","","","",""
"","response","","html-keyboard-response","435","373865","0.0-1.0-599.0-0.0","0","0","45495","","161","","","75","66","","","2","66","training","adjacent","CB","3","2","Q.jpg","N.jpg","1","0","0","",""
"","feedback","","html-keyboard-response","436","374868","0.0-1.0-600.0-0.0","0","0","45495","","null","","","null","66","","","","","","","","","","","","","","","",""
"","time_out","","html-keyboard-response","437","376871","0.0-1.0-602.0-0.0","0","0","45495","","null","","","null","66","","","","","","","","","","","","","","","",""
"","ITI","","html-keyboard-response","438","377874","0.0-1.0-603.0","0","0","45495","","null","","","null","66","","","","","","","","","","","","","","","NaN",""
"","S1","","html-keyboard-response","439","378127","0.0-1.0-605.0","0","0","45495","","null","","","null","67","","","","","","","","","","","","","","","",""
"","ISI","","html-keyboard-response","440","378281","0.0-1.0-606.0","0","0","45495","","null","","","null","67","NaN","","","","","","","","","","","","","","",""
"","S2","","html-keyboard-response","441","378534","0.0-1.0-607.0","0","0","45495","","null","","","null","67","","NaN","","","","","","","","","","","","","",""
"","response","","html-keyboard-response","442","378975","0.0-1.0-608.0-0.0","0","0","45495","","438","","","68","67","","","2","67","training","adjacent","BC","2","3","N.jpg","Q.jpg","0","1","0","",""
"","feedback","","html-keyboard-response","443","379979","0.0-1.0-609.0-0.0","0","0","45495","","null","","","null","67","","","","","","","","","","","","","","","",""
"","time_out","","html-keyboard-response","444","381983","0.0-1.0-611.0-0.0","0","0","45495","","null","","","null","67","","","","","","","","","","","","","","","",""
"","ITI","","html-keyboard-response","445","382986","0.0-1.0-612.0","0","0","45495","","null","","","null","67","","","","","","","","","","","","","","","NaN",""
"","S1","","html-keyboard-response","446","383240","0.0-1.0-614.0","0","0","45495","","null","","","null","68","","","","","","","","","","","","","","","",""
"","ISI","","html-keyboard-response","447","383394","0.0-1.0-615.0","0","0","45495","","null","","","null","68","NaN","","","","","","","","","","","","","","",""
"","S2","","html-keyboard-response","448","383648","0.0-1.0-616.0","0","0","45495","","null","","","null","68","","NaN","","","","","","","","","","","","","",""
"","response","","html-keyboard-response","449","383987","0.0-1.0-617.0-0.0","0","0","45495","","336","","","75","68","","","2","68","training","adjacent","FG","6","7","M.jpg","L.jpg","1","1","1","",""
"","feedback","","html-keyboard-response","450","384990","0.0-1.0-618.0-0.0","0","0","45495","","null","","","null","68","","","","","","","","","","","","","","","",""
"","ITI","","html-keyboard-response","451","385994","0.0-1.0-621.0","0","0","45495","","null","","","null","68","","","","","","","","","","","","","","","NaN",""
"","S1","","html-keyboard-response","452","386247","0.0-1.0-623.0","0","0","45495","","null","","","null","69","","","","","","","","","","","","","","","",""
"","ISI","","html-keyboard-response","453","386402","0.0-1.0-624.0","0","0","45495","","null","","","null","69","NaN","","","","","","","","","","","","","","",""
"","S2","","html-keyboard-response","454","386655","0.0-1.0-625.0","0","0","45495","","null","","","null","69","","NaN","","","","","","","","","","","","","",""
"","response","","html-keyboard-response","455","387137","0.0-1.0-626.0-0.0","0","0","45495","","480","","","68","69","","","2","69","training","adjacent","DE","4","5","R.jpg","O.jpg","0","1","0","",""
"","feedback","","html-keyboard-response","456","388141","0.0-1.0-627.0-0.0","0","0","45495","","null","","","null","69","","","","","","","","","","","","","","","",""
"","time_out","","html-keyboard-response","457","390145","0.0-1.0-629.0-0.0","0","0","45495","","null","","","null","69","","","","","","","","","","","","","","","",""
"","ITI","","html-keyboard-response","458","391148","0.0-1.0-630.0","0","0","45495","","null","","","null","69","","","","","","","","","","","","","","","NaN",""
"","S1","","html-keyboard-response","459","391401","0.0-1.0-632.0","0","0","45495","","null","","","null","70","","","","","","","","","","","","","","","",""
"","ISI","","html-keyboard-response","460","391555","0.0-1.0-633.0","0","0","45495","","null","","","null","70","NaN","","","","","","","","","","","","","","",""
"","S2","","html-keyboard-response","461","391808","0.0-1.0-634.0","0","0","45495","","null","","","null","70","","NaN","","","","","","","","","","","","","",""
"","response","","html-keyboard-response","462","392316","0.0-1.0-635.0-0.0","0","0","45495","","505","","","68","70","","","2","70","training","adjacent","CD","3","4","Q.jpg","R.jpg","0","1","0","",""
"","feedback","","html-keyboard-response","463","393319","0.0-1.0-636.0-0.0","0","0","45495","","null","","","null","70","","","","","","","","","","","","","","","",""
"","time_out","","html-keyboard-response","464","395323","0.0-1.0-638.0-0.0","0","0","45495","","null","","","null","70","","","","","","","","","","","","","","","",""
"","ITI","","html-keyboard-response","465","396325","0.0-1.0-639.0","0","0","45495","","null","","","null","70","","","","","","","","","","","","","","","NaN",""
"","S1","","html-keyboard-response","466","396580","0.0-1.0-641.0","0","0","45495","","null","","","null","71","","","","","","","","","","","","","","","",""
"","ISI","","html-keyboard-response","467","396749","0.0-1.0-642.0","0","0","45495","","null","","","null","71","NaN","","","","","","","","","","","","","","",""
"","S2","","html-keyboard-response","468","397014","0.0-1.0-643.0","0","0","45495","","null","","","null","71","","NaN","","","","","","","","","","","","","",""
"","response","","html-keyboard-response","469","397127","0.0-1.0-644.0-0.0","0","0","45495","","112","","","75","71","","","2","71","training","adjacent","DC","4","3","R.jpg","Q.jpg","1","0","0","",""
"","feedback","","html-keyboard-response","470","398132","0.0-1.0-645.0-0.0","0","0","45495","","null","","","null","71","","","","","","","","","","","","","","","",""
"","time_out","","html-keyboard-response","471","400136","0.0-1.0-647.0-0.0","0","0","45495","","null","","","null","71","","","","","","","","","","","","","","","",""
"","ITI","","html-keyboard-response","472","401140","0.0-1.0-648.0","0","0","45495","","null","","","null","71","","","","","","","","","","","","","","","NaN",""
"","S1","","html-keyboard-response","473","401394","0.0-1.0-650.0","0","0","45495","","null","","","null","72","","","","","","","","","","","","","","","",""
"","ISI","","html-keyboard-response","474","401547","0.0-1.0-651.0","0","0","45495","","null","","","null","72","NaN","","","","","","","","","","","","","","",""
"","S2","","html-keyboard-response","475","401717","0.0-1.0-652.0","0","0","45495","","167","","","75","72","","k","2","72","training","adjacent","DE","4","5","R.jpg","O.jpg","1","1","1","",""
"","feedback","","html-keyboard-response","476","402721","0.0-1.0-654.0-0.0","0","0","45495","","null","","","null","72","","","","","","","","","","","","","","","",""
"","ITI","","html-keyboard-response","477","403725","0.0-1.0-657.0","0","0","45495","","null","","","null","72","","","","","","","","","","","","","","","NaN",""
"","S1","","html-keyboard-response","478","403979","0.0-1.0-659.0","0","0","45495","","null","","","null","73","","","","","","","","","","","","","","","",""
"","ISI","","html-keyboard-response","479","404132","0.0-1.0-660.0","0","0","45495","","null","","","null","73","NaN","","","","","","","","","","","","","","",""
"","S2","","html-keyboard-response","480","404386","0.0-1.0-661.0","0","0","45495","","null","","","null","73","","NaN","","","","","","","","","","","","","",""
"","response","","html-keyboard-response","481","406141","0.0-1.0-662.0-0.0","0","0","45495","","null","","","null","73","","","2","73","training","adjacent","EF","5","6","O.jpg","M.jpg","NaN","1","0","",""
"","too_slow_prompt","","html-keyboard-response","482","407145","0.0-1.0-664.0-0.0","1","0","45495","","null","","","null","","","","","","","","","","","","","","","","",""
"","time_out","","html-keyboard-response","483","409148","0.0-1.0-665.0-0.0","0","0","45495","","null","","","null","73","","","","","","","","","","","","","","","",""
"","ITI","","html-keyboard-response","484","410151","0.0-1.0-666.0","0","0","45495","","null","","","null","73","","","","","","","","","","","","","","","NaN",""
"","S1","","html-keyboard-response","485","410406","0.0-1.0-668.0","0","0","45495","","null","","","null","74","","","","","","","","","","","","","","","",""
"","ISI","","html-keyboard-response","486","410559","0.0-1.0-669.0","0","0","45495","","null","","","null","74","NaN","","","","","","","","","","","","","","",""
"","S2","","html-keyboard-response","487","410813","0.0-1.0-670.0","0","0","45495","","null","","","null","74","","NaN","","","","","","","","","","","","","",""
"","response","","html-keyboard-response","488","410917","0.0-1.0-671.0-0.0","0","0","45495","","101","","","75","74","","","2","74","training","adjacent","FE","6","5","M.jpg","O.jpg","1","0","0","",""
"","feedback","","html-keyboard-response","489","411921","0.0-1.0-672.0-0.0","0","0","45495","","null","","","null","74","","","","","","","","","","","","","","","",""
"","time_out","","html-keyboard-response","490","413926","0.0-1.0-674.0-0.0","0","0","45495","","null","","","null","74","","","","","","","","","","","","","","","",""
"","ITI","","html-keyboard-response","491","414928","0.0-1.0-675.0","0","0","45495","","null","","","null","74","","","","","","","","","","","","","","","NaN",""
"","S1","","html-keyboard-response","492","415181","0.0-1.0-677.0","0","0","45495","","null","","","null","75","","","","","","","","","","","","","","","",""
"","ISI","","html-keyboard-response","493","415334","0.0-1.0-678.0","0","0","45495","","null","","","null","75","NaN","","","","","","","","","","","","","","",""
"","S2","","html-keyboard-response","494","415588","0.0-1.0-679.0","0","0","45495","","null","","","null","75","","NaN","","","","","","","","","","","","","",""
"","response","","html-keyboard-response","495","415918","0.0-1.0-680.0-0.0","0","0","45495","","328","","","75","75","","","2","75","training","adjacent","EF","5","6","O.jpg","M.jpg","1","1","1","",""
"","feedback","","html-keyboard-response","496","416921","0.0-1.0-681.0-0.0","0","0","45495","","null","","","null","75","","","","","","","","","","","","","","","",""
"","ITI","","html-keyboard-response","497","417925","0.0-1.0-684.0","0","0","45495","","null","","","null","75","","","","","","","","","","","","","","","NaN",""
"","S1","","html-keyboard-response","498","418179","0.0-1.0-686.0","0","0","45495","","null","","","null","76","","","","","","","","","","","","","","","",""
"","ISI","","html-keyboard-response","499","418332","0.0-1.0-687.0","0","0","45495","","null","","","null","76","NaN","","","","","","","","","","","","","","",""
"","S2","","html-keyboard-response","500","418585","0.0-1.0-688.0","0","0","45495","","null","","","null","76","","NaN","","","","","","","","","","","","","",""
"","response","","html-keyboard-response","501","419127","0.0-1.0-689.0-0.0","0","0","45495","","539","","","75","76","","","2","76","training","adjacent","ED","5","4","O.jpg","R.jpg","1","0","0","",""
"","feedback","","html-keyboard-response","502","420132","0.0-1.0-690.0-0.0","0","0","45495","","null","","","null","76","","","","","","","","","","","","","","","",""
"","time_out","","html-keyboard-response","503","422135","0.0-1.0-692.0-0.0","0","0","45495","","null","","","null","76","","","","","","","","","","","","","","","",""
"","ITI","","html-keyboard-response","504","423138","0.0-1.0-693.0","0","0","45495","","null","","","null","76","","","","","","","","","","","","","","","NaN",""
"","S1","","html-keyboard-response","505","423392","0.0-1.0-695.0","0","0","45495","","null","","","null","77","","","","","","","","","","","","","","","",""
"","ISI","","html-keyboard-response","506","423545","0.0-1.0-696.0","0","0","45495","","null","","","null","77","NaN","","","","","","","","","","","","","","",""
"","S2","","html-keyboard-response","507","423799","0.0-1.0-697.0","0","0","45495","","null","","","null","77","","NaN","","","","","","","","","","","","","",""
"","response","","html-keyboard-response","508","424157","0.0-1.0-698.0-0.0","0","0","45495","","356","","","68","77","","","2","77","training","adjacent","DE","4","5","R.jpg","O.jpg","0","1","0","",""
"","feedback","","html-keyboard-response","509","425170","0.0-1.0-699.0-0.0","0","0","45495","","null","","","null","77","","","","","","","","","","","","","","","",""
"","time_out","","html-keyboard-response","510","427174","0.0-1.0-701.0-0.0","0","0","45495","","null","","","null","77","","","","","","","","","","","","","","","",""
"","ITI","","html-keyboard-response","511","428178","0.0-1.0-702.0","0","0","45495","","null","","","null","77","","","","","","","","","","","","","","","NaN",""
"","S1","","html-keyboard-response","512","428432","0.0-1.0-704.0","0","0","45495","","null","","","null","78","","","","","","","","","","","","","","","",""
"","ISI","","html-keyboard-response","513","428585","0.0-1.0-705.0","0","0","45495","","null","","","null","78","NaN","","","","","","","","","","","","","","",""
"","S2","","html-keyboard-response","514","428839","0.0-1.0-706.0","0","0","45495","","null","","","null","78","","NaN","","","","","","","","","","","","","",""
"","response","","html-keyboard-response","515","428928","0.0-1.0-707.0-0.0","0","0","45495","","86","","","75","78","","","2","78","training","adjacent","GF","7","6","L.jpg","M.jpg","1","0","0","",""
"","feedback","","html-keyboard-response","516","429932","0.0-1.0-708.0-0.0","0","0","45495","","null","","","null","78","","","","","","","","","","","","","","","",""
"","time_out","","html-keyboard-response","517","431936","0.0-1.0-710.0-0.0","0","0","45495","","null","","","null","78","","","","","","","","","","","","","","","",""
"","ITI","","html-keyboard-response","518","432940","0.0-1.0-711.0","0","0","45495","","null","","","null","78","","","","","","","","","","","","","","","NaN",""
"","S1","","html-keyboard-response","519","433193","0.0-1.0-713.0","0","0","45495","","null","","","null","79","","","","","","","","","","","","","","","",""
"","ISI","","html-keyboard-response","520","433346","0.0-1.0-714.0","0","0","45495","","null","","","null","79","NaN","","","","","","","","","","","","","","",""
"","S2","","html-keyboard-response","521","433600","0.0-1.0-715.0","0","0","45495","","null","","","null","79","","NaN","","","","","","","","","","","","","",""
"","response","","html-keyboard-response","522","433727","0.0-1.0-716.0-0.0","0","0","45495","","124","","","75","79","","","2","79","training","adjacent","AB","1","2","P.jpg","N.jpg","1","1","1","",""
"","feedback","","html-keyboard-response","523","434731","0.0-1.0-717.0-0.0","0","0","45495","","null","","","null","79","","","","","","","","","","","","","","","",""
"","ITI","","html-keyboard-response","524","435734","0.0-1.0-720.0","0","0","45495","","null","","","null","79","","","","","","","","","","","","","","","NaN",""
"","S1","","html-keyboard-response","525","435988","0.0-1.0-722.0","0","0","45495","","null","","","null","80","","","","","","","","","","","","","","","",""
"","ISI","","html-keyboard-response","526","436142","0.0-1.0-723.0","0","0","45495","","null","","","null","80","NaN","","","","","","","","","","","","","","",""
"","S2","","html-keyboard-response","527","436396","0.0-1.0-724.0","0","0","45495","","null","","","null","80","","NaN","","","","","","","","","","","","","",""
"","response","","html-keyboard-response","528","436878","0.0-1.0-725.0-0.0","0","0","45495","","480","","","75","80","","","2","80","training","adjacent","AB","1","2","P.jpg","N.jpg","1","1","1","",""
"","feedback","","html-keyboard-response","529","437882","0.0-1.0-726.0-0.0","0","0","45495","","null","","","null","80","","","","","","","","","","","","","","","",""
"","ITI","","html-keyboard-response","530","438886","0.0-1.0-729.0","0","0","45495","","null","","","null","80","","","","","","","","","","","","","","","NaN",""
"","S1","","html-keyboard-response","531","439139","0.0-1.0-731.0","0","0","45495","","null","","","null","81","","","","","","","","","","","","","","","",""
"","ISI","","html-keyboard-response","532","439296","0.0-1.0-732.0","0","0","45495","","null","","","null","81","NaN","","","","","","","","","","","","","","",""
"","S2","","html-keyboard-response","533","439550","0.0-1.0-733.0","0","0","45495","","null","","","null","81","","NaN","","","","","","","","","","","","","",""
"","response","","html-keyboard-response","534","439947","0.0-1.0-734.0-0.0","0","0","45495","","394","","","75","81","","","2","81","training","adjacent","BC","2","3","N.jpg","Q.jpg","1","1","1","",""
"","feedback","","html-keyboard-response","535","440951","0.0-1.0-735.0-0.0","0","0","45495","","null","","","null","81","","","","","","","","","","","","","","","",""
"","ITI","","html-keyboard-response","536","441954","0.0-1.0-738.0","0","0","45495","","null","","","null","81","","","","","","","","","","","","","","","NaN",""
"","S1","","html-keyboard-response","537","442208","0.0-1.0-740.0","0","0","45495","","null","","","null","82","","","","","","","","","","","","","","","",""
"","ISI","","html-keyboard-response","538","442361","0.0-1.0-741.0","0","0","45495","","null","","","null","82","NaN","","","","","","","","","","","","","","",""
"","S2","","html-keyboard-response","539","442615","0.0-1.0-742.0","0","0","45495","","null","","","null","82","","NaN","","","","","","","","","","","","","",""
"","response","","html-keyboard-response","540","442770","0.0-1.0-743.0-0.0","0","0","45495","","153","","","75","82","","","2","82","training","adjacent","DC","4","3","R.jpg","Q.jpg","1","0","0","",""
"","feedback","","html-keyboard-response","541","443773","0.0-1.0-744.0-0.0","0","0","45495","","null","","","null","82","","","","","","","","","","","","","","","",""
"","time_out","","html-keyboard-response","542","445777","0.0-1.0-746.0-0.0","0","0","45495","","null","","","null","82","","","","","","","","","","","","","","","",""
"","ITI","","html-keyboard-response","543","446782","0.0-1.0-747.0","0","0","45495","","null","","","null","82","","","","","","","","","","","","","","","NaN",""
"","S1","","html-keyboard-response","544","447036","0.0-1.0-749.0","0","0","45495","","null","","","null","83","","","","","","","","","","","","","","","",""
"","ISI","","html-keyboard-response","545","447190","0.0-1.0-750.0","0","0","45495","","null","","","null","83","NaN","","","","","","","","","","","","","","",""
"","S2","","html-keyboard-response","546","447444","0.0-1.0-751.0","0","0","45495","","null","","","null","83","","NaN","","","","","","","","","","","","","",""
"","response","","html-keyboard-response","547","447669","0.0-1.0-752.0-0.0","0","0","45495","","222","","","75","83","","","2","83","training","adjacent","FE","6","5","M.jpg","O.jpg","1","0","0","",""
"","feedback","","html-keyboard-response","548","448673","0.0-1.0-753.0-0.0","0","0","45495","","null","","","null","83","","","","","","","","","","","","","","","",""
"","time_out","","html-keyboard-response","549","450676","0.0-1.0-755.0-0.0","0","0","45495","","null","","","null","83","","","","","","","","","","","","","","","",""
"","ITI","","html-keyboard-response","550","451679","0.0-1.0-756.0","0","0","45495","","null","","","null","83","","","","","","","","","","","","","","","NaN",""
"","S1","","html-keyboard-response","551","451932","0.0-1.0-758.0","0","0","45495","","null","","","null","84","","","","","","","","","","","","","","","",""
"","ISI","","html-keyboard-response","552","452085","0.0-1.0-759.0","0","0","45495","","null","","","null","84","NaN","","","","","","","","","","","","","","",""
"","S2","","html-keyboard-response","553","452339","0.0-1.0-760.0","0","0","45495","","null","","","null","84","","NaN","","","","","","","","","","","","","",""
"","response","","html-keyboard-response","554","452558","0.0-1.0-761.0-0.0","0","0","45495","","216","","","75","84","","","2","84","training","adjacent","FG","6","7","M.jpg","L.jpg","1","1","1","",""
"","feedback","","html-keyboard-response","555","453562","0.0-1.0-762.0-0.0","0","0","45495","","null","","","null","84","","","","","","","","","","","","","","","",""
"","ITI","","html-keyboard-response","556","454565","0.0-1.0-765.0","0","0","45495","","null","","","null","84","","","","","","","","","","","","","","","NaN",""
"","S1","","html-keyboard-response","557","454819","0.0-1.0-767.0","0","0","45495","","null","","","null","85","","","","","","","","","","","","","","","",""
"","ISI","","html-keyboard-response","558","454971","0.0-1.0-768.0","0","0","45495","","null","","","null","85","NaN","","","","","","","","","","","","","","",""
"","S2","","html-keyboard-response","559","455225","0.0-1.0-769.0","0","0","45495","","null","","","null","85","","NaN","","","","","","","","","","","","","",""
"","response","","html-keyboard-response","560","455739","0.0-1.0-770.0-0.0","0","0","45495","","511","","","68","85","","","2","85","training","adjacent","DE","4","5","R.jpg","O.jpg","0","1","0","",""
"","feedback","","html-keyboard-response","561","456741","0.0-1.0-771.0-0.0","0","0","45495","","null","","","null","85","","","","","","","","","","","","","","","",""
"","time_out","","html-keyboard-response","562","458745","0.0-1.0-773.0-0.0","0","0","45495","","null","","","null","85","","","","","","","","","","","","","","","",""
"","ITI","","html-keyboard-response","563","459749","0.0-1.0-774.0","0","0","45495","","null","","","null","85","","","","","","","","","","","","","","","NaN",""
"","S1","","html-keyboard-response","564","460002","0.0-1.0-776.0","0","0","45495","","null","","","null","86","","","","","","","","","","","","","","","",""
"","ISI","","html-keyboard-response","565","460155","0.0-1.0-777.0","0","0","45495","","null","","","null","86","NaN","","","","","","","","","","","","","","",""
"","S2","","html-keyboard-response","566","460409","0.0-1.0-778.0","0","0","45495","","null","","","null","86","","NaN","","","","","","","","","","","","","",""
"","response","","html-keyboard-response","567","460609","0.0-1.0-779.0-0.0","0","0","45495","","197","","","75","86","","","2","86","training","adjacent","BA","2","1","N.jpg","P.jpg","1","0","0","",""
"","feedback","","html-keyboard-response","568","461613","0.0-1.0-780.0-0.0","0","0","45495","","null","","","null","86","","","","","","","","","","","","","","","",""
"","time_out","","html-keyboard-response","569","463617","0.0-1.0-782.0-0.0","0","0","45495","","null","","","null","86","","","","","","","","","","","","","","","",""
"","ITI","","html-keyboard-response","570","464620","0.0-1.0-783.0","0","0","45495","","null","","","null","86","","","","","","","","","","","","","","","NaN",""
"","S1","","html-keyboard-response","571","464873","0.0-1.0-785.0","0","0","45495","","null","","","null","87","","","","","","","","","","","","","","","",""
"","ISI","","html-keyboard-response","572","465026","0.0-1.0-786.0","0","0","45495","","null","","","null","87","NaN","","","","","","","","","","","","","","",""
"","S2","","html-keyboard-response","573","465280","0.0-1.0-787.0","0","0","45495","","null","","","null","87","","NaN","","","","","","","","","","","","","",""
"","response","","html-keyboard-response","574","465737","0.0-1.0-788.0-0.0","0","0","45495","","454","","","68","87","","","2","87","training","adjacent","BA","2","1","N.jpg","P.jpg","0","0","1","",""
"","feedback","","html-keyboard-response","575","466741","0.0-1.0-789.0-0.0","0","0","45495","","null","","","null","87","","","","","","","","","","","","","","","",""
"","ITI","","html-keyboard-response","576","467745","0.0-1.0-792.0","0","0","45495","","null","","","null","87","","","","","","","","","","","","","","","NaN",""
"","S1","","html-keyboard-response","577","467999","0.0-1.0-794.0","0","0","45495","","null","","","null","88","","","","","","","","","","","","","","","",""
"","ISI","","html-keyboard-response","578","468152","0.0-1.0-795.0","0","0","45495","","null","","","null","88","NaN","","","","","","","","","","","","","","",""
"","S2","","html-keyboard-response","579","468406","0.0-1.0-796.0","0","0","45495","","null","","","null","88","","NaN","","","","","","","","","","","","","",""
"","response","","html-keyboard-response","580","468749","0.0-1.0-797.0-0.0","0","0","45495","","341","","","68","88","","","2","88","training","adjacent","FE","6","5","M.jpg","O.jpg","0","0","1","",""
