"success","ttype","start_time","trial_type","trial_index","time_elapsed","internal_node_id","warning","missed_checkup","PID","view_history","rt","responses","repeat_instructions","key_press","index","keypress_isi","keypress_S2","block","trial_num","phase","group_type","pair_type","S1_stim","S2_stim","S1_img","S2_img","S1_chosen","S1_higher","accuracy","keypress_iti","total_bonus_tally"
"true","full_screen","d03082023hr1456","fullscreen","0","4644","0.0-0.0","0","0","75029","","","","","","","","","","","","","","","","","","","","","",""
"","instructions","","instructions","1","36211","0.0-1.0-0.0-0.0","0","0","75029","[{""page_index"":0,""viewing_time"":2940},{""page_index"":1,""viewing_time"":21282},{""page_index"":2,""viewing_time"":5727},{""page_index"":3,""viewing_time"":1611}]","31560","","","","","","","","","","","","","","","","","","","",""
"","comprehension_check","","survey-multi-choice","2","53299","0.0-1.0-0.0-1.0","0","0","75029","","17079","{""Q0"":""True"",""Q1"":""K"",""Q2"":""Once the second image appears and while the screen 'MAKE A CHOICE' is shown"",""Q3"":""Green mark"",""Q4"":""either D or K""}","0","","","","","","","","","","","","","","","","","",""
"","start_exp","","html-keyboard-response","3","54773","0.0-1.0-1.0","0","0","75029","","1467","","","32","","","","","","","","","","","","","","","","",""
"","S1","","html-keyboard-response","4","55030","0.0-1.0-2.0","0","0","75029","","null","","","null","0","","","","","","","","","","","","","","","",""
"","ISI","","html-keyboard-response","5","55185","0.0-1.0-3.0","0","0","75029","","null","","","null","0","NaN","","","","","","","","","","","","","","",""
"","S2","","html-keyboard-response","6","55439","0.0-1.0-4.0","0","0","75029","","null","","","null","0","","NaN","","","","","","","","","","","","","",""
"","response","","html-keyboard-response","7","56720","0.0-1.0-5.0-0.0","0","0","75029","","1275","","","75","0","","","1","0","training","adjacent","GF","7","6","Q.jpg","M.jpg","1","0","0","",""
"","feedback","","html-keyboard-response","8","57727","0.0-1.0-6.0-0.0","0","0","75029","","null","","","null","0","","","","","","","","","","","","","","","",""
"","time_out","","html-keyboard-response","9","59734","0.0-1.0-8.0-0.0","0","0","75029","","null","","","null","0","","","","","","","","","","","","","","","",""
"","ITI","","html-keyboard-response","10","60743","0.0-1.0-9.0","0","0","75029","","null","","","null","0","","","","","","","","","","","","","","","NaN",""
"","S1","","html-keyboard-response","11","61001","0.0-1.0-11.0","0","0","75029","","null","","","null","1","","","","","","","","","","","","","","","",""
"","ISI","","html-keyboard-response","12","61156","0.0-1.0-12.0","0","0","75029","","null","","","null","1","NaN","","","","","","","","","","","","","","",""
"","S2","","html-keyboard-response","13","61411","0.0-1.0-13.0","0","0","75029","","null","","","null","1","","NaN","","","","","","","","","","","","","",""
"","response","","html-keyboard-response","14","62387","0.0-1.0-14.0-0.0","0","0","75029","","970","","","68","1","","","1","1","training","adjacent","DE","4","5","L.jpg","R.jpg","0","1","0","",""
"","feedback","","html-keyboard-response","15","63395","0.0-1.0-15.0-0.0","0","0","75029","","null","","","null","1","","","","","","","","","","","","","","","",""
"","time_out","","html-keyboard-response","16","65401","0.0-1.0-17.0-0.0","0","0","75029","","null","","","null","1","","","","","","","","","","","","","","","",""
"","ITI","","html-keyboard-response","17","66408","0.0-1.0-18.0","0","0","75029","","null","","","null","1","","","","","","","","","","","","","","","NaN",""
"","S1","","html-keyboard-response","18","66665","0.0-1.0-20.0","0","0","75029","","null","","","null","2","","","","","","","","","","","","","","","",""
"","ISI","","html-keyboard-response","19","66819","0.0-1.0-21.0","0","0","75029","","null","","","null","2","NaN","","","","","","","","","","","","","","",""
"","S2","","html-keyboard-response","20","67076","0.0-1.0-22.0","0","0","75029","","null","","","null","2","","NaN","","","","","","","","","","","","","",""
"","response","","html-keyboard-response","21","68087","0.0-1.0-23.0-0.0","0","0","75029","","1007","","","75","2","","","1","2","training","adjacent","CB","3","2","O.jpg","N.jpg","1","0","0","",""
"","feedback","","html-keyboard-response","22","69092","0.0-1.0-24.0-0.0","0","0","75029","","null","","","null","2","","","","","","","","","","","","","","","",""
"","time_out","","html-keyboard-response","23","71098","0.0-1.0-26.0-0.0","0","0","75029","","null","","","null","2","","","","","","","","","","","","","","","",""
"","ITI","","html-keyboard-response","24","72106","0.0-1.0-27.0","0","0","75029","","null","","","null","2","","","","","","","","","","","","","","","NaN",""
"","S1","","html-keyboard-response","25","72361","0.0-1.0-29.0","0","0","75029","","null","","","null","3","","","","","","","","","","","","","","","",""
"","ISI","","html-keyboard-response","26","72515","0.0-1.0-30.0","0","0","75029","","null","","","null","3","NaN","","","","","","","","","","","","","","",""
"","S2","","html-keyboard-response","27","72770","0.0-1.0-31.0","0","0","75029","","null","","","null","3","","NaN","","","","","","","","","","","","","",""
"","response","","html-keyboard-response","28","73550","0.0-1.0-32.0-0.0","0","0","75029","","776","","","75","3","","","1","3","training","adjacent","GF","7","6","Q.jpg","M.jpg","1","0","0","",""
"","feedback","","html-keyboard-response","29","74554","0.0-1.0-33.0-0.0","0","0","75029","","null","","","null","3","","","","","","","","","","","","","","","",""
"","time_out","","html-keyboard-response","30","76559","0.0-1.0-35.0-0.0","0","0","75029","","null","","","null","3","","","","","","","","","","","","","","","",""
"","ITI","","html-keyboard-response","31","77573","0.0-1.0-36.0","0","0","75029","","null","","","null","3","","","","","","","","","","","","","","","NaN",""
"","S1","","html-keyboard-response","32","77829","0.0-1.0-38.0","0","0","75029","","null","","","null","4","","","","","","","","","","","","","","","",""
"","ISI","","html-keyboard-response","33","77985","0.0-1.0-39.0","0","0","75029","","null","","","null","4","NaN","","","","","","","","","","","","","","",""
"","S2","","html-keyboard-response","34","78242","0.0-1.0-40.0","0","0","75029","","null","","","null","4","","NaN","","","","","","","","","","","","","",""
"","response","","html-keyboard-response","35","79250","0.0-1.0-41.0-0.0","0","0","75029","","1002","","","75","4","","","1","4","training","adjacent","FE","6","5","M.jpg","R.jpg","1","0","0","",""
"","feedback","","html-keyboard-response","36","80257","0.0-1.0-42.0-0.0","0","0","75029","","null","","","null","4","","","","","","","","","","","","","","","",""
"","time_out","","html-keyboard-response","37","82262","0.0-1.0-44.0-0.0","0","0","75029","","null","","","null","4","","","","","","","","","","","","","","","",""
"","ITI","","html-keyboard-response","38","83268","0.0-1.0-45.0","0","0","75029","","null","","","null","4","","","","","","","","","","","","","","","NaN",""
"","S1","","html-keyboard-response","39","83524","0.0-1.0-47.0","0","0","75029","","null","","","null","5","","","","","","","","","","","","","","","",""
"","ISI","","html-keyboard-response","40","83680","0.0-1.0-48.0","0","0","75029","","null","","","null","5","NaN","","","","","","","","","","","","","","",""
"","S2","","html-keyboard-response","41","83937","0.0-1.0-49.0","0","0","75029","","null","","","null","5","","NaN","","","","","","","","","","","","","",""
"","response","","html-keyboard-response","42","84800","0.0-1.0-50.0-0.0","0","0","75029","","857","","","75","5","","","1","5","training","adjacent","AB","1","2","P.jpg","N.jpg","1","1","1","",""
"","feedback","","html-keyboard-response","43","85808","0.0-1.0-51.0-0.0","0","0","75029","","null","","","null","5","","","","","","","","","","","","","","","",""
"","ITI","","html-keyboard-response","44","86813","0.0-1.0-54.0","0","0","75029","","null","","","null","5","","","","","","","","","","","","","","","NaN",""
"","S1","","html-keyboard-response","45","87070","0.0-1.0-56.0","0","0","75029","","null","","","null","6","","","","","","","","","","","","","","","",""
"","ISI","","html-keyboard-response","46","87225","0.0-1.0-57.0","0","0","75029","","null","","","null","6","NaN","","","","","","","","","","","","","","",""
"","S2","","html-keyboard-response","47","87481","0.0-1.0-58.0","0","0","75029","","null","","","null","6","","NaN","","","","","","","","","","","","","",""
"","response","","html-keyboard-response","48","88036","0.0-1.0-59.0-0.0","0","0","75029","","550","","","68","6","","","1","6","training","adjacent","DC","4","3","L.jpg","O.jpg","0","0","1","",""
"","feedback","","html-keyboard-response","49","89045","0.0-1.0-60.0-0.0","0","0","75029","","null","","","null","6","","","","","","","","","","","","","","","",""
"","ITI","","html-keyboard-response","50","90051","0.0-1.0-63.0","0","0","75029","","null","","","null","6","","","","","","","","","","","","","","","NaN",""
"","S1","","html-keyboard-response","51","90309","0.0-1.0-65.0","0","0","75029","","null","","","null","7","","","","","","","","","","","","","","","",""
"","ISI","","html-keyboard-response","52","90464","0.0-1.0-66.0","0","0","75029","","null","","","null","7","NaN","","","","","","","","","","","","","","",""
"","S2","","html-keyboard-response","53","90721","0.0-1.0-67.0","0","0","75029","","null","","","null","7","","NaN","","","","","","","","","","","","","",""
"","response","","html-keyboard-response","54","91283","0.0-1.0-68.0-0.0","0","0","75029","","556","","","75","7","","","1","7","training","adjacent","AB","1","2","P.jpg","N.jpg","1","1","1","",""
"","feedback","","html-keyboard-response","55","92291","0.0-1.0-69.0-0.0","0","0","75029","","null","","","null","7","","","","","","","","","","","","","","","",""
"","ITI","","html-keyboard-response","56","93298","0.0-1.0-72.0","0","0","75029","","null","","","null","7","","","","","","","","","","","","","","","NaN",""
"","S1","","html-keyboard-response","57","93554","0.0-1.0-74.0","0","0","75029","","null","","","null","8","","","","","","","","","","","","","","","",""
"","ISI","","html-keyboard-response","58","93711","0.0-1.0-75.0","0","0","75029","","null","","","null","8","NaN","","","","","","","","","","","","","","",""
"","S2","","html-keyboard-response","59","93970","0.0-1.0-76.0","0","0","75029","","null","","","null","8","","NaN","","","","","","","","","","","","","",""
"","response","","html-keyboard-response","60","94414","0.0-1.0-77.0-0.0","0","0","75029","","439","","","75","8","","","1","8","training","adjacent","CD","3","4","O.jpg","L.jpg","1","1","1","",""
"","feedback","","html-keyboard-response","61","95422","0.0-1.0-78.0-0.0","0","0","75029","","null","","","null","8","","","","","","","","","","","","","","","",""
"","ITI","","html-keyboard-response","62","96429","0.0-1.0-81.0","0","0","75029","","null","","","null","8","","","","","","","","","","","","","","","NaN",""
"","S1","","html-keyboard-response","63","96683","0.0-1.0-83.0","0","0","75029","","null","","","null","9","","","","","","","","","","","","","","","",""
"","ISI","","html-keyboard-response","64","96837","0.0-1.0-84.0","0","0","75029","","null","","","null","9","NaN","","","","","","","","","","","","","","",""
"","S2","","html-keyboard-response","65","97097","0.0-1.0-85.0","0","0","75029","","null","","","null","9","","NaN","","","","","","","","","","","","","",""
"","response","","html-keyboard-response","66","97439","0.0-1.0-86.0-0.0","0","0","75029","","337","","","68","9","","","1","9","training","adjacent","FG","6","7","M.jpg","Q.jpg","0","1","0","",""
"","feedback","","html-keyboard-response","67","98447","0.0-1.0-87.0-0.0","0","0","75029","","null","","","null","9","","","","","","","","","","","","","","","",""
"","time_out","","html-keyboard-response","68","100452","0.0-1.0-89.0-0.0","0","0","75029","","null","","","null","9","","","","","","","","","","","","","","","",""
"","ITI","","html-keyboard-response","69","101457","0.0-1.0-90.0","0","0","75029","","null","","","null","9","","","","","","","","","","","","","","","NaN",""
"","S1","","html-keyboard-response","70","101712","0.0-1.0-92.0","0","0","75029","","null","","","null","10","","","","","","","","","","","","","","","",""
"","ISI","","html-keyboard-response","71","101866","0.0-1.0-93.0","0","0","75029","","null","","","null","10","NaN","","","","","","","","","","","","","","",""
"","S2","","html-keyboard-response","72","102121","0.0-1.0-94.0","0","0","75029","","null","","","null","10","","NaN","","","","","","","","","","","","","",""
"","response","","html-keyboard-response","73","102622","0.0-1.0-95.0-0.0","0","0","75029","","495","","","75","10","","","1","10","training","adjacent","AB","1","2","P.jpg","N.jpg","1","1","1","",""
"","feedback","","html-keyboard-response","74","103640","0.0-1.0-96.0-0.0","0","0","75029","","null","","","null","10","","","","","","","","","","","","","","","",""
"","ITI","","html-keyboard-response","75","104646","0.0-1.0-99.0","0","0","75029","","null","","","null","10","","","","","","","","","","","","","","","NaN",""
"","S1","","html-keyboard-response","76","104903","0.0-1.0-101.0","0","0","75029","","null","","","null","11","","","","","","","","","","","","","","","",""
"","ISI","","html-keyboard-response","77","105060","0.0-1.0-102.0","0","0","75029","","null","","","null","11","NaN","","","","","","","","","","","","","","",""
"","S2","","html-keyboard-response","78","105318","0.0-1.0-103.0","0","0","75029","","null","","","null","11","","NaN","","","","","","","","","","","","","",""
"","response","","html-keyboard-response","79","105719","0.0-1.0-104.0-0.0","0","0","75029","","396","","","75","11","","","1","11","training","adjacent","CB","3","2","O.jpg","N.jpg","1","0","0","",""
"","feedback","","html-keyboard-response","80","106724","0.0-1.0-105.0-0.0","0","0","75029","","null","","","null","11","","","","","","","","","","","","","","","",""
"","time_out","","html-keyboard-response","81","108728","0.0-1.0-107.0-0.0","0","0","75029","","null","","","null","11","","","","","","","","","","","","","","","",""
"","ITI","","html-keyboard-response","82","109733","0.0-1.0-108.0","0","0","75029","","null","","","null","11","","","","","","","","","","","","","","","NaN",""
"","S1","","html-keyboard-response","83","109989","0.0-1.0-110.0","0","0","75029","","null","","","null","12","","","","","","","","","","","","","","","",""
"","ISI","","html-keyboard-response","84","110146","0.0-1.0-111.0","0","0","75029","","null","","","null","12","NaN","","","","","","","","","","","","","","",""
"","S2","","html-keyboard-response","85","110414","0.0-1.0-112.0","0","0","75029","","null","","","null","12","","NaN","","","","","","","","","","","","","",""
"","response","","html-keyboard-response","86","110984","0.0-1.0-113.0-0.0","0","0","75029","","564","","","68","12","","","1","12","training","adjacent","BC","2","3","N.jpg","O.jpg","0","1","0","",""
"","feedback","","html-keyboard-response","87","111991","0.0-1.0-114.0-0.0","0","0","75029","","null","","","null","12","","","","","","","","","","","","","","","",""
"","time_out","","html-keyboard-response","88","113997","0.0-1.0-116.0-0.0","0","0","75029","","null","","","null","12","","","","","","","","","","","","","","","",""
"","ITI","","html-keyboard-response","89","115004","0.0-1.0-117.0","0","0","75029","","null","","","null","12","","","","","","","","","","","","","","","NaN",""
"","S1","","html-keyboard-response","90","115264","0.0-1.0-119.0","0","0","75029","","null","","","null","13","","","","","","","","","","","","","","","",""
"","ISI","","html-keyboard-response","91","115421","0.0-1.0-120.0","0","0","75029","","null","","","null","13","NaN","","","","","","","","","","","","","","",""
"","S2","","html-keyboard-response","92","115678","0.0-1.0-121.0","0","0","75029","","null","","","null","13","","NaN","","","","","","","","","","","","","",""
"","response","","html-keyboard-response","93","116548","0.0-1.0-122.0-0.0","0","0","75029","","864","","","68","13","","","1","13","training","adjacent","ED","5","4","R.jpg","L.jpg","0","0","1","",""
"","feedback","","html-keyboard-response","94","117555","0.0-1.0-123.0-0.0","0","0","75029","","null","","","null","13","","","","","","","","","","","","","","","",""
"","ITI","","html-keyboard-response","95","118566","0.0-1.0-126.0","0","0","75029","","null","","","null","13","","","","","","","","","","","","","","","NaN",""
"","S1","","html-keyboard-response","96","118825","0.0-1.0-128.0","0","0","75029","","null","","","null","14","","","","","","","","","","","","","","","",""
"","ISI","","html-keyboard-response","97","118982","0.0-1.0-129.0","0","0","75029","","null","","","null","14","NaN","","","","","","","","","","","","","","",""
"","S2","","html-keyboard-response","98","119239","0.0-1.0-130.0","0","0","75029","","null","","","null","14","","NaN","","","","","","","","","","","","","",""
"","response","","html-keyboard-response","99","120127","0.0-1.0-131.0-0.0","0","0","75029","","881","","","68","14","","","1","14","training","adjacent","BC","2","3","N.jpg","O.jpg","0","1","0","",""
"","feedback","","html-keyboard-response","100","121134","0.0-1.0-132.0-0.0","0","0","75029","","null","","","null","14","","","","","","","","","","","","","","","",""
"","time_out","","html-keyboard-response","101","123140","0.0-1.0-134.0-0.0","0","0","75029","","null","","","null","14","","","","","","","","","","","","","","","",""
"","ITI","","html-keyboard-response","102","124146","0.0-1.0-135.0","0","0","75029","","null","","","null","14","","","","","","","","","","","","","","","NaN",""
"","S1","","html-keyboard-response","103","124404","0.0-1.0-137.0","0","0","75029","","null","","","null","15","","","","","","","","","","","","","","","",""
"","ISI","","html-keyboard-response","104","124559","0.0-1.0-138.0","0","0","75029","","null","","","null","15","NaN","","","","","","","","","","","","","","",""
"","S2","","html-keyboard-response","105","124827","0.0-1.0-139.0","0","0","75029","","null","","","null","15","","NaN","","","","","","","","","","","","","",""
"","response","","html-keyboard-response","106","125253","0.0-1.0-140.0-0.0","0","0","75029","","421","","","68","15","","","1","15","training","adjacent","BC","2","3","N.jpg","O.jpg","0","1","0","",""
"","feedback","","html-keyboard-response","107","126259","0.0-1.0-141.0-0.0","0","0","75029","","null","","","null","15","","","","","","","","","","","","","","","",""
"","time_out","","html-keyboard-response","108","128266","0.0-1.0-143.0-0.0","0","0","75029","","null","","","null","15","","","","","","","","","","","","","","","",""
"","ITI","","html-keyboard-response","109","129275","0.0-1.0-144.0","0","0","75029","","null","","","null","15","","","","","","","","","","","","","","","NaN",""
"","S1","","html-keyboard-response","110","129532","0.0-1.0-146.0","0","0","75029","","null","","","null","16","","","","","","","","","","","","","","","",""
"","ISI","","html-keyboard-response","111","129689","0.0-1.0-147.0","0","0","75029","","null","","","null","16","NaN","","","","","","","","","","","","","","",""
"","S2","","html-keyboard-response","112","129945","0.0-1.0-148.0","0","0","75029","","null","","","null","16","","NaN","","","","","","","","","","","","","",""
"","response","","html-keyboard-response","113","131227","0.0-1.0-149.0-0.0","0","0","75029","","1278","","","75","16","","","1","16","training","adjacent","ED","5","4","R.jpg","L.jpg","1","0","0","",""
"","feedback","","html-keyboard-response","114","132234","0.0-1.0-150.0-0.0","0","0","75029","","null","","","null","16","","","","","","","","","","","","","","","",""
"","time_out","","html-keyboard-response","115","134240","0.0-1.0-152.0-0.0","0","0","75029","","null","","","null","16","","","","","","","","","","","","","","","",""
"","ITI","","html-keyboard-response","116","135256","0.0-1.0-153.0","0","0","75029","","null","","","null","16","","","","","","","","","","","","","","","NaN",""
"","S1","","html-keyboard-response","117","135512","0.0-1.0-155.0","0","0","75029","","null","","","null","17","","","","","","","","","","","","","","","",""
"","ISI","","html-keyboard-response","118","135669","0.0-1.0-156.0","0","0","75029","","null","","","null","17","NaN","","","","","","","","","","","","","","",""
"","S2","","html-keyboard-response","119","135926","0.0-1.0-157.0","0","0","75029","","null","","","null","17","","NaN","","","","","","","","","","","","","",""
"","response","","html-keyboard-response","120","136713","0.0-1.0-158.0-0.0","0","0","75029","","783","","","75","17","","","1","17","training","adjacent","FE","6","5","M.jpg","R.jpg","1","0","0","",""
"","feedback","","html-keyboard-response","121","137719","0.0-1.0-159.0-0.0","0","0","75029","","null","","","null","17","","","","","","","","","","","","","","","",""
"","time_out","","html-keyboard-response","122","139725","0.0-1.0-161.0-0.0","0","0","75029","","null","","","null","17","","","","","","","","","","","","","","","",""
"","ITI","","html-keyboard-response","123","140732","0.0-1.0-162.0","0","0","75029","","null","","","null","17","","","","","","","","","","","","","","","NaN",""
"","S1","","html-keyboard-response","124","140988","0.0-1.0-164.0","0","0","75029","","null","","","null","18","","","","","","","","","","","","","","","",""
"","ISI","","html-keyboard-response","125","141146","0.0-1.0-165.0","0","0","75029","","null","","","null","18","NaN","","","","","","","","","","","","","","",""
"","S2","","html-keyboard-response","126","141404","0.0-1.0-166.0","0","0","75029","","null","","","null","18","","NaN","","","","","","","","","","","","","",""
"","response","","html-keyboard-response","127","141792","0.0-1.0-167.0-0.0","0","0","75029","","382","","","75","18","","","1","18","training","adjacent","BC","2","3","N.jpg","O.jpg","1","1","1","",""
"","feedback","","html-keyboard-response","128","142800","0.0-1.0-168.0-0.0","0","0","75029","","null","","","null","18","","","","","","","","","","","","","","","",""
"","ITI","","html-keyboard-response","129","143806","0.0-1.0-171.0","0","0","75029","","null","","","null","18","","","","","","","","","","","","","","","NaN",""
"","S1","","html-keyboard-response","130","144061","0.0-1.0-173.0","0","0","75029","","null","","","null","19","","","","","","","","","","","","","","","",""
"","ISI","","html-keyboard-response","131","144215","0.0-1.0-174.0","0","0","75029","","null","","","null","19","NaN","","","","","","","","","","","","","","",""
"","S2","","html-keyboard-response","132","144471","0.0-1.0-175.0","0","0","75029","","null","","","null","19","","NaN","","","","","","","","","","","","","",""
"","response","","html-keyboard-response","133","145302","0.0-1.0-176.0-0.0","0","0","75029","","824","","","68","19","","","1","19","training","adjacent","ED","5","4","R.jpg","L.jpg","0","0","1","",""
"","feedback","","html-keyboard-response","134","146309","0.0-1.0-177.0-0.0","0","0","75029","","null","","","null","19","","","","","","","","","","","","","","","",""
"","ITI","","html-keyboard-response","135","147315","0.0-1.0-180.0","0","0","75029","","null","","","null","19","","","","","","","","","","","","","","","NaN",""
"","S1","","html-keyboard-response","136","147572","0.0-1.0-182.0","0","0","75029","","null","","","null","20","","","","","","","","","","","","","","","",""
"","ISI","","html-keyboard-response","137","147728","0.0-1.0-183.0","0","0","75029","","null","","","null","20","NaN","","","","","","","","","","","","","","",""
"","S2","","html-keyboard-response","138","147987","0.0-1.0-184.0","0","0","75029","","null","","","null","20","","NaN","","","","","","","","","","","","","",""
"","response","","html-keyboard-response","139","148686","0.0-1.0-185.0-0.0","0","0","75029","","695","","","75","20","","","1","20","training","adjacent","DC","4","3","L.jpg","O.jpg","1","0","0","",""
"","feedback","","html-keyboard-response","140","149691","0.0-1.0-186.0-0.0","0","0","75029","","null","","","null","20","","","","","","","","","","","","","","","",""
"","time_out","","html-keyboard-response","141","151696","0.0-1.0-188.0-0.0","0","0","75029","","null","","","null","20","","","","","","","","","","","","","","","",""
"","ITI","","html-keyboard-response","142","152702","0.0-1.0-189.0","0","0","75029","","null","","","null","20","","","","","","","","","","","","","","","NaN",""
"","S1","","html-keyboard-response","143","152958","0.0-1.0-191.0","0","0","75029","","null","","","null","21","","","","","","","","","","","","","","","",""
"","ISI","","html-keyboard-response","144","153115","0.0-1.0-192.0","0","0","75029","","null","","","null","21","NaN","","","","","","","","","","","","","","",""
"","S2","","html-keyboard-response","145","153373","0.0-1.0-193.0","0","0","75029","","null","","","null","21","","NaN","","","","","","","","","","","","","",""
"","response","","html-keyboard-response","146","153928","0.0-1.0-194.0-0.0","0","0","75029","","551","","","68","21","","","1","21","training","adjacent","EF","5","6","R.jpg","M.jpg","0","1","0","",""
"","feedback","","html-keyboard-response","147","154935","0.0-1.0-195.0-0.0","0","0","75029","","null","","","null","21","","","","","","","","","","","","","","","",""
"","time_out","","html-keyboard-response","148","156941","0.0-1.0-197.0-0.0","0","0","75029","","null","","","null","21","","","","","","","","","","","","","","","",""
"","ITI","","html-keyboard-response","149","157958","0.0-1.0-198.0","0","0","75029","","null","","","null","21","","","","","","","","","","","","","","","NaN",""
"","S1","","html-keyboard-response","150","158216","0.0-1.0-200.0","0","0","75029","","null","","","null","22","","","","","","","","","","","","","","","",""
"","ISI","","html-keyboard-response","151","158372","0.0-1.0-201.0","0","0","75029","","null","","","null","22","NaN","","","","","","","","","","","","","","",""
"","S2","","html-keyboard-response","152","158631","0.0-1.0-202.0","0","0","75029","","null","","","null","22","","NaN","","","","","","","","","","","","","",""
"","response","","html-keyboard-response","153","159097","0.0-1.0-203.0-0.0","0","0","75029","","459","","","68","22","","","1","22","training","adjacent","FG","6","7","M.jpg","Q.jpg","0","1","0","",""
"","feedback","","html-keyboard-response","154","160104","0.0-1.0-204.0-0.0","0","0","75029","","null","","","null","22","","","","","","","","","","","","","","","",""
"","time_out","","html-keyboard-response","155","162110","0.0-1.0-206.0-0.0","0","0","75029","","null","","","null","22","","","","","","","","","","","","","","","",""
"","ITI","","html-keyboard-response","156","163117","0.0-1.0-207.0","0","0","75029","","null","","","null","22","","","","","","","","","","","","","","","NaN",""
"","S1","","html-keyboard-response","157","163379","0.0-1.0-209.0","0","0","75029","","null","","","null","23","","","","","","","","","","","","","","","",""
"","ISI","","html-keyboard-response","158","163535","0.0-1.0-210.0","0","0","75029","","null","","","null","23","NaN","","","","","","","","","","","","","","",""
"","S2","","html-keyboard-response","159","163805","0.0-1.0-211.0","0","0","75029","","null","","","null","23","","NaN","","","","","","","","","","","","","",""
"","response","","html-keyboard-response","160","164309","0.0-1.0-212.0-0.0","0","0","75029","","497","","","68","23","","","1","23","training","adjacent","FE","6","5","M.jpg","R.jpg","0","0","1","",""
"","feedback","","html-keyboard-response","161","165317","0.0-1.0-213.0-0.0","0","0","75029","","null","","","null","23","","","","","","","","","","","","","","","",""
"","ITI","","html-keyboard-response","162","166324","0.0-1.0-216.0","0","0","75029","","null","","","null","23","","","","","","","","","","","","","","","NaN",""
"","S1","","html-keyboard-response","163","166581","0.0-1.0-218.0","0","0","75029","","null","","","null","24","","","","","","","","","","","","","","","",""
"","ISI","","html-keyboard-response","164","166738","0.0-1.0-219.0","0","0","75029","","null","","","null","24","NaN","","","","","","","","","","","","","","",""
"","S2","","html-keyboard-response","165","167003","0.0-1.0-220.0","0","0","75029","","null","","","null","24","","NaN","","","","","","","","","","","","","",""
"","response","","html-keyboard-response","166","167367","0.0-1.0-221.0-0.0","0","0","75029","","359","","","75","24","","","1","24","training","adjacent","DE","4","5","L.jpg","R.jpg","1","1","1","",""
"","feedback","","html-keyboard-response","167","168373","0.0-1.0-222.0-0.0","0","0","75029","","null","","","null","24","","","","","","","","","","","","","","","",""
"","ITI","","html-keyboard-response","168","169378","0.0-1.0-225.0","0","0","75029","","null","","","null","24","","","","","","","","","","","","","","","NaN",""
"","S1","","html-keyboard-response","169","169633","0.0-1.0-227.0","0","0","75029","","null","","","null","25","","","","","","","","","","","","","","","",""
"","ISI","","html-keyboard-response","170","169788","0.0-1.0-228.0","0","0","75029","","null","","","null","25","NaN","","","","","","","","","","","","","","",""
"","S2","","html-keyboard-response","171","170044","0.0-1.0-229.0","0","0","75029","","null","","","null","25","","NaN","","","","","","","","","","","","","",""
"","response","","html-keyboard-response","172","170367","0.0-1.0-230.0-0.0","0","0","75029","","316","","","68","25","","","1","25","training","adjacent","DE","4","5","L.jpg","R.jpg","0","1","0","",""
"","feedback","","html-keyboard-response","173","171373","0.0-1.0-231.0-0.0","0","0","75029","","null","","","null","25","","","","","","","","","","","","","","","",""
"","time_out","","html-keyboard-response","174","173380","0.0-1.0-233.0-0.0","0","0","75029","","null","","","null","25","","","","","","","","","","","","","","","",""
"","ITI","","html-keyboard-response","175","174386","0.0-1.0-234.0","0","0","75029","","null","","","null","25","","","","","","","","","","","","","","","NaN",""
"","S1","","html-keyboard-response","176","174644","0.0-1.0-236.0","0","0","75029","","null","","","null","26","","","","","","","","","","","","","","","",""
"","ISI","","html-keyboard-response","177","174801","0.0-1.0-237.0","0","0","75029","","null","","","null","26","NaN","","","","","","","","","","","","","","",""
"","S2","","html-keyboard-response","178","175059","0.0-1.0-238.0","0","0","75029","","null","","","null","26","","NaN","","","","","","","","","","","","","",""
"","response","","html-keyboard-response","179","175681","0.0-1.0-239.0-0.0","0","0","75029","","619","","","68","26","","","1","26","training","adjacent","FE","6","5","M.jpg","R.jpg","0","0","1","",""
"","feedback","","html-keyboard-response","180","176686","0.0-1.0-240.0-0.0","0","0","75029","","null","","","null","26","","","","","","","","","","","","","","","",""
"","ITI","","html-keyboard-response","181","177691","0.0-1.0-243.0","0","0","75029","","null","","","null","26","","","","","","","","","","","","","","","NaN",""
"","S1","","html-keyboard-response","182","177946","0.0-1.0-245.0","0","0","75029","","null","","","null","27","","","","","","","","","","","","","","","",""
"","ISI","","html-keyboard-response","183","178103","0.0-1.0-246.0","0","0","75029","","null","","","null","27","NaN","","","","","","","","","","","","","","",""
"","S2","","html-keyboard-response","184","178360","0.0-1.0-247.0","0","0","75029","","null","","","null","27","","NaN","","","","","","","","","","","","","",""
"","response","","html-keyboard-response","185","178689","0.0-1.0-248.0-0.0","0","0","75029","","322","","","75","27","","","1","27","training","adjacent","CD","3","4","O.jpg","L.jpg","1","1","1","",""
"","feedback","","html-keyboard-response","186","179694","0.0-1.0-249.0-0.0","0","0","75029","","null","","","null","27","","","","","","","","","","","","","","","",""
"","ITI","","html-keyboard-response","187","180698","0.0-1.0-252.0","0","0","75029","","null","","","null","27","","","","","","","","","","","","","","","NaN",""
"","S1","","html-keyboard-response","188","180952","0.0-1.0-254.0","0","0","75029","","null","","","null","28","","","","","","","","","","","","","","","",""
"","ISI","","html-keyboard-response","189","181108","0.0-1.0-255.0","0","0","75029","","null","","","null","28","NaN","","","","","","","","","","","","","","",""
"","S2","","html-keyboard-response","190","181365","0.0-1.0-256.0","0","0","75029","","null","","","null","28","","NaN","","","","","","","","","","","","","",""
"","response","","html-keyboard-response","191","181713","0.0-1.0-257.0-0.0","0","0","75029","","342","","","75","28","","","1","28","training","adjacent","CD","3","4","O.jpg","L.jpg","1","1","1","",""
"","feedback","","html-keyboard-response","192","182719","0.0-1.0-258.0-0.0","0","0","75029","","null","","","null","28","","","","","","","","","","","","","","","",""
"","ITI","","html-keyboard-response","193","183726","0.0-1.0-261.0","0","0","75029","","null","","","null","28","","","","","","","","","","","","","","","NaN",""
"","S1","","html-keyboard-response","194","183983","0.0-1.0-263.0","0","0","75029","","null","","","null","29","","","","","","","","","","","","","","","",""
"","ISI","","html-keyboard-response","195","184140","0.0-1.0-264.0","0","0","75029","","null","","","null","29","NaN","","","","","","","","","","","","","","",""
"","S2","","html-keyboard-response","196","184397","0.0-1.0-265.0","0","0","75029","","null","","","null","29","","NaN","","","","","","","","","","","","","",""
"","response","","html-keyboard-response","197","184782","0.0-1.0-266.0-0.0","0","0","75029","","379","","","68","29","","","1","29","training","adjacent","GF","7","6","Q.jpg","M.jpg","0","0","1","",""
"","feedback","","html-keyboard-response","198","185789","0.0-1.0-267.0-0.0","0","0","75029","","null","","","null","29","","","","","","","","","","","","","","","",""
"","ITI","","html-keyboard-response","199","186797","0.0-1.0-270.0","0","0","75029","","null","","","null","29","","","","","","","","","","","","","","","NaN",""
"","S1","","html-keyboard-response","200","187054","0.0-1.0-272.0","0","0","75029","","null","","","null","30","","","","","","","","","","","","","","","",""
"","ISI","","html-keyboard-response","201","187208","0.0-1.0-273.0","0","0","75029","","null","","","null","30","NaN","","","","","","","","","","","","","","",""
"","S2","","html-keyboard-response","202","187465","0.0-1.0-274.0","0","0","75029","","null","","","null","30","","NaN","","","","","","","","","","","","","",""
"","response","","html-keyboard-response","203","187818","0.0-1.0-275.0-0.0","0","0","75029","","347","","","75","30","","","1","30","training","adjacent","EF","5","6","R.jpg","M.jpg","1","1","1","",""
"","feedback","","html-keyboard-response","204","188825","0.0-1.0-276.0-0.0","0","0","75029","","null","","","null","30","","","","","","","","","","","","","","","",""
"","ITI","","html-keyboard-response","205","189833","0.0-1.0-279.0","0","0","75029","","null","","","null","30","","","","","","","","","","","","","","","NaN",""
"","S1","","html-keyboard-response","206","190091","0.0-1.0-281.0","0","0","75029","","null","","","null","31","","","","","","","","","","","","","","","",""
"","ISI","","html-keyboard-response","207","190248","0.0-1.0-282.0","0","0","75029","","null","","","null","31","NaN","","","","","","","","","","","","","","",""
"","S2","","html-keyboard-response","208","190506","0.0-1.0-283.0","0","0","75029","","null","","","null","31","","NaN","","","","","","","","","","","","","",""
"","response","","html-keyboard-response","209","191024","0.0-1.0-284.0-0.0","0","0","75029","","513","","","75","31","","","1","31","training","adjacent","CD","3","4","O.jpg","L.jpg","1","1","1","",""
"","feedback","","html-keyboard-response","210","192076","0.0-1.0-285.0-0.0","0","0","75029","","null","","","null","31","","","","","","","","","","","","","","","",""
"","ITI","","html-keyboard-response","211","193083","0.0-1.0-288.0","0","0","75029","","null","","","null","31","","","","","","","","","","","","","","","NaN",""
"","S1","","html-keyboard-response","212","193341","0.0-1.0-290.0","0","0","75029","","null","","","null","32","","","","","","","","","","","","","","","",""
"","ISI","","html-keyboard-response","213","193504","0.0-1.0-291.0","0","0","75029","","null","","","null","32","NaN","","","","","","","","","","","","","","",""
"","S2","","html-keyboard-response","214","193761","0.0-1.0-292.0","0","0","75029","","null","","","null","32","","NaN","","","","","","","","","","","","","",""
"","response","","html-keyboard-response","215","194215","0.0-1.0-293.0-0.0","0","0","75029","","447","","","68","32","","","1","32","training","adjacent","BA","2","1","N.jpg","P.jpg","0","0","1","",""
"","feedback","","html-keyboard-response","216","195223","0.0-1.0-294.0-0.0","0","0","75029","","null","","","null","32","","","","","","","","","","","","","","","",""
"","ITI","","html-keyboard-response","217","196230","0.0-1.0-297.0","0","0","75029","","null","","","null","32","","","","","","","","","","","","","","","NaN",""
"","S1","","html-keyboard-response","218","196489","0.0-1.0-299.0","0","0","75029","","null","","","null","33","","","","","","","","","","","","","","","",""
"","ISI","","html-keyboard-response","219","196645","0.0-1.0-300.0","0","0","75029","","null","","","null","33","NaN","","","","","","","","","","","","","","",""
"","S2","","html-keyboard-response","220","196900","0.0-1.0-301.0","0","0","75029","","null","","","null","33","","NaN","","","","","","","","","","","","","",""
"","response","","html-keyboard-response","221","197515","0.0-1.0-302.0-0.0","0","0","75029","","610","","","75","33","","","1","33","training","adjacent","DC","4","3","L.jpg","O.jpg","1","0","0","",""
"","feedback","","html-keyboard-response","222","198522","0.0-1.0-303.0-0.0","0","0","75029","","null","","","null","33","","","","","","","","","","","","","","","",""
"","time_out","","html-keyboard-response","223","200529","0.0-1.0-305.0-0.0","0","0","75029","","null","","","null","33","","","","","","","","","","","","","","","",""
"","ITI","","html-keyboard-response","224","201535","0.0-1.0-306.0","0","0","75029","","null","","","null","33","","","","","","","","","","","","","","","NaN",""
"","S1","","html-keyboard-response","225","201793","0.0-1.0-308.0","0","0","75029","","null","","","null","34","","","","","","","","","","","","","","","",""
"","ISI","","html-keyboard-response","226","201949","0.0-1.0-309.0","0","0","75029","","null","","","null","34","NaN","","","","","","","","","","","","","","",""
"","S2","","html-keyboard-response","227","202206","0.0-1.0-310.0","0","0","75029","","null","","","null","34","","NaN","","","","","","","","","","","","","",""
"","response","","html-keyboard-response","228","202834","0.0-1.0-311.0-0.0","0","0","75029","","621","","","75","34","","","1","34","training","adjacent","EF","5","6","R.jpg","M.jpg","1","1","1","",""
"","feedback","","html-keyboard-response","229","203841","0.0-1.0-312.0-0.0","0","0","75029","","null","","","null","34","","","","","","","","","","","","","","","",""
"","ITI","","html-keyboard-response","230","204848","0.0-1.0-315.0","0","0","75029","","null","","","null","34","","","","","","","","","","","","","","","NaN",""
"","S1","","html-keyboard-response","231","205105","0.0-1.0-317.0","0","0","75029","","null","","","null","35","","","","","","","","","","","","","","","",""
"","ISI","","html-keyboard-response","232","205262","0.0-1.0-318.0","0","0","75029","","null","","","null","35","NaN","","","","","","","","","","","","","","",""
"","S2","","html-keyboard-response","233","205519","0.0-1.0-319.0","0","0","75029","","null","","","null","35","","NaN","","","","","","","","","","","","","",""
"","response","","html-keyboard-response","234","205803","0.0-1.0-320.0-0.0","0","0","75029","","277","","","68","35","","","1","35","training","adjacent","FG","6","7","M.jpg","Q.jpg","0","1","0","",""
"","feedback","","html-keyboard-response","235","206811","0.0-1.0-321.0-0.0","0","0","75029","","null","","","null","35","","","","","","","","","","","","","","","",""
"","time_out","","html-keyboard-response","236","208817","0.0-1.0-323.0-0.0","0","0","75029","","null","","","null","35","","","","","","","","","","","","","","","",""
"","ITI","","html-keyboard-response","237","209825","0.0-1.0-324.0","0","0","75029","","null","","","null","35","","","","","","","","","","","","","","","NaN",""
"","S1","","html-keyboard-response","238","210083","0.0-1.0-326.0","0","0","75029","","null","","","null","36","","","","","","","","","","","","","","","",""
"","ISI","","html-keyboard-response","239","210239","0.0-1.0-327.0","0","0","75029","","null","","","null","36","NaN","","","","","","","","","","","","","","",""
"","S2","","html-keyboard-response","240","210495","0.0-1.0-328.0","0","0","75029","","null","","","null","36","","NaN","","","","","","","","","","","","","",""
"","response","","html-keyboard-response","241","210894","0.0-1.0-329.0-0.0","0","0","75029","","393","","","68","36","","","1","36","training","adjacent","BA","2","1","N.jpg","P.jpg","0","0","1","",""
"","feedback","","html-keyboard-response","242","211901","0.0-1.0-330.0-0.0","0","0","75029","","null","","","null","36","","","","","","","","","","","","","","","",""
"","ITI","","html-keyboard-response","243","212905","0.0-1.0-333.0","0","0","75029","","null","","","null","36","","","","","","","","","","","","","","","NaN",""
"","S1","","html-keyboard-response","244","213161","0.0-1.0-335.0","0","0","75029","","null","","","null","37","","","","","","","","","","","","","","","",""
"","ISI","","html-keyboard-response","245","213318","0.0-1.0-336.0","0","0","75029","","null","","","null","37","NaN","","","","","","","","","","","","","","",""
"","S2","","html-keyboard-response","246","213575","0.0-1.0-337.0","0","0","75029","","null","","","null","37","","NaN","","","","","","","","","","","","","",""
"","response","","html-keyboard-response","247","214284","0.0-1.0-338.0-0.0","0","0","75029","","702","","","68","37","","","1","37","training","adjacent","DC","4","3","L.jpg","O.jpg","0","0","1","",""
"","feedback","","html-keyboard-response","248","215291","0.0-1.0-339.0-0.0","0","0","75029","","null","","","null","37","","","","","","","","","","","","","","","",""
"","ITI","","html-keyboard-response","249","216299","0.0-1.0-342.0","0","0","75029","","null","","","null","37","","","","","","","","","","","","","","","NaN",""
"","S1","","html-keyboard-response","250","216557","0.0-1.0-344.0","0","0","75029","","null","","","null","38","","","","","","","","","","","","","","","",""
"","ISI","","html-keyboard-response","251","216712","0.0-1.0-345.0","0","0","75029","","null","","","null","38","NaN","","","","","","","","","","","","","","",""
"","S2","","html-keyboard-response","252","216969","0.0-1.0-346.0","0","0","75029","","null","","","null","38","","NaN","","","","","","","","","","","","","",""
"","response","","html-keyboard-response","253","218205","0.0-1.0-347.0-0.0","0","0","75029","","1230","","","75","38","","","1","38","training","adjacent","GF","7","6","Q.jpg","M.jpg","1","0","0","",""
"","feedback","","html-keyboard-response","254","219213","0.0-1.0-348.0-0.0","0","0","75029","","null","","","null","38","","","","","","","","","","","","","","","",""
"","time_out","","html-keyboard-response","255","221220","0.0-1.0-350.0-0.0","0","0","75029","","null","","","null","38","","","","","","","","","","","","","","","",""
"","ITI","","html-keyboard-response","256","222228","0.0-1.0-351.0","0","0","75029","","null","","","null","38","","","","","","","","","","","","","","","NaN",""
"","S1","","html-keyboard-response","257","222485","0.0-1.0-353.0","0","0","75029","","null","","","null","39","","","","","","","","","","","","","","","",""
"","ISI","","html-keyboard-response","258","222642","0.0-1.0-354.0","0","0","75029","","null","","","null","39","NaN","","","","","","","","","","","","","","",""
"","S2","","html-keyboard-response","259","222900","0.0-1.0-355.0","0","0","75029","","null","","","null","39","","NaN","","","","","","","","","","","","","",""
"","response","","html-keyboard-response","260","223407","0.0-1.0-356.0-0.0","0","0","75029","","502","","","75","39","","","1","39","training","adjacent","ED","5","4","R.jpg","L.jpg","1","0","0","",""
"","feedback","","html-keyboard-response","261","224414","0.0-1.0-357.0-0.0","0","0","75029","","null","","","null","39","","","","","","","","","","","","","","","",""
"","time_out","","html-keyboard-response","262","226421","0.0-1.0-359.0-0.0","0","0","75029","","null","","","null","39","","","","","","","","","","","","","","","",""
"","ITI","","html-keyboard-response","263","227443","0.0-1.0-360.0","0","0","75029","","null","","","null","39","","","","","","","","","","","","","","","NaN",""
"","S1","","html-keyboard-response","264","227700","0.0-1.0-362.0","0","0","75029","","null","","","null","40","","","","","","","","","","","","","","","",""
"","ISI","","html-keyboard-response","265","227857","0.0-1.0-363.0","0","0","75029","","null","","","null","40","NaN","","","","","","","","","","","","","","",""
"","S2","","html-keyboard-response","266","228115","0.0-1.0-364.0","0","0","75029","","null","","","null","40","","NaN","","","","","","","","","","","","","",""
"","response","","html-keyboard-response","267","228579","0.0-1.0-365.0-0.0","0","0","75029","","457","","","68","40","","","1","40","training","adjacent","AB","1","2","P.jpg","N.jpg","0","1","0","",""
"","feedback","","html-keyboard-response","268","229599","0.0-1.0-366.0-0.0","0","0","75029","","null","","","null","40","","","","","","","","","","","","","","","",""
"","time_out","","html-keyboard-response","269","231605","0.0-1.0-368.0-0.0","0","0","75029","","null","","","null","40","","","","","","","","","","","","","","","",""
"","ITI","","html-keyboard-response","270","232612","0.0-1.0-369.0","0","0","75029","","null","","","null","40","","","","","","","","","","","","","","","NaN",""
"","S1","","html-keyboard-response","271","232870","0.0-1.0-371.0","0","0","75029","","null","","","null","41","","","","","","","","","","","","","","","",""
"","ISI","","html-keyboard-response","272","233027","0.0-1.0-372.0","0","0","75029","","null","","","null","41","NaN","","","","","","","","","","","","","","",""
"","S2","","html-keyboard-response","273","233283","0.0-1.0-373.0","0","0","75029","","null","","","null","41","","NaN","","","","","","","","","","","","","",""
"","response","","html-keyboard-response","274","234334","0.0-1.0-374.0-0.0","0","0","75029","","1045","","","75","41","","","1","41","training","adjacent","DE","4","5","L.jpg","R.jpg","1","1","1","",""
"","feedback","","html-keyboard-response","275","235342","0.0-1.0-375.0-0.0","0","0","75029","","null","","","null","41","","","","","","","","","","","","","","","",""
"","ITI","","html-keyboard-response","276","236349","0.0-1.0-378.0","0","0","75029","","null","","","null","41","","","","","","","","","","","","","","","NaN",""
"","S1","","html-keyboard-response","277","236606","0.0-1.0-380.0","0","0","75029","","null","","","null","42","","","","","","","","","","","","","","","",""
"","ISI","","html-keyboard-response","278","236762","0.0-1.0-381.0","0","0","75029","","null","","","null","42","NaN","","","","","","","","","","","","","","",""
"","S2","","html-keyboard-response","279","237016","0.0-1.0-382.0","0","0","75029","","null","","","null","42","","NaN","","","","","","","","","","","","","",""
"","response","","html-keyboard-response","280","237298","0.0-1.0-383.0-0.0","0","0","75029","","276","","","68","42","","","1","42","training","adjacent","CB","3","2","O.jpg","N.jpg","0","0","1","",""
"","feedback","","html-keyboard-response","281","238305","0.0-1.0-384.0-0.0","0","0","75029","","null","","","null","42","","","","","","","","","","","","","","","",""
"","ITI","","html-keyboard-response","282","239313","0.0-1.0-387.0","0","0","75029","","null","","","null","42","","","","","","","","","","","","","","","NaN",""
"","S1","","html-keyboard-response","283","239568","0.0-1.0-389.0","0","0","75029","","null","","","null","43","","","","","","","","","","","","","","","",""
"","ISI","","html-keyboard-response","284","239724","0.0-1.0-390.0","0","0","75029","","null","","","null","43","NaN","","","","","","","","","","","","","","",""
"","S2","","html-keyboard-response","285","239979","0.0-1.0-391.0","0","0","75029","","null","","","null","43","","NaN","","","","","","","","","","","","","",""
"","response","","html-keyboard-response","286","240355","0.0-1.0-392.0-0.0","0","0","75029","","371","","","68","43","","","1","43","training","adjacent","BA","2","1","N.jpg","P.jpg","0","0","1","",""
"","feedback","","html-keyboard-response","287","241362","0.0-1.0-393.0-0.0","0","0","75029","","null","","","null","43","","","","","","","","","","","","","","","",""
"","ITI","","html-keyboard-response","288","242370","0.0-1.0-396.0","0","0","75029","","null","","","null","43","","","","","","","","","","","","","","","NaN",""
"","S1","","html-keyboard-response","289","242629","0.0-1.0-398.0","0","0","75029","","null","","","null","44","","","","","","","","","","","","","","","",""
"","ISI","","html-keyboard-response","290","242785","0.0-1.0-399.0","0","0","75029","","null","","","null","44","NaN","","","","","","","","","","","","","","",""
"","S2","","html-keyboard-response","291","243043","0.0-1.0-400.0","0","0","75029","","null","","","null","44","","NaN","","","","","","","","","","","","","",""
"","response","","html-keyboard-response","292","243340","0.0-1.0-401.0-0.0","0","0","75029","","291","","","75","44","","","1","44","training","adjacent","CB","3","2","O.jpg","N.jpg","1","0","0","",""
"","feedback","","html-keyboard-response","293","244349","0.0-1.0-402.0-0.0","0","0","75029","","null","","","null","44","","","","","","","","","","","","","","","",""
"","time_out","","html-keyboard-response","294","246357","0.0-1.0-404.0-0.0","0","0","75029","","null","","","null","44","","","","","","","","","","","","","","","",""
"","ITI","","html-keyboard-response","295","247363","0.0-1.0-405.0","0","0","75029","","null","","","null","44","","","","","","","","","","","","","","","NaN",""
"","S1","","html-keyboard-response","296","247622","0.0-1.0-407.0","0","0","75029","","null","","","null","45","","","","","","","","","","","","","","","",""
"","ISI","","html-keyboard-response","297","247779","0.0-1.0-408.0","0","0","75029","","null","","","null","45","NaN","","","","","","","","","","","","","","",""
"","S2","","html-keyboard-response","298","248037","0.0-1.0-409.0","0","0","75029","","null","","","null","45","","NaN","","","","","","","","","","","","","",""
"","response","","html-keyboard-response","299","248387","0.0-1.0-410.0-0.0","0","0","75029","","345","","","68","45","","","1","45","training","adjacent","FG","6","7","M.jpg","Q.jpg","0","1","0","",""
"","feedback","","html-keyboard-response","300","249394","0.0-1.0-411.0-0.0","0","0","75029","","null","","","null","45","","","","","","","","","","","","","","","",""
"","time_out","","html-keyboard-response","301","251401","0.0-1.0-413.0-0.0","0","0","75029","","null","","","null","45","","","","","","","","","","","","","","","",""
"","ITI","","html-keyboard-response","302","252409","0.0-1.0-414.0","0","0","75029","","null","","","null","45","","","","","","","","","","","","","","","NaN",""
"","S1","","html-keyboard-response","303","252665","0.0-1.0-416.0","0","0","75029","","null","","","null","46","","","","","","","","","","","","","","","",""
"","ISI","","html-keyboard-response","304","252820","0.0-1.0-417.0","0","0","75029","","null","","","null","46","NaN","","","","","","","","","","","","","","",""
"","S2","","html-keyboard-response","305","253076","0.0-1.0-418.0","0","0","75029","","null","","","null","46","","NaN","","","","","","","","","","","","","",""
"","response","","html-keyboard-response","306","253630","0.0-1.0-419.0-0.0","0","0","75029","","548","","","75","46","","","1","46","training","adjacent","EF","5","6","R.jpg","M.jpg","1","1","1","",""
"","feedback","","html-keyboard-response","307","254637","0.0-1.0-420.0-0.0","0","0","75029","","null","","","null","46","","","","","","","","","","","","","","","",""
"","ITI","","html-keyboard-response","308","255644","0.0-1.0-423.0","0","0","75029","","null","","","null","46","","","","","","","","","","","","","","","NaN",""
"","S1","","html-keyboard-response","309","255901","0.0-1.0-425.0","0","0","75029","","null","","","null","47","","","","","","","","","","","","","","","",""
"","ISI","","html-keyboard-response","310","256058","0.0-1.0-426.0","0","0","75029","","null","","","null","47","NaN","","","","","","","","","","","","","","",""
"","S2","","html-keyboard-response","311","256315","0.0-1.0-427.0","0","0","75029","","null","","","null","47","","NaN","","","","","","","","","","","","","",""
"","response","","html-keyboard-response","312","256789","0.0-1.0-428.0-0.0","0","0","75029","","469","","","68","47","","","1","47","training","adjacent","BA","2","1","N.jpg","P.jpg","0","0","1","",""
"","feedback","","html-keyboard-response","313","257795","0.0-1.0-429.0-0.0","0","0","75029","","null","","","null","47","","","","","","","","","","","","","","","",""
"","ITI","","html-keyboard-response","314","258803","0.0-1.0-432.0","0","0","75029","","null","","","null","47","","","","","","","","","","","","","","","NaN",""
"","block_over","","html-keyboard-response","315","285023","0.0-1.0-433.0-0.0","0","0","75029","","26211","","","32","47","","","","","","","","","","","","","","","",""
"","S1","","html-keyboard-response","316","285282","0.0-1.0-434.0","0","0","75029","","null","","","null","48","","","","","","","","","","","","","","","",""
"","ISI","","html-keyboard-response","317","285436","0.0-1.0-435.0","0","0","75029","","null","","","null","48","NaN","","","","","","","","","","","","","","",""
"","S2","","html-keyboard-response","318","285693","0.0-1.0-436.0","0","0","75029","","null","","","null","48","","NaN","","","","","","","","","","","","","",""
"","response","","html-keyboard-response","319","286040","0.0-1.0-437.0-0.0","0","0","75029","","342","","","75","48","","","2","48","training","adjacent","GF","7","6","Q.jpg","M.jpg","1","0","0","",""
"","feedback","","html-keyboard-response","320","287048","0.0-1.0-438.0-0.0","0","0","75029","","null","","","null","48","","","","","","","","","","","","","","","",""
"","time_out","","html-keyboard-response","321","289054","0.0-1.0-440.0-0.0","0","0","75029","","null","","","null","48","","","","","","","","","","","","","","","",""
"","ITI","","html-keyboard-response","322","290060","0.0-1.0-441.0","0","0","75029","","null","","","null","48","","","","","","","","","","","","","","","NaN",""
"","S1","","html-keyboard-response","323","290317","0.0-1.0-443.0","0","0","75029","","null","","","null","49","","","","","","","","","","","","","","","",""
"","ISI","","html-keyboard-response","324","290473","0.0-1.0-444.0","0","0","75029","","null","","","null","49","NaN","","","","","","","","","","","","","","",""
"","S2","","html-keyboard-response","325","290730","0.0-1.0-445.0","0","0","75029","","null","","","null","49","","NaN","","","","","","","","","","","","","",""
"","response","","html-keyboard-response","326","291174","0.0-1.0-446.0-0.0","0","0","75029","","437","","","68","49","","","2","49","training","adjacent","BA","2","1","N.jpg","P.jpg","0","0","1","",""
"","feedback","","html-keyboard-response","327","292180","0.0-1.0-447.0-0.0","0","0","75029","","null","","","null","49","","","","","","","","","","","","","","","",""
"","ITI","","html-keyboard-response","328","293188","0.0-1.0-450.0","0","0","75029","","null","","","null","49","","","","","","","","","","","","","","","NaN",""
"","S1","","html-keyboard-response","329","293446","0.0-1.0-452.0","0","0","75029","","null","","","null","50","","","","","","","","","","","","","","","",""
"","ISI","","html-keyboard-response","330","293603","0.0-1.0-453.0","0","0","75029","","null","","","null","50","NaN","","","","","","","","","","","","","","",""
"","S2","","html-keyboard-response","331","293862","0.0-1.0-454.0","0","0","75029","","null","","","null","50","","NaN","","","","","","","","","","","","","",""
"","response","","html-keyboard-response","332","294676","0.0-1.0-455.0-0.0","0","0","75029","","809","","","68","50","","","2","50","training","adjacent","AB","1","2","P.jpg","N.jpg","0","1","0","",""
"","feedback","","html-keyboard-response","333","295683","0.0-1.0-456.0-0.0","0","0","75029","","null","","","null","50","","","","","","","","","","","","","","","",""
"","time_out","","html-keyboard-response","334","297689","0.0-1.0-458.0-0.0","0","0","75029","","null","","","null","50","","","","","","","","","","","","","","","",""
"","ITI","","html-keyboard-response","335","298694","0.0-1.0-459.0","0","0","75029","","null","","","null","50","","","","","","","","","","","","","","","NaN",""
"","S1","","html-keyboard-response","336","298952","0.0-1.0-461.0","0","0","75029","","null","","","null","51","","","","","","","","","","","","","","","",""
"","ISI","","html-keyboard-response","337","299114","0.0-1.0-462.0","0","0","75029","","null","","","null","51","NaN","","","","","","","","","","","","","","",""
"","S2","","html-keyboard-response","338","299372","0.0-1.0-463.0","0","0","75029","","null","","","null","51","","NaN","","","","","","","","","","","","","",""
"","response","","html-keyboard-response","339","301129","0.0-1.0-464.0-0.0","0","0","75029","","null","","","null","51","","","2","51","training","adjacent","CD","3","4","O.jpg","L.jpg","NaN","1","0","",""
"","too_slow_prompt","","html-keyboard-response","340","302137","0.0-1.0-466.0-0.0","1","0","75029","","null","","","null","","","","","","","","","","","","","","","","",""
"","time_out","","html-keyboard-response","341","304144","0.0-1.0-467.0-0.0","0","0","75029","","null","","","null","51","","","","","","","","","","","","","","","",""
"","ITI","","html-keyboard-response","342","305151","0.0-1.0-468.0","0","0","75029","","null","","","null","51","","","","","","","","","","","","","","","NaN",""
"","S1","","html-keyboard-response","343","305408","0.0-1.0-470.0","0","0","75029","","null","","","null","52","","","","","","","","","","","","","","","",""
"","ISI","","html-keyboard-response","344","305565","0.0-1.0-471.0","0","0","75029","","null","","","null","52","NaN","","","","","","","","","","","","","","",""
"","S2","","html-keyboard-response","345","305822","0.0-1.0-472.0","0","0","75029","","null","","","null","52","","NaN","","","","","","","","","","","","","",""
"","response","","html-keyboard-response","346","306176","0.0-1.0-473.0-0.0","0","0","75029","","347","","","68","52","","","2","52","training","adjacent","BC","2","3","N.jpg","O.jpg","0","1","0","",""
"","feedback","","html-keyboard-response","347","307184","0.0-1.0-474.0-0.0","0","0","75029","","null","","","null","52","","","","","","","","","","","","","","","",""
"","time_out","","html-keyboard-response","348","309192","0.0-1.0-476.0-0.0","0","0","75029","","null","","","null","52","","","","","","","","","","","","","","","",""
"","ITI","","html-keyboard-response","349","310199","0.0-1.0-477.0","0","0","75029","","null","","","null","52","","","","","","","","","","","","","","","NaN",""
"","S1","","html-keyboard-response","350","310456","0.0-1.0-479.0","0","0","75029","","null","","","null","53","","","","","","","","","","","","","","","",""
"","ISI","","html-keyboard-response","351","310613","0.0-1.0-480.0","0","0","75029","","null","","","null","53","NaN","","","","","","","","","","","","","","",""
"","S2","","html-keyboard-response","352","310869","0.0-1.0-481.0","0","0","75029","","null","","","null","53","","NaN","","","","","","","","","","","","","",""
"","response","","html-keyboard-response","353","311502","0.0-1.0-482.0-0.0","0","0","75029","","626","","","75","53","","","2","53","training","adjacent","FE","6","5","M.jpg","R.jpg","1","0","0","",""
"","feedback","","html-keyboard-response","354","312509","0.0-1.0-483.0-0.0","0","0","75029","","null","","","null","53","","","","","","","","","","","","","","","",""
"","time_out","","html-keyboard-response","355","314515","0.0-1.0-485.0-0.0","0","0","75029","","null","","","null","53","","","","","","","","","","","","","","","",""
"","ITI","","html-keyboard-response","356","315522","0.0-1.0-486.0","0","0","75029","","null","","","null","53","","","","","","","","","","","","","","","NaN",""
"","S1","","html-keyboard-response","357","315780","0.0-1.0-488.0","0","0","75029","","null","","","null","54","","","","","","","","","","","","","","","",""
"","ISI","","html-keyboard-response","358","315937","0.0-1.0-489.0","0","0","75029","","null","","","null","54","NaN","","","","","","","","","","","","","","",""
"","S2","","html-keyboard-response","359","316194","0.0-1.0-490.0","0","0","75029","","null","","","null","54","","NaN","","","","","","","","","","","","","",""
"","response","","html-keyboard-response","360","316779","0.0-1.0-491.0-0.0","0","0","75029","","578","","","68","54","","","2","54","training","adjacent","DC","4","3","L.jpg","O.jpg","0","0","1","",""
"","feedback","","html-keyboard-response","361","317787","0.0-1.0-492.0-0.0","0","0","75029","","null","","","null","54","","","","","","","","","","","","","","","",""
"","ITI","","html-keyboard-response","362","318795","0.0-1.0-495.0","0","0","75029","","null","","","null","54","","","","","","","","","","","","","","","NaN",""
"","S1","","html-keyboard-response","363","319053","0.0-1.0-497.0","0","0","75029","","null","","","null","55","","","","","","","","","","","","","","","",""
"","ISI","","html-keyboard-response","364","319210","0.0-1.0-498.0","0","0","75029","","null","","","null","55","NaN","","","","","","","","","","","","","","",""
"","S2","","html-keyboard-response","365","319469","0.0-1.0-499.0","0","0","75029","","null","","","null","55","","NaN","","","","","","","","","","","","","",""
"","response","","html-keyboard-response","366","320687","0.0-1.0-500.0-0.0","0","0","75029","","1212","","","75","55","","","2","55","training","adjacent","GF","7","6","Q.jpg","M.jpg","1","0","0","",""
"","feedback","","html-keyboard-response","367","321695","0.0-1.0-501.0-0.0","0","0","75029","","null","","","null","55","","","","","","","","","","","","","","","",""
"","time_out","","html-keyboard-response","368","323704","0.0-1.0-503.0-0.0","0","0","75029","","null","","","null","55","","","","","","","","","","","","","","","",""
"","ITI","","html-keyboard-response","369","324710","0.0-1.0-504.0","0","0","75029","","null","","","null","55","","","","","","","","","","","","","","","NaN",""
"","S1","","html-keyboard-response","370","324967","0.0-1.0-506.0","0","0","75029","","null","","","null","56","","","","","","","","","","","","","","","",""
"","ISI","","html-keyboard-response","371","325123","0.0-1.0-507.0","0","0","75029","","null","","","null","56","NaN","","","","","","","","","","","","","","",""
"","S2","","html-keyboard-response","372","325380","0.0-1.0-508.0","0","0","75029","","null","","","null","56","","NaN","","","","","","","","","","","","","",""
"","response","","html-keyboard-response","373","325866","0.0-1.0-509.0-0.0","0","0","75029","","481","","","68","56","","","2","56","training","adjacent","DC","4","3","L.jpg","O.jpg","0","0","1","",""
"","feedback","","html-keyboard-response","374","326873","0.0-1.0-510.0-0.0","0","0","75029","","null","","","null","56","","","","","","","","","","","","","","","",""
"","ITI","","html-keyboard-response","375","327881","0.0-1.0-513.0","0","0","75029","","null","","","null","56","","","","","","","","","","","","","","","NaN",""
"","S1","","html-keyboard-response","376","328136","0.0-1.0-515.0","0","0","75029","","null","","","null","57","","","","","","","","","","","","","","","",""
"","ISI","","html-keyboard-response","377","328293","0.0-1.0-516.0","0","0","75029","","null","","","null","57","NaN","","","","","","","","","","","","","","",""
"","S2","","html-keyboard-response","378","328551","0.0-1.0-517.0","0","0","75029","","null","","","null","57","","NaN","","","","","","","","","","","","","",""
"","response","","html-keyboard-response","379","329403","0.0-1.0-518.0-0.0","0","0","75029","","846","","","75","57","","","2","57","training","adjacent","ED","5","4","R.jpg","L.jpg","1","0","0","",""
"","feedback","","html-keyboard-response","380","330413","0.0-1.0-519.0-0.0","0","0","75029","","null","","","null","57","","","","","","","","","","","","","","","",""
"","time_out","","html-keyboard-response","381","332421","0.0-1.0-521.0-0.0","0","0","75029","","null","","","null","57","","","","","","","","","","","","","","","",""
"","ITI","","html-keyboard-response","382","333427","0.0-1.0-522.0","0","0","75029","","null","","","null","57","","","","","","","","","","","","","","","NaN",""
"","S1","","html-keyboard-response","383","333692","0.0-1.0-524.0","0","0","75029","","null","","","null","58","","","","","","","","","","","","","","","",""
"","ISI","","html-keyboard-response","384","333848","0.0-1.0-525.0","0","0","75029","","null","","","null","58","NaN","","","","","","","","","","","","","","",""
"","S2","","html-keyboard-response","385","334102","0.0-1.0-526.0","0","0","75029","","null","","","null","58","","NaN","","","","","","","","","","","","","",""
"","response","","html-keyboard-response","386","334735","0.0-1.0-527.0-0.0","0","0","75029","","630","","","75","58","","","2","58","training","adjacent","CB","3","2","O.jpg","N.jpg","1","0","0","",""
"","feedback","","html-keyboard-response","387","335742","0.0-1.0-528.0-0.0","0","0","75029","","null","","","null","58","","","","","","","","","","","","","","","",""
"","time_out","","html-keyboard-response","388","337750","0.0-1.0-530.0-0.0","0","0","75029","","null","","","null","58","","","","","","","","","","","","","","","",""
"","ITI","","html-keyboard-response","389","338756","0.0-1.0-531.0","0","0","75029","","null","","","null","58","","","","","","","","","","","","","","","NaN",""
"","S1","","html-keyboard-response","390","339015","0.0-1.0-533.0","0","0","75029","","null","","","null","59","","","","","","","","","","","","","","","",""
"","ISI","","html-keyboard-response","391","339169","0.0-1.0-534.0","0","0","75029","","null","","","null","59","NaN","","","","","","","","","","","","","","",""
"","S2","","html-keyboard-response","392","339426","0.0-1.0-535.0","0","0","75029","","null","","","null","59","","NaN","","","","","","","","","","","","","",""
"","response","","html-keyboard-response","393","339994","0.0-1.0-536.0-0.0","0","0","75029","","561","","","75","59","","","2","59","training","adjacent","FG","6","7","M.jpg","Q.jpg","1","1","1","",""
"","feedback","","html-keyboard-response","394","341001","0.0-1.0-537.0-0.0","0","0","75029","","null","","","null","59","","","","","","","","","","","","","","","",""
"","ITI","","html-keyboard-response","395","342007","0.0-1.0-540.0","0","0","75029","","null","","","null","59","","","","","","","","","","","","","","","NaN",""
"","S1","","html-keyboard-response","396","342264","0.0-1.0-542.0","0","0","75029","","null","","","null","60","","","","","","","","","","","","","","","",""
"","ISI","","html-keyboard-response","397","342420","0.0-1.0-543.0","0","0","75029","","null","","","null","60","NaN","","","","","","","","","","","","","","",""
"","S2","","html-keyboard-response","398","342677","0.0-1.0-544.0","0","0","75029","","null","","","null","60","","NaN","","","","","","","","","","","","","",""
"","response","","html-keyboard-response","399","343654","0.0-1.0-545.0-0.0","0","0","75029","","970","","","68","60","","","2","60","training","adjacent","CD","3","4","O.jpg","L.jpg","0","1","0","",""
"","feedback","","html-keyboard-response","400","344661","0.0-1.0-546.0-0.0","0","0","75029","","null","","","null","60","","","","","","","","","","","","","","","",""
"","time_out","","html-keyboard-response","401","346668","0.0-1.0-548.0-0.0","0","0","75029","","null","","","null","60","","","","","","","","","","","","","","","",""
"","ITI","","html-keyboard-response","402","347675","0.0-1.0-549.0","0","0","75029","","null","","","null","60","","","","","","","","","","","","","","","NaN",""
"","S1","","html-keyboard-response","403","347931","0.0-1.0-551.0","0","0","75029","","null","","","null","61","","","","","","","","","","","","","","","",""
"","ISI","","html-keyboard-response","404","348088","0.0-1.0-552.0","0","0","75029","","null","","","null","61","NaN","","","","","","","","","","","","","","",""
"","S2","","html-keyboard-response","405","348346","0.0-1.0-553.0","0","0","75029","","null","","","null","61","","NaN","","","","","","","","","","","","","",""
"","response","","html-keyboard-response","406","348872","0.0-1.0-554.0-0.0","0","0","75029","","521","","","75","61","","","2","61","training","adjacent","EF","5","6","R.jpg","M.jpg","1","1","1","",""
"","feedback","","html-keyboard-response","407","349879","0.0-1.0-555.0-0.0","0","0","75029","","null","","","null","61","","","","","","","","","","","","","","","",""
"","ITI","","html-keyboard-response","408","350886","0.0-1.0-558.0","0","0","75029","","null","","","null","61","","","","","","","","","","","","","","","NaN",""
"","S1","","html-keyboard-response","409","351142","0.0-1.0-560.0","0","0","75029","","null","","","null","62","","","","","","","","","","","","","","","",""
"","ISI","","html-keyboard-response","410","351298","0.0-1.0-561.0","0","0","75029","","null","","","null","62","NaN","","","","","","","","","","","","","","",""
"","S2","","html-keyboard-response","411","351554","0.0-1.0-562.0","0","0","75029","","null","","","null","62","","NaN","","","","","","","","","","","","","",""
"","response","","html-keyboard-response","412","352229","0.0-1.0-563.0-0.0","0","0","75029","","668","","","68","62","","","2","62","training","adjacent","FE","6","5","M.jpg","R.jpg","0","0","1","",""
"","feedback","","html-keyboard-response","413","353236","0.0-1.0-564.0-0.0","0","0","75029","","null","","","null","62","","","","","","","","","","","","","","","",""
"","ITI","","html-keyboard-response","414","354242","0.0-1.0-567.0","0","0","75029","","null","","","null","62","","","","","","","","","","","","","","","NaN",""
"","S1","","html-keyboard-response","415","354499","0.0-1.0-569.0","0","0","75029","","null","","","null","63","","","","","","","","","","","","","","","",""
"","ISI","","html-keyboard-response","416","354655","0.0-1.0-570.0","0","0","75029","","null","","","null","63","NaN","","","","","","","","","","","","","","",""
"","S2","","html-keyboard-response","417","354924","0.0-1.0-571.0","0","0","75029","","null","","","null","63","","NaN","","","","","","","","","","","","","",""
"","response","","html-keyboard-response","418","355305","0.0-1.0-572.0-0.0","0","0","75029","","374","","","75","63","","","2","63","training","adjacent","EF","5","6","R.jpg","M.jpg","1","1","1","",""
"","feedback","","html-keyboard-response","419","356313","0.0-1.0-573.0-0.0","0","0","75029","","null","","","null","63","","","","","","","","","","","","","","","",""
"","ITI","","html-keyboard-response","420","357321","0.0-1.0-576.0","0","0","75029","","null","","","null","63","","","","","","","","","","","","","","","NaN",""
"","S1","","html-keyboard-response","421","357578","0.0-1.0-578.0","0","0","75029","","null","","","null","64","","","","","","","","","","","","","","","",""
"","ISI","","html-keyboard-response","422","357735","0.0-1.0-579.0","0","0","75029","","null","","","null","64","NaN","","","","","","","","","","","","","","",""
"","S2","","html-keyboard-response","423","357992","0.0-1.0-580.0","0","0","75029","","null","","","null","64","","NaN","","","","","","","","","","","","","",""
"","response","","html-keyboard-response","424","358723","0.0-1.0-581.0-0.0","0","0","75029","","725","","","68","64","","","2","64","training","adjacent","EF","5","6","R.jpg","M.jpg","0","1","0","",""
"","feedback","","html-keyboard-response","425","359732","0.0-1.0-582.0-0.0","0","0","75029","","null","","","null","64","","","","","","","","","","","","","","","",""
"","time_out","","html-keyboard-response","426","361739","0.0-1.0-584.0-0.0","0","0","75029","","null","","","null","64","","","","","","","","","","","","","","","",""
"","ITI","","html-keyboard-response","427","362745","0.0-1.0-585.0","0","0","75029","","null","","","null","64","","","","","","","","","","","","","","","NaN",""
"","S1","","html-keyboard-response","428","363003","0.0-1.0-587.0","0","0","75029","","null","","","null","65","","","","","","","","","","","","","","","",""
"","ISI","","html-keyboard-response","429","363158","0.0-1.0-588.0","0","0","75029","","null","","","null","65","NaN","","","","","","","","","","","","","","",""
"","S2","","html-keyboard-response","430","363413","0.0-1.0-589.0","0","0","75029","","null","","","null","65","","NaN","","","","","","","","","","","","","",""
"","response","","html-keyboard-response","431","363942","0.0-1.0-590.0-0.0","0","0","75029","","523","","","75","65","","","2","65","training","adjacent","CB","3","2","O.jpg","N.jpg","1","0","0","",""
"","feedback","","html-keyboard-response","432","364950","0.0-1.0-591.0-0.0","0","0","75029","","null","","","null","65","","","","","","","","","","","","","","","",""
"","time_out","","html-keyboard-response","433","366955","0.0-1.0-593.0-0.0","0","0","75029","","null","","","null","65","","","","","","","","","","","","","","","",""
"","ITI","","html-keyboard-response","434","367963","0.0-1.0-594.0","0","0","75029","","null","","","null","65","","","","","","","","","","","","","","","NaN",""
"","S1","","html-keyboard-response","435","368221","0.0-1.0-596.0","0","0","75029","","null","","","null","66","","","","","","","","","","","","","","","",""
"","ISI","","html-keyboard-response","436","368379","0.0-1.0-597.0","0","0","75029","","null","","","null","66","NaN","","","","","","","","","","","","","","",""
"","S2","","html-keyboard-response","437","368643","0.0-1.0-598.0","0","0","75029","","null","","","null","66","","NaN","","","","","","","","","","","","","",""
"","response","","html-keyboard-response","438","369129","0.0-1.0-599.0-0.0","0","0","75029","","482","","","68","66","","","2","66","training","adjacent","BC","2","3","N.jpg","O.jpg","0","1","0","",""
"","feedback","","html-keyboard-response","439","370147","0.0-1.0-600.0-0.0","0","0","75029","","null","","","null","66","","","","","","","","","","","","","","","",""
"","time_out","","html-keyboard-response","440","372153","0.0-1.0-602.0-0.0","0","0","75029","","null","","","null","66","","","","","","","","","","","","","","","",""
"","ITI","","html-keyboard-response","441","373159","0.0-1.0-603.0","0","0","75029","","null","","","null","66","","","","","","","","","","","","","","","NaN",""
"","S1","","html-keyboard-response","442","373417","0.0-1.0-605.0","0","0","75029","","null","","","null","67","","","","","","","","","","","","","","","",""
"","ISI","","html-keyboard-response","443","373573","0.0-1.0-606.0","0","0","75029","","null","","","null","67","NaN","","","","","","","","","","","","","","",""
"","S2","","html-keyboard-response","444","373830","0.0-1.0-607.0","0","0","75029","","null","","","null","67","","NaN","","","","","","","","","","","","","",""
"","response","","html-keyboard-response","445","374394","0.0-1.0-608.0-0.0","0","0","75029","","557","","","75","67","","","2","67","training","adjacent","GF","7","6","Q.jpg","M.jpg","1","0","0","",""
"","feedback","","html-keyboard-response","446","375402","0.0-1.0-609.0-0.0","0","0","75029","","null","","","null","67","","","","","","","","","","","","","","","",""
"","time_out","","html-keyboard-response","447","377411","0.0-1.0-611.0-0.0","0","0","75029","","null","","","null","67","","","","","","","","","","","","","","","",""
"","ITI","","html-keyboard-response","448","378418","0.0-1.0-612.0","0","0","75029","","null","","","null","67","","","","","","","","","","","","","","","NaN",""
"","S1","","html-keyboard-response","449","378676","0.0-1.0-614.0","0","0","75029","","null","","","null","68","","","","","","","","","","","","","","","",""
"","ISI","","html-keyboard-response","450","378833","0.0-1.0-615.0","0","0","75029","","null","","","null","68","NaN","","","","","","","","","","","","","","",""
"","S2","","html-keyboard-response","451","379090","0.0-1.0-616.0","0","0","75029","","null","","","null","68","","NaN","","","","","","","","","","","","","",""
"","response","","html-keyboard-response","452","379939","0.0-1.0-617.0-0.0","0","0","75029","","843","","","75","68","","","2","68","training","adjacent","GF","7","6","Q.jpg","M.jpg","1","0","0","",""
"","feedback","","html-keyboard-response","453","380948","0.0-1.0-618.0-0.0","0","0","75029","","null","","","null","68","","","","","","","","","","","","","","","",""
"","time_out","","html-keyboard-response","454","382955","0.0-1.0-620.0-0.0","0","0","75029","","null","","","null","68","","","","","","","","","","","","","","","",""
"","ITI","","html-keyboard-response","455","383962","0.0-1.0-621.0","0","0","75029","","null","","","null","68","","","","","","","","","","","","","","","NaN",""
"","S1","","html-keyboard-response","456","384220","0.0-1.0-623.0","0","0","75029","","null","","","null","69","","","","","","","","","","","","","","","",""
"","ISI","","html-keyboard-response","457","384377","0.0-1.0-624.0","0","0","75029","","null","","","null","69","NaN","","","","","","","","","","","","","","",""
"","S2","","html-keyboard-response","458","384637","0.0-1.0-625.0","0","0","75029","","null","","","null","69","","NaN","","","","","","","","","","","","","",""
"","response","","html-keyboard-response","459","384774","0.0-1.0-626.0-0.0","0","0","75029","","132","","","68","69","","","2","69","training","adjacent","CD","3","4","O.jpg","L.jpg","0","1","0","",""
"","feedback","","html-keyboard-response","460","385782","0.0-1.0-627.0-0.0","0","0","75029","","null","","","null","69","","","","","","","","","","","","","","","",""
"","time_out","","html-keyboard-response","461","387790","0.0-1.0-629.0-0.0","0","0","75029","","null","","","null","69","","","","","","","","","","","","","","","",""
"","ITI","","html-keyboard-response","462","388796","0.0-1.0-630.0","0","0","75029","","null","","","null","69","","","","","","","","","","","","","","","NaN",""
"","S1","","html-keyboard-response","463","389065","0.0-1.0-632.0","0","0","75029","","null","","","null","70","","","","","","","","","","","","","","","",""
"","ISI","","html-keyboard-response","464","389219","0.0-1.0-633.0","0","0","75029","","null","","","null","70","NaN","","","","","","","","","","","","","","",""
"","S2","","html-keyboard-response","465","389474","0.0-1.0-634.0","0","0","75029","","null","","","null","70","","NaN","","","","","","","","","","","","","",""
"","response","","html-keyboard-response","466","389774","0.0-1.0-635.0-0.0","0","0","75029","","294","","","75","70","","","2","70","training","adjacent","DE","4","5","L.jpg","R.jpg","1","1","1","",""
"","feedback","","html-keyboard-response","467","390783","0.0-1.0-636.0-0.0","0","0","75029","","null","","","null","70","","","","","","","","","","","","","","","",""
"","ITI","","html-keyboard-response","468","391790","0.0-1.0-639.0","0","0","75029","","null","","","null","70","","","","","","","","","","","","","","","NaN",""
"","S1","","html-keyboard-response","469","392049","0.0-1.0-641.0","0","0","75029","","null","","","null","71","","","","","","","","","","","","","","","",""
"","ISI","","html-keyboard-response","470","392205","0.0-1.0-642.0","0","0","75029","","null","","","null","71","NaN","","","","","","","","","","","","","","",""
"","S2","","html-keyboard-response","471","392464","0.0-1.0-643.0","0","0","75029","","null","","","null","71","","NaN","","","","","","","","","","","","","",""
"","response","","html-keyboard-response","472","393837","0.0-1.0-644.0-0.0","0","0","75029","","1367","","","68","71","","","2","71","training","adjacent","FG","6","7","M.jpg","Q.jpg","0","1","0","",""
"","feedback","","html-keyboard-response","473","394845","0.0-1.0-645.0-0.0","0","0","75029","","null","","","null","71","","","","","","","","","","","","","","","",""
"","time_out","","html-keyboard-response","474","396853","0.0-1.0-647.0-0.0","0","0","75029","","null","","","null","71","","","","","","","","","","","","","","","",""
"","ITI","","html-keyboard-response","475","397861","0.0-1.0-648.0","0","0","75029","","null","","","null","71","","","","","","","","","","","","","","","NaN",""
"","S1","","html-keyboard-response","476","398120","0.0-1.0-650.0","0","0","75029","","null","","","null","72","","","","","","","","","","","","","","","",""
"","ISI","","html-keyboard-response","477","398276","0.0-1.0-651.0","0","0","75029","","null","","","null","72","NaN","","","","","","","","","","","","","","",""
"","S2","","html-keyboard-response","478","398533","0.0-1.0-652.0","0","0","75029","","null","","","null","72","","NaN","","","","","","","","","","","","","",""
"","response","","html-keyboard-response","479","398703","0.0-1.0-653.0-0.0","0","0","75029","","165","","","68","72","","","2","72","training","adjacent","FE","6","5","M.jpg","R.jpg","0","0","1","",""
"","feedback","","html-keyboard-response","480","399712","0.0-1.0-654.0-0.0","0","0","75029","","null","","","null","72","","","","","","","","","","","","","","","",""
"","ITI","","html-keyboard-response","481","400721","0.0-1.0-657.0","0","0","75029","","null","","","null","72","","","","","","","","","","","","","","","NaN",""
"","S1","","html-keyboard-response","482","400978","0.0-1.0-659.0","0","0","75029","","null","","","null","73","","","","","","","","","","","","","","","",""
"","ISI","","html-keyboard-response","483","401135","0.0-1.0-660.0","0","0","75029","","null","","","null","73","NaN","","","","","","","","","","","","","","",""
"","S2","","html-keyboard-response","484","401391","0.0-1.0-661.0","0","0","75029","","null","","","null","73","","NaN","","","","","","","","","","","","","",""
"","response","","html-keyboard-response","485","401861","0.0-1.0-662.0-0.0","0","0","75029","","463","","","68","73","","","2","73","training","adjacent","DC","4","3","L.jpg","O.jpg","0","0","1","",""
"","feedback","","html-keyboard-response","486","402869","0.0-1.0-663.0-0.0","0","0","75029","","null","","","null","73","","","","","","","","","","","","","","","",""
"","ITI","","html-keyboard-response","487","403877","0.0-1.0-666.0","0","0","75029","","null","","","null","73","","","","","","","","","","","","","","","NaN",""
"","S1","","html-keyboard-response","488","404135","0.0-1.0-668.0","0","0","75029","","null","","","null","74","","","","","","","","","","","","","","","",""
"","ISI","","html-keyboard-response","489","404292","0.0-1.0-669.0","0","0","75029","","null","","","null","74","NaN","","","","","","","","","","","","","","",""
"","S2","","html-keyboard-response","490","404549","0.0-1.0-670.0","0","0","75029","","null","","","null","74","","NaN","","","","","","","","","","","","","",""
"","response","","html-keyboard-response","491","405053","0.0-1.0-671.0-0.0","0","0","75029","","499","","","75","74","","","2","74","training","adjacent","BA","2","1","N.jpg","P.jpg","1","0","0","",""
"","feedback","","html-keyboard-response","492","406060","0.0-1.0-672.0-0.0","0","0","75029","","null","","","null","74","","","","","","","","","","","","","","","",""
"","time_out","","html-keyboard-response","493","408067","0.0-1.0-674.0-0.0","0","0","75029","","null","","","null","74","","","","","","","","","","","","","","","",""
"","ITI","","html-keyboard-response","494","409073","0.0-1.0-675.0","0","0","75029","","null","","","null","74","","","","","","","","","","","","","","","NaN",""
"","S1","","html-keyboard-response","495","409329","0.0-1.0-677.0","0","0","75029","","null","","","null","75","","","","","","","","","","","","","","","",""
"","ISI","","html-keyboard-response","496","409486","0.0-1.0-678.0","0","0","75029","","null","","","null","75","NaN","","","","","","","","","","","","","","",""
"","S2","","html-keyboard-response","497","409743","0.0-1.0-679.0","0","0","75029","","null","","","null","75","","NaN","","","","","","","","","","","","","",""
"","response","","html-keyboard-response","498","409868","0.0-1.0-680.0-0.0","0","0","75029","","121","","","68","75","","","2","75","training","adjacent","BA","2","1","N.jpg","P.jpg","0","0","1","",""
"","feedback","","html-keyboard-response","499","410875","0.0-1.0-681.0-0.0","0","0","75029","","null","","","null","75","","","","","","","","","","","","","","","",""
"","ITI","","html-keyboard-response","500","411883","0.0-1.0-684.0","0","0","75029","","null","","","null","75","","","","","","","","","","","","","","","NaN",""
"","S1","","html-keyboard-response","501","412141","0.0-1.0-686.0","0","0","75029","","null","","","null","76","","","","","","","","","","","","","","","",""
"","ISI","","html-keyboard-response","502","412298","0.0-1.0-687.0","0","0","75029","","null","","","null","76","NaN","","","","","","","","","","","","","","",""
"","S2","","html-keyboard-response","503","412555","0.0-1.0-688.0","0","0","75029","","null","","","null","76","","NaN","","","","","","","","","","","","","",""
"","response","","html-keyboard-response","504","412954","0.0-1.0-689.0-0.0","0","0","75029","","392","","","68","76","","","2","76","training","adjacent","DE","4","5","L.jpg","R.jpg","0","1","0","",""
"","feedback","","html-keyboard-response","505","413962","0.0-1.0-690.0-0.0","0","0","75029","","null","","","null","76","","","","","","","","","","","","","","","",""
"","time_out","","html-keyboard-response","506","415970","0.0-1.0-692.0-0.0","0","0","75029","","null","","","null","76","","","","","","","","","","","","","","","",""
"","ITI","","html-keyboard-response","507","416978","0.0-1.0-693.0","0","0","75029","","null","","","null","76","","","","","","","","","","","","","","","NaN",""
"","S1","","html-keyboard-response","508","417236","0.0-1.0-695.0","0","0","75029","","null","","","null","77","","","","","","","","","","","","","","","",""
"","ISI","","html-keyboard-response","509","417393","0.0-1.0-696.0","0","0","75029","","null","","","null","77","NaN","","","","","","","","","","","","","","",""
"","S2","","html-keyboard-response","510","417651","0.0-1.0-697.0","0","0","75029","","null","","","null","77","","NaN","","","","","","","","","","","","","",""
"","response","","html-keyboard-response","511","417828","0.0-1.0-698.0-0.0","0","0","75029","","170","","","75","77","","","2","77","training","adjacent","DC","4","3","L.jpg","O.jpg","1","0","0","",""
"","feedback","","html-keyboard-response","512","418837","0.0-1.0-699.0-0.0","0","0","75029","","null","","","null","77","","","","","","","","","","","","","","","",""
"","time_out","","html-keyboard-response","513","420845","0.0-1.0-701.0-0.0","0","0","75029","","null","","","null","77","","","","","","","","","","","","","","","",""
"","ITI","","html-keyboard-response","514","421852","0.0-1.0-702.0","0","0","75029","","null","","","null","77","","","","","","","","","","","","","","","NaN",""
"","S1","","html-keyboard-response","515","422109","0.0-1.0-704.0","0","0","75029","","null","","","null","78","","","","","","","","","","","","","","","",""
"","ISI","","html-keyboard-response","516","422267","0.0-1.0-705.0","0","0","75029","","null","","","null","78","NaN","","","","","","","","","","","","","","",""
"","S2","","html-keyboard-response","517","422522","0.0-1.0-706.0","0","0","75029","","null","","","null","78","","NaN","","","","","","","","","","","","","",""
"","response","","html-keyboard-response","518","422823","0.0-1.0-707.0-0.0","0","0","75029","","296","","","68","78","","","2","78","training","adjacent","EF","5","6","R.jpg","M.jpg","0","1","0","",""
"","feedback","","html-keyboard-response","519","423831","0.0-1.0-708.0-0.0","0","0","75029","","null","","","null","78","","","","","","","","","","","","","","","",""
"","time_out","","html-keyboard-response","520","425839","0.0-1.0-710.0-0.0","0","0","75029","","null","","","null","78","","","","","","","","","","","","","","","",""
"","ITI","","html-keyboard-response","521","426846","0.0-1.0-711.0","0","0","75029","","null","","","null","78","","","","","","","","","","","","","","","NaN",""
"","S1","","html-keyboard-response","522","427103","0.0-1.0-713.0","0","0","75029","","null","","","null","79","","","","","","","","","","","","","","","",""
"","ISI","","html-keyboard-response","523","427260","0.0-1.0-714.0","0","0","75029","","null","","","null","79","NaN","","","","","","","","","","","","","","",""
"","S2","","html-keyboard-response","524","427517","0.0-1.0-715.0","0","0","75029","","null","","","null","79","","NaN","","","","","","","","","","","","","",""
"","response","","html-keyboard-response","525","427589","0.0-1.0-716.0-0.0","0","0","75029","","65","","","68","79","","","2","79","training","adjacent","ED","5","4","R.jpg","L.jpg","0","0","1","",""
"","feedback","","html-keyboard-response","526","428597","0.0-1.0-717.0-0.0","0","0","75029","","null","","","null","79","","","","","","","","","","","","","","","",""
"","ITI","","html-keyboard-response","527","429606","0.0-1.0-720.0","0","0","75029","","null","","","null","79","","","","","","","","","","","","","","","NaN",""
"","S1","","html-keyboard-response","528","429864","0.0-1.0-722.0","0","0","75029","","null","","","null","80","","","","","","","","","","","","","","","",""
"","ISI","","html-keyboard-response","529","430022","0.0-1.0-723.0","0","0","75029","","null","","","null","80","NaN","","","","","","","","","","","","","","",""
"","S2","","html-keyboard-response","530","430280","0.0-1.0-724.0","0","0","75029","","null","","","null","80","","NaN","","","","","","","","","","","","","",""
"","response","","html-keyboard-response","531","430620","0.0-1.0-725.0-0.0","0","0","75029","","334","","","75","80","","","2","80","training","adjacent","CB","3","2","O.jpg","N.jpg","1","0","0","",""
"","feedback","","html-keyboard-response","532","431629","0.0-1.0-726.0-0.0","0","0","75029","","null","","","null","80","","","","","","","","","","","","","","","",""
"","time_out","","html-keyboard-response","533","433637","0.0-1.0-728.0-0.0","0","0","75029","","null","","","null","80","","","","","","","","","","","","","","","",""
"","ITI","","html-keyboard-response","534","434644","0.0-1.0-729.0","0","0","75029","","null","","","null","80","","","","","","","","","","","","","","","NaN",""
"","S1","","html-keyboard-response","535","434901","0.0-1.0-731.0","0","0","75029","","null","","","null","81","","","","","","","","","","","","","","","",""
"","ISI","","html-keyboard-response","536","435058","0.0-1.0-732.0","0","0","75029","","null","","","null","81","NaN","","","","","","","","","","","","","","",""
"","S2","","html-keyboard-response","537","435315","0.0-1.0-733.0","0","0","75029","","null","","","null","81","","NaN","","","","","","","","","","","","","",""
"","response","","html-keyboard-response","538","435518","0.0-1.0-734.0-0.0","0","0","75029","","196","","","68","81","","","2","81","training","adjacent","BA","2","1","N.jpg","P.jpg","0","0","1","",""
"","feedback","","html-keyboard-response","539","436526","0.0-1.0-735.0-0.0","0","0","75029","","null","","","null","81","","","","","","","","","","","","","","","",""
"","ITI","","html-keyboard-response","540","437542","0.0-1.0-738.0","0","0","75029","","null","","","null","81","","","","","","","","","","","","","","","NaN",""
"","S1","","html-keyboard-response","541","437799","0.0-1.0-740.0","0","0","75029","","null","","","null","82","","","","","","","","","","","","","","","",""
"","ISI","","html-keyboard-response","542","437956","0.0-1.0-741.0","0","0","75029","","null","","","null","82","NaN","","","","","","","","","","","","","","",""
"","S2","","html-keyboard-response","543","438226","0.0-1.0-742.0","0","0","75029","","null","","","null","82","","NaN","","","","","","","","","","","","","",""
"","response","","html-keyboard-response","544","438399","0.0-1.0-743.0-0.0","0","0","75029","","168","","","68","82","","","2","82","training","adjacent","DE","4","5","L.jpg","R.jpg","0","1","0","",""
"","feedback","","html-keyboard-response","545","439413","0.0-1.0-744.0-0.0","0","0","75029","","null","","","null","82","","","","","","","","","","","","","","","",""
"","time_out","","html-keyboard-response","546","441421","0.0-1.0-746.0-0.0","0","0","75029","","null","","","null","82","","","","","","","","","","","","","","","",""
"","ITI","","html-keyboard-response","547","442428","0.0-1.0-747.0","0","0","75029","","null","","","null","82","","","","","","","","","","","","","","","NaN",""
"","S1","","html-keyboard-response","548","442687","0.0-1.0-749.0","0","0","75029","","null","","","null","83","","","","","","","","","","","","","","","",""
"","ISI","","html-keyboard-response","549","442843","0.0-1.0-750.0","0","0","75029","","null","","","null","83","NaN","","","","","","","","","","","","","","",""
"","S2","","html-keyboard-response","550","443100","0.0-1.0-751.0","0","0","75029","","null","","","null","83","","NaN","","","","","","","","","","","","","",""
"","response","","html-keyboard-response","551","443289","0.0-1.0-752.0-0.0","0","0","75029","","183","","","68","83","","","2","83","training","adjacent","AB","1","2","P.jpg","N.jpg","0","1","0","",""
"","feedback","","html-keyboard-response","552","444297","0.0-1.0-753.0-0.0","0","0","75029","","null","","","null","83","","","","","","","","","","","","","","","",""
"","time_out","","html-keyboard-response","553","446305","0.0-1.0-755.0-0.0","0","0","75029","","null","","","null","83","","","","","","","","","","","","","","","",""
"","ITI","","html-keyboard-response","554","447311","0.0-1.0-756.0","0","0","75029","","null","","","null","83","","","","","","","","","","","","","","","NaN",""
"","S1","","html-keyboard-response","555","447567","0.0-1.0-758.0","0","0","75029","","null","","","null","84","","","","","","","","","","","","","","","",""
"","ISI","","html-keyboard-response","556","447723","0.0-1.0-759.0","0","0","75029","","null","","","null","84","NaN","","","","","","","","","","","","","","",""
"","S2","","html-keyboard-response","557","447981","0.0-1.0-760.0","0","0","75029","","null","","","null","84","","NaN","","","","","","","","","","","","","",""
"","response","","html-keyboard-response","558","448364","0.0-1.0-761.0-0.0","0","0","75029","","376","","","75","84","","","2","84","training","adjacent","AB","1","2","P.jpg","N.jpg","1","1","1","",""
"","feedback","","html-keyboard-response","559","449373","0.0-1.0-762.0-0.0","0","0","75029","","null","","","null","84","","","","","","","","","","","","","","","",""
"","ITI","","html-keyboard-response","560","450380","0.0-1.0-765.0","0","0","75029","","null","","","null","84","","","","","","","","","","","","","","","NaN",""
"","S1","","html-keyboard-response","561","450639","0.0-1.0-767.0","0","0","75029","","null","","","null","85","","","","","","","","","","","","","","","",""
"","ISI","","html-keyboard-response","562","450795","0.0-1.0-768.0","0","0","75029","","null","","","null","85","NaN","","","","","","","","","","","","","","",""
"","S2","","html-keyboard-response","563","451053","0.0-1.0-769.0","0","0","75029","","null","","","null","85","","NaN","","","","","","","","","","","","","",""
"","response","","html-keyboard-response","564","451368","0.0-1.0-770.0-0.0","0","0","75029","","309","","","75","85","","","2","85","training","adjacent","BC","2","3","N.jpg","O.jpg","1","1","1","",""
"","feedback","","html-keyboard-response","565","452377","0.0-1.0-771.0-0.0","0","0","75029","","null","","","null","85","","","","","","","","","","","","","","","",""
"","ITI","","html-keyboard-response","566","453385","0.0-1.0-774.0","0","0","75029","","null","","","null","85","","","","","","","","","","","","","","","NaN",""
"","S1","","html-keyboard-response","567","453643","0.0-1.0-776.0","0","0","75029","","null","","","null","86","","","","","","","","","","","","","","","",""
"","ISI","","html-keyboard-response","568","453801","0.0-1.0-777.0","0","0","75029","","null","","","null","86","NaN","","","","","","","","","","","","","","",""
"","S2","","html-keyboard-response","569","454057","0.0-1.0-778.0","0","0","75029","","null","","","null","86","","NaN","","","","","","","","","","","","","",""
"","response","","html-keyboard-response","570","454461","0.0-1.0-779.0-0.0","0","0","75029","","398","","","75","86","","","2","86","training","adjacent","ED","5","4","R.jpg","L.jpg","1","0","0","",""
"","feedback","","html-keyboard-response","571","455470","0.0-1.0-780.0-0.0","0","0","75029","","null","","","null","86","","","","","","","","","","","","","","","",""
"","time_out","","html-keyboard-response","572","457477","0.0-1.0-782.0-0.0","0","0","75029","","null","","","null","86","","","","","","","","","","","","","","","",""
"","ITI","","html-keyboard-response","573","458484","0.0-1.0-783.0","0","0","75029","","null","","","null","86","","","","","","","","","","","","","","","NaN",""
"","S1","","html-keyboard-response","574","458741","0.0-1.0-785.0","0","0","75029","","null","","","null","87","","","","","","","","","","","","","","","",""
"","ISI","","html-keyboard-response","575","458897","0.0-1.0-786.0","0","0","75029","","null","","","null","87","NaN","","","","","","","","","","","","","","",""
"","S2","","html-keyboard-response","576","459124","0.0-1.0-787.0","0","0","75029","","220","","","68","87","","d","2","87","training","adjacent","FG","6","7","M.jpg","Q.jpg","0","1","0","",""
"","feedback","","html-keyboard-response","577","460134","0.0-1.0-789.0-0.0","0","0","75029","","null","","","null","87","","","","","","","","","","","","","","","",""
"","time_out","","html-keyboard-response","578","462142","0.0-1.0-791.0-0.0","0","0","75029","","null","","","null","87","","","","","","","","","","","","","","","",""
"","ITI","","html-keyboard-response","579","463148","0.0-1.0-792.0","0","0","75029","","null","","","null","87","","","","","","","","","","","","","","","NaN",""
"","S1","","html-keyboard-response","580","463406","0.0-1.0-794.0","0","0","75029","","null","","","null","88","","","","","","","","","","","","","","","",""
"","ISI","","html-keyboard-response","581","463563","0.0-1.0-795.0","0","0","75029","","null","","","null","88","NaN","","","","","","","","","","","","","","",""
"","S2","","html-keyboard-response","582","463820","0.0-1.0-796.0","0","0","75029","","null","","","null","88","","NaN","","","","","","","","","","","","","",""
