"success","ttype","start_time","trial_type","trial_index","time_elapsed","internal_node_id","warning","missed_checkup","PID","view_history","rt","responses","repeat_instructions","key_press","index","keypress_isi","keypress_S2","block","trial_num","phase","group_type","pair_type","S1_stim","S2_stim","S1_img","S2_img","S1_chosen","S1_higher","accuracy","keypress_iti","total_bonus_tally"
"true","full_screen","d04062023hr2320","fullscreen","0","7640","0.0-0.0","0","0","43587","","","","","","","","","","","","","","","","","","","","","",""
"","instructions","","instructions","1","59103","0.0-1.0-0.0-0.0","0","0","43587","[{""page_index"":0,""viewing_time"":16895},{""page_index"":1,""viewing_time"":24132},{""page_index"":2,""viewing_time"":8355},{""page_index"":3,""viewing_time"":2077}]","51460","","","","","","","","","","","","","","","","","","","",""
"","comprehension_check","","survey-multi-choice","2","85158","0.0-1.0-0.0-1.0","0","0","43587","","26049","{""Q0"":""True"",""Q1"":""K"",""Q2"":""Once the second image appears and while the screen 'MAKE A CHOICE' is shown"",""Q3"":""Green mark"",""Q4"":""either D or K""}","0","","","","","","","","","","","","","","","","","",""
"","start_exp","","html-keyboard-response","3","88610","0.0-1.0-1.0","0","0","43587","","3449","","","32","","","","","","","","","","","","","","","","",""
"","S1","","html-keyboard-response","4","88764","0.0-1.0-2.0","0","0","43587","","null","","","null","0","","","","","","","","","","","","","","","",""
"","ISI","","html-keyboard-response","5","90767","0.0-1.0-3.0","0","0","43587","","null","","","null","0","NaN","","","","","","","","","","","","","","",""
"","S2","","html-keyboard-response","6","90920","0.0-1.0-4.0","0","0","43587","","null","","","null","0","","NaN","","","","","","","","","","","","","",""
"","response","","html-keyboard-response","7","91559","0.0-1.0-5.0-0.0","0","0","43587","","636","","","75","0","","","1","0","training","adjacent","EF","5","6","N.jpg","O.jpg","1","1","1","",""
"","feedback","","html-keyboard-response","8","92564","0.0-1.0-6.0-0.0","0","0","43587","","null","","","null","0","","","","","","","","","","","","","","","",""
"","ITI","","html-keyboard-response","9","93568","0.0-1.0-9.0","0","0","43587","","null","","","null","0","","","","","","","","","","","","","","","NaN",""
"","S1","","html-keyboard-response","10","93722","0.0-1.0-11.0","0","0","43587","","null","","","null","1","","","","","","","","","","","","","","","",""
"","ISI","","html-keyboard-response","11","95727","0.0-1.0-12.0","0","0","43587","","null","","","null","1","NaN","","","","","","","","","","","","","","",""
"","S2","","html-keyboard-response","12","95880","0.0-1.0-13.0","0","0","43587","","null","","","null","1","","NaN","","","","","","","","","","","","","",""
"","response","","html-keyboard-response","13","96418","0.0-1.0-14.0-0.0","0","0","43587","","535","","","68","1","","","1","1","training","adjacent","FE","6","5","O.jpg","N.jpg","0","0","1","",""
"","feedback","","html-keyboard-response","14","97422","0.0-1.0-15.0-0.0","0","0","43587","","null","","","null","1","","","","","","","","","","","","","","","",""
"","ITI","","html-keyboard-response","15","98426","0.0-1.0-18.0","0","0","43587","","null","","","null","1","","","","","","","","","","","","","","","NaN",""
"","S1","","html-keyboard-response","16","98579","0.0-1.0-20.0","0","0","43587","","null","","","null","2","","","","","","","","","","","","","","","",""
"","ISI","","html-keyboard-response","17","100582","0.0-1.0-21.0","0","0","43587","","null","","","null","2","NaN","","","","","","","","","","","","","","",""
"","S2","","html-keyboard-response","18","100735","0.0-1.0-22.0","0","0","43587","","null","","","null","2","","NaN","","","","","","","","","","","","","",""
"","response","","html-keyboard-response","19","100966","0.0-1.0-23.0-0.0","0","0","43587","","229","","","75","2","","","1","2","training","adjacent","EF","5","6","N.jpg","O.jpg","1","1","1","",""
"","feedback","","html-keyboard-response","20","101970","0.0-1.0-24.0-0.0","0","0","43587","","null","","","null","2","","","","","","","","","","","","","","","",""
"","ITI","","html-keyboard-response","21","102973","0.0-1.0-27.0","0","0","43587","","null","","","null","2","","","","","","","","","","","","","","","NaN",""
"","S1","","html-keyboard-response","22","103126","0.0-1.0-29.0","0","0","43587","","null","","","null","3","","","","","","","","","","","","","","","",""
"","ISI","","html-keyboard-response","23","105130","0.0-1.0-30.0","0","0","43587","","null","","","null","3","NaN","","","","","","","","","","","","","","",""
"","S2","","html-keyboard-response","24","105284","0.0-1.0-31.0","0","0","43587","","null","","","null","3","","NaN","","","","","","","","","","","","","",""
"","response","","html-keyboard-response","25","105756","0.0-1.0-32.0-0.0","0","0","43587","","469","","","75","3","","","1","3","training","adjacent","DC","4","3","Q.jpg","M.jpg","1","0","0","",""
"","feedback","","html-keyboard-response","26","106761","0.0-1.0-33.0-0.0","0","0","43587","","null","","","null","3","","","","","","","","","","","","","","","",""
"","time_out","","html-keyboard-response","27","108765","0.0-1.0-35.0-0.0","0","0","43587","","null","","","null","3","","","","","","","","","","","","","","","",""
"","ITI","","html-keyboard-response","28","109769","0.0-1.0-36.0","0","0","43587","","null","","","null","3","","","","","","","","","","","","","","","NaN",""
"","S1","","html-keyboard-response","29","109923","0.0-1.0-38.0","0","0","43587","","null","","","null","4","","","","","","","","","","","","","","","",""
"","ISI","","html-keyboard-response","30","111924","0.0-1.0-39.0","0","0","43587","","null","","","null","4","NaN","","","","","","","","","","","","","","",""
"","S2","","html-keyboard-response","31","112078","0.0-1.0-40.0","0","0","43587","","null","","","null","4","","NaN","","","","","","","","","","","","","",""
"","response","","html-keyboard-response","32","112539","0.0-1.0-41.0-0.0","0","0","43587","","458","","","75","4","","","1","4","training","adjacent","GF","7","6","R.jpg","O.jpg","1","0","0","",""
"","feedback","","html-keyboard-response","33","113542","0.0-1.0-42.0-0.0","0","0","43587","","null","","","null","4","","","","","","","","","","","","","","","",""
"","time_out","","html-keyboard-response","34","115545","0.0-1.0-44.0-0.0","0","0","43587","","null","","","null","4","","","","","","","","","","","","","","","",""
"","ITI","","html-keyboard-response","35","116547","0.0-1.0-45.0","0","0","43587","","null","","","null","4","","","","","","","","","","","","","","","NaN",""
"","S1","","html-keyboard-response","36","116701","0.0-1.0-47.0","0","0","43587","","null","","","null","5","","","","","","","","","","","","","","","",""
"","ISI","","html-keyboard-response","37","118704","0.0-1.0-48.0","0","0","43587","","null","","","null","5","NaN","","","","","","","","","","","","","","",""
"","S2","","html-keyboard-response","38","118858","0.0-1.0-49.0","0","0","43587","","null","","","null","5","","NaN","","","","","","","","","","","","","",""
"","response","","html-keyboard-response","39","119271","0.0-1.0-50.0-0.0","0","0","43587","","410","","","75","5","","","1","5","training","adjacent","CB","3","2","M.jpg","P.jpg","1","0","0","",""
"","feedback","","html-keyboard-response","40","120276","0.0-1.0-51.0-0.0","0","0","43587","","null","","","null","5","","","","","","","","","","","","","","","",""
"","time_out","","html-keyboard-response","41","122280","0.0-1.0-53.0-0.0","0","0","43587","","null","","","null","5","","","","","","","","","","","","","","","",""
"","ITI","","html-keyboard-response","42","123283","0.0-1.0-54.0","0","0","43587","","null","","","null","5","","","","","","","","","","","","","","","NaN",""
"","S1","","html-keyboard-response","43","123438","0.0-1.0-56.0","0","0","43587","","null","","","null","6","","","","","","","","","","","","","","","",""
"","ISI","","html-keyboard-response","44","125442","0.0-1.0-57.0","0","0","43587","","null","","","null","6","NaN","","","","","","","","","","","","","","",""
"","S2","","html-keyboard-response","45","125597","0.0-1.0-58.0","0","0","43587","","null","","","null","6","","NaN","","","","","","","","","","","","","",""
"","response","","html-keyboard-response","46","125969","0.0-1.0-59.0-0.0","0","0","43587","","371","","","75","6","","","1","6","training","adjacent","DC","4","3","Q.jpg","M.jpg","1","0","0","",""
"","feedback","","html-keyboard-response","47","126972","0.0-1.0-60.0-0.0","0","0","43587","","null","","","null","6","","","","","","","","","","","","","","","",""
"","time_out","","html-keyboard-response","48","128974","0.0-1.0-62.0-0.0","0","0","43587","","null","","","null","6","","","","","","","","","","","","","","","",""
"","ITI","","html-keyboard-response","49","129976","0.0-1.0-63.0","0","0","43587","","null","","","null","6","","","","","","","","","","","","","","","NaN",""
"","S1","","html-keyboard-response","50","130130","0.0-1.0-65.0","0","0","43587","","null","","","null","7","","","","","","","","","","","","","","","",""
"","ISI","","html-keyboard-response","51","132134","0.0-1.0-66.0","0","0","43587","","null","","","null","7","NaN","","","","","","","","","","","","","","",""
"","S2","","html-keyboard-response","52","132288","0.0-1.0-67.0","0","0","43587","","null","","","null","7","","NaN","","","","","","","","","","","","","",""
"","response","","html-keyboard-response","53","132598","0.0-1.0-68.0-0.0","0","0","43587","","307","","","68","7","","","1","7","training","adjacent","ED","5","4","N.jpg","Q.jpg","0","0","1","",""
"","feedback","","html-keyboard-response","54","133602","0.0-1.0-69.0-0.0","0","0","43587","","null","","","null","7","","","","","","","","","","","","","","","",""
"","ITI","","html-keyboard-response","55","134605","0.0-1.0-72.0","0","0","43587","","null","","","null","7","","","","","","","","","","","","","","","NaN",""
"","S1","","html-keyboard-response","56","134759","0.0-1.0-74.0","0","0","43587","","null","","","null","8","","","","","","","","","","","","","","","",""
"","ISI","","html-keyboard-response","57","136763","0.0-1.0-75.0","0","0","43587","","null","","","null","8","NaN","","","","","","","","","","","","","","",""
"","S2","","html-keyboard-response","58","136918","0.0-1.0-76.0","0","0","43587","","null","","","null","8","","NaN","","","","","","","","","","","","","",""
"","response","","html-keyboard-response","59","137423","0.0-1.0-77.0-0.0","0","0","43587","","502","","","68","8","","","1","8","training","adjacent","CD","3","4","M.jpg","Q.jpg","0","1","0","",""
"","feedback","","html-keyboard-response","60","138427","0.0-1.0-78.0-0.0","0","0","43587","","null","","","null","8","","","","","","","","","","","","","","","",""
"","time_out","","html-keyboard-response","61","140431","0.0-1.0-80.0-0.0","0","0","43587","","null","","","null","8","","","","","","","","","","","","","","","",""
"","ITI","","html-keyboard-response","62","141435","0.0-1.0-81.0","0","0","43587","","null","","","null","8","","","","","","","","","","","","","","","NaN",""
"","S1","","html-keyboard-response","63","141588","0.0-1.0-83.0","0","0","43587","","null","","","null","9","","","","","","","","","","","","","","","",""
"","ISI","","html-keyboard-response","64","143592","0.0-1.0-84.0","0","0","43587","","null","","","null","9","NaN","","","","","","","","","","","","","","",""
"","S2","","html-keyboard-response","65","143747","0.0-1.0-85.0","0","0","43587","","null","","","null","9","","NaN","","","","","","","","","","","","","",""
"","response","","html-keyboard-response","66","144050","0.0-1.0-86.0-0.0","0","0","43587","","300","","","75","9","","","1","9","training","adjacent","AB","1","2","L.jpg","P.jpg","1","1","1","",""
"","feedback","","html-keyboard-response","67","145055","0.0-1.0-87.0-0.0","0","0","43587","","null","","","null","9","","","","","","","","","","","","","","","",""
"","ITI","","html-keyboard-response","68","146060","0.0-1.0-90.0","0","0","43587","","null","","","null","9","","","","","","","","","","","","","","","NaN",""
"","S1","","html-keyboard-response","69","146213","0.0-1.0-92.0","0","0","43587","","null","","","null","10","","","","","","","","","","","","","","","",""
"","ISI","","html-keyboard-response","70","148217","0.0-1.0-93.0","0","0","43587","","null","","","null","10","NaN","","","","","","","","","","","","","","",""
"","S2","","html-keyboard-response","71","148371","0.0-1.0-94.0","0","0","43587","","null","","","null","10","","NaN","","","","","","","","","","","","","",""
"","response","","html-keyboard-response","72","148796","0.0-1.0-95.0-0.0","0","0","43587","","422","","","75","10","","","1","10","training","adjacent","AB","1","2","L.jpg","P.jpg","1","1","1","",""
"","feedback","","html-keyboard-response","73","149800","0.0-1.0-96.0-0.0","0","0","43587","","null","","","null","10","","","","","","","","","","","","","","","",""
"","ITI","","html-keyboard-response","74","150804","0.0-1.0-99.0","0","0","43587","","null","","","null","10","","","","","","","","","","","","","","","NaN",""
"","S1","","html-keyboard-response","75","150957","0.0-1.0-101.0","0","0","43587","","null","","","null","11","","","","","","","","","","","","","","","",""
"","ISI","","html-keyboard-response","76","152958","0.0-1.0-102.0","0","0","43587","","null","","","null","11","NaN","","","","","","","","","","","","","","",""
"","S2","","html-keyboard-response","77","153012","0.0-1.0-103.0","0","0","43587","","52","","","68","11","","d","1","11","training","adjacent","DE","4","5","Q.jpg","N.jpg","0","1","0","",""
"","feedback","","html-keyboard-response","78","154016","0.0-1.0-105.0-0.0","0","0","43587","","null","","","null","11","","","","","","","","","","","","","","","",""
"","time_out","","html-keyboard-response","79","156019","0.0-1.0-107.0-0.0","0","0","43587","","null","","","null","11","","","","","","","","","","","","","","","",""
"","ITI","","html-keyboard-response","80","157023","0.0-1.0-108.0","0","0","43587","","null","","","null","11","","","","","","","","","","","","","","","NaN",""
"","S1","","html-keyboard-response","81","157176","0.0-1.0-110.0","0","0","43587","","null","","","null","12","","","","","","","","","","","","","","","",""
"","ISI","","html-keyboard-response","82","159178","0.0-1.0-111.0","0","0","43587","","null","","","null","12","NaN","","","","","","","","","","","","","","",""
"","S2","","html-keyboard-response","83","159331","0.0-1.0-112.0","0","0","43587","","null","","","null","12","","NaN","","","","","","","","","","","","","",""
"","response","","html-keyboard-response","84","161175","0.0-1.0-113.0-0.0","0","0","43587","","1842","","","68","12","","","1","12","training","adjacent","DC","4","3","Q.jpg","M.jpg","0","0","1","",""
"","feedback","","html-keyboard-response","85","162180","0.0-1.0-114.0-0.0","0","0","43587","","null","","","null","12","","","","","","","","","","","","","","","",""
"","ITI","","html-keyboard-response","86","163182","0.0-1.0-117.0","0","0","43587","","null","","","null","12","","","","","","","","","","","","","","","NaN",""
"","S1","","html-keyboard-response","87","163337","0.0-1.0-119.0","0","0","43587","","null","","","null","13","","","","","","","","","","","","","","","",""
"","ISI","","html-keyboard-response","88","165340","0.0-1.0-120.0","0","0","43587","","null","","","null","13","NaN","","","","","","","","","","","","","","",""
"","S2","","html-keyboard-response","89","165506","0.0-1.0-121.0","0","0","43587","","null","","","null","13","","NaN","","","","","","","","","","","","","",""
"","response","","html-keyboard-response","90","166217","0.0-1.0-122.0-0.0","0","0","43587","","709","","","75","13","","","1","13","training","adjacent","EF","5","6","N.jpg","O.jpg","1","1","1","",""
"","feedback","","html-keyboard-response","91","167221","0.0-1.0-123.0-0.0","0","0","43587","","null","","","null","13","","","","","","","","","","","","","","","",""
"","ITI","","html-keyboard-response","92","168225","0.0-1.0-126.0","0","0","43587","","null","","","null","13","","","","","","","","","","","","","","","NaN",""
"","S1","","html-keyboard-response","93","168379","0.0-1.0-128.0","0","0","43587","","null","","","null","14","","","","","","","","","","","","","","","",""
"","ISI","","html-keyboard-response","94","170382","0.0-1.0-129.0","0","0","43587","","null","","","null","14","NaN","","","","","","","","","","","","","","",""
"","S2","","html-keyboard-response","95","170537","0.0-1.0-130.0","0","0","43587","","null","","","null","14","","NaN","","","","","","","","","","","","","",""
"","response","","html-keyboard-response","96","170978","0.0-1.0-131.0-0.0","0","0","43587","","441","","","75","14","","","1","14","training","adjacent","FG","6","7","O.jpg","R.jpg","1","1","1","",""
"","feedback","","html-keyboard-response","97","171982","0.0-1.0-132.0-0.0","0","0","43587","","null","","","null","14","","","","","","","","","","","","","","","",""
"","ITI","","html-keyboard-response","98","172985","0.0-1.0-135.0","0","0","43587","","null","","","null","14","","","","","","","","","","","","","","","NaN",""
"","S1","","html-keyboard-response","99","173138","0.0-1.0-137.0","0","0","43587","","null","","","null","15","","","","","","","","","","","","","","","",""
"","ISI","","html-keyboard-response","100","175141","0.0-1.0-138.0","0","0","43587","","null","","","null","15","NaN","","","","","","","","","","","","","","",""
"","S2","","html-keyboard-response","101","175295","0.0-1.0-139.0","0","0","43587","","null","","","null","15","","NaN","","","","","","","","","","","","","",""
"","response","","html-keyboard-response","102","176067","0.0-1.0-140.0-0.0","0","0","43587","","771","","","75","15","","","1","15","training","adjacent","CB","3","2","M.jpg","P.jpg","1","0","0","",""
"","feedback","","html-keyboard-response","103","177070","0.0-1.0-141.0-0.0","0","0","43587","","null","","","null","15","","","","","","","","","","","","","","","",""
"","time_out","","html-keyboard-response","104","179073","0.0-1.0-143.0-0.0","0","0","43587","","null","","","null","15","","","","","","","","","","","","","","","",""
"","ITI","","html-keyboard-response","105","180077","0.0-1.0-144.0","0","0","43587","","null","","","null","15","","","","","","","","","","","","","","","NaN",""
"","S1","","html-keyboard-response","106","180230","0.0-1.0-146.0","0","0","43587","","null","","","null","16","","","","","","","","","","","","","","","",""
"","ISI","","html-keyboard-response","107","182234","0.0-1.0-147.0","0","0","43587","","370","","","68","16","d","","","","","","","","","","","","","","",""
"","S2","","html-keyboard-response","108","182387","0.0-1.0-148.0","0","0","43587","","null","","","null","16","","NaN","","","","","","","","","","","","","",""
"","response","","html-keyboard-response","109","182613","0.0-1.0-149.0-0.0","0","0","43587","","225","","","68","16","","","1","16","training","adjacent","BC","2","3","P.jpg","M.jpg","0","1","0","",""
"","feedback","","html-keyboard-response","110","183616","0.0-1.0-150.0-0.0","0","0","43587","","null","","","null","16","","","","","","","","","","","","","","","",""
"","time_out","","html-keyboard-response","111","185619","0.0-1.0-152.0-0.0","0","0","43587","","null","","","null","16","","","","","","","","","","","","","","","",""
"","ITI","","html-keyboard-response","112","186624","0.0-1.0-153.0","0","0","43587","","null","","","null","16","","","","","","","","","","","","","","","NaN",""
"","S1","","html-keyboard-response","113","186778","0.0-1.0-155.0","0","0","43587","","null","","","null","17","","","","","","","","","","","","","","","",""
"","ISI","","html-keyboard-response","114","188781","0.0-1.0-156.0","0","0","43587","","null","","","null","17","NaN","","","","","","","","","","","","","","",""
"","S2","","html-keyboard-response","115","188935","0.0-1.0-157.0","0","0","43587","","null","","","null","17","","NaN","","","","","","","","","","","","","",""
"","response","","html-keyboard-response","116","189687","0.0-1.0-158.0-0.0","0","0","43587","","750","","","68","17","","","1","17","training","adjacent","AB","1","2","L.jpg","P.jpg","0","1","0","",""
"","feedback","","html-keyboard-response","117","190690","0.0-1.0-159.0-0.0","0","0","43587","","null","","","null","17","","","","","","","","","","","","","","","",""
"","time_out","","html-keyboard-response","118","192692","0.0-1.0-161.0-0.0","0","0","43587","","null","","","null","17","","","","","","","","","","","","","","","",""
"","ITI","","html-keyboard-response","119","193694","0.0-1.0-162.0","0","0","43587","","null","","","null","17","","","","","","","","","","","","","","","NaN",""
"","S1","","html-keyboard-response","120","193847","0.0-1.0-164.0","0","0","43587","","null","","","null","18","","","","","","","","","","","","","","","",""
"","ISI","","html-keyboard-response","121","195848","0.0-1.0-165.0","0","0","43587","","null","","","null","18","NaN","","","","","","","","","","","","","","",""
"","S2","","html-keyboard-response","122","196000","0.0-1.0-166.0","0","0","43587","","null","","","null","18","","NaN","","","","","","","","","","","","","",""
"","response","","html-keyboard-response","123","197163","0.0-1.0-167.0-0.0","0","0","43587","","1161","","","68","18","","","1","18","training","adjacent","FG","6","7","O.jpg","R.jpg","0","1","0","",""
"","feedback","","html-keyboard-response","124","198167","0.0-1.0-168.0-0.0","0","0","43587","","null","","","null","18","","","","","","","","","","","","","","","",""
"","time_out","","html-keyboard-response","125","200170","0.0-1.0-170.0-0.0","0","0","43587","","null","","","null","18","","","","","","","","","","","","","","","",""
"","ITI","","html-keyboard-response","126","201173","0.0-1.0-171.0","0","0","43587","","null","","","null","18","","","","","","","","","","","","","","","NaN",""
"","S1","","html-keyboard-response","127","201327","0.0-1.0-173.0","0","0","43587","","null","","","null","19","","","","","","","","","","","","","","","",""
"","ISI","","html-keyboard-response","128","203331","0.0-1.0-174.0","0","0","43587","","null","","","null","19","NaN","","","","","","","","","","","","","","",""
"","S2","","html-keyboard-response","129","203485","0.0-1.0-175.0","0","0","43587","","null","","","null","19","","NaN","","","","","","","","","","","","","",""
"","response","","html-keyboard-response","130","204053","0.0-1.0-176.0-0.0","0","0","43587","","565","","","75","19","","","1","19","training","adjacent","BA","2","1","P.jpg","L.jpg","1","0","0","",""
"","feedback","","html-keyboard-response","131","205058","0.0-1.0-177.0-0.0","0","0","43587","","null","","","null","19","","","","","","","","","","","","","","","",""
"","time_out","","html-keyboard-response","132","207062","0.0-1.0-179.0-0.0","0","0","43587","","null","","","null","19","","","","","","","","","","","","","","","",""
"","ITI","","html-keyboard-response","133","208066","0.0-1.0-180.0","0","0","43587","","null","","","null","19","","","","","","","","","","","","","","","NaN",""
"","S1","","html-keyboard-response","134","208219","0.0-1.0-182.0","0","0","43587","","null","","","null","20","","","","","","","","","","","","","","","",""
"","ISI","","html-keyboard-response","135","210221","0.0-1.0-183.0","0","0","43587","","null","","","null","20","NaN","","","","","","","","","","","","","","",""
"","S2","","html-keyboard-response","136","210378","0.0-1.0-184.0","0","0","43587","","null","","","null","20","","NaN","","","","","","","","","","","","","",""
"","response","","html-keyboard-response","137","210704","0.0-1.0-185.0-0.0","0","0","43587","","325","","","75","20","","","1","20","training","adjacent","AB","1","2","L.jpg","P.jpg","1","1","1","",""
"","feedback","","html-keyboard-response","138","211708","0.0-1.0-186.0-0.0","0","0","43587","","null","","","null","20","","","","","","","","","","","","","","","",""
"","ITI","","html-keyboard-response","139","212716","0.0-1.0-189.0","0","0","43587","","null","","","null","20","","","","","","","","","","","","","","","NaN",""
"","S1","","html-keyboard-response","140","212870","0.0-1.0-191.0","0","0","43587","","null","","","null","21","","","","","","","","","","","","","","","",""
"","ISI","","html-keyboard-response","141","214872","0.0-1.0-192.0","0","0","43587","","null","","","null","21","NaN","","","","","","","","","","","","","","",""
"","S2","","html-keyboard-response","142","215027","0.0-1.0-193.0","0","0","43587","","null","","","null","21","","NaN","","","","","","","","","","","","","",""
"","response","","html-keyboard-response","143","215672","0.0-1.0-194.0-0.0","0","0","43587","","642","","","68","21","","","1","21","training","adjacent","DE","4","5","Q.jpg","N.jpg","0","1","0","",""
"","feedback","","html-keyboard-response","144","216677","0.0-1.0-195.0-0.0","0","0","43587","","null","","","null","21","","","","","","","","","","","","","","","",""
"","time_out","","html-keyboard-response","145","218681","0.0-1.0-197.0-0.0","0","0","43587","","null","","","null","21","","","","","","","","","","","","","","","",""
"","ITI","","html-keyboard-response","146","219684","0.0-1.0-198.0","0","0","43587","","null","","","null","21","","","","","","","","","","","","","","","NaN",""
"","S1","","html-keyboard-response","147","219837","0.0-1.0-200.0","0","0","43587","","null","","","null","22","","","","","","","","","","","","","","","",""
"","ISI","","html-keyboard-response","148","221839","0.0-1.0-201.0","0","0","43587","","null","","","null","22","NaN","","","","","","","","","","","","","","",""
"","S2","","html-keyboard-response","149","221993","0.0-1.0-202.0","0","0","43587","","null","","","null","22","","NaN","","","","","","","","","","","","","",""
"","response","","html-keyboard-response","150","222690","0.0-1.0-203.0-0.0","0","0","43587","","693","","","68","22","","","1","22","training","adjacent","FE","6","5","O.jpg","N.jpg","0","0","1","",""
"","feedback","","html-keyboard-response","151","223694","0.0-1.0-204.0-0.0","0","0","43587","","null","","","null","22","","","","","","","","","","","","","","","",""
"","ITI","","html-keyboard-response","152","224697","0.0-1.0-207.0","0","0","43587","","null","","","null","22","","","","","","","","","","","","","","","NaN",""
"","S1","","html-keyboard-response","153","224850","0.0-1.0-209.0","0","0","43587","","null","","","null","23","","","","","","","","","","","","","","","",""
"","ISI","","html-keyboard-response","154","226854","0.0-1.0-210.0","0","0","43587","","null","","","null","23","NaN","","","","","","","","","","","","","","",""
"","S2","","html-keyboard-response","155","227007","0.0-1.0-211.0","0","0","43587","","null","","","null","23","","NaN","","","","","","","","","","","","","",""
"","response","","html-keyboard-response","156","227395","0.0-1.0-212.0-0.0","0","0","43587","","385","","","75","23","","","1","23","training","adjacent","CD","3","4","M.jpg","Q.jpg","1","1","1","",""
"","feedback","","html-keyboard-response","157","228400","0.0-1.0-213.0-0.0","0","0","43587","","null","","","null","23","","","","","","","","","","","","","","","",""
"","ITI","","html-keyboard-response","158","229404","0.0-1.0-216.0","0","0","43587","","null","","","null","23","","","","","","","","","","","","","","","NaN",""
"","S1","","html-keyboard-response","159","229558","0.0-1.0-218.0","0","0","43587","","null","","","null","24","","","","","","","","","","","","","","","",""
"","ISI","","html-keyboard-response","160","231562","0.0-1.0-219.0","0","0","43587","","null","","","null","24","NaN","","","","","","","","","","","","","","",""
"","S2","","html-keyboard-response","161","231717","0.0-1.0-220.0","0","0","43587","","null","","","null","24","","NaN","","","","","","","","","","","","","",""
"","response","","html-keyboard-response","162","232324","0.0-1.0-221.0-0.0","0","0","43587","","605","","","75","24","","","1","24","training","adjacent","BA","2","1","P.jpg","L.jpg","1","0","0","",""
"","feedback","","html-keyboard-response","163","233327","0.0-1.0-222.0-0.0","0","0","43587","","null","","","null","24","","","","","","","","","","","","","","","",""
"","time_out","","html-keyboard-response","164","235331","0.0-1.0-224.0-0.0","0","0","43587","","null","","","null","24","","","","","","","","","","","","","","","",""
"","ITI","","html-keyboard-response","165","236333","0.0-1.0-225.0","0","0","43587","","null","","","null","24","","","","","","","","","","","","","","","NaN",""
"","S1","","html-keyboard-response","166","236487","0.0-1.0-227.0","0","0","43587","","null","","","null","25","","","","","","","","","","","","","","","",""
"","ISI","","html-keyboard-response","167","238490","0.0-1.0-228.0","0","0","43587","","null","","","null","25","NaN","","","","","","","","","","","","","","",""
"","S2","","html-keyboard-response","168","238650","0.0-1.0-229.0","0","0","43587","","null","","","null","25","","NaN","","","","","","","","","","","","","",""
"","response","","html-keyboard-response","169","239393","0.0-1.0-230.0-0.0","0","0","43587","","741","","","75","25","","","1","25","training","adjacent","BC","2","3","P.jpg","M.jpg","1","1","1","",""
"","feedback","","html-keyboard-response","170","240397","0.0-1.0-231.0-0.0","0","0","43587","","null","","","null","25","","","","","","","","","","","","","","","",""
"","ITI","","html-keyboard-response","171","241402","0.0-1.0-234.0","0","0","43587","","null","","","null","25","","","","","","","","","","","","","","","NaN",""
"","S1","","html-keyboard-response","172","241556","0.0-1.0-236.0","0","0","43587","","null","","","null","26","","","","","","","","","","","","","","","",""
"","ISI","","html-keyboard-response","173","243558","0.0-1.0-237.0","0","0","43587","","null","","","null","26","NaN","","","","","","","","","","","","","","",""
"","S2","","html-keyboard-response","174","243711","0.0-1.0-238.0","0","0","43587","","null","","","null","26","","NaN","","","","","","","","","","","","","",""
"","response","","html-keyboard-response","175","244426","0.0-1.0-239.0-0.0","0","0","43587","","713","","","68","26","","","1","26","training","adjacent","FG","6","7","O.jpg","R.jpg","0","1","0","",""
"","feedback","","html-keyboard-response","176","245430","0.0-1.0-240.0-0.0","0","0","43587","","null","","","null","26","","","","","","","","","","","","","","","",""
"","time_out","","html-keyboard-response","177","247434","0.0-1.0-242.0-0.0","0","0","43587","","null","","","null","26","","","","","","","","","","","","","","","",""
"","ITI","","html-keyboard-response","178","248437","0.0-1.0-243.0","0","0","43587","","null","","","null","26","","","","","","","","","","","","","","","NaN",""
"","S1","","html-keyboard-response","179","248590","0.0-1.0-245.0","0","0","43587","","null","","","null","27","","","","","","","","","","","","","","","",""
"","ISI","","html-keyboard-response","180","250594","0.0-1.0-246.0","0","0","43587","","null","","","null","27","NaN","","","","","","","","","","","","","","",""
"","S2","","html-keyboard-response","181","250748","0.0-1.0-247.0","0","0","43587","","null","","","null","27","","NaN","","","","","","","","","","","","","",""
"","response","","html-keyboard-response","182","251462","0.0-1.0-248.0-0.0","0","0","43587","","712","","","68","27","","","1","27","training","adjacent","ED","5","4","N.jpg","Q.jpg","0","0","1","",""
"","feedback","","html-keyboard-response","183","252466","0.0-1.0-249.0-0.0","0","0","43587","","null","","","null","27","","","","","","","","","","","","","","","",""
"","ITI","","html-keyboard-response","184","253471","0.0-1.0-252.0","0","0","43587","","null","","","null","27","","","","","","","","","","","","","","","NaN",""
"","S1","","html-keyboard-response","185","253624","0.0-1.0-254.0","0","0","43587","","null","","","null","28","","","","","","","","","","","","","","","",""
"","ISI","","html-keyboard-response","186","255628","0.0-1.0-255.0","0","0","43587","","null","","","null","28","NaN","","","","","","","","","","","","","","",""
"","S2","","html-keyboard-response","187","255782","0.0-1.0-256.0","0","0","43587","","null","","","null","28","","NaN","","","","","","","","","","","","","",""
"","response","","html-keyboard-response","188","256446","0.0-1.0-257.0-0.0","0","0","43587","","660","","","75","28","","","1","28","training","adjacent","FG","6","7","O.jpg","R.jpg","1","1","1","",""
"","feedback","","html-keyboard-response","189","257451","0.0-1.0-258.0-0.0","0","0","43587","","null","","","null","28","","","","","","","","","","","","","","","",""
"","ITI","","html-keyboard-response","190","258454","0.0-1.0-261.0","0","0","43587","","null","","","null","28","","","","","","","","","","","","","","","NaN",""
"","S1","","html-keyboard-response","191","258608","0.0-1.0-263.0","0","0","43587","","null","","","null","29","","","","","","","","","","","","","","","",""
"","ISI","","html-keyboard-response","192","260611","0.0-1.0-264.0","0","0","43587","","null","","","null","29","NaN","","","","","","","","","","","","","","",""
"","S2","","html-keyboard-response","193","260766","0.0-1.0-265.0","0","0","43587","","null","","","null","29","","NaN","","","","","","","","","","","","","",""
"","response","","html-keyboard-response","194","261187","0.0-1.0-266.0-0.0","0","0","43587","","418","","","75","29","","","1","29","training","adjacent","FE","6","5","O.jpg","N.jpg","1","0","0","",""
"","feedback","","html-keyboard-response","195","262191","0.0-1.0-267.0-0.0","0","0","43587","","null","","","null","29","","","","","","","","","","","","","","","",""
"","time_out","","html-keyboard-response","196","264196","0.0-1.0-269.0-0.0","0","0","43587","","null","","","null","29","","","","","","","","","","","","","","","",""
"","ITI","","html-keyboard-response","197","265201","0.0-1.0-270.0","0","0","43587","","null","","","null","29","","","","","","","","","","","","","","","NaN",""
"","S1","","html-keyboard-response","198","265356","0.0-1.0-272.0","0","0","43587","","null","","","null","30","","","","","","","","","","","","","","","",""
"","ISI","","html-keyboard-response","199","267358","0.0-1.0-273.0","0","0","43587","","null","","","null","30","NaN","","","","","","","","","","","","","","",""
"","S2","","html-keyboard-response","200","267511","0.0-1.0-274.0","0","0","43587","","null","","","null","30","","NaN","","","","","","","","","","","","","",""
"","response","","html-keyboard-response","201","267991","0.0-1.0-275.0-0.0","0","0","43587","","477","","","68","30","","","1","30","training","adjacent","CD","3","4","M.jpg","Q.jpg","0","1","0","",""
"","feedback","","html-keyboard-response","202","268994","0.0-1.0-276.0-0.0","0","0","43587","","null","","","null","30","","","","","","","","","","","","","","","",""
"","time_out","","html-keyboard-response","203","270997","0.0-1.0-278.0-0.0","0","0","43587","","null","","","null","30","","","","","","","","","","","","","","","",""
"","ITI","","html-keyboard-response","204","272001","0.0-1.0-279.0","0","0","43587","","null","","","null","30","","","","","","","","","","","","","","","NaN",""
"","S1","","html-keyboard-response","205","272154","0.0-1.0-281.0","0","0","43587","","null","","","null","31","","","","","","","","","","","","","","","",""
"","ISI","","html-keyboard-response","206","274157","0.0-1.0-282.0","0","0","43587","","null","","","null","31","NaN","","","","","","","","","","","","","","",""
"","S2","","html-keyboard-response","207","274312","0.0-1.0-283.0","0","0","43587","","null","","","null","31","","NaN","","","","","","","","","","","","","",""
"","response","","html-keyboard-response","208","274879","0.0-1.0-284.0-0.0","0","0","43587","","564","","","68","31","","","1","31","training","adjacent","EF","5","6","N.jpg","O.jpg","0","1","0","",""
"","feedback","","html-keyboard-response","209","275885","0.0-1.0-285.0-0.0","0","0","43587","","null","","","null","31","","","","","","","","","","","","","","","",""
"","time_out","","html-keyboard-response","210","277888","0.0-1.0-287.0-0.0","0","0","43587","","null","","","null","31","","","","","","","","","","","","","","","",""
"","ITI","","html-keyboard-response","211","278892","0.0-1.0-288.0","0","0","43587","","null","","","null","31","","","","","","","","","","","","","","","NaN",""
"","S1","","html-keyboard-response","212","279047","0.0-1.0-290.0","0","0","43587","","null","","","null","32","","","","","","","","","","","","","","","",""
"","ISI","","html-keyboard-response","213","281050","0.0-1.0-291.0","0","0","43587","","null","","","null","32","NaN","","","","","","","","","","","","","","",""
"","S2","","html-keyboard-response","214","281204","0.0-1.0-292.0","0","0","43587","","null","","","null","32","","NaN","","","","","","","","","","","","","",""
"","response","","html-keyboard-response","215","281798","0.0-1.0-293.0-0.0","0","0","43587","","592","","","68","32","","","1","32","training","adjacent","BC","2","3","P.jpg","M.jpg","0","1","0","",""
"","feedback","","html-keyboard-response","216","282803","0.0-1.0-294.0-0.0","0","0","43587","","null","","","null","32","","","","","","","","","","","","","","","",""
"","time_out","","html-keyboard-response","217","284807","0.0-1.0-296.0-0.0","0","0","43587","","null","","","null","32","","","","","","","","","","","","","","","",""
"","ITI","","html-keyboard-response","218","285811","0.0-1.0-297.0","0","0","43587","","null","","","null","32","","","","","","","","","","","","","","","NaN",""
"","S1","","html-keyboard-response","219","285964","0.0-1.0-299.0","0","0","43587","","null","","","null","33","","","","","","","","","","","","","","","",""
"","ISI","","html-keyboard-response","220","287966","0.0-1.0-300.0","0","0","43587","","null","","","null","33","NaN","","","","","","","","","","","","","","",""
"","S2","","html-keyboard-response","221","288119","0.0-1.0-301.0","0","0","43587","","null","","","null","33","","NaN","","","","","","","","","","","","","",""
"","response","","html-keyboard-response","222","288619","0.0-1.0-302.0-0.0","0","0","43587","","498","","","68","33","","","1","33","training","adjacent","DC","4","3","Q.jpg","M.jpg","0","0","1","",""
"","feedback","","html-keyboard-response","223","289622","0.0-1.0-303.0-0.0","0","0","43587","","null","","","null","33","","","","","","","","","","","","","","","",""
"","ITI","","html-keyboard-response","224","290626","0.0-1.0-306.0","0","0","43587","","null","","","null","33","","","","","","","","","","","","","","","NaN",""
"","S1","","html-keyboard-response","225","290779","0.0-1.0-308.0","0","0","43587","","null","","","null","34","","","","","","","","","","","","","","","",""
"","ISI","","html-keyboard-response","226","292783","0.0-1.0-309.0","0","0","43587","","null","","","null","34","NaN","","","","","","","","","","","","","","",""
"","S2","","html-keyboard-response","227","292937","0.0-1.0-310.0","0","0","43587","","null","","","null","34","","NaN","","","","","","","","","","","","","",""
"","response","","html-keyboard-response","228","294791","0.0-1.0-311.0-0.0","0","0","43587","","null","","","null","34","","","1","34","training","adjacent","GF","7","6","R.jpg","O.jpg","NaN","0","0","",""
"","too_slow_prompt","","html-keyboard-response","229","295794","0.0-1.0-313.0-0.0","1","0","43587","","null","","","null","","","","","","","","","","","","","","","","",""
"","time_out","","html-keyboard-response","230","297799","0.0-1.0-314.0-0.0","0","0","43587","","null","","","null","34","","","","","","","","","","","","","","","",""
"","ITI","","html-keyboard-response","231","298803","0.0-1.0-315.0","0","0","43587","","null","","","null","34","","","","","","","","","","","","","","","NaN",""
"","S1","","html-keyboard-response","232","298956","0.0-1.0-317.0","0","0","43587","","null","","","null","35","","","","","","","","","","","","","","","",""
"","ISI","","html-keyboard-response","233","300959","0.0-1.0-318.0","0","0","43587","","null","","","null","35","NaN","","","","","","","","","","","","","","",""
"","S2","","html-keyboard-response","234","301113","0.0-1.0-319.0","0","0","43587","","null","","","null","35","","NaN","","","","","","","","","","","","","",""
"","response","","html-keyboard-response","235","302023","0.0-1.0-320.0-0.0","0","0","43587","","908","","","75","35","","","1","35","training","adjacent","CD","3","4","M.jpg","Q.jpg","1","1","1","",""
"","feedback","","html-keyboard-response","236","303038","0.0-1.0-321.0-0.0","0","0","43587","","null","","","null","35","","","","","","","","","","","","","","","",""
"","ITI","","html-keyboard-response","237","304042","0.0-1.0-324.0","0","0","43587","","null","","","null","35","","","","","","","","","","","","","","","NaN",""
"","S1","","html-keyboard-response","238","304196","0.0-1.0-326.0","0","0","43587","","null","","","null","36","","","","","","","","","","","","","","","",""
"","ISI","","html-keyboard-response","239","306199","0.0-1.0-327.0","0","0","43587","","null","","","null","36","NaN","","","","","","","","","","","","","","",""
"","S2","","html-keyboard-response","240","306354","0.0-1.0-328.0","0","0","43587","","null","","","null","36","","NaN","","","","","","","","","","","","","",""
"","response","","html-keyboard-response","241","306746","0.0-1.0-329.0-0.0","0","0","43587","","388","","","75","36","","","1","36","training","adjacent","BA","2","1","P.jpg","L.jpg","1","0","0","",""
"","feedback","","html-keyboard-response","242","307751","0.0-1.0-330.0-0.0","0","0","43587","","null","","","null","36","","","","","","","","","","","","","","","",""
"","time_out","","html-keyboard-response","243","309755","0.0-1.0-332.0-0.0","0","0","43587","","null","","","null","36","","","","","","","","","","","","","","","",""
"","ITI","","html-keyboard-response","244","310757","0.0-1.0-333.0","0","0","43587","","null","","","null","36","","","","","","","","","","","","","","","NaN",""
"","S1","","html-keyboard-response","245","310910","0.0-1.0-335.0","0","0","43587","","null","","","null","37","","","","","","","","","","","","","","","",""
"","ISI","","html-keyboard-response","246","312913","0.0-1.0-336.0","0","0","43587","","null","","","null","37","NaN","","","","","","","","","","","","","","",""
"","S2","","html-keyboard-response","247","313067","0.0-1.0-337.0","0","0","43587","","null","","","null","37","","NaN","","","","","","","","","","","","","",""
"","response","","html-keyboard-response","248","313726","0.0-1.0-338.0-0.0","0","0","43587","","656","","","68","37","","","1","37","training","adjacent","DE","4","5","Q.jpg","N.jpg","0","1","0","",""
"","feedback","","html-keyboard-response","249","314729","0.0-1.0-339.0-0.0","0","0","43587","","null","","","null","37","","","","","","","","","","","","","","","",""
"","time_out","","html-keyboard-response","250","316733","0.0-1.0-341.0-0.0","0","0","43587","","null","","","null","37","","","","","","","","","","","","","","","",""
"","ITI","","html-keyboard-response","251","317736","0.0-1.0-342.0","0","0","43587","","null","","","null","37","","","","","","","","","","","","","","","NaN",""
"","S1","","html-keyboard-response","252","317890","0.0-1.0-344.0","0","0","43587","","null","","","null","38","","","","","","","","","","","","","","","",""
"","ISI","","html-keyboard-response","253","319894","0.0-1.0-345.0","0","0","43587","","null","","","null","38","NaN","","","","","","","","","","","","","","",""
"","S2","","html-keyboard-response","254","320048","0.0-1.0-346.0","0","0","43587","","null","","","null","38","","NaN","","","","","","","","","","","","","",""
"","response","","html-keyboard-response","255","320573","0.0-1.0-347.0-0.0","0","0","43587","","522","","","68","38","","","1","38","training","adjacent","CB","3","2","M.jpg","P.jpg","0","0","1","",""
"","feedback","","html-keyboard-response","256","321578","0.0-1.0-348.0-0.0","0","0","43587","","null","","","null","38","","","","","","","","","","","","","","","",""
"","ITI","","html-keyboard-response","257","322582","0.0-1.0-351.0","0","0","43587","","null","","","null","38","","","","","","","","","","","","","","","NaN",""
"","S1","","html-keyboard-response","258","322737","0.0-1.0-353.0","0","0","43587","","null","","","null","39","","","","","","","","","","","","","","","",""
"","ISI","","html-keyboard-response","259","324740","0.0-1.0-354.0","0","0","43587","","null","","","null","39","NaN","","","","","","","","","","","","","","",""
"","S2","","html-keyboard-response","260","324894","0.0-1.0-355.0","0","0","43587","","null","","","null","39","","NaN","","","","","","","","","","","","","",""
"","response","","html-keyboard-response","261","325319","0.0-1.0-356.0-0.0","0","0","43587","","423","","","68","39","","","1","39","training","adjacent","GF","7","6","R.jpg","O.jpg","0","0","1","",""
"","feedback","","html-keyboard-response","262","326323","0.0-1.0-357.0-0.0","0","0","43587","","null","","","null","39","","","","","","","","","","","","","","","",""
"","ITI","","html-keyboard-response","263","327328","0.0-1.0-360.0","0","0","43587","","null","","","null","39","","","","","","","","","","","","","","","NaN",""
"","S1","","html-keyboard-response","264","327481","0.0-1.0-362.0","0","0","43587","","null","","","null","40","","","","","","","","","","","","","","","",""
"","ISI","","html-keyboard-response","265","329484","0.0-1.0-363.0","0","0","43587","","null","","","null","40","NaN","","","","","","","","","","","","","","",""
"","S2","","html-keyboard-response","266","329639","0.0-1.0-364.0","0","0","43587","","null","","","null","40","","NaN","","","","","","","","","","","","","",""
"","response","","html-keyboard-response","267","330751","0.0-1.0-365.0-0.0","0","0","43587","","1110","","","75","40","","","1","40","training","adjacent","CB","3","2","M.jpg","P.jpg","1","0","0","",""
"","feedback","","html-keyboard-response","268","331755","0.0-1.0-366.0-0.0","0","0","43587","","null","","","null","40","","","","","","","","","","","","","","","",""
"","time_out","","html-keyboard-response","269","333759","0.0-1.0-368.0-0.0","0","0","43587","","null","","","null","40","","","","","","","","","","","","","","","",""
"","ITI","","html-keyboard-response","270","334763","0.0-1.0-369.0","0","0","43587","","null","","","null","40","","","","","","","","","","","","","","","NaN",""
"","S1","","html-keyboard-response","271","334917","0.0-1.0-371.0","0","0","43587","","null","","","null","41","","","","","","","","","","","","","","","",""
"","ISI","","html-keyboard-response","272","336919","0.0-1.0-372.0","0","0","43587","","null","","","null","41","NaN","","","","","","","","","","","","","","",""
"","S2","","html-keyboard-response","273","337073","0.0-1.0-373.0","0","0","43587","","null","","","null","41","","NaN","","","","","","","","","","","","","",""
"","response","","html-keyboard-response","274","337548","0.0-1.0-374.0-0.0","0","0","43587","","472","","","75","41","","","1","41","training","adjacent","BC","2","3","P.jpg","M.jpg","1","1","1","",""
"","feedback","","html-keyboard-response","275","338553","0.0-1.0-375.0-0.0","0","0","43587","","null","","","null","41","","","","","","","","","","","","","","","",""
"","ITI","","html-keyboard-response","276","339557","0.0-1.0-378.0","0","0","43587","","null","","","null","41","","","","","","","","","","","","","","","NaN",""
"","S1","","html-keyboard-response","277","339711","0.0-1.0-380.0","0","0","43587","","null","","","null","42","","","","","","","","","","","","","","","",""
"","ISI","","html-keyboard-response","278","341715","0.0-1.0-381.0","0","0","43587","","411","","","68","42","d","","","","","","","","","","","","","","",""
"","S2","","html-keyboard-response","279","341869","0.0-1.0-382.0","0","0","43587","","null","","","null","42","","NaN","","","","","","","","","","","","","",""
"","response","","html-keyboard-response","280","342371","0.0-1.0-383.0-0.0","0","0","43587","","498","","","68","42","","","1","42","training","adjacent","FE","6","5","O.jpg","N.jpg","0","0","1","",""
"","feedback","","html-keyboard-response","281","343374","0.0-1.0-384.0-0.0","0","0","43587","","null","","","null","42","","","","","","","","","","","","","","","",""
"","ITI","","html-keyboard-response","282","344379","0.0-1.0-387.0","0","0","43587","","null","","","null","42","","","","","","","","","","","","","","","NaN",""
"","S1","","html-keyboard-response","283","344533","0.0-1.0-389.0","0","0","43587","","null","","","null","43","","","","","","","","","","","","","","","",""
"","ISI","","html-keyboard-response","284","346537","0.0-1.0-390.0","0","0","43587","","null","","","null","43","NaN","","","","","","","","","","","","","","",""
"","S2","","html-keyboard-response","285","346692","0.0-1.0-391.0","0","0","43587","","null","","","null","43","","NaN","","","","","","","","","","","","","",""
"","response","","html-keyboard-response","286","347124","0.0-1.0-392.0-0.0","0","0","43587","","429","","","75","43","","","1","43","training","adjacent","ED","5","4","N.jpg","Q.jpg","1","0","0","",""
"","feedback","","html-keyboard-response","287","348136","0.0-1.0-393.0-0.0","0","0","43587","","null","","","null","43","","","","","","","","","","","","","","","",""
"","time_out","","html-keyboard-response","288","350140","0.0-1.0-395.0-0.0","0","0","43587","","null","","","null","43","","","","","","","","","","","","","","","",""
"","ITI","","html-keyboard-response","289","351145","0.0-1.0-396.0","0","0","43587","","null","","","null","43","","","","","","","","","","","","","","","NaN",""
"","S1","","html-keyboard-response","290","351298","0.0-1.0-398.0","0","0","43587","","null","","","null","44","","","","","","","","","","","","","","","",""
"","ISI","","html-keyboard-response","291","353303","0.0-1.0-399.0","0","0","43587","","295","","","68","44","d","","","","","","","","","","","","","","",""
"","S2","","html-keyboard-response","292","353457","0.0-1.0-400.0","0","0","43587","","null","","","null","44","","NaN","","","","","","","","","","","","","",""
"","response","","html-keyboard-response","293","353868","0.0-1.0-401.0-0.0","0","0","43587","","409","","","68","44","","","1","44","training","adjacent","GF","7","6","R.jpg","O.jpg","0","0","1","",""
"","feedback","","html-keyboard-response","294","354872","0.0-1.0-402.0-0.0","0","0","43587","","null","","","null","44","","","","","","","","","","","","","","","",""
"","ITI","","html-keyboard-response","295","355875","0.0-1.0-405.0","0","0","43587","","null","","","null","44","","","","","","","","","","","","","","","NaN",""
"","S1","","html-keyboard-response","296","356029","0.0-1.0-407.0","0","0","43587","","null","","","null","45","","","","","","","","","","","","","","","",""
"","ISI","","html-keyboard-response","297","358032","0.0-1.0-408.0","0","0","43587","","null","","","null","45","NaN","","","","","","","","","","","","","","",""
"","S2","","html-keyboard-response","298","358185","0.0-1.0-409.0","0","0","43587","","null","","","null","45","","NaN","","","","","","","","","","","","","",""
"","response","","html-keyboard-response","299","358583","0.0-1.0-410.0-0.0","0","0","43587","","395","","","68","45","","","1","45","training","adjacent","BA","2","1","P.jpg","L.jpg","0","0","1","",""
"","feedback","","html-keyboard-response","300","359588","0.0-1.0-411.0-0.0","0","0","43587","","null","","","null","45","","","","","","","","","","","","","","","",""
"","ITI","","html-keyboard-response","301","360592","0.0-1.0-414.0","0","0","43587","","null","","","null","45","","","","","","","","","","","","","","","NaN",""
"","S1","","html-keyboard-response","302","360744","0.0-1.0-416.0","0","0","43587","","null","","","null","46","","","","","","","","","","","","","","","",""
"","ISI","","html-keyboard-response","303","362747","0.0-1.0-417.0","0","0","43587","","null","","","null","46","NaN","","","","","","","","","","","","","","",""
"","S2","","html-keyboard-response","304","362901","0.0-1.0-418.0","0","0","43587","","null","","","null","46","","NaN","","","","","","","","","","","","","",""
"","response","","html-keyboard-response","305","363483","0.0-1.0-419.0-0.0","0","0","43587","","580","","","75","46","","","1","46","training","adjacent","DE","4","5","Q.jpg","N.jpg","1","1","1","",""
"","feedback","","html-keyboard-response","306","364487","0.0-1.0-420.0-0.0","0","0","43587","","null","","","null","46","","","","","","","","","","","","","","","",""
"","ITI","","html-keyboard-response","307","365491","0.0-1.0-423.0","0","0","43587","","null","","","null","46","","","","","","","","","","","","","","","NaN",""
"","S1","","html-keyboard-response","308","365645","0.0-1.0-425.0","0","0","43587","","null","","","null","47","","","","","","","","","","","","","","","",""
"","ISI","","html-keyboard-response","309","367648","0.0-1.0-426.0","0","0","43587","","null","","","null","47","NaN","","","","","","","","","","","","","","",""
"","S2","","html-keyboard-response","310","367803","0.0-1.0-427.0","0","0","43587","","null","","","null","47","","NaN","","","","","","","","","","","","","",""
"","response","","html-keyboard-response","311","368297","0.0-1.0-428.0-0.0","0","0","43587","","492","","","68","47","","","1","47","training","adjacent","ED","5","4","N.jpg","Q.jpg","0","0","1","",""
"","feedback","","html-keyboard-response","312","369301","0.0-1.0-429.0-0.0","0","0","43587","","null","","","null","47","","","","","","","","","","","","","","","",""
"","ITI","","html-keyboard-response","313","370305","0.0-1.0-432.0","0","0","43587","","null","","","null","47","","","","","","","","","","","","","","","NaN",""
"","block_over","","html-keyboard-response","314","375764","0.0-1.0-433.0-0.0","0","0","43587","","5456","","","32","47","","","","","","","","","","","","","","","",""
"","S1","","html-keyboard-response","315","375927","0.0-1.0-434.0","0","0","43587","","null","","","null","48","","","","","","","","","","","","","","","",""
"","ISI","","html-keyboard-response","316","377929","0.0-1.0-435.0","0","0","43587","","null","","","null","48","NaN","","","","","","","","","","","","","","",""
"","S2","","html-keyboard-response","317","378084","0.0-1.0-436.0","0","0","43587","","null","","","null","48","","NaN","","","","","","","","","","","","","",""
"","response","","html-keyboard-response","318","378556","0.0-1.0-437.0-0.0","0","0","43587","","469","","","68","48","","","2","48","training","adjacent","CB","3","2","M.jpg","P.jpg","0","0","1","",""
"","feedback","","html-keyboard-response","319","379561","0.0-1.0-438.0-0.0","0","0","43587","","null","","","null","48","","","","","","","","","","","","","","","",""
"","ITI","","html-keyboard-response","320","380565","0.0-1.0-441.0","0","0","43587","","null","","","null","48","","","","","","","","","","","","","","","NaN",""
"","S1","","html-keyboard-response","321","380718","0.0-1.0-443.0","0","0","43587","","null","","","null","49","","","","","","","","","","","","","","","",""
"","ISI","","html-keyboard-response","322","382720","0.0-1.0-444.0","0","0","43587","","null","","","null","49","NaN","","","","","","","","","","","","","","",""
"","S2","","html-keyboard-response","323","382875","0.0-1.0-445.0","0","0","43587","","null","","","null","49","","NaN","","","","","","","","","","","","","",""
"","response","","html-keyboard-response","324","383132","0.0-1.0-446.0-0.0","0","0","43587","","254","","","68","49","","","2","49","training","adjacent","BC","2","3","P.jpg","M.jpg","0","1","0","",""
"","feedback","","html-keyboard-response","325","384135","0.0-1.0-447.0-0.0","0","0","43587","","null","","","null","49","","","","","","","","","","","","","","","",""
"","time_out","","html-keyboard-response","326","386140","0.0-1.0-449.0-0.0","0","0","43587","","null","","","null","49","","","","","","","","","","","","","","","",""
"","ITI","","html-keyboard-response","327","387144","0.0-1.0-450.0","0","0","43587","","null","","","null","49","","","","","","","","","","","","","","","NaN",""
"","S1","","html-keyboard-response","328","387298","0.0-1.0-452.0","0","0","43587","","null","","","null","50","","","","","","","","","","","","","","","",""
"","ISI","","html-keyboard-response","329","389302","0.0-1.0-453.0","0","0","43587","","null","","","null","50","NaN","","","","","","","","","","","","","","",""
"","S2","","html-keyboard-response","330","389456","0.0-1.0-454.0","0","0","43587","","null","","","null","50","","NaN","","","","","","","","","","","","","",""
"","response","","html-keyboard-response","331","389832","0.0-1.0-455.0-0.0","0","0","43587","","375","","","75","50","","","2","50","training","adjacent","BA","2","1","P.jpg","L.jpg","1","0","0","",""
"","feedback","","html-keyboard-response","332","390834","0.0-1.0-456.0-0.0","0","0","43587","","null","","","null","50","","","","","","","","","","","","","","","",""
"","time_out","","html-keyboard-response","333","392838","0.0-1.0-458.0-0.0","0","0","43587","","null","","","null","50","","","","","","","","","","","","","","","",""
"","ITI","","html-keyboard-response","334","393853","0.0-1.0-459.0","0","0","43587","","null","","","null","50","","","","","","","","","","","","","","","NaN",""
"","S1","","html-keyboard-response","335","394006","0.0-1.0-461.0","0","0","43587","","null","","","null","51","","","","","","","","","","","","","","","",""
"","ISI","","html-keyboard-response","336","396009","0.0-1.0-462.0","0","0","43587","","null","","","null","51","NaN","","","","","","","","","","","","","","",""
"","S2","","html-keyboard-response","337","396162","0.0-1.0-463.0","0","0","43587","","null","","","null","51","","NaN","","","","","","","","","","","","","",""
"","response","","html-keyboard-response","338","396689","0.0-1.0-464.0-0.0","0","0","43587","","526","","","75","51","","","2","51","training","adjacent","CB","3","2","M.jpg","P.jpg","1","0","0","",""
"","feedback","","html-keyboard-response","339","397692","0.0-1.0-465.0-0.0","0","0","43587","","null","","","null","51","","","","","","","","","","","","","","","",""
"","time_out","","html-keyboard-response","340","399696","0.0-1.0-467.0-0.0","0","0","43587","","null","","","null","51","","","","","","","","","","","","","","","",""
"","ITI","","html-keyboard-response","341","400700","0.0-1.0-468.0","0","0","43587","","null","","","null","51","","","","","","","","","","","","","","","NaN",""
"","S1","","html-keyboard-response","342","400867","0.0-1.0-470.0","0","0","43587","","null","","","null","52","","","","","","","","","","","","","","","",""
"","ISI","","html-keyboard-response","343","402870","0.0-1.0-471.0","0","0","43587","","null","","","null","52","NaN","","","","","","","","","","","","","","",""
"","S2","","html-keyboard-response","344","403029","0.0-1.0-472.0","0","0","43587","","null","","","null","52","","NaN","","","","","","","","","","","","","",""
"","response","","html-keyboard-response","345","403217","0.0-1.0-473.0-0.0","0","0","43587","","184","","","68","52","","","2","52","training","adjacent","BA","2","1","P.jpg","L.jpg","0","0","1","",""
"","feedback","","html-keyboard-response","346","404219","0.0-1.0-474.0-0.0","0","0","43587","","null","","","null","52","","","","","","","","","","","","","","","",""
"","ITI","","html-keyboard-response","347","405223","0.0-1.0-477.0","0","0","43587","","null","","","null","52","","","","","","","","","","","","","","","NaN",""
"","S1","","html-keyboard-response","348","405378","0.0-1.0-479.0","0","0","43587","","null","","","null","53","","","","","","","","","","","","","","","",""
"","ISI","","html-keyboard-response","349","407382","0.0-1.0-480.0","0","0","43587","","null","","","null","53","NaN","","","","","","","","","","","","","","",""
"","S2","","html-keyboard-response","350","407536","0.0-1.0-481.0","0","0","43587","","null","","","null","53","","NaN","","","","","","","","","","","","","",""
"","response","","html-keyboard-response","351","407927","0.0-1.0-482.0-0.0","0","0","43587","","390","","","68","53","","","2","53","training","adjacent","FE","6","5","O.jpg","N.jpg","0","0","1","",""
"","feedback","","html-keyboard-response","352","408931","0.0-1.0-483.0-0.0","0","0","43587","","null","","","null","53","","","","","","","","","","","","","","","",""
"","ITI","","html-keyboard-response","353","409935","0.0-1.0-486.0","0","0","43587","","null","","","null","53","","","","","","","","","","","","","","","NaN",""
"","S1","","html-keyboard-response","354","410088","0.0-1.0-488.0","0","0","43587","","null","","","null","54","","","","","","","","","","","","","","","",""
"","ISI","","html-keyboard-response","355","412092","0.0-1.0-489.0","0","0","43587","","null","","","null","54","NaN","","","","","","","","","","","","","","",""
"","S2","","html-keyboard-response","356","412247","0.0-1.0-490.0","0","0","43587","","null","","","null","54","","NaN","","","","","","","","","","","","","",""
"","response","","html-keyboard-response","357","412749","0.0-1.0-491.0-0.0","0","0","43587","","500","","","75","54","","","2","54","training","adjacent","GF","7","6","R.jpg","O.jpg","1","0","0","",""
"","feedback","","html-keyboard-response","358","413754","0.0-1.0-492.0-0.0","0","0","43587","","null","","","null","54","","","","","","","","","","","","","","","",""
"","time_out","","html-keyboard-response","359","415759","0.0-1.0-494.0-0.0","0","0","43587","","null","","","null","54","","","","","","","","","","","","","","","",""
"","ITI","","html-keyboard-response","360","416762","0.0-1.0-495.0","0","0","43587","","null","","","null","54","","","","","","","","","","","","","","","NaN",""
"","S1","","html-keyboard-response","361","416914","0.0-1.0-497.0","0","0","43587","","null","","","null","55","","","","","","","","","","","","","","","",""
"","ISI","","html-keyboard-response","362","418917","0.0-1.0-498.0","0","0","43587","","null","","","null","55","NaN","","","","","","","","","","","","","","",""
"","S2","","html-keyboard-response","363","419070","0.0-1.0-499.0","0","0","43587","","null","","","null","55","","NaN","","","","","","","","","","","","","",""
"","response","","html-keyboard-response","364","419530","0.0-1.0-500.0-0.0","0","0","43587","","457","","","68","55","","","2","55","training","adjacent","FE","6","5","O.jpg","N.jpg","0","0","1","",""
"","feedback","","html-keyboard-response","365","420534","0.0-1.0-501.0-0.0","0","0","43587","","null","","","null","55","","","","","","","","","","","","","","","",""
"","ITI","","html-keyboard-response","366","421536","0.0-1.0-504.0","0","0","43587","","null","","","null","55","","","","","","","","","","","","","","","NaN",""
"","S1","","html-keyboard-response","367","421689","0.0-1.0-506.0","0","0","43587","","null","","","null","56","","","","","","","","","","","","","","","",""
"","ISI","","html-keyboard-response","368","423692","0.0-1.0-507.0","0","0","43587","","null","","","null","56","NaN","","","","","","","","","","","","","","",""
"","S2","","html-keyboard-response","369","423846","0.0-1.0-508.0","0","0","43587","","null","","","null","56","","NaN","","","","","","","","","","","","","",""
"","response","","html-keyboard-response","370","424419","0.0-1.0-509.0-0.0","0","0","43587","","570","","","68","56","","","2","56","training","adjacent","BA","2","1","P.jpg","L.jpg","0","0","1","",""
"","feedback","","html-keyboard-response","371","425424","0.0-1.0-510.0-0.0","0","0","43587","","null","","","null","56","","","","","","","","","","","","","","","",""
"","ITI","","html-keyboard-response","372","426428","0.0-1.0-513.0","0","0","43587","","null","","","null","56","","","","","","","","","","","","","","","NaN",""
"","S1","","html-keyboard-response","373","426582","0.0-1.0-515.0","0","0","43587","","null","","","null","57","","","","","","","","","","","","","","","",""
"","ISI","","html-keyboard-response","374","428586","0.0-1.0-516.0","0","0","43587","","null","","","null","57","NaN","","","","","","","","","","","","","","",""
"","S2","","html-keyboard-response","375","428740","0.0-1.0-517.0","0","0","43587","","null","","","null","57","","NaN","","","","","","","","","","","","","",""
"","response","","html-keyboard-response","376","429235","0.0-1.0-518.0-0.0","0","0","43587","","492","","","75","57","","","2","57","training","adjacent","CB","3","2","M.jpg","P.jpg","1","0","0","",""
"","feedback","","html-keyboard-response","377","430240","0.0-1.0-519.0-0.0","0","0","43587","","null","","","null","57","","","","","","","","","","","","","","","",""
"","time_out","","html-keyboard-response","378","432244","0.0-1.0-521.0-0.0","0","0","43587","","null","","","null","57","","","","","","","","","","","","","","","",""
"","ITI","","html-keyboard-response","379","433246","0.0-1.0-522.0","0","0","43587","","null","","","null","57","","","","","","","","","","","","","","","NaN",""
"","S1","","html-keyboard-response","380","433399","0.0-1.0-524.0","0","0","43587","","null","","","null","58","","","","","","","","","","","","","","","",""
"","ISI","","html-keyboard-response","381","435402","0.0-1.0-525.0","0","0","43587","","null","","","null","58","NaN","","","","","","","","","","","","","","",""
"","S2","","html-keyboard-response","382","435556","0.0-1.0-526.0","0","0","43587","","null","","","null","58","","NaN","","","","","","","","","","","","","",""
"","response","","html-keyboard-response","383","436065","0.0-1.0-527.0-0.0","0","0","43587","","506","","","75","58","","","2","58","training","adjacent","BA","2","1","P.jpg","L.jpg","1","0","0","",""
"","feedback","","html-keyboard-response","384","437069","0.0-1.0-528.0-0.0","0","0","43587","","null","","","null","58","","","","","","","","","","","","","","","",""
"","time_out","","html-keyboard-response","385","439073","0.0-1.0-530.0-0.0","0","0","43587","","null","","","null","58","","","","","","","","","","","","","","","",""
"","ITI","","html-keyboard-response","386","440076","0.0-1.0-531.0","0","0","43587","","null","","","null","58","","","","","","","","","","","","","","","NaN",""
"","S1","","html-keyboard-response","387","440230","0.0-1.0-533.0","0","0","43587","","null","","","null","59","","","","","","","","","","","","","","","",""
"","ISI","","html-keyboard-response","388","442234","0.0-1.0-534.0","0","0","43587","","null","","","null","59","NaN","","","","","","","","","","","","","","",""
"","S2","","html-keyboard-response","389","442388","0.0-1.0-535.0","0","0","43587","","null","","","null","59","","NaN","","","","","","","","","","","","","",""
"","response","","html-keyboard-response","390","442952","0.0-1.0-536.0-0.0","0","0","43587","","562","","","75","59","","","2","59","training","adjacent","FG","6","7","O.jpg","R.jpg","1","1","1","",""
"","feedback","","html-keyboard-response","391","443955","0.0-1.0-537.0-0.0","0","0","43587","","null","","","null","59","","","","","","","","","","","","","","","",""
"","ITI","","html-keyboard-response","392","444957","0.0-1.0-540.0","0","0","43587","","null","","","null","59","","","","","","","","","","","","","","","NaN",""
"","S1","","html-keyboard-response","393","445110","0.0-1.0-542.0","0","0","43587","","null","","","null","60","","","","","","","","","","","","","","","",""
"","ISI","","html-keyboard-response","394","447113","0.0-1.0-543.0","0","0","43587","","null","","","null","60","NaN","","","","","","","","","","","","","","",""
"","S2","","html-keyboard-response","395","447266","0.0-1.0-544.0","0","0","43587","","null","","","null","60","","NaN","","","","","","","","","","","","","",""
"","response","","html-keyboard-response","396","447608","0.0-1.0-545.0-0.0","0","0","43587","","340","","","68","60","","","2","60","training","adjacent","EF","5","6","N.jpg","O.jpg","0","1","0","",""
"","feedback","","html-keyboard-response","397","448612","0.0-1.0-546.0-0.0","0","0","43587","","null","","","null","60","","","","","","","","","","","","","","","",""
"","time_out","","html-keyboard-response","398","450615","0.0-1.0-548.0-0.0","0","0","43587","","null","","","null","60","","","","","","","","","","","","","","","",""
"","ITI","","html-keyboard-response","399","451618","0.0-1.0-549.0","0","0","43587","","null","","","null","60","","","","","","","","","","","","","","","NaN",""
"","S1","","html-keyboard-response","400","451773","0.0-1.0-551.0","0","0","43587","","null","","","null","61","","","","","","","","","","","","","","","",""
"","ISI","","html-keyboard-response","401","453776","0.0-1.0-552.0","0","0","43587","","null","","","null","61","NaN","","","","","","","","","","","","","","",""
"","S2","","html-keyboard-response","402","453929","0.0-1.0-553.0","0","0","43587","","null","","","null","61","","NaN","","","","","","","","","","","","","",""
"","response","","html-keyboard-response","403","454296","0.0-1.0-554.0-0.0","0","0","43587","","365","","","68","61","","","2","61","training","adjacent","AB","1","2","L.jpg","P.jpg","0","1","0","",""
"","feedback","","html-keyboard-response","404","455301","0.0-1.0-555.0-0.0","0","0","43587","","null","","","null","61","","","","","","","","","","","","","","","",""
"","time_out","","html-keyboard-response","405","457305","0.0-1.0-557.0-0.0","0","0","43587","","null","","","null","61","","","","","","","","","","","","","","","",""
"","ITI","","html-keyboard-response","406","458309","0.0-1.0-558.0","0","0","43587","","null","","","null","61","","","","","","","","","","","","","","","NaN",""
"","S1","","html-keyboard-response","407","458463","0.0-1.0-560.0","0","0","43587","","null","","","null","62","","","","","","","","","","","","","","","",""
"","ISI","","html-keyboard-response","408","460467","0.0-1.0-561.0","0","0","43587","","null","","","null","62","NaN","","","","","","","","","","","","","","",""
"","S2","","html-keyboard-response","409","460622","0.0-1.0-562.0","0","0","43587","","null","","","null","62","","NaN","","","","","","","","","","","","","",""
"","response","","html-keyboard-response","410","461018","0.0-1.0-563.0-0.0","0","0","43587","","394","","","68","62","","","2","62","training","adjacent","CD","3","4","M.jpg","Q.jpg","0","1","0","",""
"","feedback","","html-keyboard-response","411","462023","0.0-1.0-564.0-0.0","0","0","43587","","null","","","null","62","","","","","","","","","","","","","","","",""
"","time_out","","html-keyboard-response","412","464027","0.0-1.0-566.0-0.0","0","0","43587","","null","","","null","62","","","","","","","","","","","","","","","",""
"","ITI","","html-keyboard-response","413","465031","0.0-1.0-567.0","0","0","43587","","null","","","null","62","","","","","","","","","","","","","","","NaN",""
"","S1","","html-keyboard-response","414","465185","0.0-1.0-569.0","0","0","43587","","null","","","null","63","","","","","","","","","","","","","","","",""
"","ISI","","html-keyboard-response","415","467189","0.0-1.0-570.0","0","0","43587","","null","","","null","63","NaN","","","","","","","","","","","","","","",""
"","S2","","html-keyboard-response","416","467345","0.0-1.0-571.0","0","0","43587","","null","","","null","63","","NaN","","","","","","","","","","","","","",""
"","response","","html-keyboard-response","417","467777","0.0-1.0-572.0-0.0","0","0","43587","","429","","","68","63","","","2","63","training","adjacent","CD","3","4","M.jpg","Q.jpg","0","1","0","",""
"","feedback","","html-keyboard-response","418","468782","0.0-1.0-573.0-0.0","0","0","43587","","null","","","null","63","","","","","","","","","","","","","","","",""
"","time_out","","html-keyboard-response","419","470785","0.0-1.0-575.0-0.0","0","0","43587","","null","","","null","63","","","","","","","","","","","","","","","",""
"","ITI","","html-keyboard-response","420","471788","0.0-1.0-576.0","0","0","43587","","null","","","null","63","","","","","","","","","","","","","","","NaN",""
"","S1","","html-keyboard-response","421","471941","0.0-1.0-578.0","0","0","43587","","null","","","null","64","","","","","","","","","","","","","","","",""
"","ISI","","html-keyboard-response","422","473945","0.0-1.0-579.0","0","0","43587","","null","","","null","64","NaN","","","","","","","","","","","","","","",""
"","S2","","html-keyboard-response","423","474099","0.0-1.0-580.0","0","0","43587","","null","","","null","64","","NaN","","","","","","","","","","","","","",""
"","response","","html-keyboard-response","424","474500","0.0-1.0-581.0-0.0","0","0","43587","","397","","","68","64","","","2","64","training","adjacent","FE","6","5","O.jpg","N.jpg","0","0","1","",""
"","feedback","","html-keyboard-response","425","475503","0.0-1.0-582.0-0.0","0","0","43587","","null","","","null","64","","","","","","","","","","","","","","","",""
"","ITI","","html-keyboard-response","426","476506","0.0-1.0-585.0","0","0","43587","","null","","","null","64","","","","","","","","","","","","","","","NaN",""
"","S1","","html-keyboard-response","427","476660","0.0-1.0-587.0","0","0","43587","","null","","","null","65","","","","","","","","","","","","","","","",""
"","ISI","","html-keyboard-response","428","478663","0.0-1.0-588.0","0","0","43587","","null","","","null","65","NaN","","","","","","","","","","","","","","",""
"","S2","","html-keyboard-response","429","478817","0.0-1.0-589.0","0","0","43587","","null","","","null","65","","NaN","","","","","","","","","","","","","",""
"","response","","html-keyboard-response","430","479503","0.0-1.0-590.0-0.0","0","0","43587","","683","","","75","65","","","2","65","training","adjacent","ED","5","4","N.jpg","Q.jpg","1","0","0","",""
"","feedback","","html-keyboard-response","431","480507","0.0-1.0-591.0-0.0","0","0","43587","","null","","","null","65","","","","","","","","","","","","","","","",""
"","time_out","","html-keyboard-response","432","482510","0.0-1.0-593.0-0.0","0","0","43587","","null","","","null","65","","","","","","","","","","","","","","","",""
"","ITI","","html-keyboard-response","433","483512","0.0-1.0-594.0","0","0","43587","","null","","","null","65","","","","","","","","","","","","","","","NaN",""
"","S1","","html-keyboard-response","434","483666","0.0-1.0-596.0","0","0","43587","","null","","","null","66","","","","","","","","","","","","","","","",""
"","ISI","","html-keyboard-response","435","485669","0.0-1.0-597.0","0","0","43587","","null","","","null","66","NaN","","","","","","","","","","","","","","",""
"","S2","","html-keyboard-response","436","485823","0.0-1.0-598.0","0","0","43587","","null","","","null","66","","NaN","","","","","","","","","","","","","",""
"","response","","html-keyboard-response","437","486317","0.0-1.0-599.0-0.0","0","0","43587","","491","","","75","66","","","2","66","training","adjacent","DE","4","5","Q.jpg","N.jpg","1","1","1","",""
"","feedback","","html-keyboard-response","438","487322","0.0-1.0-600.0-0.0","0","0","43587","","null","","","null","66","","","","","","","","","","","","","","","",""
"","ITI","","html-keyboard-response","439","488326","0.0-1.0-603.0","0","0","43587","","null","","","null","66","","","","","","","","","","","","","","","NaN",""
"","S1","","html-keyboard-response","440","488480","0.0-1.0-605.0","0","0","43587","","null","","","null","67","","","","","","","","","","","","","","","",""
"","ISI","","html-keyboard-response","441","490484","0.0-1.0-606.0","0","0","43587","","null","","","null","67","NaN","","","","","","","","","","","","","","",""
"","S2","","html-keyboard-response","442","490636","0.0-1.0-607.0","0","0","43587","","null","","","null","67","","NaN","","","","","","","","","","","","","",""
"","response","","html-keyboard-response","443","491125","0.0-1.0-608.0-0.0","0","0","43587","","486","","","68","67","","","2","67","training","adjacent","EF","5","6","N.jpg","O.jpg","0","1","0","",""
"","feedback","","html-keyboard-response","444","492129","0.0-1.0-609.0-0.0","0","0","43587","","null","","","null","67","","","","","","","","","","","","","","","",""
"","time_out","","html-keyboard-response","445","494132","0.0-1.0-611.0-0.0","0","0","43587","","null","","","null","67","","","","","","","","","","","","","","","",""
"","ITI","","html-keyboard-response","446","495135","0.0-1.0-612.0","0","0","43587","","null","","","null","67","","","","","","","","","","","","","","","NaN",""
"","S1","","html-keyboard-response","447","495289","0.0-1.0-614.0","0","0","43587","","null","","","null","68","","","","","","","","","","","","","","","",""
"","ISI","","html-keyboard-response","448","497293","0.0-1.0-615.0","0","0","43587","","null","","","null","68","NaN","","","","","","","","","","","","","","",""
"","S2","","html-keyboard-response","449","497447","0.0-1.0-616.0","0","0","43587","","null","","","null","68","","NaN","","","","","","","","","","","","","",""
"","response","","html-keyboard-response","450","498136","0.0-1.0-617.0-0.0","0","0","43587","","687","","","68","68","","","2","68","training","adjacent","ED","5","4","N.jpg","Q.jpg","0","0","1","",""
"","feedback","","html-keyboard-response","451","499138","0.0-1.0-618.0-0.0","0","0","43587","","null","","","null","68","","","","","","","","","","","","","","","",""
"","ITI","","html-keyboard-response","452","500142","0.0-1.0-621.0","0","0","43587","","null","","","null","68","","","","","","","","","","","","","","","NaN",""
"","S1","","html-keyboard-response","453","500296","0.0-1.0-623.0","0","0","43587","","null","","","null","69","","","","","","","","","","","","","","","",""
"","ISI","","html-keyboard-response","454","502300","0.0-1.0-624.0","0","0","43587","","null","","","null","69","NaN","","","","","","","","","","","","","","",""
"","S2","","html-keyboard-response","455","502455","0.0-1.0-625.0","0","0","43587","","null","","","null","69","","NaN","","","","","","","","","","","","","",""
"","response","","html-keyboard-response","456","503012","0.0-1.0-626.0-0.0","0","0","43587","","554","","","68","69","","","2","69","training","adjacent","DC","4","3","Q.jpg","M.jpg","0","0","1","",""
"","feedback","","html-keyboard-response","457","504016","0.0-1.0-627.0-0.0","0","0","43587","","null","","","null","69","","","","","","","","","","","","","","","",""
"","ITI","","html-keyboard-response","458","505019","0.0-1.0-630.0","0","0","43587","","null","","","null","69","","","","","","","","","","","","","","","NaN",""
"","S1","","html-keyboard-response","459","505172","0.0-1.0-632.0","0","0","43587","","null","","","null","70","","","","","","","","","","","","","","","",""
"","ISI","","html-keyboard-response","460","507175","0.0-1.0-633.0","0","0","43587","","null","","","null","70","NaN","","","","","","","","","","","","","","",""
"","S2","","html-keyboard-response","461","507329","0.0-1.0-634.0","0","0","43587","","null","","","null","70","","NaN","","","","","","","","","","","","","",""
"","response","","html-keyboard-response","462","507797","0.0-1.0-635.0-0.0","0","0","43587","","466","","","75","70","","","2","70","training","adjacent","FE","6","5","O.jpg","N.jpg","1","0","0","",""
"","feedback","","html-keyboard-response","463","508802","0.0-1.0-636.0-0.0","0","0","43587","","null","","","null","70","","","","","","","","","","","","","","","",""
"","time_out","","html-keyboard-response","464","510805","0.0-1.0-638.0-0.0","0","0","43587","","null","","","null","70","","","","","","","","","","","","","","","",""
"","ITI","","html-keyboard-response","465","511809","0.0-1.0-639.0","0","0","43587","","null","","","null","70","","","","","","","","","","","","","","","NaN",""
"","S1","","html-keyboard-response","466","511963","0.0-1.0-641.0","0","0","43587","","null","","","null","71","","","","","","","","","","","","","","","",""
"","ISI","","html-keyboard-response","467","513967","0.0-1.0-642.0","0","0","43587","","null","","","null","71","NaN","","","","","","","","","","","","","","",""
"","S2","","html-keyboard-response","468","514121","0.0-1.0-643.0","0","0","43587","","null","","","null","71","","NaN","","","","","","","","","","","","","",""
"","response","","html-keyboard-response","469","514566","0.0-1.0-644.0-0.0","0","0","43587","","443","","","75","71","","","2","71","training","adjacent","EF","5","6","N.jpg","O.jpg","1","1","1","",""
"","feedback","","html-keyboard-response","470","515570","0.0-1.0-645.0-0.0","0","0","43587","","null","","","null","71","","","","","","","","","","","","","","","",""
"","ITI","","html-keyboard-response","471","516573","0.0-1.0-648.0","0","0","43587","","null","","","null","71","","","","","","","","","","","","","","","NaN",""
"","S1","","html-keyboard-response","472","516727","0.0-1.0-650.0","0","0","43587","","null","","","null","72","","","","","","","","","","","","","","","",""
"","ISI","","html-keyboard-response","473","518729","0.0-1.0-651.0","0","0","43587","","null","","","null","72","NaN","","","","","","","","","","","","","","",""
"","S2","","html-keyboard-response","474","518883","0.0-1.0-652.0","0","0","43587","","null","","","null","72","","NaN","","","","","","","","","","","","","",""
"","response","","html-keyboard-response","475","519247","0.0-1.0-653.0-0.0","0","0","43587","","361","","","75","72","","","2","72","training","adjacent","GF","7","6","R.jpg","O.jpg","1","0","0","",""
"","feedback","","html-keyboard-response","476","520252","0.0-1.0-654.0-0.0","0","0","43587","","null","","","null","72","","","","","","","","","","","","","","","",""
"","time_out","","html-keyboard-response","477","522256","0.0-1.0-656.0-0.0","0","0","43587","","null","","","null","72","","","","","","","","","","","","","","","",""
"","ITI","","html-keyboard-response","478","523260","0.0-1.0-657.0","0","0","43587","","null","","","null","72","","","","","","","","","","","","","","","NaN",""
"","S1","","html-keyboard-response","479","523413","0.0-1.0-659.0","0","0","43587","","null","","","null","73","","","","","","","","","","","","","","","",""
"","ISI","","html-keyboard-response","480","525415","0.0-1.0-660.0","0","0","43587","","null","","","null","73","NaN","","","","","","","","","","","","","","",""
"","S2","","html-keyboard-response","481","525569","0.0-1.0-661.0","0","0","43587","","null","","","null","73","","NaN","","","","","","","","","","","","","",""
"","response","","html-keyboard-response","482","525976","0.0-1.0-662.0-0.0","0","0","43587","","405","","","75","73","","","2","73","training","adjacent","AB","1","2","L.jpg","P.jpg","1","1","1","",""
"","feedback","","html-keyboard-response","483","526979","0.0-1.0-663.0-0.0","0","0","43587","","null","","","null","73","","","","","","","","","","","","","","","",""
"","ITI","","html-keyboard-response","484","527981","0.0-1.0-666.0","0","0","43587","","null","","","null","73","","","","","","","","","","","","","","","NaN",""
"","S1","","html-keyboard-response","485","528135","0.0-1.0-668.0","0","0","43587","","null","","","null","74","","","","","","","","","","","","","","","",""
"","ISI","","html-keyboard-response","486","530138","0.0-1.0-669.0","0","0","43587","","null","","","null","74","NaN","","","","","","","","","","","","","","",""
"","S2","","html-keyboard-response","487","530292","0.0-1.0-670.0","0","0","43587","","null","","","null","74","","NaN","","","","","","","","","","","","","",""
"","response","","html-keyboard-response","488","530779","0.0-1.0-671.0-0.0","0","0","43587","","484","","","68","74","","","2","74","training","adjacent","EF","5","6","N.jpg","O.jpg","0","1","0","",""
"","feedback","","html-keyboard-response","489","531784","0.0-1.0-672.0-0.0","0","0","43587","","null","","","null","74","","","","","","","","","","","","","","","",""
"","time_out","","html-keyboard-response","490","533787","0.0-1.0-674.0-0.0","0","0","43587","","null","","","null","74","","","","","","","","","","","","","","","",""
"","ITI","","html-keyboard-response","491","534789","0.0-1.0-675.0","0","0","43587","","null","","","null","74","","","","","","","","","","","","","","","NaN",""
"","S1","","html-keyboard-response","492","534942","0.0-1.0-677.0","0","0","43587","","null","","","null","75","","","","","","","","","","","","","","","",""
"","ISI","","html-keyboard-response","493","536944","0.0-1.0-678.0","0","0","43587","","null","","","null","75","NaN","","","","","","","","","","","","","","",""
"","S2","","html-keyboard-response","494","537097","0.0-1.0-679.0","0","0","43587","","null","","","null","75","","NaN","","","","","","","","","","","","","",""
"","response","","html-keyboard-response","495","537531","0.0-1.0-680.0-0.0","0","0","43587","","432","","","68","75","","","2","75","training","adjacent","DE","4","5","Q.jpg","N.jpg","0","1","0","",""
"","feedback","","html-keyboard-response","496","538536","0.0-1.0-681.0-0.0","0","0","43587","","null","","","null","75","","","","","","","","","","","","","","","",""
"","time_out","","html-keyboard-response","497","540540","0.0-1.0-683.0-0.0","0","0","43587","","null","","","null","75","","","","","","","","","","","","","","","",""
"","ITI","","html-keyboard-response","498","541544","0.0-1.0-684.0","0","0","43587","","null","","","null","75","","","","","","","","","","","","","","","NaN",""
"","S1","","html-keyboard-response","499","541697","0.0-1.0-686.0","0","0","43587","","null","","","null","76","","","","","","","","","","","","","","","",""
"","ISI","","html-keyboard-response","500","543701","0.0-1.0-687.0","0","0","43587","","null","","","null","76","NaN","","","","","","","","","","","","","","",""
"","S2","","html-keyboard-response","501","543856","0.0-1.0-688.0","0","0","43587","","null","","","null","76","","NaN","","","","","","","","","","","","","",""
"","response","","html-keyboard-response","502","544835","0.0-1.0-689.0-0.0","0","0","43587","","977","","","68","76","","","2","76","training","adjacent","DC","4","3","Q.jpg","M.jpg","0","0","1","",""
"","feedback","","html-keyboard-response","503","545838","0.0-1.0-690.0-0.0","0","0","43587","","null","","","null","76","","","","","","","","","","","","","","","",""
"","ITI","","html-keyboard-response","504","546841","0.0-1.0-693.0","0","0","43587","","null","","","null","76","","","","","","","","","","","","","","","NaN",""
"","S1","","html-keyboard-response","505","546995","0.0-1.0-695.0","0","0","43587","","null","","","null","77","","","","","","","","","","","","","","","",""
"","ISI","","html-keyboard-response","506","548998","0.0-1.0-696.0","0","0","43587","","null","","","null","77","NaN","","","","","","","","","","","","","","",""
"","S2","","html-keyboard-response","507","549152","0.0-1.0-697.0","0","0","43587","","null","","","null","77","","NaN","","","","","","","","","","","","","",""
"","response","","html-keyboard-response","508","549449","0.0-1.0-698.0-0.0","0","0","43587","","294","","","75","77","","","2","77","training","adjacent","ED","5","4","N.jpg","Q.jpg","1","0","0","",""
"","feedback","","html-keyboard-response","509","550454","0.0-1.0-699.0-0.0","0","0","43587","","null","","","null","77","","","","","","","","","","","","","","","",""
"","time_out","","html-keyboard-response","510","552458","0.0-1.0-701.0-0.0","0","0","43587","","null","","","null","77","","","","","","","","","","","","","","","",""
"","ITI","","html-keyboard-response","511","553462","0.0-1.0-702.0","0","0","43587","","null","","","null","77","","","","","","","","","","","","","","","NaN",""
"","S1","","html-keyboard-response","512","553615","0.0-1.0-704.0","0","0","43587","","null","","","null","78","","","","","","","","","","","","","","","",""
"","ISI","","html-keyboard-response","513","555619","0.0-1.0-705.0","0","0","43587","","null","","","null","78","NaN","","","","","","","","","","","","","","",""
"","S2","","html-keyboard-response","514","555773","0.0-1.0-706.0","0","0","43587","","null","","","null","78","","NaN","","","","","","","","","","","","","",""
"","response","","html-keyboard-response","515","556176","0.0-1.0-707.0-0.0","0","0","43587","","400","","","75","78","","","2","78","training","adjacent","CD","3","4","M.jpg","Q.jpg","1","1","1","",""
"","feedback","","html-keyboard-response","516","557181","0.0-1.0-708.0-0.0","0","0","43587","","null","","","null","78","","","","","","","","","","","","","","","",""
"","ITI","","html-keyboard-response","517","558185","0.0-1.0-711.0","0","0","43587","","null","","","null","78","","","","","","","","","","","","","","","NaN",""
"","S1","","html-keyboard-response","518","558339","0.0-1.0-713.0","0","0","43587","","null","","","null","79","","","","","","","","","","","","","","","",""
"","ISI","","html-keyboard-response","519","560343","0.0-1.0-714.0","0","0","43587","","null","","","null","79","NaN","","","","","","","","","","","","","","",""
"","S2","","html-keyboard-response","520","560498","0.0-1.0-715.0","0","0","43587","","null","","","null","79","","NaN","","","","","","","","","","","","","",""
"","response","","html-keyboard-response","521","561123","0.0-1.0-716.0-0.0","0","0","43587","","622","","","75","79","","","2","79","training","adjacent","FG","6","7","O.jpg","R.jpg","1","1","1","",""
"","feedback","","html-keyboard-response","522","562127","0.0-1.0-717.0-0.0","0","0","43587","","null","","","null","79","","","","","","","","","","","","","","","",""
"","ITI","","html-keyboard-response","523","563132","0.0-1.0-720.0","0","0","43587","","null","","","null","79","","","","","","","","","","","","","","","NaN",""
"","S1","","html-keyboard-response","524","563286","0.0-1.0-722.0","0","0","43587","","null","","","null","80","","","","","","","","","","","","","","","",""
"","ISI","","html-keyboard-response","525","565290","0.0-1.0-723.0","0","0","43587","","null","","","null","80","NaN","","","","","","","","","","","","","","",""
"","S2","","html-keyboard-response","526","565444","0.0-1.0-724.0","0","0","43587","","null","","","null","80","","NaN","","","","","","","","","","","","","",""
"","response","","html-keyboard-response","527","565912","0.0-1.0-725.0-0.0","0","0","43587","","466","","","75","80","","","2","80","training","adjacent","GF","7","6","R.jpg","O.jpg","1","0","0","",""
"","feedback","","html-keyboard-response","528","566916","0.0-1.0-726.0-0.0","0","0","43587","","null","","","null","80","","","","","","","","","","","","","","","",""
"","time_out","","html-keyboard-response","529","568920","0.0-1.0-728.0-0.0","0","0","43587","","null","","","null","80","","","","","","","","","","","","","","","",""
"","ITI","","html-keyboard-response","530","569923","0.0-1.0-729.0","0","0","43587","","null","","","null","80","","","","","","","","","","","","","","","NaN",""
"","S1","","html-keyboard-response","531","570078","0.0-1.0-731.0","0","0","43587","","null","","","null","81","","","","","","","","","","","","","","","",""
"","ISI","","html-keyboard-response","532","572082","0.0-1.0-732.0","0","0","43587","","null","","","null","81","NaN","","","","","","","","","","","","","","",""
"","S2","","html-keyboard-response","533","572235","0.0-1.0-733.0","0","0","43587","","null","","","null","81","","NaN","","","","","","","","","","","","","",""
"","response","","html-keyboard-response","534","572556","0.0-1.0-734.0-0.0","0","0","43587","","319","","","75","81","","","2","81","training","adjacent","DC","4","3","Q.jpg","M.jpg","1","0","0","",""
"","feedback","","html-keyboard-response","535","573560","0.0-1.0-735.0-0.0","0","0","43587","","null","","","null","81","","","","","","","","","","","","","","","",""
"","time_out","","html-keyboard-response","536","575564","0.0-1.0-737.0-0.0","0","0","43587","","null","","","null","81","","","","","","","","","","","","","","","",""
"","ITI","","html-keyboard-response","537","576568","0.0-1.0-738.0","0","0","43587","","null","","","null","81","","","","","","","","","","","","","","","NaN",""
"","S1","","html-keyboard-response","538","576722","0.0-1.0-740.0","0","0","43587","","null","","","null","82","","","","","","","","","","","","","","","",""
"","ISI","","html-keyboard-response","539","578726","0.0-1.0-741.0","0","0","43587","","null","","","null","82","NaN","","","","","","","","","","","","","","",""
"","S2","","html-keyboard-response","540","578880","0.0-1.0-742.0","0","0","43587","","null","","","null","82","","NaN","","","","","","","","","","","","","",""
"","response","","html-keyboard-response","541","579406","0.0-1.0-743.0-0.0","0","0","43587","","524","","","75","82","","","2","82","training","adjacent","DE","4","5","Q.jpg","N.jpg","1","1","1","",""
"","feedback","","html-keyboard-response","542","580410","0.0-1.0-744.0-0.0","0","0","43587","","null","","","null","82","","","","","","","","","","","","","","","",""
"","ITI","","html-keyboard-response","543","581413","0.0-1.0-747.0","0","0","43587","","null","","","null","82","","","","","","","","","","","","","","","NaN",""
"","S1","","html-keyboard-response","544","581567","0.0-1.0-749.0","0","0","43587","","null","","","null","83","","","","","","","","","","","","","","","",""
"","ISI","","html-keyboard-response","545","583571","0.0-1.0-750.0","0","0","43587","","null","","","null","83","NaN","","","","","","","","","","","","","","",""
"","S2","","html-keyboard-response","546","583724","0.0-1.0-751.0","0","0","43587","","null","","","null","83","","NaN","","","","","","","","","","","","","",""
"","response","","html-keyboard-response","547","584294","0.0-1.0-752.0-0.0","0","0","43587","","569","","","68","83","","","2","83","training","adjacent","BC","2","3","P.jpg","M.jpg","0","1","0","",""
"","feedback","","html-keyboard-response","548","585297","0.0-1.0-753.0-0.0","0","0","43587","","null","","","null","83","","","","","","","","","","","","","","","",""
"","time_out","","html-keyboard-response","549","587299","0.0-1.0-755.0-0.0","0","0","43587","","null","","","null","83","","","","","","","","","","","","","","","",""
"","ITI","","html-keyboard-response","550","588303","0.0-1.0-756.0","0","0","43587","","null","","","null","83","","","","","","","","","","","","","","","NaN",""
"","S1","","html-keyboard-response","551","588458","0.0-1.0-758.0","0","0","43587","","null","","","null","84","","","","","","","","","","","","","","","",""
"","ISI","","html-keyboard-response","552","590462","0.0-1.0-759.0","0","0","43587","","null","","","null","84","NaN","","","","","","","","","","","","","","",""
"","S2","","html-keyboard-response","553","590615","0.0-1.0-760.0","0","0","43587","","null","","","null","84","","NaN","","","","","","","","","","","","","",""
"","response","","html-keyboard-response","554","590890","0.0-1.0-761.0-0.0","0","0","43587","","273","","","68","84","","","2","84","training","adjacent","BC","2","3","P.jpg","M.jpg","0","1","0","",""
"","feedback","","html-keyboard-response","555","591896","0.0-1.0-762.0-0.0","0","0","43587","","null","","","null","84","","","","","","","","","","","","","","","",""
"","time_out","","html-keyboard-response","556","593899","0.0-1.0-764.0-0.0","0","0","43587","","null","","","null","84","","","","","","","","","","","","","","","",""
"","ITI","","html-keyboard-response","557","594903","0.0-1.0-765.0","0","0","43587","","null","","","null","84","","","","","","","","","","","","","","","NaN",""
"","S1","","html-keyboard-response","558","595057","0.0-1.0-767.0","0","0","43587","","null","","","null","85","","","","","","","","","","","","","","","",""
"","ISI","","html-keyboard-response","559","597060","0.0-1.0-768.0","0","0","43587","","null","","","null","85","NaN","","","","","","","","","","","","","","",""
"","S2","","html-keyboard-response","560","597214","0.0-1.0-769.0","0","0","43587","","null","","","null","85","","NaN","","","","","","","","","","","","","",""
"","response","","html-keyboard-response","561","597849","0.0-1.0-770.0-0.0","0","0","43587","","632","","","68","85","","","2","85","training","adjacent","FG","6","7","O.jpg","R.jpg","0","1","0","",""
"","feedback","","html-keyboard-response","562","598854","0.0-1.0-771.0-0.0","0","0","43587","","null","","","null","85","","","","","","","","","","","","","","","",""
"","time_out","","html-keyboard-response","563","600858","0.0-1.0-773.0-0.0","0","0","43587","","null","","","null","85","","","","","","","","","","","","","","","",""
"","ITI","","html-keyboard-response","564","601862","0.0-1.0-774.0","0","0","43587","","null","","","null","85","","","","","","","","","","","","","","","NaN",""
"","S1","","html-keyboard-response","565","602016","0.0-1.0-776.0","0","0","43587","","null","","","null","86","","","","","","","","","","","","","","","",""
"","ISI","","html-keyboard-response","566","604021","0.0-1.0-777.0","0","0","43587","","null","","","null","86","NaN","","","","","","","","","","","","","","",""
"","S2","","html-keyboard-response","567","604175","0.0-1.0-778.0","0","0","43587","","null","","","null","86","","NaN","","","","","","","","","","","","","",""
"","response","","html-keyboard-response","568","604611","0.0-1.0-779.0-0.0","0","0","43587","","433","","","68","86","","","2","86","training","adjacent","FG","6","7","O.jpg","R.jpg","0","1","0","",""
"","feedback","","html-keyboard-response","569","605615","0.0-1.0-780.0-0.0","0","0","43587","","null","","","null","86","","","","","","","","","","","","","","","",""
"","time_out","","html-keyboard-response","570","607619","0.0-1.0-782.0-0.0","0","0","43587","","null","","","null","86","","","","","","","","","","","","","","","",""
"","ITI","","html-keyboard-response","571","608622","0.0-1.0-783.0","0","0","43587","","null","","","null","86","","","","","","","","","","","","","","","NaN",""
"","S1","","html-keyboard-response","572","608790","0.0-1.0-785.0","0","0","43587","","null","","","null","87","","","","","","","","","","","","","","","",""
"","ISI","","html-keyboard-response","573","610794","0.0-1.0-786.0","0","0","43587","","null","","","null","87","NaN","","","","","","","","","","","","","","",""
"","S2","","html-keyboard-response","574","610947","0.0-1.0-787.0","0","0","43587","","null","","","null","87","","NaN","","","","","","","","","","","","","",""
"","response","","html-keyboard-response","575","611470","0.0-1.0-788.0-0.0","0","0","43587","","522","","","75","87","","","2","87","training","adjacent","CB","3","2","M.jpg","P.jpg","1","0","0","",""
"","feedback","","html-keyboard-response","576","612474","0.0-1.0-789.0-0.0","0","0","43587","","null","","","null","87","","","","","","","","","","","","","","","",""
"","time_out","","html-keyboard-response","577","614479","0.0-1.0-791.0-0.0","0","0","43587","","null","","","null","87","","","","","","","","","","","","","","","",""
"","ITI","","html-keyboard-response","578","615482","0.0-1.0-792.0","0","0","43587","","null","","","null","87","","","","","","","","","","","","","","","NaN",""
"","S1","","html-keyboard-response","579","615638","0.0-1.0-794.0","0","0","43587","","null","","","null","88","","","","","","","","","","","","","","","",""
"","ISI","","html-keyboard-response","580","617642","0.0-1.0-795.0","0","0","43587","","null","","","null","88","NaN","","","","","","","","","","","","","","",""
"","S2","","html-keyboard-response","581","617796","0.0-1.0-796.0","0","0","43587","","null","","","null","88","","NaN","","","","","","","","","","","","","",""
"","response","","html-keyboard-response","582","618329","0.0-1.0-797.0-0.0","0","0","43587","","530","","","75","88","","","2","88","training","adjacent","BC","2","3","P.jpg","M.jpg","1","1","1","",""
