"success","ttype","start_time","trial_type","trial_index","time_elapsed","internal_node_id","warning","missed_checkup","PID","view_history","rt","responses","repeat_instructions","key_press","index","keypress_isi","keypress_S2","block","trial_num","phase","group_type","pair_type","S1_stim","S2_stim","S1_img","S2_img","S1_chosen","S1_higher","accuracy","keypress_iti","total_bonus_tally"
"true","full_screen","d07292022hr2007","fullscreen","0","9328","0.0-0.0","0","0","89037","","","","","","","","","","","","","","","","","","","","","",""
"","instructions","","instructions","1","32194","0.0-1.0-0.0-0.0","0","0","89037","[{""page_index"":0,""viewing_time"":3155},{""page_index"":1,""viewing_time"":10211},{""page_index"":2,""viewing_time"":8208},{""page_index"":3,""viewing_time"":1287}]","22861","","","","","","","","","","","","","","","","","","","",""
"","comprehension_check","","survey-multi-choice","2","55431","0.0-1.0-0.0-1.0","0","0","89037","","23231","{""Q0"":""True"",""Q1"":""K"",""Q2"":""When you see the prompt 'MAKE A CHOICE' after the second image was presented"",""Q3"":""Green mark"",""Q4"":""either D or K""}","0","","","","","","","","","","","","","","","","","",""
"","start_exp","","html-keyboard-response","3","58789","0.0-1.0-1.0","0","0","89037","","3352","","","32","","","","","","","","","","","","","","","","",""
"","S1","","html-keyboard-response","4","59053","0.0-1.0-2.0","0","0","89037","","null","","","null","0","","","","","","","","","","","","","","","",""
"","ISI","","html-keyboard-response","5","61062","0.0-1.0-3.0","0","0","89037","","null","","","null","0","NaN","","","","","","","","","","","","","","",""
"","S2","","html-keyboard-response","6","61318","0.0-1.0-4.0","0","0","89037","","null","","","null","0","","NaN","","","","","","","","","","","","","",""
"","response","","html-keyboard-response","7","61938","0.0-1.0-5.0","0","0","89037","","616","","","75","0","","","1","0","training","adjacent","EF","5","6","N.jpg","P.jpg","1","1","1","",""
"","feedback","","html-keyboard-response","8","62952","0.0-1.0-6.0-0.0","0","0","89037","","null","","","null","0","","","","","","","","","","","","","","","",""
"","ITI","","html-keyboard-response","9","63967","0.0-1.0-9.0","0","0","89037","","null","","","null","0","","","","","","","","","","","","","","","NaN",""
"","S1","","html-keyboard-response","10","64226","0.0-1.0-11.0","0","0","89037","","null","","","null","1","","","","","","","","","","","","","","","",""
"","ISI","","html-keyboard-response","11","66235","0.0-1.0-12.0","0","0","89037","","null","","","null","1","NaN","","","","","","","","","","","","","","",""
"","S2","","html-keyboard-response","12","66500","0.0-1.0-13.0","0","0","89037","","null","","","null","1","","NaN","","","","","","","","","","","","","",""
"","response","","html-keyboard-response","13","66927","0.0-1.0-14.0","0","0","89037","","422","","","75","1","","","1","1","training","adjacent","CB","3","2","M.jpg","L.jpg","1","0","0","",""
"","feedback","","html-keyboard-response","14","67933","0.0-1.0-15.0-0.0","0","0","89037","","null","","","null","1","","","","","","","","","","","","","","","",""
"","time_out","","html-keyboard-response","15","69945","0.0-1.0-17.0-0.0","0","0","89037","","null","","","null","1","","","","","","","","","","","","","","","",""
"","ITI","","html-keyboard-response","16","70960","0.0-1.0-18.0","0","0","89037","","null","","","null","1","","","","","","","","","","","","","","","NaN",""
"","S1","","html-keyboard-response","17","71216","0.0-1.0-20.0","0","0","89037","","null","","","null","2","","","","","","","","","","","","","","","",""
"","ISI","","html-keyboard-response","18","73223","0.0-1.0-21.0","0","0","89037","","null","","","null","2","NaN","","","","","","","","","","","","","","",""
"","S2","","html-keyboard-response","19","73478","0.0-1.0-22.0","0","0","89037","","null","","","null","2","","NaN","","","","","","","","","","","","","",""
"","response","","html-keyboard-response","20","74379","0.0-1.0-23.0","0","0","89037","","896","","","75","2","","","1","2","training","adjacent","DE","4","5","Q.jpg","N.jpg","1","1","1","",""
"","feedback","","html-keyboard-response","21","75384","0.0-1.0-24.0-0.0","0","0","89037","","null","","","null","2","","","","","","","","","","","","","","","",""
"","ITI","","html-keyboard-response","22","76399","0.0-1.0-27.0","0","0","89037","","null","","","null","2","","","","","","","","","","","","","","","NaN",""
"","S1","","html-keyboard-response","23","76662","0.0-1.0-29.0","0","0","89037","","null","","","null","3","","","","","","","","","","","","","","","",""
"","ISI","","html-keyboard-response","24","78665","0.0-1.0-30.0","0","0","89037","","null","","","null","3","NaN","","","","","","","","","","","","","","",""
"","S2","","html-keyboard-response","25","78929","0.0-1.0-31.0","0","0","89037","","null","","","null","3","","NaN","","","","","","","","","","","","","",""
"","response","","html-keyboard-response","26","79450","0.0-1.0-32.0","0","0","89037","","518","","","68","3","","","1","3","training","adjacent","FE","6","5","P.jpg","N.jpg","0","0","1","",""
"","feedback","","html-keyboard-response","27","80455","0.0-1.0-33.0-0.0","0","0","89037","","null","","","null","3","","","","","","","","","","","","","","","",""
"","ITI","","html-keyboard-response","28","81470","0.0-1.0-36.0","0","0","89037","","null","","","null","3","","","","","","","","","","","","","","","NaN",""
"","S1","","html-keyboard-response","29","81731","0.0-1.0-38.0","0","0","89037","","null","","","null","4","","","","","","","","","","","","","","","",""
"","ISI","","html-keyboard-response","30","83743","0.0-1.0-39.0","0","0","89037","","null","","","null","4","NaN","","","","","","","","","","","","","","",""
"","S2","","html-keyboard-response","31","84010","0.0-1.0-40.0","0","0","89037","","null","","","null","4","","NaN","","","","","","","","","","","","","",""
"","response","","html-keyboard-response","32","84353","0.0-1.0-41.0","0","0","89037","","341","","","75","4","","","1","4","training","adjacent","DE","4","5","Q.jpg","N.jpg","1","1","1","",""
"","feedback","","html-keyboard-response","33","85359","0.0-1.0-42.0-0.0","0","0","89037","","null","","","null","4","","","","","","","","","","","","","","","",""
"","ITI","","html-keyboard-response","34","86377","0.0-1.0-45.0","0","0","89037","","null","","","null","4","","","","","","","","","","","","","","","NaN",""
"","S1","","html-keyboard-response","35","86640","0.0-1.0-47.0","0","0","89037","","null","","","null","5","","","","","","","","","","","","","","","",""
"","ISI","","html-keyboard-response","36","88647","0.0-1.0-48.0","0","0","89037","","null","","","null","5","NaN","","","","","","","","","","","","","","",""
"","S2","","html-keyboard-response","37","88915","0.0-1.0-49.0","0","0","89037","","null","","","null","5","","NaN","","","","","","","","","","","","","",""
"","response","","html-keyboard-response","38","89256","0.0-1.0-50.0","0","0","89037","","339","","","75","5","","","1","5","training","adjacent","DE","4","5","Q.jpg","N.jpg","1","1","1","",""
"","feedback","","html-keyboard-response","39","90266","0.0-1.0-51.0-0.0","0","0","89037","","null","","","null","5","","","","","","","","","","","","","","","",""
"","ITI","","html-keyboard-response","40","91273","0.0-1.0-54.0","0","0","89037","","null","","","null","5","","","","","","","","","","","","","","","NaN",""
"","S1","","html-keyboard-response","41","91534","0.0-1.0-56.0","0","0","89037","","null","","","null","6","","","","","","","","","","","","","","","",""
"","ISI","","html-keyboard-response","42","93546","0.0-1.0-57.0","0","0","89037","","null","","","null","6","NaN","","","","","","","","","","","","","","",""
"","S2","","html-keyboard-response","43","93808","0.0-1.0-58.0","0","0","89037","","null","","","null","6","","NaN","","","","","","","","","","","","","",""
"","response","","html-keyboard-response","44","94374","0.0-1.0-59.0","0","0","89037","","563","","","75","6","","","1","6","training","adjacent","FG","6","7","P.jpg","O.jpg","1","1","1","",""
"","feedback","","html-keyboard-response","45","95380","0.0-1.0-60.0-0.0","0","0","89037","","null","","","null","6","","","","","","","","","","","","","","","",""
"","ITI","","html-keyboard-response","46","96386","0.0-1.0-63.0","0","0","89037","","null","","","null","6","","","","","","","","","","","","","","","NaN",""
"","S1","","html-keyboard-response","47","96649","0.0-1.0-65.0","0","0","89037","","null","","","null","7","","","","","","","","","","","","","","","",""
"","ISI","","html-keyboard-response","48","98661","0.0-1.0-66.0","0","0","89037","","null","","","null","7","NaN","","","","","","","","","","","","","","",""
"","S2","","html-keyboard-response","49","98914","0.0-1.0-67.0","0","0","89037","","null","","","null","7","","NaN","","","","","","","","","","","","","",""
"","response","","html-keyboard-response","50","99415","0.0-1.0-68.0","0","0","89037","","497","","","75","7","","","1","7","training","adjacent","FE","6","5","P.jpg","N.jpg","1","0","0","",""
"","feedback","","html-keyboard-response","51","100418","0.0-1.0-69.0-0.0","0","0","89037","","null","","","null","7","","","","","","","","","","","","","","","",""
"","time_out","","html-keyboard-response","52","102432","0.0-1.0-71.0-0.0","0","0","89037","","null","","","null","7","","","","","","","","","","","","","","","",""
"","ITI","","html-keyboard-response","53","103440","0.0-1.0-72.0","0","0","89037","","null","","","null","7","","","","","","","","","","","","","","","NaN",""
"","S1","","html-keyboard-response","54","103700","0.0-1.0-74.0","0","0","89037","","null","","","null","8","","","","","","","","","","","","","","","",""
"","ISI","","html-keyboard-response","55","105712","0.0-1.0-75.0","0","0","89037","","null","","","null","8","NaN","","","","","","","","","","","","","","",""
"","S2","","html-keyboard-response","56","105966","0.0-1.0-76.0","0","0","89037","","null","","","null","8","","NaN","","","","","","","","","","","","","",""
"","response","","html-keyboard-response","57","106588","0.0-1.0-77.0","0","0","89037","","619","","","68","8","","","1","8","training","adjacent","ED","5","4","N.jpg","Q.jpg","0","0","1","",""
"","feedback","","html-keyboard-response","58","107598","0.0-1.0-78.0-0.0","0","0","89037","","null","","","null","8","","","","","","","","","","","","","","","",""
"","ITI","","html-keyboard-response","59","108616","0.0-1.0-81.0","0","0","89037","","null","","","null","8","","","","","","","","","","","","","","","NaN",""
"","S1","","html-keyboard-response","60","108875","0.0-1.0-83.0","0","0","89037","","null","","","null","9","","","","","","","","","","","","","","","",""
"","ISI","","html-keyboard-response","61","110890","0.0-1.0-84.0","0","0","89037","","null","","","null","9","NaN","","","","","","","","","","","","","","",""
"","S2","","html-keyboard-response","62","111153","0.0-1.0-85.0","0","0","89037","","null","","","null","9","","NaN","","","","","","","","","","","","","",""
"","response","","html-keyboard-response","63","111799","0.0-1.0-86.0","0","0","89037","","644","","","68","9","","","1","9","training","adjacent","FE","6","5","P.jpg","N.jpg","0","0","1","",""
"","feedback","","html-keyboard-response","64","112816","0.0-1.0-87.0-0.0","0","0","89037","","null","","","null","9","","","","","","","","","","","","","","","",""
"","ITI","","html-keyboard-response","65","113826","0.0-1.0-90.0","0","0","89037","","null","","","null","9","","","","","","","","","","","","","","","NaN",""
"","S1","","html-keyboard-response","66","114097","0.0-1.0-92.0","0","0","89037","","null","","","null","10","","","","","","","","","","","","","","","",""
"","ISI","","html-keyboard-response","67","116101","0.0-1.0-93.0","0","0","89037","","null","","","null","10","NaN","","","","","","","","","","","","","","",""
"","S2","","html-keyboard-response","68","116361","0.0-1.0-94.0","0","0","89037","","null","","","null","10","","NaN","","","","","","","","","","","","","",""
"","response","","html-keyboard-response","69","117598","0.0-1.0-95.0","0","0","89037","","1234","","","68","10","","","1","10","training","adjacent","CB","3","2","M.jpg","L.jpg","0","0","1","",""
"","feedback","","html-keyboard-response","70","118607","0.0-1.0-96.0-0.0","0","0","89037","","null","","","null","10","","","","","","","","","","","","","","","",""
"","ITI","","html-keyboard-response","71","119618","0.0-1.0-99.0","0","0","89037","","null","","","null","10","","","","","","","","","","","","","","","NaN",""
"","S1","","html-keyboard-response","72","119881","0.0-1.0-101.0","0","0","89037","","null","","","null","11","","","","","","","","","","","","","","","",""
"","ISI","","html-keyboard-response","73","121898","0.0-1.0-102.0","0","0","89037","","null","","","null","11","NaN","","","","","","","","","","","","","","",""
"","S2","","html-keyboard-response","74","122165","0.0-1.0-103.0","0","0","89037","","null","","","null","11","","NaN","","","","","","","","","","","","","",""
"","response","","html-keyboard-response","75","122438","0.0-1.0-104.0","0","0","89037","","271","","","75","11","","","1","11","training","adjacent","DC","4","3","Q.jpg","M.jpg","1","0","0","",""
"","feedback","","html-keyboard-response","76","123456","0.0-1.0-105.0-0.0","0","0","89037","","null","","","null","11","","","","","","","","","","","","","","","",""
"","time_out","","html-keyboard-response","77","125469","0.0-1.0-107.0-0.0","0","0","89037","","null","","","null","11","","","","","","","","","","","","","","","",""
"","ITI","","html-keyboard-response","78","126478","0.0-1.0-108.0","0","0","89037","","null","","","null","11","","","","","","","","","","","","","","","NaN",""
"","S1","","html-keyboard-response","79","126739","0.0-1.0-110.0","0","0","89037","","null","","","null","12","","","","","","","","","","","","","","","",""
"","ISI","","html-keyboard-response","80","128751","0.0-1.0-111.0","0","0","89037","","null","","","null","12","NaN","","","","","","","","","","","","","","",""
"","S2","","html-keyboard-response","81","129018","0.0-1.0-112.0","0","0","89037","","null","","","null","12","","NaN","","","","","","","","","","","","","",""
"","response","","html-keyboard-response","82","129521","0.0-1.0-113.0","0","0","89037","","499","","","75","12","","","1","12","training","adjacent","BA","2","1","L.jpg","R.jpg","1","0","0","",""
"","feedback","","html-keyboard-response","83","130527","0.0-1.0-114.0-0.0","0","0","89037","","null","","","null","12","","","","","","","","","","","","","","","",""
"","time_out","","html-keyboard-response","84","132541","0.0-1.0-116.0-0.0","0","0","89037","","null","","","null","12","","","","","","","","","","","","","","","",""
"","ITI","","html-keyboard-response","85","133544","0.0-1.0-117.0","0","0","89037","","null","","","null","12","","","","","","","","","","","","","","","NaN",""
"","S1","","html-keyboard-response","86","133809","0.0-1.0-119.0","0","0","89037","","null","","","null","13","","","","","","","","","","","","","","","",""
"","ISI","","html-keyboard-response","87","135828","0.0-1.0-120.0","0","0","89037","","null","","","null","13","NaN","","","","","","","","","","","","","","",""
"","S2","","html-keyboard-response","88","136089","0.0-1.0-121.0","0","0","89037","","null","","","null","13","","NaN","","","","","","","","","","","","","",""
"","response","","html-keyboard-response","89","136453","0.0-1.0-122.0","0","0","89037","","362","","","68","13","","","1","13","training","adjacent","CD","3","4","M.jpg","Q.jpg","0","1","0","",""
"","feedback","","html-keyboard-response","90","137470","0.0-1.0-123.0-0.0","0","0","89037","","null","","","null","13","","","","","","","","","","","","","","","",""
"","time_out","","html-keyboard-response","91","139485","0.0-1.0-125.0-0.0","0","0","89037","","null","","","null","13","","","","","","","","","","","","","","","",""
"","ITI","","html-keyboard-response","92","140492","0.0-1.0-126.0","0","0","89037","","null","","","null","13","","","","","","","","","","","","","","","NaN",""
"","S1","","html-keyboard-response","93","140753","0.0-1.0-128.0","0","0","89037","","null","","","null","14","","","","","","","","","","","","","","","",""
"","ISI","","html-keyboard-response","94","142758","0.0-1.0-129.0","0","0","89037","","null","","","null","14","NaN","","","","","","","","","","","","","","",""
"","S2","","html-keyboard-response","95","143021","0.0-1.0-130.0","0","0","89037","","null","","","null","14","","NaN","","","","","","","","","","","","","",""
"","response","","html-keyboard-response","96","143468","0.0-1.0-131.0","0","0","89037","","444","","","75","14","","","1","14","training","adjacent","BC","2","3","L.jpg","M.jpg","1","1","1","",""
"","feedback","","html-keyboard-response","97","144476","0.0-1.0-132.0-0.0","0","0","89037","","null","","","null","14","","","","","","","","","","","","","","","",""
"","ITI","","html-keyboard-response","98","145488","0.0-1.0-135.0","0","0","89037","","null","","","null","14","","","","","","","","","","","","","","","NaN",""
"","S1","","html-keyboard-response","99","145752","0.0-1.0-137.0","0","0","89037","","null","","","null","15","","","","","","","","","","","","","","","",""
"","ISI","","html-keyboard-response","100","147759","0.0-1.0-138.0","0","0","89037","","null","","","null","15","NaN","","","","","","","","","","","","","","",""
"","S2","","html-keyboard-response","101","148016","0.0-1.0-139.0","0","0","89037","","null","","","null","15","","NaN","","","","","","","","","","","","","",""
"","response","","html-keyboard-response","102","148901","0.0-1.0-140.0","0","0","89037","","881","","","68","15","","","1","15","training","adjacent","EF","5","6","N.jpg","P.jpg","0","1","0","",""
"","feedback","","html-keyboard-response","103","149906","0.0-1.0-141.0-0.0","0","0","89037","","null","","","null","15","","","","","","","","","","","","","","","",""
"","time_out","","html-keyboard-response","104","151912","0.0-1.0-143.0-0.0","0","0","89037","","null","","","null","15","","","","","","","","","","","","","","","",""
"","ITI","","html-keyboard-response","105","152924","0.0-1.0-144.0","0","0","89037","","null","","","null","15","","","","","","","","","","","","","","","NaN",""
"","S1","","html-keyboard-response","106","153187","0.0-1.0-146.0","0","0","89037","","null","","","null","16","","","","","","","","","","","","","","","",""
"","ISI","","html-keyboard-response","107","155198","0.0-1.0-147.0","0","0","89037","","null","","","null","16","NaN","","","","","","","","","","","","","","",""
"","S2","","html-keyboard-response","108","155455","0.0-1.0-148.0","0","0","89037","","null","","","null","16","","NaN","","","","","","","","","","","","","",""
"","response","","html-keyboard-response","109","156116","0.0-1.0-149.0","0","0","89037","","658","","","75","16","","","1","16","training","adjacent","CD","3","4","M.jpg","Q.jpg","1","1","1","",""
"","feedback","","html-keyboard-response","110","157125","0.0-1.0-150.0-0.0","0","0","89037","","null","","","null","16","","","","","","","","","","","","","","","",""
"","ITI","","html-keyboard-response","111","158132","0.0-1.0-153.0","0","0","89037","","null","","","null","16","","","","","","","","","","","","","","","NaN",""
"","S1","","html-keyboard-response","112","158395","0.0-1.0-155.0","0","0","89037","","null","","","null","17","","","","","","","","","","","","","","","",""
"","ISI","","html-keyboard-response","113","160410","0.0-1.0-156.0","0","0","89037","","null","","","null","17","NaN","","","","","","","","","","","","","","",""
"","S2","","html-keyboard-response","114","160665","0.0-1.0-157.0","0","0","89037","","null","","","null","17","","NaN","","","","","","","","","","","","","",""
"","response","","html-keyboard-response","115","161247","0.0-1.0-158.0","0","0","89037","","579","","","75","17","","","1","17","training","adjacent","AB","1","2","R.jpg","L.jpg","1","1","1","",""
"","feedback","","html-keyboard-response","116","162259","0.0-1.0-159.0-0.0","0","0","89037","","null","","","null","17","","","","","","","","","","","","","","","",""
"","ITI","","html-keyboard-response","117","163275","0.0-1.0-162.0","0","0","89037","","null","","","null","17","","","","","","","","","","","","","","","NaN",""
"","S1","","html-keyboard-response","118","163529","0.0-1.0-164.0","0","0","89037","","null","","","null","18","","","","","","","","","","","","","","","",""
"","ISI","","html-keyboard-response","119","165540","0.0-1.0-165.0","0","0","89037","","null","","","null","18","NaN","","","","","","","","","","","","","","",""
"","S2","","html-keyboard-response","120","165796","0.0-1.0-166.0","0","0","89037","","null","","","null","18","","NaN","","","","","","","","","","","","","",""
"","response","","html-keyboard-response","121","166103","0.0-1.0-167.0","0","0","89037","","303","","","75","18","","","1","18","training","adjacent","DE","4","5","Q.jpg","N.jpg","1","1","1","",""
"","feedback","","html-keyboard-response","122","167110","0.0-1.0-168.0-0.0","0","0","89037","","null","","","null","18","","","","","","","","","","","","","","","",""
"","ITI","","html-keyboard-response","123","168126","0.0-1.0-171.0","0","0","89037","","null","","","null","18","","","","","","","","","","","","","","","NaN",""
"","S1","","html-keyboard-response","124","168390","0.0-1.0-173.0","0","0","89037","","null","","","null","19","","","","","","","","","","","","","","","",""
"","ISI","","html-keyboard-response","125","170395","0.0-1.0-174.0","0","0","89037","","null","","","null","19","NaN","","","","","","","","","","","","","","",""
"","S2","","html-keyboard-response","126","170655","0.0-1.0-175.0","0","0","89037","","null","","","null","19","","NaN","","","","","","","","","","","","","",""
"","response","","html-keyboard-response","127","171325","0.0-1.0-176.0","0","0","89037","","669","","","68","19","","","1","19","training","adjacent","FG","6","7","P.jpg","O.jpg","0","1","0","",""
"","feedback","","html-keyboard-response","128","172334","0.0-1.0-177.0-0.0","0","0","89037","","null","","","null","19","","","","","","","","","","","","","","","",""
"","time_out","","html-keyboard-response","129","174350","0.0-1.0-179.0-0.0","0","0","89037","","null","","","null","19","","","","","","","","","","","","","","","",""
"","ITI","","html-keyboard-response","130","175365","0.0-1.0-180.0","0","0","89037","","null","","","null","19","","","","","","","","","","","","","","","NaN",""
"","S1","","html-keyboard-response","131","175629","0.0-1.0-182.0","0","0","89037","","null","","","null","20","","","","","","","","","","","","","","","",""
"","ISI","","html-keyboard-response","132","177632","0.0-1.0-183.0","0","0","89037","","null","","","null","20","NaN","","","","","","","","","","","","","","",""
"","S2","","html-keyboard-response","133","177891","0.0-1.0-184.0","0","0","89037","","null","","","null","20","","NaN","","","","","","","","","","","","","",""
"","response","","html-keyboard-response","134","178732","0.0-1.0-185.0","0","0","89037","","837","","","75","20","","","1","20","training","adjacent","FG","6","7","P.jpg","O.jpg","1","1","1","",""
"","feedback","","html-keyboard-response","135","179736","0.0-1.0-186.0-0.0","0","0","89037","","null","","","null","20","","","","","","","","","","","","","","","",""
"","ITI","","html-keyboard-response","136","180752","0.0-1.0-189.0","0","0","89037","","null","","","null","20","","","","","","","","","","","","","","","NaN",""
"","S1","","html-keyboard-response","137","181010","0.0-1.0-191.0","0","0","89037","","null","","","null","21","","","","","","","","","","","","","","","",""
"","ISI","","html-keyboard-response","138","183015","0.0-1.0-192.0","0","0","89037","","null","","","null","21","NaN","","","","","","","","","","","","","","",""
"","S2","","html-keyboard-response","139","183279","0.0-1.0-193.0","0","0","89037","","null","","","null","21","","NaN","","","","","","","","","","","","","",""
"","response","","html-keyboard-response","140","183956","0.0-1.0-194.0","0","0","89037","","673","","","75","21","","","1","21","training","adjacent","CB","3","2","M.jpg","L.jpg","1","0","0","",""
"","feedback","","html-keyboard-response","141","184968","0.0-1.0-195.0-0.0","0","0","89037","","null","","","null","21","","","","","","","","","","","","","","","",""
"","time_out","","html-keyboard-response","142","186979","0.0-1.0-197.0-0.0","0","0","89037","","null","","","null","21","","","","","","","","","","","","","","","",""
"","ITI","","html-keyboard-response","143","187991","0.0-1.0-198.0","0","0","89037","","null","","","null","21","","","","","","","","","","","","","","","NaN",""
"","S1","","html-keyboard-response","144","188250","0.0-1.0-200.0","0","0","89037","","null","","","null","22","","","","","","","","","","","","","","","",""
"","ISI","","html-keyboard-response","145","190266","0.0-1.0-201.0","0","0","89037","","null","","","null","22","NaN","","","","","","","","","","","","","","",""
"","S2","","html-keyboard-response","146","190519","0.0-1.0-202.0","0","0","89037","","null","","","null","22","","NaN","","","","","","","","","","","","","",""
"","response","","html-keyboard-response","147","191439","0.0-1.0-203.0","0","0","89037","","918","","","68","22","","","1","22","training","adjacent","BC","2","3","L.jpg","M.jpg","0","1","0","",""
"","feedback","","html-keyboard-response","148","192447","0.0-1.0-204.0-0.0","0","0","89037","","null","","","null","22","","","","","","","","","","","","","","","",""
"","time_out","","html-keyboard-response","149","194456","0.0-1.0-206.0-0.0","0","0","89037","","null","","","null","22","","","","","","","","","","","","","","","",""
"","ITI","","html-keyboard-response","150","195470","0.0-1.0-207.0","0","0","89037","","null","","","null","22","","","","","","","","","","","","","","","NaN",""
"","S1","","html-keyboard-response","151","195734","0.0-1.0-209.0","0","0","89037","","null","","","null","23","","","","","","","","","","","","","","","",""
"","ISI","","html-keyboard-response","152","197737","0.0-1.0-210.0","0","0","89037","","null","","","null","23","NaN","","","","","","","","","","","","","","",""
"","S2","","html-keyboard-response","153","197998","0.0-1.0-211.0","0","0","89037","","null","","","null","23","","NaN","","","","","","","","","","","","","",""
"","response","","html-keyboard-response","154","199150","0.0-1.0-212.0","0","0","89037","","1148","","","68","23","","","1","23","training","adjacent","GF","7","6","O.jpg","P.jpg","0","0","1","",""
"","feedback","","html-keyboard-response","155","200157","0.0-1.0-213.0-0.0","0","0","89037","","null","","","null","23","","","","","","","","","","","","","","","",""
"","ITI","","html-keyboard-response","156","201166","0.0-1.0-216.0","0","0","89037","","null","","","null","23","","","","","","","","","","","","","","","NaN",""
"","S1","","html-keyboard-response","157","201426","0.0-1.0-218.0","0","0","89037","","null","","","null","24","","","","","","","","","","","","","","","",""
"","ISI","","html-keyboard-response","158","203444","0.0-1.0-219.0","0","0","89037","","null","","","null","24","NaN","","","","","","","","","","","","","","",""
"","S2","","html-keyboard-response","159","203700","0.0-1.0-220.0","0","0","89037","","null","","","null","24","","NaN","","","","","","","","","","","","","",""
"","response","","html-keyboard-response","160","204668","0.0-1.0-221.0","0","0","89037","","966","","","75","24","","","1","24","training","adjacent","FG","6","7","P.jpg","O.jpg","1","1","1","",""
"","feedback","","html-keyboard-response","161","205687","0.0-1.0-222.0-0.0","0","0","89037","","null","","","null","24","","","","","","","","","","","","","","","",""
"","ITI","","html-keyboard-response","162","206690","0.0-1.0-225.0","0","0","89037","","null","","","null","24","","","","","","","","","","","","","","","NaN",""
"","S1","","html-keyboard-response","163","206954","0.0-1.0-227.0","0","0","89037","","null","","","null","25","","","","","","","","","","","","","","","",""
"","ISI","","html-keyboard-response","164","208970","0.0-1.0-228.0","0","0","89037","","null","","","null","25","NaN","","","","","","","","","","","","","","",""
"","S2","","html-keyboard-response","165","209229","0.0-1.0-229.0","0","0","89037","","null","","","null","25","","NaN","","","","","","","","","","","","","",""
"","response","","html-keyboard-response","166","209766","0.0-1.0-230.0","0","0","89037","","533","","","75","25","","","1","25","training","adjacent","AB","1","2","R.jpg","L.jpg","1","1","1","",""
"","feedback","","html-keyboard-response","167","210782","0.0-1.0-231.0-0.0","0","0","89037","","null","","","null","25","","","","","","","","","","","","","","","",""
"","ITI","","html-keyboard-response","168","211792","0.0-1.0-234.0","0","0","89037","","null","","","null","25","","","","","","","","","","","","","","","NaN",""
"","S1","","html-keyboard-response","169","212060","0.0-1.0-236.0","0","0","89037","","null","","","null","26","","","","","","","","","","","","","","","",""
"","ISI","","html-keyboard-response","170","214072","0.0-1.0-237.0","0","0","89037","","null","","","null","26","NaN","","","","","","","","","","","","","","",""
"","S2","","html-keyboard-response","171","214336","0.0-1.0-238.0","0","0","89037","","null","","","null","26","","NaN","","","","","","","","","","","","","",""
"","response","","html-keyboard-response","172","215008","0.0-1.0-239.0","0","0","89037","","668","","","68","26","","","1","26","training","adjacent","EF","5","6","N.jpg","P.jpg","0","1","0","",""
"","feedback","","html-keyboard-response","173","216013","0.0-1.0-240.0-0.0","0","0","89037","","null","","","null","26","","","","","","","","","","","","","","","",""
"","time_out","","html-keyboard-response","174","218026","0.0-1.0-242.0-0.0","0","0","89037","","null","","","null","26","","","","","","","","","","","","","","","",""
"","ITI","","html-keyboard-response","175","219035","0.0-1.0-243.0","0","0","89037","","null","","","null","26","","","","","","","","","","","","","","","NaN",""
"","S1","","html-keyboard-response","176","219298","0.0-1.0-245.0","0","0","89037","","null","","","null","27","","","","","","","","","","","","","","","",""
"","ISI","","html-keyboard-response","177","221308","0.0-1.0-246.0","0","0","89037","","null","","","null","27","NaN","","","","","","","","","","","","","","",""
"","S2","","html-keyboard-response","178","221576","0.0-1.0-247.0","0","0","89037","","null","","","null","27","","NaN","","","","","","","","","","","","","",""
"","response","","html-keyboard-response","179","222598","0.0-1.0-248.0","0","0","89037","","1021","","","68","27","","","1","27","training","adjacent","GF","7","6","O.jpg","P.jpg","0","0","1","",""
"","feedback","","html-keyboard-response","180","223609","0.0-1.0-249.0-0.0","0","0","89037","","null","","","null","27","","","","","","","","","","","","","","","",""
"","ITI","","html-keyboard-response","181","224625","0.0-1.0-252.0","0","0","89037","","null","","","null","27","","","","","","","","","","","","","","","NaN",""
"","S1","","html-keyboard-response","182","224886","0.0-1.0-254.0","0","0","89037","","null","","","null","28","","","","","","","","","","","","","","","",""
"","ISI","","html-keyboard-response","183","226894","0.0-1.0-255.0","0","0","89037","","null","","","null","28","NaN","","","","","","","","","","","","","","",""
"","S2","","html-keyboard-response","184","227163","0.0-1.0-256.0","0","0","89037","","null","","","null","28","","NaN","","","","","","","","","","","","","",""
"","response","","html-keyboard-response","185","228508","0.0-1.0-257.0","0","0","89037","","1341","","","68","28","","","1","28","training","adjacent","ED","5","4","N.jpg","Q.jpg","0","0","1","",""
"","feedback","","html-keyboard-response","186","229527","0.0-1.0-258.0-0.0","0","0","89037","","null","","","null","28","","","","","","","","","","","","","","","",""
"","ITI","","html-keyboard-response","187","230546","0.0-1.0-261.0","0","0","89037","","null","","","null","28","","","","","","","","","","","","","","","NaN",""
"","S1","","html-keyboard-response","188","230807","0.0-1.0-263.0","0","0","89037","","null","","","null","29","","","","","","","","","","","","","","","",""
"","ISI","","html-keyboard-response","189","232810","0.0-1.0-264.0","0","0","89037","","null","","","null","29","NaN","","","","","","","","","","","","","","",""
"","S2","","html-keyboard-response","190","233069","0.0-1.0-265.0","0","0","89037","","null","","","null","29","","NaN","","","","","","","","","","","","","",""
"","response","","html-keyboard-response","191","233812","0.0-1.0-266.0","0","0","89037","","738","","","75","29","","","1","29","training","adjacent","BA","2","1","L.jpg","R.jpg","1","0","0","",""
"","feedback","","html-keyboard-response","192","234825","0.0-1.0-267.0-0.0","0","0","89037","","null","","","null","29","","","","","","","","","","","","","","","",""
"","time_out","","html-keyboard-response","193","236839","0.0-1.0-269.0-0.0","0","0","89037","","null","","","null","29","","","","","","","","","","","","","","","",""
"","ITI","","html-keyboard-response","194","237845","0.0-1.0-270.0","0","0","89037","","null","","","null","29","","","","","","","","","","","","","","","NaN",""
"","S1","","html-keyboard-response","195","238103","0.0-1.0-272.0","0","0","89037","","null","","","null","30","","","","","","","","","","","","","","","",""
"","ISI","","html-keyboard-response","196","240117","0.0-1.0-273.0","0","0","89037","","null","","","null","30","NaN","","","","","","","","","","","","","","",""
"","S2","","html-keyboard-response","197","240379","0.0-1.0-274.0","0","0","89037","","null","","","null","30","","NaN","","","","","","","","","","","","","",""
"","response","","html-keyboard-response","198","241478","0.0-1.0-275.0","0","0","89037","","1098","","","75","30","","","1","30","training","adjacent","CD","3","4","M.jpg","Q.jpg","1","1","1","",""
"","feedback","","html-keyboard-response","199","242493","0.0-1.0-276.0-0.0","0","0","89037","","null","","","null","30","","","","","","","","","","","","","","","",""
"","ITI","","html-keyboard-response","200","243500","0.0-1.0-279.0","0","0","89037","","null","","","null","30","","","","","","","","","","","","","","","NaN",""
"","S1","","html-keyboard-response","201","243767","0.0-1.0-281.0","0","0","89037","","null","","","null","31","","","","","","","","","","","","","","","",""
"","ISI","","html-keyboard-response","202","245780","0.0-1.0-282.0","0","0","89037","","null","","","null","31","NaN","","","","","","","","","","","","","","",""
"","S2","","html-keyboard-response","203","246045","0.0-1.0-283.0","0","0","89037","","null","","","null","31","","NaN","","","","","","","","","","","","","",""
"","response","","html-keyboard-response","204","246946","0.0-1.0-284.0","0","0","89037","","896","","","68","31","","","1","31","training","adjacent","GF","7","6","O.jpg","P.jpg","0","0","1","",""
"","feedback","","html-keyboard-response","205","247960","0.0-1.0-285.0-0.0","0","0","89037","","null","","","null","31","","","","","","","","","","","","","","","",""
"","ITI","","html-keyboard-response","206","248970","0.0-1.0-288.0","0","0","89037","","null","","","null","31","","","","","","","","","","","","","","","NaN",""
"","S1","","html-keyboard-response","207","249234","0.0-1.0-290.0","0","0","89037","","null","","","null","32","","","","","","","","","","","","","","","",""
"","ISI","","html-keyboard-response","208","251238","0.0-1.0-291.0","0","0","89037","","null","","","null","32","NaN","","","","","","","","","","","","","","",""
"","S2","","html-keyboard-response","209","251496","0.0-1.0-292.0","0","0","89037","","null","","","null","32","","NaN","","","","","","","","","","","","","",""
"","response","","html-keyboard-response","210","252159","0.0-1.0-293.0","0","0","89037","","660","","","68","32","","","1","32","training","adjacent","BA","2","1","L.jpg","R.jpg","0","0","1","",""
"","feedback","","html-keyboard-response","211","253169","0.0-1.0-294.0-0.0","0","0","89037","","null","","","null","32","","","","","","","","","","","","","","","",""
"","ITI","","html-keyboard-response","212","254184","0.0-1.0-297.0","0","0","89037","","null","","","null","32","","","","","","","","","","","","","","","NaN",""
"","S1","","html-keyboard-response","213","254444","0.0-1.0-299.0","0","0","89037","","null","","","null","33","","","","","","","","","","","","","","","",""
"","ISI","","html-keyboard-response","214","256452","0.0-1.0-300.0","0","0","89037","","null","","","null","33","NaN","","","","","","","","","","","","","","",""
"","S2","","html-keyboard-response","215","256718","0.0-1.0-301.0","0","0","89037","","null","","","null","33","","NaN","","","","","","","","","","","","","",""
"","response","","html-keyboard-response","216","257196","0.0-1.0-302.0","0","0","89037","","475","","","68","33","","","1","33","training","adjacent","BA","2","1","L.jpg","R.jpg","0","0","1","",""
"","feedback","","html-keyboard-response","217","258203","0.0-1.0-303.0-0.0","0","0","89037","","null","","","null","33","","","","","","","","","","","","","","","",""
"","ITI","","html-keyboard-response","218","259217","0.0-1.0-306.0","0","0","89037","","null","","","null","33","","","","","","","","","","","","","","","NaN",""
"","S1","","html-keyboard-response","219","259482","0.0-1.0-308.0","0","0","89037","","null","","","null","34","","","","","","","","","","","","","","","",""
"","ISI","","html-keyboard-response","220","261495","0.0-1.0-309.0","0","0","89037","","null","","","null","34","NaN","","","","","","","","","","","","","","",""
"","S2","","html-keyboard-response","221","261763","0.0-1.0-310.0","0","0","89037","","null","","","null","34","","NaN","","","","","","","","","","","","","",""
"","response","","html-keyboard-response","222","262501","0.0-1.0-311.0","0","0","89037","","734","","","68","34","","","1","34","training","adjacent","ED","5","4","N.jpg","Q.jpg","0","0","1","",""
"","feedback","","html-keyboard-response","223","263509","0.0-1.0-312.0-0.0","0","0","89037","","null","","","null","34","","","","","","","","","","","","","","","",""
"","ITI","","html-keyboard-response","224","264522","0.0-1.0-315.0","0","0","89037","","null","","","null","34","","","","","","","","","","","","","","","NaN",""
"","S1","","html-keyboard-response","225","264780","0.0-1.0-317.0","0","0","89037","","null","","","null","35","","","","","","","","","","","","","","","",""
"","ISI","","html-keyboard-response","226","266788","0.0-1.0-318.0","0","0","89037","","null","","","null","35","NaN","","","","","","","","","","","","","","",""
"","S2","","html-keyboard-response","227","267052","0.0-1.0-319.0","0","0","89037","","null","","","null","35","","NaN","","","","","","","","","","","","","",""
"","response","","html-keyboard-response","228","268184","0.0-1.0-320.0","0","0","89037","","1130","","","75","35","","","1","35","training","adjacent","AB","1","2","R.jpg","L.jpg","1","1","1","",""
"","feedback","","html-keyboard-response","229","269191","0.0-1.0-321.0-0.0","0","0","89037","","null","","","null","35","","","","","","","","","","","","","","","",""
"","ITI","","html-keyboard-response","230","270207","0.0-1.0-324.0","0","0","89037","","null","","","null","35","","","","","","","","","","","","","","","NaN",""
"","S1","","html-keyboard-response","231","270472","0.0-1.0-326.0","0","0","89037","","null","","","null","36","","","","","","","","","","","","","","","",""
"","ISI","","html-keyboard-response","232","272478","0.0-1.0-327.0","0","0","89037","","null","","","null","36","NaN","","","","","","","","","","","","","","",""
"","S2","","html-keyboard-response","233","272746","0.0-1.0-328.0","0","0","89037","","null","","","null","36","","NaN","","","","","","","","","","","","","",""
"","response","","html-keyboard-response","234","273783","0.0-1.0-329.0","0","0","89037","","1034","","","68","36","","","1","36","training","adjacent","FE","6","5","P.jpg","N.jpg","0","0","1","",""
"","feedback","","html-keyboard-response","235","274791","0.0-1.0-330.0-0.0","0","0","89037","","null","","","null","36","","","","","","","","","","","","","","","",""
"","ITI","","html-keyboard-response","236","275805","0.0-1.0-333.0","0","0","89037","","null","","","null","36","","","","","","","","","","","","","","","NaN",""
"","S1","","html-keyboard-response","237","276074","0.0-1.0-335.0","0","0","89037","","null","","","null","37","","","","","","","","","","","","","","","",""
"","ISI","","html-keyboard-response","238","278086","0.0-1.0-336.0","0","0","89037","","null","","","null","37","NaN","","","","","","","","","","","","","","",""
"","S2","","html-keyboard-response","239","278343","0.0-1.0-337.0","0","0","89037","","null","","","null","37","","NaN","","","","","","","","","","","","","",""
"","response","","html-keyboard-response","240","278724","0.0-1.0-338.0","0","0","89037","","379","","","75","37","","","1","37","training","adjacent","DC","4","3","Q.jpg","M.jpg","1","0","0","",""
"","feedback","","html-keyboard-response","241","279737","0.0-1.0-339.0-0.0","0","0","89037","","null","","","null","37","","","","","","","","","","","","","","","",""
"","time_out","","html-keyboard-response","242","281745","0.0-1.0-341.0-0.0","0","0","89037","","null","","","null","37","","","","","","","","","","","","","","","",""
"","ITI","","html-keyboard-response","243","282763","0.0-1.0-342.0","0","0","89037","","null","","","null","37","","","","","","","","","","","","","","","NaN",""
"","S1","","html-keyboard-response","244","283022","0.0-1.0-344.0","0","0","89037","","null","","","null","38","","","","","","","","","","","","","","","",""
"","ISI","","html-keyboard-response","245","285029","0.0-1.0-345.0","0","0","89037","","null","","","null","38","NaN","","","","","","","","","","","","","","",""
"","S2","","html-keyboard-response","246","285288","0.0-1.0-346.0","0","0","89037","","null","","","null","38","","NaN","","","","","","","","","","","","","",""
"","response","","html-keyboard-response","247","285906","0.0-1.0-347.0","0","0","89037","","615","","","75","38","","","1","38","training","adjacent","AB","1","2","R.jpg","L.jpg","1","1","1","",""
"","feedback","","html-keyboard-response","248","286917","0.0-1.0-348.0-0.0","0","0","89037","","null","","","null","38","","","","","","","","","","","","","","","",""
"","ITI","","html-keyboard-response","249","287927","0.0-1.0-351.0","0","0","89037","","null","","","null","38","","","","","","","","","","","","","","","NaN",""
"","S1","","html-keyboard-response","250","288190","0.0-1.0-353.0","0","0","89037","","null","","","null","39","","","","","","","","","","","","","","","",""
"","ISI","","html-keyboard-response","251","290194","0.0-1.0-354.0","0","0","89037","","null","","","null","39","NaN","","","","","","","","","","","","","","",""
"","S2","","html-keyboard-response","252","290453","0.0-1.0-355.0","0","0","89037","","null","","","null","39","","NaN","","","","","","","","","","","","","",""
"","response","","html-keyboard-response","253","290854","0.0-1.0-356.0","0","0","89037","","397","","","68","39","","","1","39","training","adjacent","DC","4","3","Q.jpg","M.jpg","0","0","1","",""
"","feedback","","html-keyboard-response","254","291869","0.0-1.0-357.0-0.0","0","0","89037","","null","","","null","39","","","","","","","","","","","","","","","",""
"","ITI","","html-keyboard-response","255","292875","0.0-1.0-360.0","0","0","89037","","null","","","null","39","","","","","","","","","","","","","","","NaN",""
"","S1","","html-keyboard-response","256","293137","0.0-1.0-362.0","0","0","89037","","null","","","null","40","","","","","","","","","","","","","","","",""
"","ISI","","html-keyboard-response","257","295152","0.0-1.0-363.0","0","0","89037","","null","","","null","40","NaN","","","","","","","","","","","","","","",""
"","S2","","html-keyboard-response","258","295415","0.0-1.0-364.0","0","0","89037","","null","","","null","40","","NaN","","","","","","","","","","","","","",""
"","response","","html-keyboard-response","259","296558","0.0-1.0-365.0","0","0","89037","","1139","","","68","40","","","1","40","training","adjacent","CB","3","2","M.jpg","L.jpg","0","0","1","",""
"","feedback","","html-keyboard-response","260","297566","0.0-1.0-366.0-0.0","0","0","89037","","null","","","null","40","","","","","","","","","","","","","","","",""
"","ITI","","html-keyboard-response","261","298574","0.0-1.0-369.0","0","0","89037","","null","","","null","40","","","","","","","","","","","","","","","NaN",""
"","S1","","html-keyboard-response","262","298834","0.0-1.0-371.0","0","0","89037","","null","","","null","41","","","","","","","","","","","","","","","",""
"","ISI","","html-keyboard-response","263","300844","0.0-1.0-372.0","0","0","89037","","null","","","null","41","NaN","","","","","","","","","","","","","","",""
"","S2","","html-keyboard-response","264","301104","0.0-1.0-373.0","0","0","89037","","null","","","null","41","","NaN","","","","","","","","","","","","","",""
"","response","","html-keyboard-response","265","302294","0.0-1.0-374.0","0","0","89037","","1187","","","68","41","","","1","41","training","adjacent","BC","2","3","L.jpg","M.jpg","0","1","0","",""
"","feedback","","html-keyboard-response","266","303305","0.0-1.0-375.0-0.0","0","0","89037","","null","","","null","41","","","","","","","","","","","","","","","",""
"","time_out","","html-keyboard-response","267","305316","0.0-1.0-377.0-0.0","0","0","89037","","null","","","null","41","","","","","","","","","","","","","","","",""
"","ITI","","html-keyboard-response","268","306328","0.0-1.0-378.0","0","0","89037","","null","","","null","41","","","","","","","","","","","","","","","NaN",""
"","S1","","html-keyboard-response","269","306595","0.0-1.0-380.0","0","0","89037","","null","","","null","42","","","","","","","","","","","","","","","",""
"","ISI","","html-keyboard-response","270","308601","0.0-1.0-381.0","0","0","89037","","null","","","null","42","NaN","","","","","","","","","","","","","","",""
"","S2","","html-keyboard-response","271","308857","0.0-1.0-382.0","0","0","89037","","null","","","null","42","","NaN","","","","","","","","","","","","","",""
"","response","","html-keyboard-response","272","310042","0.0-1.0-383.0","0","0","89037","","1182","","","68","42","","","1","42","training","adjacent","DC","4","3","Q.jpg","M.jpg","0","0","1","",""
"","feedback","","html-keyboard-response","273","311047","0.0-1.0-384.0-0.0","0","0","89037","","null","","","null","42","","","","","","","","","","","","","","","",""
"","ITI","","html-keyboard-response","274","312063","0.0-1.0-387.0","0","0","89037","","null","","","null","42","","","","","","","","","","","","","","","NaN",""
"","S1","","html-keyboard-response","275","312319","0.0-1.0-389.0","0","0","89037","","null","","","null","43","","","","","","","","","","","","","","","",""
"","ISI","","html-keyboard-response","276","314323","0.0-1.0-390.0","0","0","89037","","null","","","null","43","NaN","","","","","","","","","","","","","","",""
"","S2","","html-keyboard-response","277","314583","0.0-1.0-391.0","0","0","89037","","null","","","null","43","","NaN","","","","","","","","","","","","","",""
"","response","","html-keyboard-response","278","315618","0.0-1.0-392.0","0","0","89037","","1032","","","68","43","","","1","43","training","adjacent","ED","5","4","N.jpg","Q.jpg","0","0","1","",""
"","feedback","","html-keyboard-response","279","316628","0.0-1.0-393.0-0.0","0","0","89037","","null","","","null","43","","","","","","","","","","","","","","","",""
"","ITI","","html-keyboard-response","280","317633","0.0-1.0-396.0","0","0","89037","","null","","","null","43","","","","","","","","","","","","","","","NaN",""
"","S1","","html-keyboard-response","281","317894","0.0-1.0-398.0","0","0","89037","","null","","","null","44","","","","","","","","","","","","","","","",""
"","ISI","","html-keyboard-response","282","319903","0.0-1.0-399.0","0","0","89037","","null","","","null","44","NaN","","","","","","","","","","","","","","",""
"","S2","","html-keyboard-response","283","320170","0.0-1.0-400.0","0","0","89037","","null","","","null","44","","NaN","","","","","","","","","","","","","",""
"","response","","html-keyboard-response","284","321163","0.0-1.0-401.0","0","0","89037","","992","","","68","44","","","1","44","training","adjacent","EF","5","6","N.jpg","P.jpg","0","1","0","",""
"","feedback","","html-keyboard-response","285","322178","0.0-1.0-402.0-0.0","0","0","89037","","null","","","null","44","","","","","","","","","","","","","","","",""
"","time_out","","html-keyboard-response","286","324186","0.0-1.0-404.0-0.0","0","0","89037","","null","","","null","44","","","","","","","","","","","","","","","",""
"","ITI","","html-keyboard-response","287","325202","0.0-1.0-405.0","0","0","89037","","null","","","null","44","","","","","","","","","","","","","","","NaN",""
"","S1","","html-keyboard-response","288","325461","0.0-1.0-407.0","0","0","89037","","null","","","null","45","","","","","","","","","","","","","","","",""
"","ISI","","html-keyboard-response","289","327474","0.0-1.0-408.0","0","0","89037","","null","","","null","45","NaN","","","","","","","","","","","","","","",""
"","S2","","html-keyboard-response","290","327730","0.0-1.0-409.0","0","0","89037","","null","","","null","45","","NaN","","","","","","","","","","","","","",""
"","response","","html-keyboard-response","291","328198","0.0-1.0-410.0","0","0","89037","","463","","","68","45","","","1","45","training","adjacent","GF","7","6","O.jpg","P.jpg","0","0","1","",""
"","feedback","","html-keyboard-response","292","329213","0.0-1.0-411.0-0.0","0","0","89037","","null","","","null","45","","","","","","","","","","","","","","","",""
"","ITI","","html-keyboard-response","293","330224","0.0-1.0-414.0","0","0","89037","","null","","","null","45","","","","","","","","","","","","","","","NaN",""
"","S1","","html-keyboard-response","294","330479","0.0-1.0-416.0","0","0","89037","","null","","","null","46","","","","","","","","","","","","","","","",""
"","ISI","","html-keyboard-response","295","332495","0.0-1.0-417.0","0","0","89037","","null","","","null","46","NaN","","","","","","","","","","","","","","",""
"","S2","","html-keyboard-response","296","332760","0.0-1.0-418.0","0","0","89037","","null","","","null","46","","NaN","","","","","","","","","","","","","",""
"","response","","html-keyboard-response","297","333442","0.0-1.0-419.0","0","0","89037","","679","","","75","46","","","1","46","training","adjacent","CD","3","4","M.jpg","Q.jpg","1","1","1","",""
"","feedback","","html-keyboard-response","298","334462","0.0-1.0-420.0-0.0","0","0","89037","","null","","","null","46","","","","","","","","","","","","","","","",""
"","ITI","","html-keyboard-response","299","335476","0.0-1.0-423.0","0","0","89037","","null","","","null","46","","","","","","","","","","","","","","","NaN",""
"","S1","","html-keyboard-response","300","335734","0.0-1.0-425.0","0","0","89037","","null","","","null","47","","","","","","","","","","","","","","","",""
"","ISI","","html-keyboard-response","301","337749","0.0-1.0-426.0","0","0","89037","","null","","","null","47","NaN","","","","","","","","","","","","","","",""
"","S2","","html-keyboard-response","302","338010","0.0-1.0-427.0","0","0","89037","","null","","","null","47","","NaN","","","","","","","","","","","","","",""
"","response","","html-keyboard-response","303","338715","0.0-1.0-428.0","0","0","89037","","702","","","75","47","","","1","47","training","adjacent","BC","2","3","L.jpg","M.jpg","1","1","1","",""
"","feedback","","html-keyboard-response","304","339725","0.0-1.0-429.0-0.0","0","0","89037","","null","","","null","47","","","","","","","","","","","","","","","",""
"","ITI","","html-keyboard-response","305","340734","0.0-1.0-432.0","0","0","89037","","null","","","null","47","","","","","","","","","","","","","","","NaN",""
"","block_over","","html-keyboard-response","306","345623","0.0-1.0-433.0-0.0","0","0","89037","","4885","","","32","47","","","","","","","","","","","","","","","",""
"","S1","","html-keyboard-response","307","345893","0.0-1.0-434.0","0","0","89037","","null","","","null","48","","","","","","","","","","","","","","","",""
"","ISI","","html-keyboard-response","308","347904","0.0-1.0-435.0","0","0","89037","","null","","","null","48","NaN","","","","","","","","","","","","","","",""
"","S2","","html-keyboard-response","309","348166","0.0-1.0-436.0","0","0","89037","","null","","","null","48","","NaN","","","","","","","","","","","","","",""
"","response","","html-keyboard-response","310","349391","0.0-1.0-437.0","0","0","89037","","1222","","","68","48","","","2","48","training","adjacent","CB","3","2","M.jpg","L.jpg","0","0","1","",""
"","feedback","","html-keyboard-response","311","350402","0.0-1.0-438.0-0.0","0","0","89037","","null","","","null","48","","","","","","","","","","","","","","","",""
"","ITI","","html-keyboard-response","312","351420","0.0-1.0-441.0","0","0","89037","","null","","","null","48","","","","","","","","","","","","","","","NaN",""
"","S1","","html-keyboard-response","313","351679","0.0-1.0-443.0","0","0","89037","","null","","","null","49","","","","","","","","","","","","","","","",""
"","ISI","","html-keyboard-response","314","353685","0.0-1.0-444.0","0","0","89037","","null","","","null","49","NaN","","","","","","","","","","","","","","",""
"","S2","","html-keyboard-response","315","353951","0.0-1.0-445.0","0","0","89037","","null","","","null","49","","NaN","","","","","","","","","","","","","",""
"","response","","html-keyboard-response","316","354231","0.0-1.0-446.0","0","0","89037","","277","","","75","49","","","2","49","training","adjacent","CD","3","4","M.jpg","Q.jpg","1","1","1","",""
"","feedback","","html-keyboard-response","317","355242","0.0-1.0-447.0-0.0","0","0","89037","","null","","","null","49","","","","","","","","","","","","","","","",""
"","ITI","","html-keyboard-response","318","356251","0.0-1.0-450.0","0","0","89037","","null","","","null","49","","","","","","","","","","","","","","","NaN",""
"","S1","","html-keyboard-response","319","356518","0.0-1.0-452.0","0","0","89037","","null","","","null","50","","","","","","","","","","","","","","","",""
"","ISI","","html-keyboard-response","320","358529","0.0-1.0-453.0","0","0","89037","","null","","","null","50","NaN","","","","","","","","","","","","","","",""
"","S2","","html-keyboard-response","321","358798","0.0-1.0-454.0","0","0","89037","","null","","","null","50","","NaN","","","","","","","","","","","","","",""
"","response","","html-keyboard-response","322","359332","0.0-1.0-455.0","0","0","89037","","533","","","75","50","","","2","50","training","adjacent","AB","1","2","R.jpg","L.jpg","1","1","1","",""
"","feedback","","html-keyboard-response","323","360336","0.0-1.0-456.0-0.0","0","0","89037","","null","","","null","50","","","","","","","","","","","","","","","",""
"","ITI","","html-keyboard-response","324","361347","0.0-1.0-459.0","0","0","89037","","null","","","null","50","","","","","","","","","","","","","","","NaN",""
"","S1","","html-keyboard-response","325","361612","0.0-1.0-461.0","0","0","89037","","null","","","null","51","","","","","","","","","","","","","","","",""
"","ISI","","html-keyboard-response","326","363615","0.0-1.0-462.0","0","0","89037","","null","","","null","51","NaN","","","","","","","","","","","","","","",""
"","S2","","html-keyboard-response","327","363882","0.0-1.0-463.0","0","0","89037","","null","","","null","51","","NaN","","","","","","","","","","","","","",""
"","response","","html-keyboard-response","328","364473","0.0-1.0-464.0","0","0","89037","","588","","","75","51","","","2","51","training","adjacent","FE","6","5","P.jpg","N.jpg","1","0","0","",""
"","feedback","","html-keyboard-response","329","365487","0.0-1.0-465.0-0.0","0","0","89037","","null","","","null","51","","","","","","","","","","","","","","","",""
"","time_out","","html-keyboard-response","330","367499","0.0-1.0-467.0-0.0","0","0","89037","","null","","","null","51","","","","","","","","","","","","","","","",""
"","ITI","","html-keyboard-response","331","368513","0.0-1.0-468.0","0","0","89037","","null","","","null","51","","","","","","","","","","","","","","","NaN",""
"","S1","","html-keyboard-response","332","368766","0.0-1.0-470.0","0","0","89037","","null","","","null","52","","","","","","","","","","","","","","","",""
"","ISI","","html-keyboard-response","333","370771","0.0-1.0-471.0","0","0","89037","","null","","","null","52","NaN","","","","","","","","","","","","","","",""
"","S2","","html-keyboard-response","334","371033","0.0-1.0-472.0","0","0","89037","","null","","","null","52","","NaN","","","","","","","","","","","","","",""
"","response","","html-keyboard-response","335","371566","0.0-1.0-473.0","0","0","89037","","530","","","75","52","","","2","52","training","adjacent","AB","1","2","R.jpg","L.jpg","1","1","1","",""
"","feedback","","html-keyboard-response","336","372573","0.0-1.0-474.0-0.0","0","0","89037","","null","","","null","52","","","","","","","","","","","","","","","",""
"","ITI","","html-keyboard-response","337","373578","0.0-1.0-477.0","0","0","89037","","null","","","null","52","","","","","","","","","","","","","","","NaN",""
"","S1","","html-keyboard-response","338","373845","0.0-1.0-479.0","0","0","89037","","null","","","null","53","","","","","","","","","","","","","","","",""
"","ISI","","html-keyboard-response","339","375861","0.0-1.0-480.0","0","0","89037","","null","","","null","53","NaN","","","","","","","","","","","","","","",""
"","S2","","html-keyboard-response","340","376127","0.0-1.0-481.0","0","0","89037","","null","","","null","53","","NaN","","","","","","","","","","","","","",""
"","response","","html-keyboard-response","341","376824","0.0-1.0-482.0","0","0","89037","","695","","","68","53","","","2","53","training","adjacent","FE","6","5","P.jpg","N.jpg","0","0","1","",""
"","feedback","","html-keyboard-response","342","377838","0.0-1.0-483.0-0.0","0","0","89037","","null","","","null","53","","","","","","","","","","","","","","","",""
"","ITI","","html-keyboard-response","343","378845","0.0-1.0-486.0","0","0","89037","","null","","","null","53","","","","","","","","","","","","","","","NaN",""
"","S1","","html-keyboard-response","344","379102","0.0-1.0-488.0","0","0","89037","","null","","","null","54","","","","","","","","","","","","","","","",""
"","ISI","","html-keyboard-response","345","381113","0.0-1.0-489.0","0","0","89037","","null","","","null","54","NaN","","","","","","","","","","","","","","",""
"","S2","","html-keyboard-response","346","381380","0.0-1.0-490.0","0","0","89037","","null","","","null","54","","NaN","","","","","","","","","","","","","",""
"","response","","html-keyboard-response","347","381659","0.0-1.0-491.0","0","0","89037","","274","","","75","54","","","2","54","training","adjacent","EF","5","6","N.jpg","P.jpg","1","1","1","",""
"","feedback","","html-keyboard-response","348","382669","0.0-1.0-492.0-0.0","0","0","89037","","null","","","null","54","","","","","","","","","","","","","","","",""
"","ITI","","html-keyboard-response","349","383683","0.0-1.0-495.0","0","0","89037","","null","","","null","54","","","","","","","","","","","","","","","NaN",""
"","S1","","html-keyboard-response","350","383945","0.0-1.0-497.0","0","0","89037","","null","","","null","55","","","","","","","","","","","","","","","",""
"","ISI","","html-keyboard-response","351","385948","0.0-1.0-498.0","0","0","89037","","null","","","null","55","NaN","","","","","","","","","","","","","","",""
"","S2","","html-keyboard-response","352","386207","0.0-1.0-499.0","0","0","89037","","null","","","null","55","","NaN","","","","","","","","","","","","","",""
"","response","","html-keyboard-response","353","386544","0.0-1.0-500.0","0","0","89037","","333","","","75","55","","","2","55","training","adjacent","BC","2","3","L.jpg","M.jpg","1","1","1","",""
"","feedback","","html-keyboard-response","354","387548","0.0-1.0-501.0-0.0","0","0","89037","","null","","","null","55","","","","","","","","","","","","","","","",""
"","ITI","","html-keyboard-response","355","388556","0.0-1.0-504.0","0","0","89037","","null","","","null","55","","","","","","","","","","","","","","","NaN",""
"","S1","","html-keyboard-response","356","388822","0.0-1.0-506.0","0","0","89037","","null","","","null","56","","","","","","","","","","","","","","","",""
"","ISI","","html-keyboard-response","357","390828","0.0-1.0-507.0","0","0","89037","","null","","","null","56","NaN","","","","","","","","","","","","","","",""
"","S2","","html-keyboard-response","358","391088","0.0-1.0-508.0","0","0","89037","","null","","","null","56","","NaN","","","","","","","","","","","","","",""
"","response","","html-keyboard-response","359","391489","0.0-1.0-509.0","0","0","89037","","395","","","68","56","","","2","56","training","adjacent","DC","4","3","Q.jpg","M.jpg","0","0","1","",""
"","feedback","","html-keyboard-response","360","392501","0.0-1.0-510.0-0.0","0","0","89037","","null","","","null","56","","","","","","","","","","","","","","","",""
"","ITI","","html-keyboard-response","361","393506","0.0-1.0-513.0","0","0","89037","","null","","","null","56","","","","","","","","","","","","","","","NaN",""
"","S1","","html-keyboard-response","362","393774","0.0-1.0-515.0","0","0","89037","","null","","","null","57","","","","","","","","","","","","","","","",""
"","ISI","","html-keyboard-response","363","395777","0.0-1.0-516.0","0","0","89037","","null","","","null","57","NaN","","","","","","","","","","","","","","",""
"","S2","","html-keyboard-response","364","396034","0.0-1.0-517.0","0","0","89037","","null","","","null","57","","NaN","","","","","","","","","","","","","",""
"","response","","html-keyboard-response","365","396331","0.0-1.0-518.0","0","0","89037","","294","","","68","57","","","2","57","training","adjacent","GF","7","6","O.jpg","P.jpg","0","0","1","",""
"","feedback","","html-keyboard-response","366","397349","0.0-1.0-519.0-0.0","0","0","89037","","null","","","null","57","","","","","","","","","","","","","","","",""
"","ITI","","html-keyboard-response","367","398355","0.0-1.0-522.0","0","0","89037","","null","","","null","57","","","","","","","","","","","","","","","NaN",""
"","S1","","html-keyboard-response","368","398619","0.0-1.0-524.0","0","0","89037","","null","","","null","58","","","","","","","","","","","","","","","",""
"","ISI","","html-keyboard-response","369","400629","0.0-1.0-525.0","0","0","89037","","null","","","null","58","NaN","","","","","","","","","","","","","","",""
"","S2","","html-keyboard-response","370","400894","0.0-1.0-526.0","0","0","89037","","null","","","null","58","","NaN","","","","","","","","","","","","","",""
"","response","","html-keyboard-response","371","401884","0.0-1.0-527.0","0","0","89037","","987","","","68","58","","","2","58","training","adjacent","CB","3","2","M.jpg","L.jpg","0","0","1","",""
"","feedback","","html-keyboard-response","372","402897","0.0-1.0-528.0-0.0","0","0","89037","","null","","","null","58","","","","","","","","","","","","","","","",""
"","ITI","","html-keyboard-response","373","403904","0.0-1.0-531.0","0","0","89037","","null","","","null","58","","","","","","","","","","","","","","","NaN",""
"","S1","","html-keyboard-response","374","404160","0.0-1.0-533.0","0","0","89037","","null","","","null","59","","","","","","","","","","","","","","","",""
"","ISI","","html-keyboard-response","375","406170","0.0-1.0-534.0","0","0","89037","","null","","","null","59","NaN","","","","","","","","","","","","","","",""
"","S2","","html-keyboard-response","376","406433","0.0-1.0-535.0","0","0","89037","","null","","","null","59","","NaN","","","","","","","","","","","","","",""
"","response","","html-keyboard-response","377","406969","0.0-1.0-536.0","0","0","89037","","533","","","75","59","","","2","59","training","adjacent","CD","3","4","M.jpg","Q.jpg","1","1","1","",""
"","feedback","","html-keyboard-response","378","407978","0.0-1.0-537.0-0.0","0","0","89037","","null","","","null","59","","","","","","","","","","","","","","","",""
"","ITI","","html-keyboard-response","379","408995","0.0-1.0-540.0","0","0","89037","","null","","","null","59","","","","","","","","","","","","","","","NaN",""
"","S1","","html-keyboard-response","380","409249","0.0-1.0-542.0","0","0","89037","","null","","","null","60","","","","","","","","","","","","","","","",""
"","ISI","","html-keyboard-response","381","411266","0.0-1.0-543.0","0","0","89037","","null","","","null","60","NaN","","","","","","","","","","","","","","",""
"","S2","","html-keyboard-response","382","411530","0.0-1.0-544.0","0","0","89037","","null","","","null","60","","NaN","","","","","","","","","","","","","",""
"","response","","html-keyboard-response","383","411855","0.0-1.0-545.0","0","0","89037","","321","","","75","60","","","2","60","training","adjacent","FG","6","7","P.jpg","O.jpg","1","1","1","",""
"","feedback","","html-keyboard-response","384","412871","0.0-1.0-546.0-0.0","0","0","89037","","null","","","null","60","","","","","","","","","","","","","","","",""
"","ITI","","html-keyboard-response","385","413875","0.0-1.0-549.0","0","0","89037","","null","","","null","60","","","","","","","","","","","","","","","NaN",""
"","S1","","html-keyboard-response","386","414133","0.0-1.0-551.0","0","0","89037","","null","","","null","61","","","","","","","","","","","","","","","",""
"","ISI","","html-keyboard-response","387","416140","0.0-1.0-552.0","0","0","89037","","null","","","null","61","NaN","","","","","","","","","","","","","","",""
"","S2","","html-keyboard-response","388","416398","0.0-1.0-553.0","0","0","89037","","null","","","null","61","","NaN","","","","","","","","","","","","","",""
"","response","","html-keyboard-response","389","416668","0.0-1.0-554.0","0","0","89037","","264","","","75","61","","","2","61","training","adjacent","FG","6","7","P.jpg","O.jpg","1","1","1","",""
"","feedback","","html-keyboard-response","390","417681","0.0-1.0-555.0-0.0","0","0","89037","","null","","","null","61","","","","","","","","","","","","","","","",""
"","ITI","","html-keyboard-response","391","418691","0.0-1.0-558.0","0","0","89037","","null","","","null","61","","","","","","","","","","","","","","","NaN",""
"","S1","","html-keyboard-response","392","418953","0.0-1.0-560.0","0","0","89037","","null","","","null","62","","","","","","","","","","","","","","","",""
"","ISI","","html-keyboard-response","393","420966","0.0-1.0-561.0","0","0","89037","","null","","","null","62","NaN","","","","","","","","","","","","","","",""
"","S2","","html-keyboard-response","394","421228","0.0-1.0-562.0","0","0","89037","","null","","","null","62","","NaN","","","","","","","","","","","","","",""
"","response","","html-keyboard-response","395","421529","0.0-1.0-563.0","0","0","89037","","299","","","75","62","","","2","62","training","adjacent","BC","2","3","L.jpg","M.jpg","1","1","1","",""
"","feedback","","html-keyboard-response","396","422536","0.0-1.0-564.0-0.0","0","0","89037","","null","","","null","62","","","","","","","","","","","","","","","",""
"","ITI","","html-keyboard-response","397","423553","0.0-1.0-567.0","0","0","89037","","null","","","null","62","","","","","","","","","","","","","","","NaN",""
"","S1","","html-keyboard-response","398","423805","0.0-1.0-569.0","0","0","89037","","null","","","null","63","","","","","","","","","","","","","","","",""
"","ISI","","html-keyboard-response","399","425816","0.0-1.0-570.0","0","0","89037","","null","","","null","63","NaN","","","","","","","","","","","","","","",""
"","S2","","html-keyboard-response","400","426077","0.0-1.0-571.0","0","0","89037","","null","","","null","63","","NaN","","","","","","","","","","","","","",""
"","response","","html-keyboard-response","401","426999","0.0-1.0-572.0","0","0","89037","","921","","","75","63","","","2","63","training","adjacent","DE","4","5","Q.jpg","N.jpg","1","1","1","",""
"","feedback","","html-keyboard-response","402","428017","0.0-1.0-573.0-0.0","0","0","89037","","null","","","null","63","","","","","","","","","","","","","","","",""
"","ITI","","html-keyboard-response","403","429028","0.0-1.0-576.0","0","0","89037","","null","","","null","63","","","","","","","","","","","","","","","NaN",""
"","S1","","html-keyboard-response","404","429282","0.0-1.0-578.0","0","0","89037","","null","","","null","64","","","","","","","","","","","","","","","",""
"","ISI","","html-keyboard-response","405","431299","0.0-1.0-579.0","0","0","89037","","null","","","null","64","NaN","","","","","","","","","","","","","","",""
"","S2","","html-keyboard-response","406","431556","0.0-1.0-580.0","0","0","89037","","null","","","null","64","","NaN","","","","","","","","","","","","","",""
"","response","","html-keyboard-response","407","432016","0.0-1.0-581.0","0","0","89037","","456","","","75","64","","","2","64","training","adjacent","AB","1","2","R.jpg","L.jpg","1","1","1","",""
"","feedback","","html-keyboard-response","408","433028","0.0-1.0-582.0-0.0","0","0","89037","","null","","","null","64","","","","","","","","","","","","","","","",""
"","ITI","","html-keyboard-response","409","434033","0.0-1.0-585.0","0","0","89037","","null","","","null","64","","","","","","","","","","","","","","","NaN",""
"","S1","","html-keyboard-response","410","434289","0.0-1.0-587.0","0","0","89037","","null","","","null","65","","","","","","","","","","","","","","","",""
"","ISI","","html-keyboard-response","411","436291","0.0-1.0-588.0","0","0","89037","","null","","","null","65","NaN","","","","","","","","","","","","","","",""
"","S2","","html-keyboard-response","412","436557","0.0-1.0-589.0","0","0","89037","","null","","","null","65","","NaN","","","","","","","","","","","","","",""
"","response","","html-keyboard-response","413","437177","0.0-1.0-590.0","0","0","89037","","616","","","68","65","","","2","65","training","adjacent","BA","2","1","L.jpg","R.jpg","0","0","1","",""
"","feedback","","html-keyboard-response","414","438182","0.0-1.0-591.0-0.0","0","0","89037","","null","","","null","65","","","","","","","","","","","","","","","",""
"","ITI","","html-keyboard-response","415","439187","0.0-1.0-594.0","0","0","89037","","null","","","null","65","","","","","","","","","","","","","","","NaN",""
"","S1","","html-keyboard-response","416","439449","0.0-1.0-596.0","0","0","89037","","null","","","null","66","","","","","","","","","","","","","","","",""
"","ISI","","html-keyboard-response","417","441460","0.0-1.0-597.0","0","0","89037","","null","","","null","66","NaN","","","","","","","","","","","","","","",""
"","S2","","html-keyboard-response","418","441714","0.0-1.0-598.0","0","0","89037","","null","","","null","66","","NaN","","","","","","","","","","","","","",""
"","response","","html-keyboard-response","419","441928","0.0-1.0-599.0","0","0","89037","","209","","","68","66","","","2","66","training","adjacent","GF","7","6","O.jpg","P.jpg","0","0","1","",""
"","feedback","","html-keyboard-response","420","442944","0.0-1.0-600.0-0.0","0","0","89037","","null","","","null","66","","","","","","","","","","","","","","","",""
"","ITI","","html-keyboard-response","421","443964","0.0-1.0-603.0","0","0","89037","","null","","","null","66","","","","","","","","","","","","","","","NaN",""
"","S1","","html-keyboard-response","422","444220","0.0-1.0-605.0","0","0","89037","","null","","","null","67","","","","","","","","","","","","","","","",""
"","ISI","","html-keyboard-response","423","446231","0.0-1.0-606.0","0","0","89037","","null","","","null","67","NaN","","","","","","","","","","","","","","",""
"","S2","","html-keyboard-response","424","446495","0.0-1.0-607.0","0","0","89037","","null","","","null","67","","NaN","","","","","","","","","","","","","",""
"","response","","html-keyboard-response","425","446628","0.0-1.0-608.0","0","0","89037","","130","","","68","67","","","2","67","training","adjacent","GF","7","6","O.jpg","P.jpg","0","0","1","",""
"","feedback","","html-keyboard-response","426","447646","0.0-1.0-609.0-0.0","0","0","89037","","null","","","null","67","","","","","","","","","","","","","","","",""
"","ITI","","html-keyboard-response","427","448656","0.0-1.0-612.0","0","0","89037","","null","","","null","67","","","","","","","","","","","","","","","NaN",""
"","S1","","html-keyboard-response","428","448923","0.0-1.0-614.0","0","0","89037","","null","","","null","68","","","","","","","","","","","","","","","",""
"","ISI","","html-keyboard-response","429","450926","0.0-1.0-615.0","0","0","89037","","null","","","null","68","NaN","","","","","","","","","","","","","","",""
"","S2","","html-keyboard-response","430","451183","0.0-1.0-616.0","0","0","89037","","null","","","null","68","","NaN","","","","","","","","","","","","","",""
"","response","","html-keyboard-response","431","451931","0.0-1.0-617.0","0","0","89037","","746","","","75","68","","","2","68","training","adjacent","EF","5","6","N.jpg","P.jpg","1","1","1","",""
"","feedback","","html-keyboard-response","432","452947","0.0-1.0-618.0-0.0","0","0","89037","","null","","","null","68","","","","","","","","","","","","","","","",""
"","ITI","","html-keyboard-response","433","453958","0.0-1.0-621.0","0","0","89037","","null","","","null","68","","","","","","","","","","","","","","","NaN",""
"","S1","","html-keyboard-response","434","454224","0.0-1.0-623.0","0","0","89037","","null","","","null","69","","","","","","","","","","","","","","","",""
"","ISI","","html-keyboard-response","435","456224","0.0-1.0-624.0","0","0","89037","","null","","","null","69","NaN","","","","","","","","","","","","","","",""
"","S2","","html-keyboard-response","436","456489","0.0-1.0-625.0","0","0","89037","","null","","","null","69","","NaN","","","","","","","","","","","","","",""
"","response","","html-keyboard-response","437","456933","0.0-1.0-626.0","0","0","89037","","441","","","75","69","","","2","69","training","adjacent","FG","6","7","P.jpg","O.jpg","1","1","1","",""
"","feedback","","html-keyboard-response","438","457946","0.0-1.0-627.0-0.0","0","0","89037","","null","","","null","69","","","","","","","","","","","","","","","",""
"","ITI","","html-keyboard-response","439","458962","0.0-1.0-630.0","0","0","89037","","null","","","null","69","","","","","","","","","","","","","","","NaN",""
"","S1","","html-keyboard-response","440","459231","0.0-1.0-632.0","0","0","89037","","null","","","null","70","","","","","","","","","","","","","","","",""
"","ISI","","html-keyboard-response","441","461234","0.0-1.0-633.0","0","0","89037","","null","","","null","70","NaN","","","","","","","","","","","","","","",""
"","S2","","html-keyboard-response","442","461489","0.0-1.0-634.0","0","0","89037","","null","","","null","70","","NaN","","","","","","","","","","","","","",""
"","response","","html-keyboard-response","443","461966","0.0-1.0-635.0","0","0","89037","","474","","","75","70","","","2","70","training","adjacent","DE","4","5","Q.jpg","N.jpg","1","1","1","",""
"","feedback","","html-keyboard-response","444","462973","0.0-1.0-636.0-0.0","0","0","89037","","null","","","null","70","","","","","","","","","","","","","","","",""
"","ITI","","html-keyboard-response","445","463981","0.0-1.0-639.0","0","0","89037","","null","","","null","70","","","","","","","","","","","","","","","NaN",""
"","S1","","html-keyboard-response","446","464246","0.0-1.0-641.0","0","0","89037","","null","","","null","71","","","","","","","","","","","","","","","",""
"","ISI","","html-keyboard-response","447","466255","0.0-1.0-642.0","0","0","89037","","null","","","null","71","NaN","","","","","","","","","","","","","","",""
"","S2","","html-keyboard-response","448","466517","0.0-1.0-643.0","0","0","89037","","null","","","null","71","","NaN","","","","","","","","","","","","","",""
"","response","","html-keyboard-response","449","466750","0.0-1.0-644.0","0","0","89037","","231","","","75","71","","","2","71","training","adjacent","AB","1","2","R.jpg","L.jpg","1","1","1","",""
"","feedback","","html-keyboard-response","450","467755","0.0-1.0-645.0-0.0","0","0","89037","","null","","","null","71","","","","","","","","","","","","","","","",""
"","ITI","","html-keyboard-response","451","468768","0.0-1.0-648.0","0","0","89037","","null","","","null","71","","","","","","","","","","","","","","","NaN",""
"","S1","","html-keyboard-response","452","469031","0.0-1.0-650.0","0","0","89037","","null","","","null","72","","","","","","","","","","","","","","","",""
"","ISI","","html-keyboard-response","453","471045","0.0-1.0-651.0","0","0","89037","","null","","","null","72","NaN","","","","","","","","","","","","","","",""
"","S2","","html-keyboard-response","454","471313","0.0-1.0-652.0","0","0","89037","","null","","","null","72","","NaN","","","","","","","","","","","","","",""
"","response","","html-keyboard-response","455","471882","0.0-1.0-653.0","0","0","89037","","566","","","68","72","","","2","72","training","adjacent","ED","5","4","N.jpg","Q.jpg","0","0","1","",""
"","feedback","","html-keyboard-response","456","472897","0.0-1.0-654.0-0.0","0","0","89037","","null","","","null","72","","","","","","","","","","","","","","","",""
"","ITI","","html-keyboard-response","457","473915","0.0-1.0-657.0","0","0","89037","","null","","","null","72","","","","","","","","","","","","","","","NaN",""
"","S1","","html-keyboard-response","458","474174","0.0-1.0-659.0","0","0","89037","","null","","","null","73","","","","","","","","","","","","","","","",""
"","ISI","","html-keyboard-response","459","476185","0.0-1.0-660.0","0","0","89037","","null","","","null","73","NaN","","","","","","","","","","","","","","",""
"","S2","","html-keyboard-response","460","476444","0.0-1.0-661.0","0","0","89037","","null","","","null","73","","NaN","","","","","","","","","","","","","",""
"","response","","html-keyboard-response","461","476655","0.0-1.0-662.0","0","0","89037","","207","","","68","73","","","2","73","training","adjacent","ED","5","4","N.jpg","Q.jpg","0","0","1","",""
"","feedback","","html-keyboard-response","462","477671","0.0-1.0-663.0-0.0","0","0","89037","","null","","","null","73","","","","","","","","","","","","","","","",""
"","ITI","","html-keyboard-response","463","478685","0.0-1.0-666.0","0","0","89037","","null","","","null","73","","","","","","","","","","","","","","","NaN",""
"","S1","","html-keyboard-response","464","478940","0.0-1.0-668.0","0","0","89037","","null","","","null","74","","","","","","","","","","","","","","","",""
"","ISI","","html-keyboard-response","465","480955","0.0-1.0-669.0","0","0","89037","","null","","","null","74","NaN","","","","","","","","","","","","","","",""
"","S2","","html-keyboard-response","466","481208","0.0-1.0-670.0","0","0","89037","","null","","","null","74","","NaN","","","","","","","","","","","","","",""
"","response","","html-keyboard-response","467","481651","0.0-1.0-671.0","0","0","89037","","438","","","68","74","","","2","74","training","adjacent","BA","2","1","L.jpg","R.jpg","0","0","1","",""
"","feedback","","html-keyboard-response","468","482657","0.0-1.0-672.0-0.0","0","0","89037","","null","","","null","74","","","","","","","","","","","","","","","",""
"","ITI","","html-keyboard-response","469","483664","0.0-1.0-675.0","0","0","89037","","null","","","null","74","","","","","","","","","","","","","","","NaN",""
"","S1","","html-keyboard-response","470","483923","0.0-1.0-677.0","0","0","89037","","null","","","null","75","","","","","","","","","","","","","","","",""
"","ISI","","html-keyboard-response","471","485926","0.0-1.0-678.0","0","0","89037","","null","","","null","75","NaN","","","","","","","","","","","","","","",""
"","S2","","html-keyboard-response","472","486189","0.0-1.0-679.0","0","0","89037","","null","","","null","75","","NaN","","","","","","","","","","","","","",""
"","response","","html-keyboard-response","473","486753","0.0-1.0-680.0","0","0","89037","","561","","","68","75","","","2","75","training","adjacent","EF","5","6","N.jpg","P.jpg","0","1","0","",""
"","feedback","","html-keyboard-response","474","487756","0.0-1.0-681.0-0.0","0","0","89037","","null","","","null","75","","","","","","","","","","","","","","","",""
"","time_out","","html-keyboard-response","475","489761","0.0-1.0-683.0-0.0","0","0","89037","","null","","","null","75","","","","","","","","","","","","","","","",""
"","ITI","","html-keyboard-response","476","490777","0.0-1.0-684.0","0","0","89037","","null","","","null","75","","","","","","","","","","","","","","","NaN",""
"","S1","","html-keyboard-response","477","491033","0.0-1.0-686.0","0","0","89037","","null","","","null","76","","","","","","","","","","","","","","","",""
"","ISI","","html-keyboard-response","478","493051","0.0-1.0-687.0","0","0","89037","","null","","","null","76","NaN","","","","","","","","","","","","","","",""
"","S2","","html-keyboard-response","479","493306","0.0-1.0-688.0","0","0","89037","","null","","","null","76","","NaN","","","","","","","","","","","","","",""
"","response","","html-keyboard-response","480","493872","0.0-1.0-689.0","0","0","89037","","563","","","75","76","","","2","76","training","adjacent","FG","6","7","P.jpg","O.jpg","1","1","1","",""
"","feedback","","html-keyboard-response","481","494881","0.0-1.0-690.0-0.0","0","0","89037","","null","","","null","76","","","","","","","","","","","","","","","",""
"","ITI","","html-keyboard-response","482","495889","0.0-1.0-693.0","0","0","89037","","null","","","null","76","","","","","","","","","","","","","","","NaN",""
"","S1","","html-keyboard-response","483","496144","0.0-1.0-695.0","0","0","89037","","null","","","null","77","","","","","","","","","","","","","","","",""
"","ISI","","html-keyboard-response","484","498151","0.0-1.0-696.0","0","0","89037","","null","","","null","77","NaN","","","","","","","","","","","","","","",""
"","S2","","html-keyboard-response","485","498411","0.0-1.0-697.0","0","0","89037","","null","","","null","77","","NaN","","","","","","","","","","","","","",""
"","response","","html-keyboard-response","486","498516","0.0-1.0-698.0","0","0","89037","","102","","","68","77","","","2","77","training","adjacent","GF","7","6","O.jpg","P.jpg","0","0","1","",""
"","feedback","","html-keyboard-response","487","499523","0.0-1.0-699.0-0.0","0","0","89037","","null","","","null","77","","","","","","","","","","","","","","","",""
"","ITI","","html-keyboard-response","488","500528","0.0-1.0-702.0","0","0","89037","","null","","","null","77","","","","","","","","","","","","","","","NaN",""
"","S1","","html-keyboard-response","489","500787","0.0-1.0-704.0","0","0","89037","","null","","","null","78","","","","","","","","","","","","","","","",""
"","ISI","","html-keyboard-response","490","502800","0.0-1.0-705.0","0","0","89037","","null","","","null","78","NaN","","","","","","","","","","","","","","",""
"","S2","","html-keyboard-response","491","503053","0.0-1.0-706.0","0","0","89037","","null","","","null","78","","NaN","","","","","","","","","","","","","",""
"","response","","html-keyboard-response","492","504043","0.0-1.0-707.0","0","0","89037","","989","","","75","78","","","2","78","training","adjacent","EF","5","6","N.jpg","P.jpg","1","1","1","",""
"","feedback","","html-keyboard-response","493","505055","0.0-1.0-708.0-0.0","0","0","89037","","null","","","null","78","","","","","","","","","","","","","","","",""
"","ITI","","html-keyboard-response","494","506063","0.0-1.0-711.0","0","0","89037","","null","","","null","78","","","","","","","","","","","","","","","NaN",""
"","S1","","html-keyboard-response","495","506322","0.0-1.0-713.0","0","0","89037","","null","","","null","79","","","","","","","","","","","","","","","",""
"","ISI","","html-keyboard-response","496","508331","0.0-1.0-714.0","0","0","89037","","null","","","null","79","NaN","","","","","","","","","","","","","","",""
"","S2","","html-keyboard-response","497","508595","0.0-1.0-715.0","0","0","89037","","null","","","null","79","","NaN","","","","","","","","","","","","","",""
"","response","","html-keyboard-response","498","509327","0.0-1.0-716.0","0","0","89037","","729","","","68","79","","","2","79","training","adjacent","CB","3","2","M.jpg","L.jpg","0","0","1","",""
"","feedback","","html-keyboard-response","499","510347","0.0-1.0-717.0-0.0","0","0","89037","","null","","","null","79","","","","","","","","","","","","","","","",""
"","ITI","","html-keyboard-response","500","511357","0.0-1.0-720.0","0","0","89037","","null","","","null","79","","","","","","","","","","","","","","","NaN",""
"","S1","","html-keyboard-response","501","511615","0.0-1.0-722.0","0","0","89037","","null","","","null","80","","","","","","","","","","","","","","","",""
"","ISI","","html-keyboard-response","502","513623","0.0-1.0-723.0","0","0","89037","","null","","","null","80","NaN","","","","","","","","","","","","","","",""
"","S2","","html-keyboard-response","503","513887","0.0-1.0-724.0","0","0","89037","","null","","","null","80","","NaN","","","","","","","","","","","","","",""
"","response","","html-keyboard-response","504","514629","0.0-1.0-725.0","0","0","89037","","738","","","68","80","","","2","80","training","adjacent","FE","6","5","P.jpg","N.jpg","0","0","1","",""
"","feedback","","html-keyboard-response","505","515645","0.0-1.0-726.0-0.0","0","0","89037","","null","","","null","80","","","","","","","","","","","","","","","",""
"","ITI","","html-keyboard-response","506","516648","0.0-1.0-729.0","0","0","89037","","null","","","null","80","","","","","","","","","","","","","","","NaN",""
"","S1","","html-keyboard-response","507","516914","0.0-1.0-731.0","0","0","89037","","null","","","null","81","","","","","","","","","","","","","","","",""
"","ISI","","html-keyboard-response","508","518923","0.0-1.0-732.0","0","0","89037","","null","","","null","81","NaN","","","","","","","","","","","","","","",""
"","S2","","html-keyboard-response","509","519180","0.0-1.0-733.0","0","0","89037","","null","","","null","81","","NaN","","","","","","","","","","","","","",""
"","response","","html-keyboard-response","510","519493","0.0-1.0-734.0","0","0","89037","","310","","","75","81","","","2","81","training","adjacent","DC","4","3","Q.jpg","M.jpg","1","0","0","",""
"","feedback","","html-keyboard-response","511","520502","0.0-1.0-735.0-0.0","0","0","89037","","null","","","null","81","","","","","","","","","","","","","","","",""
"","time_out","","html-keyboard-response","512","522508","0.0-1.0-737.0-0.0","0","0","89037","","null","","","null","81","","","","","","","","","","","","","","","",""
"","ITI","","html-keyboard-response","513","523513","0.0-1.0-738.0","0","0","89037","","null","","","null","81","","","","","","","","","","","","","","","NaN",""
"","S1","","html-keyboard-response","514","523778","0.0-1.0-740.0","0","0","89037","","null","","","null","82","","","","","","","","","","","","","","","",""
"","ISI","","html-keyboard-response","515","525788","0.0-1.0-741.0","0","0","89037","","null","","","null","82","NaN","","","","","","","","","","","","","","",""
"","S2","","html-keyboard-response","516","526057","0.0-1.0-742.0","0","0","89037","","null","","","null","82","","NaN","","","","","","","","","","","","","",""
"","response","","html-keyboard-response","517","526238","0.0-1.0-743.0","0","0","89037","","179","","","75","82","","","2","82","training","adjacent","CD","3","4","M.jpg","Q.jpg","1","1","1","",""
"","feedback","","html-keyboard-response","518","527252","0.0-1.0-744.0-0.0","0","0","89037","","null","","","null","82","","","","","","","","","","","","","","","",""
"","ITI","","html-keyboard-response","519","528266","0.0-1.0-747.0","0","0","89037","","null","","","null","82","","","","","","","","","","","","","","","NaN",""
"","S1","","html-keyboard-response","520","528526","0.0-1.0-749.0","0","0","89037","","null","","","null","83","","","","","","","","","","","","","","","",""
"","ISI","","html-keyboard-response","521","530531","0.0-1.0-750.0","0","0","89037","","null","","","null","83","NaN","","","","","","","","","","","","","","",""
"","S2","","html-keyboard-response","522","530787","0.0-1.0-751.0","0","0","89037","","null","","","null","83","","NaN","","","","","","","","","","","","","",""
"","response","","html-keyboard-response","523","531362","0.0-1.0-752.0","0","0","89037","","571","","","68","83","","","2","83","training","adjacent","FE","6","5","P.jpg","N.jpg","0","0","1","",""
"","feedback","","html-keyboard-response","524","532373","0.0-1.0-753.0-0.0","0","0","89037","","null","","","null","83","","","","","","","","","","","","","","","",""
"","ITI","","html-keyboard-response","525","533387","0.0-1.0-756.0","0","0","89037","","null","","","null","83","","","","","","","","","","","","","","","NaN",""
"","S1","","html-keyboard-response","526","533651","0.0-1.0-758.0","0","0","89037","","null","","","null","84","","","","","","","","","","","","","","","",""
"","ISI","","html-keyboard-response","527","535663","0.0-1.0-759.0","0","0","89037","","null","","","null","84","NaN","","","","","","","","","","","","","","",""
"","S2","","html-keyboard-response","528","535926","0.0-1.0-760.0","0","0","89037","","null","","","null","84","","NaN","","","","","","","","","","","","","",""
"","response","","html-keyboard-response","529","536512","0.0-1.0-761.0","0","0","89037","","582","","","68","84","","","2","84","training","adjacent","CB","3","2","M.jpg","L.jpg","0","0","1","",""
"","feedback","","html-keyboard-response","530","537523","0.0-1.0-762.0-0.0","0","0","89037","","null","","","null","84","","","","","","","","","","","","","","","",""
"","ITI","","html-keyboard-response","531","538534","0.0-1.0-765.0","0","0","89037","","null","","","null","84","","","","","","","","","","","","","","","NaN",""
"","S1","","html-keyboard-response","532","538790","0.0-1.0-767.0","0","0","89037","","null","","","null","85","","","","","","","","","","","","","","","",""
"","ISI","","html-keyboard-response","533","540807","0.0-1.0-768.0","0","0","89037","","null","","","null","85","NaN","","","","","","","","","","","","","","",""
"","S2","","html-keyboard-response","534","541075","0.0-1.0-769.0","0","0","89037","","null","","","null","85","","NaN","","","","","","","","","","","","","",""
"","response","","html-keyboard-response","535","541636","0.0-1.0-770.0","0","0","89037","","556","","","68","85","","","2","85","training","adjacent","ED","5","4","N.jpg","Q.jpg","0","0","1","",""
"","feedback","","html-keyboard-response","536","542641","0.0-1.0-771.0-0.0","0","0","89037","","null","","","null","85","","","","","","","","","","","","","","","",""
"","ITI","","html-keyboard-response","537","543660","0.0-1.0-774.0","0","0","89037","","null","","","null","85","","","","","","","","","","","","","","","NaN",""
"","S1","","html-keyboard-response","538","543921","0.0-1.0-776.0","0","0","89037","","null","","","null","86","","","","","","","","","","","","","","","",""
"","ISI","","html-keyboard-response","539","545938","0.0-1.0-777.0","0","0","89037","","null","","","null","86","NaN","","","","","","","","","","","","","","",""
"","S2","","html-keyboard-response","540","546195","0.0-1.0-778.0","0","0","89037","","null","","","null","86","","NaN","","","","","","","","","","","","","",""
"","response","","html-keyboard-response","541","546909","0.0-1.0-779.0","0","0","89037","","709","","","75","86","","","2","86","training","adjacent","BC","2","3","L.jpg","M.jpg","1","1","1","",""
"","feedback","","html-keyboard-response","542","547925","0.0-1.0-780.0-0.0","0","0","89037","","null","","","null","86","","","","","","","","","","","","","","","",""
"","ITI","","html-keyboard-response","543","548940","0.0-1.0-783.0","0","0","89037","","null","","","null","86","","","","","","","","","","","","","","","NaN",""
"","S1","","html-keyboard-response","544","549195","0.0-1.0-785.0","0","0","89037","","null","","","null","87","","","","","","","","","","","","","","","",""
"","ISI","","html-keyboard-response","545","551197","0.0-1.0-786.0","0","0","89037","","null","","","null","87","NaN","","","","","","","","","","","","","","",""
"","S2","","html-keyboard-response","546","551450","0.0-1.0-787.0","0","0","89037","","null","","","null","87","","NaN","","","","","","","","","","","","","",""
"","response","","html-keyboard-response","547","552058","0.0-1.0-788.0","0","0","89037","","607","","","75","87","","","2","87","training","adjacent","DC","4","3","Q.jpg","M.jpg","1","0","0","",""
"","feedback","","html-keyboard-response","548","553073","0.0-1.0-789.0-0.0","0","0","89037","","null","","","null","87","","","","","","","","","","","","","","","",""
"","time_out","","html-keyboard-response","549","555089","0.0-1.0-791.0-0.0","0","0","89037","","null","","","null","87","","","","","","","","","","","","","","","",""
"","ITI","","html-keyboard-response","550","556104","0.0-1.0-792.0","0","0","89037","","null","","","null","87","","","","","","","","","","","","","","","NaN",""
"","S1","","html-keyboard-response","551","556365","0.0-1.0-794.0","0","0","89037","","null","","","null","88","","","","","","","","","","","","","","","",""
"","ISI","","html-keyboard-response","552","558372","0.0-1.0-795.0","0","0","89037","","null","","","null","88","NaN","","","","","","","","","","","","","","",""
"","S2","","html-keyboard-response","553","558630","0.0-1.0-796.0","0","0","89037","","null","","","null","88","","NaN","","","","","","","","","","","","","",""
"","response","","html-keyboard-response","554","559039","0.0-1.0-797.0","0","0","89037","","405","","","68","88","","","2","88","training","adjacent","DC","4","3","Q.jpg","M.jpg","0","0","1","",""
"","feedback","","html-keyboard-response","555","560042","0.0-1.0-798.0-0.0","0","0","89037","","null","","","null","88","","","","","","","","","","","","","","","",""
"","ITI","","html-keyboard-response","556","561052","0.0-1.0-801.0","0","0","89037","","null","","","null","88","","","","","","","","","","","","","","","NaN",""
"","S1","","html-keyboard-response","557","561316","0.0-1.0-803.0","0","0","89037","","null","","","null","89","","","","","","","","","","","","","","","",""
"","ISI","","html-keyboard-response","558","563326","0.0-1.0-804.0","0","0","89037","","null","","","null","89","NaN","","","","","","","","","","","","","","",""
"","S2","","html-keyboard-response","559","563585","0.0-1.0-805.0","0","0","89037","","null","","","null","89","","NaN","","","","","","","","","","","","","",""
"","response","","html-keyboard-response","560","564066","0.0-1.0-806.0","0","0","89037","","479","","","68","89","","","2","89","training","adjacent","BA","2","1","L.jpg","R.jpg","0","0","1","",""
"","feedback","","html-keyboard-response","561","565071","0.0-1.0-807.0-0.0","0","0","89037","","null","","","null","89","","","","","","","","","","","","","","","",""
"","ITI","","html-keyboard-response","562","566078","0.0-1.0-810.0","0","0","89037","","null","","","null","89","","","","","","","","","","","","","","","NaN",""
"","S1","","html-keyboard-response","563","566336","0.0-1.0-812.0","0","0","89037","","null","","","null","90","","","","","","","","","","","","","","","",""
"","ISI","","html-keyboard-response","564","568350","0.0-1.0-813.0","0","0","89037","","null","","","null","90","NaN","","","","","","","","","","","","","","",""
"","S2","","html-keyboard-response","565","568614","0.0-1.0-814.0","0","0","89037","","null","","","null","90","","NaN","","","","","","","","","","","","","",""
"","response","","html-keyboard-response","566","568935","0.0-1.0-815.0","0","0","89037","","320","","","68","90","","","2","90","training","adjacent","BA","2","1","L.jpg","R.jpg","0","0","1","",""
"","feedback","","html-keyboard-response","567","569944","0.0-1.0-816.0-0.0","0","0","89037","","null","","","null","90","","","","","","","","","","","","","","","",""
"","ITI","","html-keyboard-response","568","570957","0.0-1.0-819.0","0","0","89037","","null","","","null","90","","","","","","","","","","","","","","","NaN",""
"","S1","","html-keyboard-response","569","571221","0.0-1.0-821.0","0","0","89037","","null","","","null","91","","","","","","","","","","","","","","","",""
"","ISI","","html-keyboard-response","570","573229","0.0-1.0-822.0","0","0","89037","","null","","","null","91","NaN","","","","","","","","","","","","","","",""
"","S2","","html-keyboard-response","571","573490","0.0-1.0-823.0","0","0","89037","","null","","","null","91","","NaN","","","","","","","","","","","","","",""
"","response","","html-keyboard-response","572","574040","0.0-1.0-824.0","0","0","89037","","546","","","68","91","","","2","91","training","adjacent","ED","5","4","N.jpg","Q.jpg","0","0","1","",""
"","feedback","","html-keyboard-response","573","575059","0.0-1.0-825.0-0.0","0","0","89037","","null","","","null","91","","","","","","","","","","","","","","","",""
"","ITI","","html-keyboard-response","574","576065","0.0-1.0-828.0","0","0","89037","","null","","","null","91","","","","","","","","","","","","","","","NaN",""
"","S1","","html-keyboard-response","575","576329","0.0-1.0-830.0","0","0","89037","","null","","","null","92","","","","","","","","","","","","","","","",""
"","ISI","","html-keyboard-response","576","578337","0.0-1.0-831.0","0","0","89037","","null","","","null","92","NaN","","","","","","","","","","","","","","",""
"","S2","","html-keyboard-response","577","578598","0.0-1.0-832.0","0","0","89037","","null","","","null","92","","NaN","","","","","","","","","","","","","",""
"","response","","html-keyboard-response","578","579643","0.0-1.0-833.0","0","0","89037","","1042","","","75","92","","","2","92","training","adjacent","DE","4","5","Q.jpg","N.jpg","1","1","1","",""
"","feedback","","html-keyboard-response","579","580654","0.0-1.0-834.0-0.0","0","0","89037","","null","","","null","92","","","","","","","","","","","","","","","",""
"","ITI","","html-keyboard-response","580","581662","0.0-1.0-837.0","0","0","89037","","null","","","null","92","","","","","","","","","","","","","","","NaN",""
"","S1","","html-keyboard-response","581","581921","0.0-1.0-839.0","0","0","89037","","null","","","null","93","","","","","","","","","","","","","","","",""
"","ISI","","html-keyboard-response","582","583936","0.0-1.0-840.0","0","0","89037","","null","","","null","93","NaN","","","","","","","","","","","","","","",""
"","S2","","html-keyboard-response","583","584191","0.0-1.0-841.0","0","0","89037","","null","","","null","93","","NaN","","","","","","","","","","","","","",""
"","response","","html-keyboard-response","584","585625","0.0-1.0-842.0","0","0","89037","","1430","","","75","93","","","2","93","training","adjacent","DE","4","5","Q.jpg","N.jpg","1","1","1","",""
