"success","ttype","start_time","trial_type","trial_index","time_elapsed","internal_node_id","warning","missed_checkup","PID","view_history","rt","responses","repeat_instructions","key_press","index","keypress_isi","keypress_S2","block","trial_num","phase","group_type","pair_type","S1_stim","S2_stim","S1_img","S2_img","S1_chosen","S1_higher","accuracy","keypress_iti","total_bonus_tally"
"true","full_screen","d08042022hr1713","fullscreen","0","13166","0.0-0.0","0","0","65334","","","","","","","","","","","","","","","","","","","","","",""
"","instructions","","instructions","1","55576","0.0-1.0-0.0-0.0","0","0","65334","[{""page_index"":0,""viewing_time"":6909},{""page_index"":1,""viewing_time"":24472},{""page_index"":2,""viewing_time"":8616},{""page_index"":3,""viewing_time"":2400}]","42398","","","","","","","","","","","","","","","","","","","",""
"","comprehension_check","","survey-multi-choice","2","73954","0.0-1.0-0.0-1.0","0","0","65334","","18352","{""Q0"":""True"",""Q1"":""D"",""Q2"":""Once the second image appears and while the screen 'MAKE A CHOICE' is shown"",""Q3"":""Green mark"",""Q4"":""either D or K""}","0","","","","","","","","","","","","","","","","","",""
"","start_exp","","html-keyboard-response","3","77567","0.0-1.0-1.0","0","0","65334","","3599","","","32","","","","","","","","","","","","","","","","",""
"","S1","","html-keyboard-response","4","77838","0.0-1.0-2.0","0","0","65334","","null","","","null","0","","","","","","","","","","","","","","","",""
"","ISI","","html-keyboard-response","5","79853","0.0-1.0-3.0","0","0","65334","","null","","","null","0","NaN","","","","","","","","","","","","","","",""
"","S2","","html-keyboard-response","6","80128","0.0-1.0-4.0","0","0","65334","","null","","","null","0","","NaN","","","","","","","","","","","","","",""
"","response","","html-keyboard-response","7","80645","0.0-1.0-5.0-0.0","0","0","65334","","506","","","75","0","","","1","0","training","adjacent","EF","5","6","O.jpg","Q.jpg","0","1","0","",""
"","feedback","","html-keyboard-response","8","81672","0.0-1.0-6.0-0.0","0","0","65334","","null","","","null","0","","","","","","","","","","","","","","","",""
"","time_out","","html-keyboard-response","9","83692","0.0-1.0-8.0-0.0","0","0","65334","","null","","","null","0","","","","","","","","","","","","","","","",""
"","ITI","","html-keyboard-response","10","84706","0.0-1.0-9.0","0","0","65334","","null","","","null","0","","","","","","","","","","","","","","","NaN",""
"","S1","","html-keyboard-response","11","84983","0.0-1.0-11.0","0","0","65334","","null","","","null","1","","","","","","","","","","","","","","","",""
"","ISI","","html-keyboard-response","12","87004","0.0-1.0-12.0","0","0","65334","","null","","","null","1","NaN","","","","","","","","","","","","","","",""
"","S2","","html-keyboard-response","13","87276","0.0-1.0-13.0","0","0","65334","","null","","","null","1","","NaN","","","","","","","","","","","","","",""
"","response","","html-keyboard-response","14","87769","0.0-1.0-14.0-0.0","0","0","65334","","478","","","75","1","","","1","1","training","adjacent","FG","6","7","Q.jpg","M.jpg","0","1","0","",""
"","feedback","","html-keyboard-response","15","88799","0.0-1.0-15.0-0.0","0","0","65334","","null","","","null","1","","","","","","","","","","","","","","","",""
"","time_out","","html-keyboard-response","16","90821","0.0-1.0-17.0-0.0","0","0","65334","","null","","","null","1","","","","","","","","","","","","","","","",""
"","ITI","","html-keyboard-response","17","91838","0.0-1.0-18.0","0","0","65334","","null","","","null","1","","","","","","","","","","","","","","","NaN",""
"","S1","","html-keyboard-response","18","92113","0.0-1.0-20.0","0","0","65334","","null","","","null","2","","","","","","","","","","","","","","","",""
"","ISI","","html-keyboard-response","19","94131","0.0-1.0-21.0","0","0","65334","","null","","","null","2","NaN","","","","","","","","","","","","","","",""
"","S2","","html-keyboard-response","20","94401","0.0-1.0-22.0","0","0","65334","","null","","","null","2","","NaN","","","","","","","","","","","","","",""
"","response","","html-keyboard-response","21","94775","0.0-1.0-23.0-0.0","0","0","65334","","358","","","68","2","","","1","2","training","adjacent","FE","6","5","Q.jpg","O.jpg","1","0","0","",""
"","feedback","","html-keyboard-response","22","95804","0.0-1.0-24.0-0.0","0","0","65334","","null","","","null","2","","","","","","","","","","","","","","","",""
"","time_out","","html-keyboard-response","23","97837","0.0-1.0-26.0-0.0","0","0","65334","","null","","","null","2","","","","","","","","","","","","","","","",""
"","ITI","","html-keyboard-response","24","98859","0.0-1.0-27.0","0","0","65334","","null","","","null","2","","","","","","","","","","","","","","","NaN",""
"","S1","","html-keyboard-response","25","99132","0.0-1.0-29.0","0","0","65334","","null","","","null","3","","","","","","","","","","","","","","","",""
"","ISI","","html-keyboard-response","26","101150","0.0-1.0-30.0","0","0","65334","","null","","","null","3","NaN","","","","","","","","","","","","","","",""
"","S2","","html-keyboard-response","27","101429","0.0-1.0-31.0","0","0","65334","","null","","","null","3","","NaN","","","","","","","","","","","","","",""
"","response","","html-keyboard-response","28","101730","0.0-1.0-32.0-0.0","0","0","65334","","284","","","68","3","","","1","3","training","adjacent","ED","5","4","O.jpg","P.jpg","1","0","0","",""
"","feedback","","html-keyboard-response","29","102753","0.0-1.0-33.0-0.0","0","0","65334","","null","","","null","3","","","","","","","","","","","","","","","",""
"","time_out","","html-keyboard-response","30","104760","0.0-1.0-35.0-0.0","0","0","65334","","null","","","null","3","","","","","","","","","","","","","","","",""
"","ITI","","html-keyboard-response","31","105780","0.0-1.0-36.0","0","0","65334","","null","","","null","3","","","","","","","","","","","","","","","NaN",""
"","S1","","html-keyboard-response","32","106047","0.0-1.0-38.0","0","0","65334","","null","","","null","4","","","","","","","","","","","","","","","",""
"","ISI","","html-keyboard-response","33","108070","0.0-1.0-39.0","0","0","65334","","null","","","null","4","NaN","","","","","","","","","","","","","","",""
"","S2","","html-keyboard-response","34","108340","0.0-1.0-40.0","0","0","65334","","null","","","null","4","","NaN","","","","","","","","","","","","","",""
"","response","","html-keyboard-response","35","108568","0.0-1.0-41.0-0.0","0","0","65334","","221","","","75","4","","","1","4","training","adjacent","BC","2","3","L.jpg","N.jpg","0","1","0","",""
"","feedback","","html-keyboard-response","36","109592","0.0-1.0-42.0-0.0","0","0","65334","","null","","","null","4","","","","","","","","","","","","","","","",""
"","time_out","","html-keyboard-response","37","111614","0.0-1.0-44.0-0.0","0","0","65334","","null","","","null","4","","","","","","","","","","","","","","","",""
"","ITI","","html-keyboard-response","38","112633","0.0-1.0-45.0","0","0","65334","","null","","","null","4","","","","","","","","","","","","","","","NaN",""
"","S1","","html-keyboard-response","39","112895","0.0-1.0-47.0","0","0","65334","","null","","","null","5","","","","","","","","","","","","","","","",""
"","ISI","","html-keyboard-response","40","114905","0.0-1.0-48.0","0","0","65334","","null","","","null","5","NaN","","","","","","","","","","","","","","",""
"","S2","","html-keyboard-response","41","115177","0.0-1.0-49.0","0","0","65334","","null","","","null","5","","NaN","","","","","","","","","","","","","",""
"","response","","html-keyboard-response","42","115552","0.0-1.0-50.0-0.0","0","0","65334","","359","","","68","5","","","1","5","training","adjacent","DE","4","5","P.jpg","O.jpg","1","1","1","",""
"","feedback","","html-keyboard-response","43","116568","0.0-1.0-51.0-0.0","0","0","65334","","null","","","null","5","","","","","","","","","","","","","","","",""
"","ITI","","html-keyboard-response","44","117589","0.0-1.0-54.0","0","0","65334","","null","","","null","5","","","","","","","","","","","","","","","NaN",""
"","S1","","html-keyboard-response","45","117869","0.0-1.0-56.0","0","0","65334","","null","","","null","6","","","","","","","","","","","","","","","",""
"","ISI","","html-keyboard-response","46","119892","0.0-1.0-57.0","0","0","65334","","null","","","null","6","NaN","","","","","","","","","","","","","","",""
"","S2","","html-keyboard-response","47","120158","0.0-1.0-58.0","0","0","65334","","null","","","null","6","","NaN","","","","","","","","","","","","","",""
"","response","","html-keyboard-response","48","120424","0.0-1.0-59.0-0.0","0","0","65334","","258","","","68","6","","","1","6","training","adjacent","DC","4","3","P.jpg","N.jpg","1","0","0","",""
"","feedback","","html-keyboard-response","49","121447","0.0-1.0-60.0-0.0","0","0","65334","","null","","","null","6","","","","","","","","","","","","","","","",""
"","time_out","","html-keyboard-response","50","123471","0.0-1.0-62.0-0.0","0","0","65334","","null","","","null","6","","","","","","","","","","","","","","","",""
"","ITI","","html-keyboard-response","51","124495","0.0-1.0-63.0","0","0","65334","","null","","","null","6","","","","","","","","","","","","","","","NaN",""
"","S1","","html-keyboard-response","52","124765","0.0-1.0-65.0","0","0","65334","","null","","","null","7","","","","","","","","","","","","","","","",""
"","ISI","","html-keyboard-response","53","126787","0.0-1.0-66.0","0","0","65334","","null","","","null","7","NaN","","","","","","","","","","","","","","",""
"","S2","","html-keyboard-response","54","127048","0.0-1.0-67.0","0","0","65334","","null","","","null","7","","NaN","","","","","","","","","","","","","",""
"","response","","html-keyboard-response","55","127275","0.0-1.0-68.0-0.0","0","0","65334","","222","","","75","7","","","1","7","training","adjacent","BC","2","3","L.jpg","N.jpg","0","1","0","",""
"","feedback","","html-keyboard-response","56","128302","0.0-1.0-69.0-0.0","0","0","65334","","null","","","null","7","","","","","","","","","","","","","","","",""
"","time_out","","html-keyboard-response","57","130317","0.0-1.0-71.0-0.0","0","0","65334","","null","","","null","7","","","","","","","","","","","","","","","",""
"","ITI","","html-keyboard-response","58","131344","0.0-1.0-72.0","0","0","65334","","null","","","null","7","","","","","","","","","","","","","","","NaN",""
"","S1","","html-keyboard-response","59","131606","0.0-1.0-74.0","0","0","65334","","null","","","null","8","","","","","","","","","","","","","","","",""
"","ISI","","html-keyboard-response","60","133613","0.0-1.0-75.0","0","0","65334","","null","","","null","8","NaN","","","","","","","","","","","","","","",""
"","S2","","html-keyboard-response","61","133887","0.0-1.0-76.0","0","0","65334","","null","","","null","8","","NaN","","","","","","","","","","","","","",""
"","response","","html-keyboard-response","62","134157","0.0-1.0-77.0-0.0","0","0","65334","","256","","","68","8","","","1","8","training","adjacent","BC","2","3","L.jpg","N.jpg","1","1","1","",""
"","feedback","","html-keyboard-response","63","135192","0.0-1.0-78.0-0.0","0","0","65334","","null","","","null","8","","","","","","","","","","","","","","","",""
"","ITI","","html-keyboard-response","64","136206","0.0-1.0-81.0","0","0","65334","","null","","","null","8","","","","","","","","","","","","","","","NaN",""
"","S1","","html-keyboard-response","65","136469","0.0-1.0-83.0","0","0","65334","","null","","","null","9","","","","","","","","","","","","","","","",""
"","ISI","","html-keyboard-response","66","138480","0.0-1.0-84.0","0","0","65334","","null","","","null","9","NaN","","","","","","","","","","","","","","",""
"","S2","","html-keyboard-response","67","138744","0.0-1.0-85.0","0","0","65334","","null","","","null","9","","NaN","","","","","","","","","","","","","",""
"","response","","html-keyboard-response","68","138829","0.0-1.0-86.0-0.0","0","0","65334","","80","","","75","9","","","1","9","training","adjacent","ED","5","4","O.jpg","P.jpg","0","0","1","",""
"","feedback","","html-keyboard-response","69","139851","0.0-1.0-87.0-0.0","0","0","65334","","null","","","null","9","","","","","","","","","","","","","","","",""
"","ITI","","html-keyboard-response","70","140885","0.0-1.0-90.0","0","0","65334","","null","","","null","9","","","","","","","","","","","","","","","NaN",""
"","S1","","html-keyboard-response","71","141150","0.0-1.0-92.0","0","0","65334","","null","","","null","10","","","","","","","","","","","","","","","",""
"","ISI","","html-keyboard-response","72","143163","0.0-1.0-93.0","0","0","65334","","null","","","null","10","NaN","","","","","","","","","","","","","","",""
"","S2","","html-keyboard-response","73","143430","0.0-1.0-94.0","0","0","65334","","null","","","null","10","","NaN","","","","","","","","","","","","","",""
"","response","","html-keyboard-response","74","143744","0.0-1.0-95.0-0.0","0","0","65334","","308","","","75","10","","","1","10","training","adjacent","CB","3","2","N.jpg","L.jpg","0","0","1","",""
"","feedback","","html-keyboard-response","75","144762","0.0-1.0-96.0-0.0","0","0","65334","","null","","","null","10","","","","","","","","","","","","","","","",""
"","ITI","","html-keyboard-response","76","145784","0.0-1.0-99.0","0","0","65334","","null","","","null","10","","","","","","","","","","","","","","","NaN",""
"","S1","","html-keyboard-response","77","146052","0.0-1.0-101.0","0","0","65334","","null","","","null","11","","","","","","","","","","","","","","","",""
"","ISI","","html-keyboard-response","78","148058","0.0-1.0-102.0","0","0","65334","","null","","","null","11","NaN","","","","","","","","","","","","","","",""
"","S2","","html-keyboard-response","79","148335","0.0-1.0-103.0","0","0","65334","","null","","","null","11","","NaN","","","","","","","","","","","","","",""
"","response","","html-keyboard-response","80","148477","0.0-1.0-104.0-0.0","0","0","65334","","136","","","68","11","","","1","11","training","adjacent","DC","4","3","P.jpg","N.jpg","1","0","0","",""
"","feedback","","html-keyboard-response","81","149507","0.0-1.0-105.0-0.0","0","0","65334","","null","","","null","11","","","","","","","","","","","","","","","",""
"","time_out","","html-keyboard-response","82","151523","0.0-1.0-107.0-0.0","0","0","65334","","null","","","null","11","","","","","","","","","","","","","","","",""
"","ITI","","html-keyboard-response","83","152549","0.0-1.0-108.0","0","0","65334","","null","","","null","11","","","","","","","","","","","","","","","NaN",""
"","S1","","html-keyboard-response","84","152823","0.0-1.0-110.0","0","0","65334","","null","","","null","12","","","","","","","","","","","","","","","",""
"","ISI","","html-keyboard-response","85","154854","0.0-1.0-111.0","0","0","65334","","null","","","null","12","NaN","","","","","","","","","","","","","","",""
"","S2","","html-keyboard-response","86","155111","0.0-1.0-112.0","0","0","65334","","null","","","null","12","","NaN","","","","","","","","","","","","","",""
"","response","","html-keyboard-response","87","155331","0.0-1.0-113.0-0.0","0","0","65334","","214","","","75","12","","","1","12","training","adjacent","ED","5","4","O.jpg","P.jpg","0","0","1","",""
"","feedback","","html-keyboard-response","88","156353","0.0-1.0-114.0-0.0","0","0","65334","","null","","","null","12","","","","","","","","","","","","","","","",""
"","ITI","","html-keyboard-response","89","157379","0.0-1.0-117.0","0","0","65334","","null","","","null","12","","","","","","","","","","","","","","","NaN",""
"","S1","","html-keyboard-response","90","157658","0.0-1.0-119.0","0","0","65334","","null","","","null","13","","","","","","","","","","","","","","","",""
"","ISI","","html-keyboard-response","91","159685","0.0-1.0-120.0","0","0","65334","","null","","","null","13","NaN","","","","","","","","","","","","","","",""
"","S2","","html-keyboard-response","92","159970","0.0-1.0-121.0","0","0","65334","","null","","","null","13","","NaN","","","","","","","","","","","","","",""
"","response","","html-keyboard-response","93","160154","0.0-1.0-122.0-0.0","0","0","65334","","179","","","75","13","","","1","13","training","adjacent","CB","3","2","N.jpg","L.jpg","0","0","1","",""
"","feedback","","html-keyboard-response","94","161172","0.0-1.0-123.0-0.0","0","0","65334","","null","","","null","13","","","","","","","","","","","","","","","",""
"","ITI","","html-keyboard-response","95","162190","0.0-1.0-126.0","0","0","65334","","null","","","null","13","","","","","","","","","","","","","","","NaN",""
"","S1","","html-keyboard-response","96","162471","0.0-1.0-128.0","0","0","65334","","null","","","null","14","","","","","","","","","","","","","","","",""
"","ISI","","html-keyboard-response","97","164496","0.0-1.0-129.0","0","0","65334","","null","","","null","14","NaN","","","","","","","","","","","","","","",""
"","S2","","html-keyboard-response","98","164777","0.0-1.0-130.0","0","0","65334","","null","","","null","14","","NaN","","","","","","","","","","","","","",""
"","response","","html-keyboard-response","99","164866","0.0-1.0-131.0-0.0","0","0","65334","","81","","","68","14","","","1","14","training","adjacent","DC","4","3","P.jpg","N.jpg","1","0","0","",""
"","feedback","","html-keyboard-response","100","165911","0.0-1.0-132.0-0.0","0","0","65334","","null","","","null","14","","","","","","","","","","","","","","","",""
"","time_out","","html-keyboard-response","101","167942","0.0-1.0-134.0-0.0","0","0","65334","","null","","","null","14","","","","","","","","","","","","","","","",""
"","ITI","","html-keyboard-response","102","168957","0.0-1.0-135.0","0","0","65334","","null","","","null","14","","","","","","","","","","","","","","","NaN",""
"","S1","","html-keyboard-response","103","169225","0.0-1.0-137.0","0","0","65334","","null","","","null","15","","","","","","","","","","","","","","","",""
"","ISI","","html-keyboard-response","104","171247","0.0-1.0-138.0","0","0","65334","","null","","","null","15","NaN","","","","","","","","","","","","","","",""
"","S2","","html-keyboard-response","105","171525","0.0-1.0-139.0","0","0","65334","","null","","","null","15","","NaN","","","","","","","","","","","","","",""
"","response","","html-keyboard-response","106","171623","0.0-1.0-140.0-0.0","0","0","65334","","83","","","75","15","","","1","15","training","adjacent","DE","4","5","P.jpg","O.jpg","0","1","0","",""
"","feedback","","html-keyboard-response","107","172648","0.0-1.0-141.0-0.0","0","0","65334","","null","","","null","15","","","","","","","","","","","","","","","",""
"","time_out","","html-keyboard-response","108","174672","0.0-1.0-143.0-0.0","0","0","65334","","null","","","null","15","","","","","","","","","","","","","","","",""
"","ITI","","html-keyboard-response","109","175682","0.0-1.0-144.0","0","0","65334","","null","","","null","15","","","","","","","","","","","","","","","NaN",""
"","S1","","html-keyboard-response","110","175954","0.0-1.0-146.0","0","0","65334","","null","","","null","16","","","","","","","","","","","","","","","",""
"","ISI","","html-keyboard-response","111","177972","0.0-1.0-147.0","0","0","65334","","null","","","null","16","NaN","","","","","","","","","","","","","","",""
"","S2","","html-keyboard-response","112","178248","0.0-1.0-148.0","0","0","65334","","null","","","null","16","","NaN","","","","","","","","","","","","","",""
"","response","","html-keyboard-response","113","178316","0.0-1.0-149.0-0.0","0","0","65334","","62","","","75","16","","","1","16","training","adjacent","FE","6","5","Q.jpg","O.jpg","0","0","1","",""
"","feedback","","html-keyboard-response","114","179351","0.0-1.0-150.0-0.0","0","0","65334","","null","","","null","16","","","","","","","","","","","","","","","",""
"","ITI","","html-keyboard-response","115","180369","0.0-1.0-153.0","0","0","65334","","null","","","null","16","","","","","","","","","","","","","","","NaN",""
"","S1","","html-keyboard-response","116","180630","0.0-1.0-155.0","0","0","65334","","null","","","null","17","","","","","","","","","","","","","","","",""
"","ISI","","html-keyboard-response","117","182662","0.0-1.0-156.0","0","0","65334","","null","","","null","17","NaN","","","","","","","","","","","","","","",""
"","S2","","html-keyboard-response","118","182939","0.0-1.0-157.0","0","0","65334","","null","","","null","17","","NaN","","","","","","","","","","","","","",""
"","response","","html-keyboard-response","119","183148","0.0-1.0-158.0-0.0","0","0","65334","","202","","","75","17","","","1","17","training","adjacent","GF","7","6","M.jpg","Q.jpg","0","0","1","",""
"","feedback","","html-keyboard-response","120","184162","0.0-1.0-159.0-0.0","0","0","65334","","null","","","null","17","","","","","","","","","","","","","","","",""
"","ITI","","html-keyboard-response","121","185177","0.0-1.0-162.0","0","0","65334","","null","","","null","17","","","","","","","","","","","","","","","NaN",""
"","S1","","html-keyboard-response","122","185441","0.0-1.0-164.0","0","0","65334","","null","","","null","18","","","","","","","","","","","","","","","",""
"","ISI","","html-keyboard-response","123","187474","0.0-1.0-165.0","0","0","65334","","null","","","null","18","NaN","","","","","","","","","","","","","","",""
"","S2","","html-keyboard-response","124","187751","0.0-1.0-166.0","0","0","65334","","null","","","null","18","","NaN","","","","","","","","","","","","","",""
"","response","","html-keyboard-response","125","187921","0.0-1.0-167.0-0.0","0","0","65334","","162","","","75","18","","","1","18","training","adjacent","AB","1","2","R.jpg","L.jpg","0","1","0","",""
"","feedback","","html-keyboard-response","126","188945","0.0-1.0-168.0-0.0","0","0","65334","","null","","","null","18","","","","","","","","","","","","","","","",""
"","time_out","","html-keyboard-response","127","190976","0.0-1.0-170.0-0.0","0","0","65334","","null","","","null","18","","","","","","","","","","","","","","","",""
"","ITI","","html-keyboard-response","128","191991","0.0-1.0-171.0","0","0","65334","","null","","","null","18","","","","","","","","","","","","","","","NaN",""
"","S1","","html-keyboard-response","129","192255","0.0-1.0-173.0","0","0","65334","","null","","","null","19","","","","","","","","","","","","","","","",""
"","ISI","","html-keyboard-response","130","194286","0.0-1.0-174.0","0","0","65334","","null","","","null","19","NaN","","","","","","","","","","","","","","",""
"","S2","","html-keyboard-response","131","194544","0.0-1.0-175.0","0","0","65334","","null","","","null","19","","NaN","","","","","","","","","","","","","",""
"","response","","html-keyboard-response","132","194766","0.0-1.0-176.0-0.0","0","0","65334","","212","","","68","19","","","1","19","training","adjacent","BA","2","1","L.jpg","R.jpg","1","0","0","",""
"","feedback","","html-keyboard-response","133","195786","0.0-1.0-177.0-0.0","0","0","65334","","null","","","null","19","","","","","","","","","","","","","","","",""
"","time_out","","html-keyboard-response","134","197807","0.0-1.0-179.0-0.0","0","0","65334","","null","","","null","19","","","","","","","","","","","","","","","",""
"","ITI","","html-keyboard-response","135","198832","0.0-1.0-180.0","0","0","65334","","null","","","null","19","","","","","","","","","","","","","","","NaN",""
"","S1","","html-keyboard-response","136","199101","0.0-1.0-182.0","0","0","65334","","null","","","null","20","","","","","","","","","","","","","","","",""
"","ISI","","html-keyboard-response","137","201122","0.0-1.0-183.0","0","0","65334","","null","","","null","20","NaN","","","","","","","","","","","","","","",""
"","S2","","html-keyboard-response","138","201387","0.0-1.0-184.0","0","0","65334","","null","","","null","20","","NaN","","","","","","","","","","","","","",""
"","response","","html-keyboard-response","139","201613","0.0-1.0-185.0-0.0","0","0","65334","","219","","","68","20","","","1","20","training","adjacent","BA","2","1","L.jpg","R.jpg","1","0","0","",""
"","feedback","","html-keyboard-response","140","202624","0.0-1.0-186.0-0.0","0","0","65334","","null","","","null","20","","","","","","","","","","","","","","","",""
"","time_out","","html-keyboard-response","141","204638","0.0-1.0-188.0-0.0","0","0","65334","","null","","","null","20","","","","","","","","","","","","","","","",""
"","ITI","","html-keyboard-response","142","205652","0.0-1.0-189.0","0","0","65334","","null","","","null","20","","","","","","","","","","","","","","","NaN",""
"","S1","","html-keyboard-response","143","205918","0.0-1.0-191.0","0","0","65334","","null","","","null","21","","","","","","","","","","","","","","","",""
"","ISI","","html-keyboard-response","144","207928","0.0-1.0-192.0","0","0","65334","","null","","","null","21","NaN","","","","","","","","","","","","","","",""
"","S2","","html-keyboard-response","145","208192","0.0-1.0-193.0","0","0","65334","","null","","","null","21","","NaN","","","","","","","","","","","","","",""
"","response","","html-keyboard-response","146","208296","0.0-1.0-194.0-0.0","0","0","65334","","93","","","68","21","","","1","21","training","adjacent","BA","2","1","L.jpg","R.jpg","1","0","0","",""
"","feedback","","html-keyboard-response","147","209315","0.0-1.0-195.0-0.0","0","0","65334","","null","","","null","21","","","","","","","","","","","","","","","",""
"","time_out","","html-keyboard-response","148","211339","0.0-1.0-197.0-0.0","0","0","65334","","null","","","null","21","","","","","","","","","","","","","","","",""
"","ITI","","html-keyboard-response","149","212359","0.0-1.0-198.0","0","0","65334","","null","","","null","21","","","","","","","","","","","","","","","NaN",""
"","S1","","html-keyboard-response","150","212622","0.0-1.0-200.0","0","0","65334","","null","","","null","22","","","","","","","","","","","","","","","",""
"","ISI","","html-keyboard-response","151","214641","0.0-1.0-201.0","0","0","65334","","null","","","null","22","NaN","","","","","","","","","","","","","","",""
"","S2","","html-keyboard-response","152","214908","0.0-1.0-202.0","0","0","65334","","null","","","null","22","","NaN","","","","","","","","","","","","","",""
"","response","","html-keyboard-response","153","215223","0.0-1.0-203.0-0.0","0","0","65334","","306","","","68","22","","","1","22","training","adjacent","DE","4","5","P.jpg","O.jpg","1","1","1","",""
"","feedback","","html-keyboard-response","154","216245","0.0-1.0-204.0-0.0","0","0","65334","","null","","","null","22","","","","","","","","","","","","","","","",""
"","ITI","","html-keyboard-response","155","217266","0.0-1.0-207.0","0","0","65334","","null","","","null","22","","","","","","","","","","","","","","","NaN",""
"","S1","","html-keyboard-response","156","217532","0.0-1.0-209.0","0","0","65334","","null","","","null","23","","","","","","","","","","","","","","","",""
"","ISI","","html-keyboard-response","157","219556","0.0-1.0-210.0","0","0","65334","","null","","","null","23","NaN","","","","","","","","","","","","","","",""
"","S2","","html-keyboard-response","158","219822","0.0-1.0-211.0","0","0","65334","","null","","","null","23","","NaN","","","","","","","","","","","","","",""
"","response","","html-keyboard-response","159","219886","0.0-1.0-212.0-0.0","0","0","65334","","56","","","68","23","","","1","23","training","adjacent","FG","6","7","Q.jpg","M.jpg","1","1","1","",""
"","feedback","","html-keyboard-response","160","220908","0.0-1.0-213.0-0.0","0","0","65334","","null","","","null","23","","","","","","","","","","","","","","","",""
"","ITI","","html-keyboard-response","161","221930","0.0-1.0-216.0","0","0","65334","","null","","","null","23","","","","","","","","","","","","","","","NaN",""
"","S1","","html-keyboard-response","162","222200","0.0-1.0-218.0","0","0","65334","","null","","","null","24","","","","","","","","","","","","","","","",""
"","ISI","","html-keyboard-response","163","224221","0.0-1.0-219.0","0","0","65334","","null","","","null","24","NaN","","","","","","","","","","","","","","",""
"","S2","","html-keyboard-response","164","224487","0.0-1.0-220.0","0","0","65334","","null","","","null","24","","NaN","","","","","","","","","","","","","",""
"","response","","html-keyboard-response","165","224529","0.0-1.0-221.0-0.0","0","0","65334","","35","","","68","24","","","1","24","training","adjacent","FG","6","7","Q.jpg","M.jpg","1","1","1","",""
"","feedback","","html-keyboard-response","166","225541","0.0-1.0-222.0-0.0","0","0","65334","","null","","","null","24","","","","","","","","","","","","","","","",""
"","ITI","","html-keyboard-response","167","226553","0.0-1.0-225.0","0","0","65334","","null","","","null","24","","","","","","","","","","","","","","","NaN",""
"","S1","","html-keyboard-response","168","226830","0.0-1.0-227.0","0","0","65334","","null","","","null","25","","","","","","","","","","","","","","","",""
"","ISI","","html-keyboard-response","169","228845","0.0-1.0-228.0","0","0","65334","","null","","","null","25","NaN","","","","","","","","","","","","","","",""
"","S2","","html-keyboard-response","170","229113","0.0-1.0-229.0","0","0","65334","","null","","","null","25","","NaN","","","","","","","","","","","","","",""
"","response","","html-keyboard-response","171","229119","0.0-1.0-230.0-0.0","0","0","65334","","1","","","75","25","","","1","25","training","adjacent","CD","3","4","N.jpg","P.jpg","0","1","0","",""
"","feedback","","html-keyboard-response","172","230138","0.0-1.0-231.0-0.0","0","0","65334","","null","","","null","25","","","","","","","","","","","","","","","",""
"","time_out","","html-keyboard-response","173","232162","0.0-1.0-233.0-0.0","0","0","65334","","null","","","null","25","","","","","","","","","","","","","","","",""
"","ITI","","html-keyboard-response","174","233179","0.0-1.0-234.0","0","0","65334","","null","","","null","25","","","","","","","","","","","","","","","NaN",""
"","S1","","html-keyboard-response","175","233450","0.0-1.0-236.0","0","0","65334","","null","","","null","26","","","","","","","","","","","","","","","",""
"","ISI","","html-keyboard-response","176","235469","0.0-1.0-237.0","0","0","65334","","null","","","null","26","NaN","","","","","","","","","","","","","","",""
"","S2","","html-keyboard-response","177","235736","0.0-1.0-238.0","0","0","65334","","null","","","null","26","","NaN","","","","","","","","","","","","","",""
"","response","","html-keyboard-response","178","235897","0.0-1.0-239.0-0.0","0","0","65334","","155","","","68","26","","","1","26","training","adjacent","FE","6","5","Q.jpg","O.jpg","1","0","0","",""
"","feedback","","html-keyboard-response","179","236914","0.0-1.0-240.0-0.0","0","0","65334","","null","","","null","26","","","","","","","","","","","","","","","",""
"","time_out","","html-keyboard-response","180","238933","0.0-1.0-242.0-0.0","0","0","65334","","null","","","null","26","","","","","","","","","","","","","","","",""
"","ITI","","html-keyboard-response","181","239958","0.0-1.0-243.0","0","0","65334","","null","","","null","26","","","","","","","","","","","","","","","NaN",""
"","S1","","html-keyboard-response","182","240220","0.0-1.0-245.0","0","0","65334","","null","","","null","27","","","","","","","","","","","","","","","",""
"","ISI","","html-keyboard-response","183","242224","0.0-1.0-246.0","0","0","65334","","null","","","null","27","NaN","","","","","","","","","","","","","","",""
"","S2","","html-keyboard-response","184","242492","0.0-1.0-247.0","0","0","65334","","null","","","null","27","","NaN","","","","","","","","","","","","","",""
"","response","","html-keyboard-response","185","242783","0.0-1.0-248.0-0.0","0","0","65334","","279","","","75","27","","","1","27","training","adjacent","CB","3","2","N.jpg","L.jpg","0","0","1","",""
"","feedback","","html-keyboard-response","186","243807","0.0-1.0-249.0-0.0","0","0","65334","","null","","","null","27","","","","","","","","","","","","","","","",""
"","ITI","","html-keyboard-response","187","244839","0.0-1.0-252.0","0","0","65334","","null","","","null","27","","","","","","","","","","","","","","","NaN",""
"","S1","","html-keyboard-response","188","245101","0.0-1.0-254.0","0","0","65334","","null","","","null","28","","","","","","","","","","","","","","","",""
"","ISI","","html-keyboard-response","189","247122","0.0-1.0-255.0","0","0","65334","","null","","","null","28","NaN","","","","","","","","","","","","","","",""
"","S2","","html-keyboard-response","190","247391","0.0-1.0-256.0","0","0","65334","","null","","","null","28","","NaN","","","","","","","","","","","","","",""
"","response","","html-keyboard-response","191","247671","0.0-1.0-257.0-0.0","0","0","65334","","267","","","75","28","","","1","28","training","adjacent","FE","6","5","Q.jpg","O.jpg","0","0","1","",""
"","feedback","","html-keyboard-response","192","248694","0.0-1.0-258.0-0.0","0","0","65334","","null","","","null","28","","","","","","","","","","","","","","","",""
"","ITI","","html-keyboard-response","193","249716","0.0-1.0-261.0","0","0","65334","","null","","","null","28","","","","","","","","","","","","","","","NaN",""
"","S1","","html-keyboard-response","194","249987","0.0-1.0-263.0","0","0","65334","","null","","","null","29","","","","","","","","","","","","","","","",""
"","ISI","","html-keyboard-response","195","252002","0.0-1.0-264.0","0","0","65334","","null","","","null","29","NaN","","","","","","","","","","","","","","",""
"","S2","","html-keyboard-response","196","252274","0.0-1.0-265.0","0","0","65334","","null","","","null","29","","NaN","","","","","","","","","","","","","",""
"","response","","html-keyboard-response","197","252403","0.0-1.0-266.0-0.0","0","0","65334","","124","","","75","29","","","1","29","training","adjacent","CD","3","4","N.jpg","P.jpg","0","1","0","",""
"","feedback","","html-keyboard-response","198","253425","0.0-1.0-267.0-0.0","0","0","65334","","null","","","null","29","","","","","","","","","","","","","","","",""
"","time_out","","html-keyboard-response","199","255449","0.0-1.0-269.0-0.0","0","0","65334","","null","","","null","29","","","","","","","","","","","","","","","",""
"","ITI","","html-keyboard-response","200","256472","0.0-1.0-270.0","0","0","65334","","null","","","null","29","","","","","","","","","","","","","","","NaN",""
"","S1","","html-keyboard-response","201","256734","0.0-1.0-272.0","0","0","65334","","null","","","null","30","","","","","","","","","","","","","","","",""
"","ISI","","html-keyboard-response","202","258754","0.0-1.0-273.0","0","0","65334","","null","","","null","30","NaN","","","","","","","","","","","","","","",""
"","S2","","html-keyboard-response","203","259029","0.0-1.0-274.0","0","0","65334","","null","","","null","30","","NaN","","","","","","","","","","","","","",""
"","response","","html-keyboard-response","204","259163","0.0-1.0-275.0-0.0","0","0","65334","","127","","","75","30","","","1","30","training","adjacent","CB","3","2","N.jpg","L.jpg","0","0","1","",""
"","feedback","","html-keyboard-response","205","260176","0.0-1.0-276.0-0.0","0","0","65334","","null","","","null","30","","","","","","","","","","","","","","","",""
"","ITI","","html-keyboard-response","206","261202","0.0-1.0-279.0","0","0","65334","","null","","","null","30","","","","","","","","","","","","","","","NaN",""
"","S1","","html-keyboard-response","207","261473","0.0-1.0-281.0","0","0","65334","","null","","","null","31","","","","","","","","","","","","","","","",""
"","ISI","","html-keyboard-response","208","263495","0.0-1.0-282.0","0","0","65334","","null","","","null","31","NaN","","","","","","","","","","","","","","",""
"","S2","","html-keyboard-response","209","263775","0.0-1.0-283.0","0","0","65334","","null","","","null","31","","NaN","","","","","","","","","","","","","",""
"","response","","html-keyboard-response","210","264086","0.0-1.0-284.0-0.0","0","0","65334","","305","","","75","31","","","1","31","training","adjacent","DC","4","3","P.jpg","N.jpg","0","0","1","",""
"","feedback","","html-keyboard-response","211","265099","0.0-1.0-285.0-0.0","0","0","65334","","null","","","null","31","","","","","","","","","","","","","","","",""
"","ITI","","html-keyboard-response","212","266118","0.0-1.0-288.0","0","0","65334","","null","","","null","31","","","","","","","","","","","","","","","NaN",""
"","S1","","html-keyboard-response","213","266388","0.0-1.0-290.0","0","0","65334","","null","","","null","32","","","","","","","","","","","","","","","",""
"","ISI","","html-keyboard-response","214","268409","0.0-1.0-291.0","0","0","65334","","null","","","null","32","NaN","","","","","","","","","","","","","","",""
"","S2","","html-keyboard-response","215","268676","0.0-1.0-292.0","0","0","65334","","null","","","null","32","","NaN","","","","","","","","","","","","","",""
"","response","","html-keyboard-response","216","268843","0.0-1.0-293.0-0.0","0","0","65334","","152","","","75","32","","","1","32","training","adjacent","EF","5","6","O.jpg","Q.jpg","0","1","0","",""
"","feedback","","html-keyboard-response","217","269859","0.0-1.0-294.0-0.0","0","0","65334","","null","","","null","32","","","","","","","","","","","","","","","",""
"","time_out","","html-keyboard-response","218","271880","0.0-1.0-296.0-0.0","0","0","65334","","null","","","null","32","","","","","","","","","","","","","","","",""
"","ITI","","html-keyboard-response","219","272891","0.0-1.0-297.0","0","0","65334","","null","","","null","32","","","","","","","","","","","","","","","NaN",""
"","S1","","html-keyboard-response","220","273160","0.0-1.0-299.0","0","0","65334","","null","","","null","33","","","","","","","","","","","","","","","",""
"","ISI","","html-keyboard-response","221","275176","0.0-1.0-300.0","0","0","65334","","null","","","null","33","NaN","","","","","","","","","","","","","","",""
"","S2","","html-keyboard-response","222","275447","0.0-1.0-301.0","0","0","65334","","null","","","null","33","","NaN","","","","","","","","","","","","","",""
"","response","","html-keyboard-response","223","275597","0.0-1.0-302.0-0.0","0","0","65334","","134","","","75","33","","","1","33","training","adjacent","GF","7","6","M.jpg","Q.jpg","0","0","1","",""
"","feedback","","html-keyboard-response","224","276625","0.0-1.0-303.0-0.0","0","0","65334","","null","","","null","33","","","","","","","","","","","","","","","",""
"","ITI","","html-keyboard-response","225","277643","0.0-1.0-306.0","0","0","65334","","null","","","null","33","","","","","","","","","","","","","","","NaN",""
"","S1","","html-keyboard-response","226","277928","0.0-1.0-308.0","0","0","65334","","null","","","null","34","","","","","","","","","","","","","","","",""
"","ISI","","html-keyboard-response","227","279952","0.0-1.0-309.0","0","0","65334","","null","","","null","34","NaN","","","","","","","","","","","","","","",""
"","S2","","html-keyboard-response","228","280237","0.0-1.0-310.0","0","0","65334","","null","","","null","34","","NaN","","","","","","","","","","","","","",""
"","response","","html-keyboard-response","229","280400","0.0-1.0-311.0-0.0","0","0","65334","","150","","","68","34","","","1","34","training","adjacent","AB","1","2","R.jpg","L.jpg","1","1","1","",""
"","feedback","","html-keyboard-response","230","281438","0.0-1.0-312.0-0.0","0","0","65334","","null","","","null","34","","","","","","","","","","","","","","","",""
"","ITI","","html-keyboard-response","231","282469","0.0-1.0-315.0","0","0","65334","","null","","","null","34","","","","","","","","","","","","","","","NaN",""
"","S1","","html-keyboard-response","232","282745","0.0-1.0-317.0","0","0","65334","","null","","","null","35","","","","","","","","","","","","","","","",""
"","ISI","","html-keyboard-response","233","284762","0.0-1.0-318.0","0","0","65334","","null","","","null","35","NaN","","","","","","","","","","","","","","",""
"","S2","","html-keyboard-response","234","285029","0.0-1.0-319.0","0","0","65334","","null","","","null","35","","NaN","","","","","","","","","","","","","",""
"","response","","html-keyboard-response","235","285323","0.0-1.0-320.0-0.0","0","0","65334","","281","","","68","35","","","1","35","training","adjacent","BA","2","1","L.jpg","R.jpg","1","0","0","",""
"","feedback","","html-keyboard-response","236","286356","0.0-1.0-321.0-0.0","0","0","65334","","null","","","null","35","","","","","","","","","","","","","","","",""
"","time_out","","html-keyboard-response","237","288377","0.0-1.0-323.0-0.0","0","0","65334","","null","","","null","35","","","","","","","","","","","","","","","",""
"","ITI","","html-keyboard-response","238","289398","0.0-1.0-324.0","0","0","65334","","null","","","null","35","","","","","","","","","","","","","","","NaN",""
"","S1","","html-keyboard-response","239","289663","0.0-1.0-326.0","0","0","65334","","null","","","null","36","","","","","","","","","","","","","","","",""
"","ISI","","html-keyboard-response","240","291677","0.0-1.0-327.0","0","0","65334","","null","","","null","36","NaN","","","","","","","","","","","","","","",""
"","S2","","html-keyboard-response","241","291937","0.0-1.0-328.0","0","0","65334","","null","","","null","36","","NaN","","","","","","","","","","","","","",""
"","response","","html-keyboard-response","242","292266","0.0-1.0-329.0-0.0","0","0","65334","","323","","","68","36","","","1","36","training","adjacent","GF","7","6","M.jpg","Q.jpg","1","0","0","",""
"","feedback","","html-keyboard-response","243","293282","0.0-1.0-330.0-0.0","0","0","65334","","null","","","null","36","","","","","","","","","","","","","","","",""
"","time_out","","html-keyboard-response","244","295305","0.0-1.0-332.0-0.0","0","0","65334","","null","","","null","36","","","","","","","","","","","","","","","",""
"","ITI","","html-keyboard-response","245","296317","0.0-1.0-333.0","0","0","65334","","null","","","null","36","","","","","","","","","","","","","","","NaN",""
"","S1","","html-keyboard-response","246","296590","0.0-1.0-335.0","0","0","65334","","null","","","null","37","","","","","","","","","","","","","","","",""
"","ISI","","html-keyboard-response","247","298612","0.0-1.0-336.0","0","0","65334","","null","","","null","37","NaN","","","","","","","","","","","","","","",""
"","S2","","html-keyboard-response","248","298870","0.0-1.0-337.0","0","0","65334","","null","","","null","37","","NaN","","","","","","","","","","","","","",""
"","response","","html-keyboard-response","249","299152","0.0-1.0-338.0-0.0","0","0","65334","","276","","","75","37","","","1","37","training","adjacent","AB","1","2","R.jpg","L.jpg","0","1","0","",""
"","feedback","","html-keyboard-response","250","300174","0.0-1.0-339.0-0.0","0","0","65334","","null","","","null","37","","","","","","","","","","","","","","","",""
"","time_out","","html-keyboard-response","251","302180","0.0-1.0-341.0-0.0","0","0","65334","","null","","","null","37","","","","","","","","","","","","","","","",""
"","ITI","","html-keyboard-response","252","303206","0.0-1.0-342.0","0","0","65334","","null","","","null","37","","","","","","","","","","","","","","","NaN",""
"","S1","","html-keyboard-response","253","303474","0.0-1.0-344.0","0","0","65334","","null","","","null","38","","","","","","","","","","","","","","","",""
"","ISI","","html-keyboard-response","254","305496","0.0-1.0-345.0","0","0","65334","","null","","","null","38","NaN","","","","","","","","","","","","","","",""
"","S2","","html-keyboard-response","255","305762","0.0-1.0-346.0","0","0","65334","","null","","","null","38","","NaN","","","","","","","","","","","","","",""
"","response","","html-keyboard-response","256","305848","0.0-1.0-347.0-0.0","0","0","65334","","81","","","75","38","","","1","38","training","adjacent","CD","3","4","N.jpg","P.jpg","0","1","0","",""
"","feedback","","html-keyboard-response","257","306866","0.0-1.0-348.0-0.0","0","0","65334","","null","","","null","38","","","","","","","","","","","","","","","",""
"","time_out","","html-keyboard-response","258","308889","0.0-1.0-350.0-0.0","0","0","65334","","null","","","null","38","","","","","","","","","","","","","","","",""
"","ITI","","html-keyboard-response","259","309912","0.0-1.0-351.0","0","0","65334","","null","","","null","38","","","","","","","","","","","","","","","NaN",""
"","S1","","html-keyboard-response","260","310176","0.0-1.0-353.0","0","0","65334","","null","","","null","39","","","","","","","","","","","","","","","",""
"","ISI","","html-keyboard-response","261","312202","0.0-1.0-354.0","0","0","65334","","null","","","null","39","NaN","","","","","","","","","","","","","","",""
"","S2","","html-keyboard-response","262","312468","0.0-1.0-355.0","0","0","65334","","null","","","null","39","","NaN","","","","","","","","","","","","","",""
"","response","","html-keyboard-response","263","312533","0.0-1.0-356.0-0.0","0","0","65334","","59","","","68","39","","","1","39","training","adjacent","AB","1","2","R.jpg","L.jpg","1","1","1","",""
"","feedback","","html-keyboard-response","264","313547","0.0-1.0-357.0-0.0","0","0","65334","","null","","","null","39","","","","","","","","","","","","","","","",""
"","ITI","","html-keyboard-response","265","314561","0.0-1.0-360.0","0","0","65334","","null","","","null","39","","","","","","","","","","","","","","","NaN",""
"","S1","","html-keyboard-response","266","314827","0.0-1.0-362.0","0","0","65334","","null","","","null","40","","","","","","","","","","","","","","","",""
"","ISI","","html-keyboard-response","267","316856","0.0-1.0-363.0","0","0","65334","","null","","","null","40","NaN","","","","","","","","","","","","","","",""
"","S2","","html-keyboard-response","268","317119","0.0-1.0-364.0","0","0","65334","","null","","","null","40","","NaN","","","","","","","","","","","","","",""
"","response","","html-keyboard-response","269","317204","0.0-1.0-365.0-0.0","0","0","65334","","78","","","75","40","","","1","40","training","adjacent","ED","5","4","O.jpg","P.jpg","0","0","1","",""
"","feedback","","html-keyboard-response","270","318225","0.0-1.0-366.0-0.0","0","0","65334","","null","","","null","40","","","","","","","","","","","","","","","",""
"","ITI","","html-keyboard-response","271","319244","0.0-1.0-369.0","0","0","65334","","null","","","null","40","","","","","","","","","","","","","","","NaN",""
"","S1","","html-keyboard-response","272","319508","0.0-1.0-371.0","0","0","65334","","null","","","null","41","","","","","","","","","","","","","","","",""
"","ISI","","html-keyboard-response","273","321517","0.0-1.0-372.0","0","0","65334","","null","","","null","41","NaN","","","","","","","","","","","","","","",""
"","S2","","html-keyboard-response","274","321786","0.0-1.0-373.0","0","0","65334","","null","","","null","41","","NaN","","","","","","","","","","","","","",""
"","response","","html-keyboard-response","275","321880","0.0-1.0-374.0-0.0","0","0","65334","","88","","","75","41","","","1","41","training","adjacent","EF","5","6","O.jpg","Q.jpg","0","1","0","",""
"","feedback","","html-keyboard-response","276","322886","0.0-1.0-375.0-0.0","0","0","65334","","null","","","null","41","","","","","","","","","","","","","","","",""
"","time_out","","html-keyboard-response","277","324898","0.0-1.0-377.0-0.0","0","0","65334","","null","","","null","41","","","","","","","","","","","","","","","",""
"","ITI","","html-keyboard-response","278","325913","0.0-1.0-378.0","0","0","65334","","null","","","null","41","","","","","","","","","","","","","","","NaN",""
"","S1","","html-keyboard-response","279","326181","0.0-1.0-380.0","0","0","65334","","null","","","null","42","","","","","","","","","","","","","","","",""
"","ISI","","html-keyboard-response","280","328192","0.0-1.0-381.0","0","0","65334","","null","","","null","42","NaN","","","","","","","","","","","","","","",""
"","S2","","html-keyboard-response","281","328461","0.0-1.0-382.0","0","0","65334","","null","","","null","42","","NaN","","","","","","","","","","","","","",""
"","response","","html-keyboard-response","282","328606","0.0-1.0-383.0-0.0","0","0","65334","","135","","","68","42","","","1","42","training","adjacent","DE","4","5","P.jpg","O.jpg","1","1","1","",""
"","feedback","","html-keyboard-response","283","329613","0.0-1.0-384.0-0.0","0","0","65334","","null","","","null","42","","","","","","","","","","","","","","","",""
"","ITI","","html-keyboard-response","284","330639","0.0-1.0-387.0","0","0","65334","","null","","","null","42","","","","","","","","","","","","","","","NaN",""
"","S1","","html-keyboard-response","285","330907","0.0-1.0-389.0","0","0","65334","","null","","","null","43","","","","","","","","","","","","","","","",""
"","ISI","","html-keyboard-response","286","332929","0.0-1.0-390.0","0","0","65334","","null","","","null","43","NaN","","","","","","","","","","","","","","",""
"","S2","","html-keyboard-response","287","333187","0.0-1.0-391.0","0","0","65334","","null","","","null","43","","NaN","","","","","","","","","","","","","",""
"","response","","html-keyboard-response","288","333334","0.0-1.0-392.0-0.0","0","0","65334","","136","","","75","43","","","1","43","training","adjacent","GF","7","6","M.jpg","Q.jpg","0","0","1","",""
"","feedback","","html-keyboard-response","289","334361","0.0-1.0-393.0-0.0","0","0","65334","","null","","","null","43","","","","","","","","","","","","","","","",""
"","ITI","","html-keyboard-response","290","335385","0.0-1.0-396.0","0","0","65334","","null","","","null","43","","","","","","","","","","","","","","","NaN",""
"","S1","","html-keyboard-response","291","335650","0.0-1.0-398.0","0","0","65334","","null","","","null","44","","","","","","","","","","","","","","","",""
"","ISI","","html-keyboard-response","292","337671","0.0-1.0-399.0","0","0","65334","","null","","","null","44","NaN","","","","","","","","","","","","","","",""
"","S2","","html-keyboard-response","293","337953","0.0-1.0-400.0","0","0","65334","","null","","","null","44","","NaN","","","","","","","","","","","","","",""
"","response","","html-keyboard-response","294","338011","0.0-1.0-401.0-0.0","0","0","65334","","53","","","75","44","","","1","44","training","adjacent","FG","6","7","Q.jpg","M.jpg","0","1","0","",""
"","feedback","","html-keyboard-response","295","339029","0.0-1.0-402.0-0.0","0","0","65334","","null","","","null","44","","","","","","","","","","","","","","","",""
"","time_out","","html-keyboard-response","296","341043","0.0-1.0-404.0-0.0","0","0","65334","","null","","","null","44","","","","","","","","","","","","","","","",""
"","ITI","","html-keyboard-response","297","342056","0.0-1.0-405.0","0","0","65334","","null","","","null","44","","","","","","","","","","","","","","","NaN",""
"","S1","","html-keyboard-response","298","342318","0.0-1.0-407.0","0","0","65334","","null","","","null","45","","","","","","","","","","","","","","","",""
"","ISI","","html-keyboard-response","299","344328","0.0-1.0-408.0","0","0","65334","","null","","","null","45","NaN","","","","","","","","","","","","","","",""
"","S2","","html-keyboard-response","300","344594","0.0-1.0-409.0","0","0","65334","","null","","","null","45","","NaN","","","","","","","","","","","","","",""
"","response","","html-keyboard-response","301","344738","0.0-1.0-410.0-0.0","0","0","65334","","139","","","68","45","","","1","45","training","adjacent","BC","2","3","L.jpg","N.jpg","1","1","1","",""
"","feedback","","html-keyboard-response","302","345760","0.0-1.0-411.0-0.0","0","0","65334","","null","","","null","45","","","","","","","","","","","","","","","",""
"","ITI","","html-keyboard-response","303","346774","0.0-1.0-414.0","0","0","65334","","null","","","null","45","","","","","","","","","","","","","","","NaN",""
"","S1","","html-keyboard-response","304","347039","0.0-1.0-416.0","0","0","65334","","null","","","null","46","","","","","","","","","","","","","","","",""
"","ISI","","html-keyboard-response","305","349067","0.0-1.0-417.0","0","0","65334","","null","","","null","46","NaN","","","","","","","","","","","","","","",""
"","S2","","html-keyboard-response","306","349332","0.0-1.0-418.0","0","0","65334","","null","","","null","46","","NaN","","","","","","","","","","","","","",""
"","response","","html-keyboard-response","307","349593","0.0-1.0-419.0-0.0","0","0","65334","","255","","","75","46","","","1","46","training","adjacent","EF","5","6","O.jpg","Q.jpg","0","1","0","",""
"","feedback","","html-keyboard-response","308","350612","0.0-1.0-420.0-0.0","0","0","65334","","null","","","null","46","","","","","","","","","","","","","","","",""
"","time_out","","html-keyboard-response","309","352638","0.0-1.0-422.0-0.0","0","0","65334","","null","","","null","46","","","","","","","","","","","","","","","",""
"","ITI","","html-keyboard-response","310","353662","0.0-1.0-423.0","0","0","65334","","null","","","null","46","","","","","","","","","","","","","","","NaN",""
"","S1","","html-keyboard-response","311","353928","0.0-1.0-425.0","0","0","65334","","null","","","null","47","","","","","","","","","","","","","","","",""
"","ISI","","html-keyboard-response","312","355932","0.0-1.0-426.0","0","0","65334","","null","","","null","47","NaN","","","","","","","","","","","","","","",""
"","S2","","html-keyboard-response","313","356209","0.0-1.0-427.0","0","0","65334","","null","","","null","47","","NaN","","","","","","","","","","","","","",""
"","response","","html-keyboard-response","314","356329","0.0-1.0-428.0-0.0","0","0","65334","","114","","","68","47","","","1","47","training","adjacent","CD","3","4","N.jpg","P.jpg","1","1","1","",""
"","feedback","","html-keyboard-response","315","357343","0.0-1.0-429.0-0.0","0","0","65334","","null","","","null","47","","","","","","","","","","","","","","","",""
"","ITI","","html-keyboard-response","316","358358","0.0-1.0-432.0","0","0","65334","","null","","","null","47","","","","","","","","","","","","","","","NaN",""
"","block_over","","html-keyboard-response","317","362748","0.0-1.0-433.0-0.0","0","0","65334","","4379","","","32","47","","","","","","","","","","","","","","","",""
"","S1","","html-keyboard-response","318","363021","0.0-1.0-434.0","0","0","65334","","null","","","null","48","","","","","","","","","","","","","","","",""
"","ISI","","html-keyboard-response","319","365038","0.0-1.0-435.0","0","0","65334","","null","","","null","48","NaN","","","","","","","","","","","","","","",""
"","S2","","html-keyboard-response","320","365300","0.0-1.0-436.0","0","0","65334","","null","","","null","48","","NaN","","","","","","","","","","","","","",""
"","response","","html-keyboard-response","321","365516","0.0-1.0-437.0-0.0","0","0","65334","","206","","","75","48","","","2","48","training","adjacent","DE","4","5","P.jpg","O.jpg","0","1","0","",""
"","feedback","","html-keyboard-response","322","366542","0.0-1.0-438.0-0.0","0","0","65334","","null","","","null","48","","","","","","","","","","","","","","","",""
"","time_out","","html-keyboard-response","323","368563","0.0-1.0-440.0-0.0","0","0","65334","","null","","","null","48","","","","","","","","","","","","","","","",""
"","ITI","","html-keyboard-response","324","369586","0.0-1.0-441.0","0","0","65334","","null","","","null","48","","","","","","","","","","","","","","","NaN",""
"","S1","","html-keyboard-response","325","369865","0.0-1.0-443.0","0","0","65334","","null","","","null","49","","","","","","","","","","","","","","","",""
"","ISI","","html-keyboard-response","326","371880","0.0-1.0-444.0","0","0","65334","","null","","","null","49","NaN","","","","","","","","","","","","","","",""
"","S2","","html-keyboard-response","327","372145","0.0-1.0-445.0","0","0","65334","","null","","","null","49","","NaN","","","","","","","","","","","","","",""
"","response","","html-keyboard-response","328","372273","0.0-1.0-446.0-0.0","0","0","65334","","117","","","68","49","","","2","49","training","adjacent","CD","3","4","N.jpg","P.jpg","1","1","1","",""
"","feedback","","html-keyboard-response","329","373293","0.0-1.0-447.0-0.0","0","0","65334","","null","","","null","49","","","","","","","","","","","","","","","",""
"","ITI","","html-keyboard-response","330","374317","0.0-1.0-450.0","0","0","65334","","null","","","null","49","","","","","","","","","","","","","","","NaN",""
"","S1","","html-keyboard-response","331","374588","0.0-1.0-452.0","0","0","65334","","null","","","null","50","","","","","","","","","","","","","","","",""
"","ISI","","html-keyboard-response","332","376602","0.0-1.0-453.0","0","0","65334","","null","","","null","50","NaN","","","","","","","","","","","","","","",""
"","S2","","html-keyboard-response","333","376879","0.0-1.0-454.0","0","0","65334","","null","","","null","50","","NaN","","","","","","","","","","","","","",""
"","response","","html-keyboard-response","334","376965","0.0-1.0-455.0-0.0","0","0","65334","","78","","","75","50","","","2","50","training","adjacent","EF","5","6","O.jpg","Q.jpg","0","1","0","",""
"","feedback","","html-keyboard-response","335","377981","0.0-1.0-456.0-0.0","0","0","65334","","null","","","null","50","","","","","","","","","","","","","","","",""
"","time_out","","html-keyboard-response","336","380002","0.0-1.0-458.0-0.0","0","0","65334","","null","","","null","50","","","","","","","","","","","","","","","",""
"","ITI","","html-keyboard-response","337","381020","0.0-1.0-459.0","0","0","65334","","null","","","null","50","","","","","","","","","","","","","","","NaN",""
"","S1","","html-keyboard-response","338","381284","0.0-1.0-461.0","0","0","65334","","null","","","null","51","","","","","","","","","","","","","","","",""
"","ISI","","html-keyboard-response","339","383296","0.0-1.0-462.0","0","0","65334","","null","","","null","51","NaN","","","","","","","","","","","","","","",""
"","S2","","html-keyboard-response","340","383560","0.0-1.0-463.0","0","0","65334","","null","","","null","51","","NaN","","","","","","","","","","","","","",""
"","response","","html-keyboard-response","341","383778","0.0-1.0-464.0-0.0","0","0","65334","","213","","","68","51","","","2","51","training","adjacent","BA","2","1","L.jpg","R.jpg","1","0","0","",""
"","feedback","","html-keyboard-response","342","384797","0.0-1.0-465.0-0.0","0","0","65334","","null","","","null","51","","","","","","","","","","","","","","","",""
"","time_out","","html-keyboard-response","343","386825","0.0-1.0-467.0-0.0","0","0","65334","","null","","","null","51","","","","","","","","","","","","","","","",""
"","ITI","","html-keyboard-response","344","387838","0.0-1.0-468.0","0","0","65334","","null","","","null","51","","","","","","","","","","","","","","","NaN",""
"","S1","","html-keyboard-response","345","388105","0.0-1.0-470.0","0","0","65334","","null","","","null","52","","","","","","","","","","","","","","","",""
"","ISI","","html-keyboard-response","346","390110","0.0-1.0-471.0","0","0","65334","","null","","","null","52","NaN","","","","","","","","","","","","","","",""
"","S2","","html-keyboard-response","347","390380","0.0-1.0-472.0","0","0","65334","","null","","","null","52","","NaN","","","","","","","","","","","","","",""
"","response","","html-keyboard-response","348","390711","0.0-1.0-473.0-0.0","0","0","65334","","325","","","68","52","","","2","52","training","adjacent","CB","3","2","N.jpg","L.jpg","1","0","0","",""
"","feedback","","html-keyboard-response","349","391738","0.0-1.0-474.0-0.0","0","0","65334","","null","","","null","52","","","","","","","","","","","","","","","",""
"","time_out","","html-keyboard-response","350","393759","0.0-1.0-476.0-0.0","0","0","65334","","null","","","null","52","","","","","","","","","","","","","","","",""
"","ITI","","html-keyboard-response","351","394781","0.0-1.0-477.0","0","0","65334","","null","","","null","52","","","","","","","","","","","","","","","NaN",""
"","S1","","html-keyboard-response","352","395044","0.0-1.0-479.0","0","0","65334","","null","","","null","53","","","","","","","","","","","","","","","",""
"","ISI","","html-keyboard-response","353","397057","0.0-1.0-480.0","0","0","65334","","null","","","null","53","NaN","","","","","","","","","","","","","","",""
"","S2","","html-keyboard-response","354","397325","0.0-1.0-481.0","0","0","65334","","null","","","null","53","","NaN","","","","","","","","","","","","","",""
"","response","","html-keyboard-response","355","397595","0.0-1.0-482.0-0.0","0","0","65334","","258","","","68","53","","","2","53","training","adjacent","FE","6","5","Q.jpg","O.jpg","1","0","0","",""
"","feedback","","html-keyboard-response","356","398615","0.0-1.0-483.0-0.0","0","0","65334","","null","","","null","53","","","","","","","","","","","","","","","",""
"","time_out","","html-keyboard-response","357","400637","0.0-1.0-485.0-0.0","0","0","65334","","null","","","null","53","","","","","","","","","","","","","","","",""
"","ITI","","html-keyboard-response","358","401652","0.0-1.0-486.0","0","0","65334","","null","","","null","53","","","","","","","","","","","","","","","NaN",""
"","S1","","html-keyboard-response","359","401926","0.0-1.0-488.0","0","0","65334","","null","","","null","54","","","","","","","","","","","","","","","",""
"","ISI","","html-keyboard-response","360","403942","0.0-1.0-489.0","0","0","65334","","null","","","null","54","NaN","","","","","","","","","","","","","","",""
"","S2","","html-keyboard-response","361","404210","0.0-1.0-490.0","0","0","65334","","null","","","null","54","","NaN","","","","","","","","","","","","","",""
"","response","","html-keyboard-response","362","404287","0.0-1.0-491.0-0.0","0","0","65334","","68","","","75","54","","","2","54","training","adjacent","ED","5","4","O.jpg","P.jpg","0","0","1","",""
"","feedback","","html-keyboard-response","363","405307","0.0-1.0-492.0-0.0","0","0","65334","","null","","","null","54","","","","","","","","","","","","","","","",""
"","ITI","","html-keyboard-response","364","406316","0.0-1.0-495.0","0","0","65334","","null","","","null","54","","","","","","","","","","","","","","","NaN",""
"","S1","","html-keyboard-response","365","406584","0.0-1.0-497.0","0","0","65334","","null","","","null","55","","","","","","","","","","","","","","","",""
"","ISI","","html-keyboard-response","366","408609","0.0-1.0-498.0","0","0","65334","","null","","","null","55","NaN","","","","","","","","","","","","","","",""
"","S2","","html-keyboard-response","367","408871","0.0-1.0-499.0","0","0","65334","","null","","","null","55","","NaN","","","","","","","","","","","","","",""
"","response","","html-keyboard-response","368","408970","0.0-1.0-500.0-0.0","0","0","65334","","90","","","68","55","","","2","55","training","adjacent","AB","1","2","R.jpg","L.jpg","1","1","1","",""
"","feedback","","html-keyboard-response","369","409992","0.0-1.0-501.0-0.0","0","0","65334","","null","","","null","55","","","","","","","","","","","","","","","",""
"","ITI","","html-keyboard-response","370","411010","0.0-1.0-504.0","0","0","65334","","null","","","null","55","","","","","","","","","","","","","","","NaN",""
"","S1","","html-keyboard-response","371","411291","0.0-1.0-506.0","0","0","65334","","null","","","null","56","","","","","","","","","","","","","","","",""
"","ISI","","html-keyboard-response","372","413309","0.0-1.0-507.0","0","0","65334","","null","","","null","56","NaN","","","","","","","","","","","","","","",""
"","S2","","html-keyboard-response","373","413578","0.0-1.0-508.0","0","0","65334","","null","","","null","56","","NaN","","","","","","","","","","","","","",""
"","response","","html-keyboard-response","374","413771","0.0-1.0-509.0-0.0","0","0","65334","","181","","","68","56","","","2","56","training","adjacent","DE","4","5","P.jpg","O.jpg","1","1","1","",""
"","feedback","","html-keyboard-response","375","414782","0.0-1.0-510.0-0.0","0","0","65334","","null","","","null","56","","","","","","","","","","","","","","","",""
"","ITI","","html-keyboard-response","376","415802","0.0-1.0-513.0","0","0","65334","","null","","","null","56","","","","","","","","","","","","","","","NaN",""
"","S1","","html-keyboard-response","377","416068","0.0-1.0-515.0","0","0","65334","","null","","","null","57","","","","","","","","","","","","","","","",""
"","ISI","","html-keyboard-response","378","418079","0.0-1.0-516.0","0","0","65334","","null","","","null","57","NaN","","","","","","","","","","","","","","",""
"","S2","","html-keyboard-response","379","418354","0.0-1.0-517.0","0","0","65334","","null","","","null","57","","NaN","","","","","","","","","","","","","",""
"","response","","html-keyboard-response","380","418487","0.0-1.0-518.0-0.0","0","0","65334","","123","","","68","57","","","2","57","training","adjacent","BA","2","1","L.jpg","R.jpg","1","0","0","",""
"","feedback","","html-keyboard-response","381","419510","0.0-1.0-519.0-0.0","0","0","65334","","null","","","null","57","","","","","","","","","","","","","","","",""
"","time_out","","html-keyboard-response","382","421532","0.0-1.0-521.0-0.0","0","0","65334","","null","","","null","57","","","","","","","","","","","","","","","",""
"","ITI","","html-keyboard-response","383","422558","0.0-1.0-522.0","0","0","65334","","null","","","null","57","","","","","","","","","","","","","","","NaN",""
"","S1","","html-keyboard-response","384","422826","0.0-1.0-524.0","0","0","65334","","null","","","null","58","","","","","","","","","","","","","","","",""
"","ISI","","html-keyboard-response","385","424849","0.0-1.0-525.0","0","0","65334","","null","","","null","58","NaN","","","","","","","","","","","","","","",""
"","S2","","html-keyboard-response","386","425112","0.0-1.0-526.0","0","0","65334","","null","","","null","58","","NaN","","","","","","","","","","","","","",""
"","response","","html-keyboard-response","387","425437","0.0-1.0-527.0-0.0","0","0","65334","","321","","","68","58","","","2","58","training","adjacent","FG","6","7","Q.jpg","M.jpg","1","1","1","",""
"","feedback","","html-keyboard-response","388","426455","0.0-1.0-528.0-0.0","0","0","65334","","null","","","null","58","","","","","","","","","","","","","","","",""
"","ITI","","html-keyboard-response","389","427469","0.0-1.0-531.0","0","0","65334","","null","","","null","58","","","","","","","","","","","","","","","NaN",""
"","S1","","html-keyboard-response","390","427737","0.0-1.0-533.0","0","0","65334","","null","","","null","59","","","","","","","","","","","","","","","",""
"","ISI","","html-keyboard-response","391","429743","0.0-1.0-534.0","0","0","65334","","null","","","null","59","NaN","","","","","","","","","","","","","","",""
"","S2","","html-keyboard-response","392","430012","0.0-1.0-535.0","0","0","65334","","null","","","null","59","","NaN","","","","","","","","","","","","","",""
"","response","","html-keyboard-response","393","430499","0.0-1.0-536.0-0.0","0","0","65334","","481","","","68","59","","","2","59","training","adjacent","FG","6","7","Q.jpg","M.jpg","1","1","1","",""
"","feedback","","html-keyboard-response","394","431516","0.0-1.0-537.0-0.0","0","0","65334","","null","","","null","59","","","","","","","","","","","","","","","",""
"","ITI","","html-keyboard-response","395","432530","0.0-1.0-540.0","0","0","65334","","null","","","null","59","","","","","","","","","","","","","","","NaN",""
"","S1","","html-keyboard-response","396","432789","0.0-1.0-542.0","0","0","65334","","null","","","null","60","","","","","","","","","","","","","","","",""
"","ISI","","html-keyboard-response","397","434803","0.0-1.0-543.0","0","0","65334","","null","","","null","60","NaN","","","","","","","","","","","","","","",""
"","S2","","html-keyboard-response","398","435065","0.0-1.0-544.0","0","0","65334","","null","","","null","60","","NaN","","","","","","","","","","","","","",""
"","response","","html-keyboard-response","399","435316","0.0-1.0-545.0-0.0","0","0","65334","","237","","","68","60","","","2","60","training","adjacent","GF","7","6","M.jpg","Q.jpg","1","0","0","",""
"","feedback","","html-keyboard-response","400","436340","0.0-1.0-546.0-0.0","0","0","65334","","null","","","null","60","","","","","","","","","","","","","","","",""
"","time_out","","html-keyboard-response","401","438360","0.0-1.0-548.0-0.0","0","0","65334","","null","","","null","60","","","","","","","","","","","","","","","",""
"","ITI","","html-keyboard-response","402","439384","0.0-1.0-549.0","0","0","65334","","null","","","null","60","","","","","","","","","","","","","","","NaN",""
"","S1","","html-keyboard-response","403","439664","0.0-1.0-551.0","0","0","65334","","null","","","null","61","","","","","","","","","","","","","","","",""
"","ISI","","html-keyboard-response","404","441688","0.0-1.0-552.0","0","0","65334","","null","","","null","61","NaN","","","","","","","","","","","","","","",""
"","S2","","html-keyboard-response","405","441958","0.0-1.0-553.0","0","0","65334","","null","","","null","61","","NaN","","","","","","","","","","","","","",""
"","response","","html-keyboard-response","406","442280","0.0-1.0-554.0-0.0","0","0","65334","","311","","","68","61","","","2","61","training","adjacent","BC","2","3","L.jpg","N.jpg","1","1","1","",""
"","feedback","","html-keyboard-response","407","443300","0.0-1.0-555.0-0.0","0","0","65334","","null","","","null","61","","","","","","","","","","","","","","","",""
"","ITI","","html-keyboard-response","408","444328","0.0-1.0-558.0","0","0","65334","","null","","","null","61","","","","","","","","","","","","","","","NaN",""
"","S1","","html-keyboard-response","409","444587","0.0-1.0-560.0","0","0","65334","","null","","","null","62","","","","","","","","","","","","","","","",""
"","ISI","","html-keyboard-response","410","446602","0.0-1.0-561.0","0","0","65334","","null","","","null","62","NaN","","","","","","","","","","","","","","",""
"","S2","","html-keyboard-response","411","446872","0.0-1.0-562.0","0","0","65334","","null","","","null","62","","NaN","","","","","","","","","","","","","",""
"","response","","html-keyboard-response","412","447062","0.0-1.0-563.0-0.0","0","0","65334","","185","","","68","62","","","2","62","training","adjacent","DC","4","3","P.jpg","N.jpg","1","0","0","",""
"","feedback","","html-keyboard-response","413","448080","0.0-1.0-564.0-0.0","0","0","65334","","null","","","null","62","","","","","","","","","","","","","","","",""
"","time_out","","html-keyboard-response","414","450097","0.0-1.0-566.0-0.0","0","0","65334","","null","","","null","62","","","","","","","","","","","","","","","",""
"","ITI","","html-keyboard-response","415","451109","0.0-1.0-567.0","0","0","65334","","null","","","null","62","","","","","","","","","","","","","","","NaN",""
"","S1","","html-keyboard-response","416","451367","0.0-1.0-569.0","0","0","65334","","null","","","null","63","","","","","","","","","","","","","","","",""
"","ISI","","html-keyboard-response","417","453379","0.0-1.0-570.0","0","0","65334","","null","","","null","63","NaN","","","","","","","","","","","","","","",""
"","S2","","html-keyboard-response","418","453661","0.0-1.0-571.0","0","0","65334","","null","","","null","63","","NaN","","","","","","","","","","","","","",""
"","response","","html-keyboard-response","419","453980","0.0-1.0-572.0-0.0","0","0","65334","","305","","","75","63","","","2","63","training","adjacent","DE","4","5","P.jpg","O.jpg","0","1","0","",""
"","feedback","","html-keyboard-response","420","454998","0.0-1.0-573.0-0.0","0","0","65334","","null","","","null","63","","","","","","","","","","","","","","","",""
"","time_out","","html-keyboard-response","421","457019","0.0-1.0-575.0-0.0","0","0","65334","","null","","","null","63","","","","","","","","","","","","","","","",""
"","ITI","","html-keyboard-response","422","458038","0.0-1.0-576.0","0","0","65334","","null","","","null","63","","","","","","","","","","","","","","","NaN",""
"","S1","","html-keyboard-response","423","458311","0.0-1.0-578.0","0","0","65334","","null","","","null","64","","","","","","","","","","","","","","","",""
"","ISI","","html-keyboard-response","424","460328","0.0-1.0-579.0","0","0","65334","","null","","","null","64","NaN","","","","","","","","","","","","","","",""
"","S2","","html-keyboard-response","425","460603","0.0-1.0-580.0","0","0","65334","","null","","","null","64","","NaN","","","","","","","","","","","","","",""
"","response","","html-keyboard-response","426","460659","0.0-1.0-581.0-0.0","0","0","65334","","45","","","75","64","","","2","64","training","adjacent","EF","5","6","O.jpg","Q.jpg","0","1","0","",""
"","feedback","","html-keyboard-response","427","461685","0.0-1.0-582.0-0.0","0","0","65334","","null","","","null","64","","","","","","","","","","","","","","","",""
"","time_out","","html-keyboard-response","428","463718","0.0-1.0-584.0-0.0","0","0","65334","","null","","","null","64","","","","","","","","","","","","","","","",""
"","ITI","","html-keyboard-response","429","464733","0.0-1.0-585.0","0","0","65334","","null","","","null","64","","","","","","","","","","","","","","","NaN",""
"","S1","","html-keyboard-response","430","465018","0.0-1.0-587.0","0","0","65334","","null","","","null","65","","","","","","","","","","","","","","","",""
"","ISI","","html-keyboard-response","431","467026","0.0-1.0-588.0","0","0","65334","","null","","","null","65","NaN","","","","","","","","","","","","","","",""
"","S2","","html-keyboard-response","432","467299","0.0-1.0-589.0","0","0","65334","","null","","","null","65","","NaN","","","","","","","","","","","","","",""
"","response","","html-keyboard-response","433","467397","0.0-1.0-590.0-0.0","0","0","65334","","93","","","68","65","","","2","65","training","adjacent","BC","2","3","L.jpg","N.jpg","1","1","1","",""
"","feedback","","html-keyboard-response","434","468415","0.0-1.0-591.0-0.0","0","0","65334","","null","","","null","65","","","","","","","","","","","","","","","",""
"","ITI","","html-keyboard-response","435","469440","0.0-1.0-594.0","0","0","65334","","null","","","null","65","","","","","","","","","","","","","","","NaN",""
"","S1","","html-keyboard-response","436","469710","0.0-1.0-596.0","0","0","65334","","null","","","null","66","","","","","","","","","","","","","","","",""
"","ISI","","html-keyboard-response","437","471729","0.0-1.0-597.0","0","0","65334","","null","","","null","66","NaN","","","","","","","","","","","","","","",""
"","S2","","html-keyboard-response","438","472003","0.0-1.0-598.0","0","0","65334","","null","","","null","66","","NaN","","","","","","","","","","","","","",""
"","response","","html-keyboard-response","439","472187","0.0-1.0-599.0-0.0","0","0","65334","","176","","","75","66","","","2","66","training","adjacent","BA","2","1","L.jpg","R.jpg","0","0","1","",""
"","feedback","","html-keyboard-response","440","473202","0.0-1.0-600.0-0.0","0","0","65334","","null","","","null","66","","","","","","","","","","","","","","","",""
"","ITI","","html-keyboard-response","441","474221","0.0-1.0-603.0","0","0","65334","","null","","","null","66","","","","","","","","","","","","","","","NaN",""
"","S1","","html-keyboard-response","442","474496","0.0-1.0-605.0","0","0","65334","","null","","","null","67","","","","","","","","","","","","","","","",""
"","ISI","","html-keyboard-response","443","476512","0.0-1.0-606.0","0","0","65334","","null","","","null","67","NaN","","","","","","","","","","","","","","",""
"","S2","","html-keyboard-response","444","476781","0.0-1.0-607.0","0","0","65334","","null","","","null","67","","NaN","","","","","","","","","","","","","",""
"","response","","html-keyboard-response","445","477043","0.0-1.0-608.0-0.0","0","0","65334","","256","","","68","67","","","2","67","training","adjacent","CB","3","2","N.jpg","L.jpg","1","0","0","",""
"","feedback","","html-keyboard-response","446","478064","0.0-1.0-609.0-0.0","0","0","65334","","null","","","null","67","","","","","","","","","","","","","","","",""
"","time_out","","html-keyboard-response","447","480090","0.0-1.0-611.0-0.0","0","0","65334","","null","","","null","67","","","","","","","","","","","","","","","",""
"","ITI","","html-keyboard-response","448","481108","0.0-1.0-612.0","0","0","65334","","null","","","null","67","","","","","","","","","","","","","","","NaN",""
"","S1","","html-keyboard-response","449","481375","0.0-1.0-614.0","0","0","65334","","null","","","null","68","","","","","","","","","","","","","","","",""
"","ISI","","html-keyboard-response","450","483401","0.0-1.0-615.0","0","0","65334","","null","","","null","68","NaN","","","","","","","","","","","","","","",""
"","S2","","html-keyboard-response","451","483665","0.0-1.0-616.0","0","0","65334","","null","","","null","68","","NaN","","","","","","","","","","","","","",""
"","response","","html-keyboard-response","452","484002","0.0-1.0-617.0-0.0","0","0","65334","","328","","","68","68","","","2","68","training","adjacent","DE","4","5","P.jpg","O.jpg","1","1","1","",""
"","feedback","","html-keyboard-response","453","485028","0.0-1.0-618.0-0.0","0","0","65334","","null","","","null","68","","","","","","","","","","","","","","","",""
"","ITI","","html-keyboard-response","454","486044","0.0-1.0-621.0","0","0","65334","","null","","","null","68","","","","","","","","","","","","","","","NaN",""
"","S1","","html-keyboard-response","455","486311","0.0-1.0-623.0","0","0","65334","","null","","","null","69","","","","","","","","","","","","","","","",""
"","ISI","","html-keyboard-response","456","488317","0.0-1.0-624.0","0","0","65334","","null","","","null","69","NaN","","","","","","","","","","","","","","",""
"","S2","","html-keyboard-response","457","488586","0.0-1.0-625.0","0","0","65334","","null","","","null","69","","NaN","","","","","","","","","","","","","",""
"","response","","html-keyboard-response","458","488781","0.0-1.0-626.0-0.0","0","0","65334","","186","","","68","69","","","2","69","training","adjacent","GF","7","6","M.jpg","Q.jpg","1","0","0","",""
"","feedback","","html-keyboard-response","459","489801","0.0-1.0-627.0-0.0","0","0","65334","","null","","","null","69","","","","","","","","","","","","","","","",""
"","time_out","","html-keyboard-response","460","491832","0.0-1.0-629.0-0.0","0","0","65334","","null","","","null","69","","","","","","","","","","","","","","","",""
"","ITI","","html-keyboard-response","461","492849","0.0-1.0-630.0","0","0","65334","","null","","","null","69","","","","","","","","","","","","","","","NaN",""
"","S1","","html-keyboard-response","462","493115","0.0-1.0-632.0","0","0","65334","","null","","","null","70","","","","","","","","","","","","","","","",""
"","ISI","","html-keyboard-response","463","495147","0.0-1.0-633.0","0","0","65334","","null","","","null","70","NaN","","","","","","","","","","","","","","",""
"","S2","","html-keyboard-response","464","495420","0.0-1.0-634.0","0","0","65334","","null","","","null","70","","NaN","","","","","","","","","","","","","",""
"","response","","html-keyboard-response","465","495529","0.0-1.0-635.0-0.0","0","0","65334","","102","","","68","70","","","2","70","training","adjacent","AB","1","2","R.jpg","L.jpg","1","1","1","",""
"","feedback","","html-keyboard-response","466","496551","0.0-1.0-636.0-0.0","0","0","65334","","null","","","null","70","","","","","","","","","","","","","","","",""
"","ITI","","html-keyboard-response","467","497567","0.0-1.0-639.0","0","0","65334","","null","","","null","70","","","","","","","","","","","","","","","NaN",""
"","S1","","html-keyboard-response","468","497839","0.0-1.0-641.0","0","0","65334","","null","","","null","71","","","","","","","","","","","","","","","",""
"","ISI","","html-keyboard-response","469","499858","0.0-1.0-642.0","0","0","65334","","null","","","null","71","NaN","","","","","","","","","","","","","","",""
"","S2","","html-keyboard-response","470","500128","0.0-1.0-643.0","0","0","65334","","null","","","null","71","","NaN","","","","","","","","","","","","","",""
"","response","","html-keyboard-response","471","500342","0.0-1.0-644.0-0.0","0","0","65334","","205","","","75","71","","","2","71","training","adjacent","ED","5","4","O.jpg","P.jpg","0","0","1","",""
"","feedback","","html-keyboard-response","472","501361","0.0-1.0-645.0-0.0","0","0","65334","","null","","","null","71","","","","","","","","","","","","","","","",""
"","ITI","","html-keyboard-response","473","502381","0.0-1.0-648.0","0","0","65334","","null","","","null","71","","","","","","","","","","","","","","","NaN",""
"","S1","","html-keyboard-response","474","502650","0.0-1.0-650.0","0","0","65334","","null","","","null","72","","","","","","","","","","","","","","","",""
"","ISI","","html-keyboard-response","475","504660","0.0-1.0-651.0","0","0","65334","","null","","","null","72","NaN","","","","","","","","","","","","","","",""
"","S2","","html-keyboard-response","476","504926","0.0-1.0-652.0","0","0","65334","","null","","","null","72","","NaN","","","","","","","","","","","","","",""
"","response","","html-keyboard-response","477","505050","0.0-1.0-653.0-0.0","0","0","65334","","113","","","75","72","","","2","72","training","adjacent","ED","5","4","O.jpg","P.jpg","0","0","1","",""
"","feedback","","html-keyboard-response","478","506065","0.0-1.0-654.0-0.0","0","0","65334","","null","","","null","72","","","","","","","","","","","","","","","",""
"","ITI","","html-keyboard-response","479","507085","0.0-1.0-657.0","0","0","65334","","null","","","null","72","","","","","","","","","","","","","","","NaN",""
"","S1","","html-keyboard-response","480","507359","0.0-1.0-659.0","0","0","65334","","null","","","null","73","","","","","","","","","","","","","","","",""
"","ISI","","html-keyboard-response","481","509377","0.0-1.0-660.0","0","0","65334","","null","","","null","73","NaN","","","","","","","","","","","","","","",""
"","S2","","html-keyboard-response","482","509644","0.0-1.0-661.0","0","0","65334","","null","","","null","73","","NaN","","","","","","","","","","","","","",""
"","response","","html-keyboard-response","483","509927","0.0-1.0-662.0-0.0","0","0","65334","","269","","","68","73","","","2","73","training","adjacent","FE","6","5","Q.jpg","O.jpg","1","0","0","",""
"","feedback","","html-keyboard-response","484","510951","0.0-1.0-663.0-0.0","0","0","65334","","null","","","null","73","","","","","","","","","","","","","","","",""
"","time_out","","html-keyboard-response","485","512980","0.0-1.0-665.0-0.0","0","0","65334","","null","","","null","73","","","","","","","","","","","","","","","",""
"","ITI","","html-keyboard-response","486","513989","0.0-1.0-666.0","0","0","65334","","null","","","null","73","","","","","","","","","","","","","","","NaN",""
"","S1","","html-keyboard-response","487","514265","0.0-1.0-668.0","0","0","65334","","null","","","null","74","","","","","","","","","","","","","","","",""
"","ISI","","html-keyboard-response","488","516279","0.0-1.0-669.0","0","0","65334","","null","","","null","74","NaN","","","","","","","","","","","","","","",""
"","S2","","html-keyboard-response","489","516550","0.0-1.0-670.0","0","0","65334","","null","","","null","74","","NaN","","","","","","","","","","","","","",""
"","response","","html-keyboard-response","490","516819","0.0-1.0-671.0-0.0","0","0","65334","","260","","","75","74","","","2","74","training","adjacent","CB","3","2","N.jpg","L.jpg","0","0","1","",""
"","feedback","","html-keyboard-response","491","517833","0.0-1.0-672.0-0.0","0","0","65334","","null","","","null","74","","","","","","","","","","","","","","","",""
"","ITI","","html-keyboard-response","492","518857","0.0-1.0-675.0","0","0","65334","","null","","","null","74","","","","","","","","","","","","","","","NaN",""
"","S1","","html-keyboard-response","493","519137","0.0-1.0-677.0","0","0","65334","","null","","","null","75","","","","","","","","","","","","","","","",""
"","ISI","","html-keyboard-response","494","521167","0.0-1.0-678.0","0","0","65334","","null","","","null","75","NaN","","","","","","","","","","","","","","",""
"","S2","","html-keyboard-response","495","521443","0.0-1.0-679.0","0","0","65334","","null","","","null","75","","NaN","","","","","","","","","","","","","",""
"","response","","html-keyboard-response","496","521595","0.0-1.0-680.0-0.0","0","0","65334","","138","","","75","75","","","2","75","training","adjacent","GF","7","6","M.jpg","Q.jpg","0","0","1","",""
"","feedback","","html-keyboard-response","497","522609","0.0-1.0-681.0-0.0","0","0","65334","","null","","","null","75","","","","","","","","","","","","","","","",""
"","ITI","","html-keyboard-response","498","523636","0.0-1.0-684.0","0","0","65334","","null","","","null","75","","","","","","","","","","","","","","","NaN",""
"","S1","","html-keyboard-response","499","523897","0.0-1.0-686.0","0","0","65334","","null","","","null","76","","","","","","","","","","","","","","","",""
"","ISI","","html-keyboard-response","500","525910","0.0-1.0-687.0","0","0","65334","","null","","","null","76","NaN","","","","","","","","","","","","","","",""
"","S2","","html-keyboard-response","501","526176","0.0-1.0-688.0","0","0","65334","","null","","","null","76","","NaN","","","","","","","","","","","","","",""
"","response","","html-keyboard-response","502","526267","0.0-1.0-689.0-0.0","0","0","65334","","86","","","75","76","","","2","76","training","adjacent","AB","1","2","R.jpg","L.jpg","0","1","0","",""
"","feedback","","html-keyboard-response","503","527284","0.0-1.0-690.0-0.0","0","0","65334","","null","","","null","76","","","","","","","","","","","","","","","",""
"","time_out","","html-keyboard-response","504","529290","0.0-1.0-692.0-0.0","0","0","65334","","null","","","null","76","","","","","","","","","","","","","","","",""
"","ITI","","html-keyboard-response","505","530316","0.0-1.0-693.0","0","0","65334","","null","","","null","76","","","","","","","","","","","","","","","NaN",""
"","S1","","html-keyboard-response","506","530579","0.0-1.0-695.0","0","0","65334","","null","","","null","77","","","","","","","","","","","","","","","",""
"","ISI","","html-keyboard-response","507","532599","0.0-1.0-696.0","0","0","65334","","null","","","null","77","NaN","","","","","","","","","","","","","","",""
"","S2","","html-keyboard-response","508","532860","0.0-1.0-697.0","0","0","65334","","null","","","null","77","","NaN","","","","","","","","","","","","","",""
"","response","","html-keyboard-response","509","532939","0.0-1.0-698.0-0.0","0","0","65334","","74","","","75","77","","","2","77","training","adjacent","GF","7","6","M.jpg","Q.jpg","0","0","1","",""
"","feedback","","html-keyboard-response","510","533955","0.0-1.0-699.0-0.0","0","0","65334","","null","","","null","77","","","","","","","","","","","","","","","",""
"","ITI","","html-keyboard-response","511","534963","0.0-1.0-702.0","0","0","65334","","null","","","null","77","","","","","","","","","","","","","","","NaN",""
"","S1","","html-keyboard-response","512","535227","0.0-1.0-704.0","0","0","65334","","null","","","null","78","","","","","","","","","","","","","","","",""
"","ISI","","html-keyboard-response","513","537236","0.0-1.0-705.0","0","0","65334","","null","","","null","78","NaN","","","","","","","","","","","","","","",""
"","S2","","html-keyboard-response","514","537509","0.0-1.0-706.0","0","0","65334","","null","","","null","78","","NaN","","","","","","","","","","","","","",""
"","response","","html-keyboard-response","515","537544","0.0-1.0-707.0-0.0","0","0","65334","","25","","","75","78","","","2","78","training","adjacent","EF","5","6","O.jpg","Q.jpg","0","1","0","",""
"","feedback","","html-keyboard-response","516","538557","0.0-1.0-708.0-0.0","0","0","65334","","null","","","null","78","","","","","","","","","","","","","","","",""
"","time_out","","html-keyboard-response","517","540570","0.0-1.0-710.0-0.0","0","0","65334","","null","","","null","78","","","","","","","","","","","","","","","",""
"","ITI","","html-keyboard-response","518","541586","0.0-1.0-711.0","0","0","65334","","null","","","null","78","","","","","","","","","","","","","","","NaN",""
"","S1","","html-keyboard-response","519","541852","0.0-1.0-713.0","0","0","65334","","null","","","null","79","","","","","","","","","","","","","","","",""
"","ISI","","html-keyboard-response","520","543864","0.0-1.0-714.0","0","0","65334","","null","","","null","79","NaN","","","","","","","","","","","","","","",""
"","S2","","html-keyboard-response","521","544127","0.0-1.0-715.0","0","0","65334","","null","","","null","79","","NaN","","","","","","","","","","","","","",""
"","response","","html-keyboard-response","522","544307","0.0-1.0-716.0-0.0","0","0","65334","","175","","","75","79","","","2","79","training","adjacent","BA","2","1","L.jpg","R.jpg","0","0","1","",""
"","feedback","","html-keyboard-response","523","545320","0.0-1.0-717.0-0.0","0","0","65334","","null","","","null","79","","","","","","","","","","","","","","","",""
"","ITI","","html-keyboard-response","524","546343","0.0-1.0-720.0","0","0","65334","","null","","","null","79","","","","","","","","","","","","","","","NaN",""
"","S1","","html-keyboard-response","525","546604","0.0-1.0-722.0","0","0","65334","","null","","","null","80","","","","","","","","","","","","","","","",""
"","ISI","","html-keyboard-response","526","548613","0.0-1.0-723.0","0","0","65334","","null","","","null","80","NaN","","","","","","","","","","","","","","",""
"","S2","","html-keyboard-response","527","548880","0.0-1.0-724.0","0","0","65334","","null","","","null","80","","NaN","","","","","","","","","","","","","",""
"","response","","html-keyboard-response","528","549032","0.0-1.0-725.0-0.0","0","0","65334","","138","","","68","80","","","2","80","training","adjacent","BC","2","3","L.jpg","N.jpg","1","1","1","",""
"","feedback","","html-keyboard-response","529","550051","0.0-1.0-726.0-0.0","0","0","65334","","null","","","null","80","","","","","","","","","","","","","","","",""
"","ITI","","html-keyboard-response","530","551085","0.0-1.0-729.0","0","0","65334","","null","","","null","80","","","","","","","","","","","","","","","NaN",""
"","S1","","html-keyboard-response","531","551351","0.0-1.0-731.0","0","0","65334","","null","","","null","81","","","","","","","","","","","","","","","",""
"","ISI","","html-keyboard-response","532","553372","0.0-1.0-732.0","0","0","65334","","null","","","null","81","NaN","","","","","","","","","","","","","","",""
"","S2","","html-keyboard-response","533","553648","0.0-1.0-733.0","0","0","65334","","null","","","null","81","","NaN","","","","","","","","","","","","","",""
"","response","","html-keyboard-response","534","553688","0.0-1.0-734.0-0.0","0","0","65334","","32","","","68","81","","","2","81","training","adjacent","DC","4","3","P.jpg","N.jpg","1","0","0","",""
"","feedback","","html-keyboard-response","535","554703","0.0-1.0-735.0-0.0","0","0","65334","","null","","","null","81","","","","","","","","","","","","","","","",""
"","time_out","","html-keyboard-response","536","556719","0.0-1.0-737.0-0.0","0","0","65334","","null","","","null","81","","","","","","","","","","","","","","","",""
"","ITI","","html-keyboard-response","537","557739","0.0-1.0-738.0","0","0","65334","","null","","","null","81","","","","","","","","","","","","","","","NaN",""
"","S1","","html-keyboard-response","538","558011","0.0-1.0-740.0","0","0","65334","","null","","","null","82","","","","","","","","","","","","","","","",""
"","ISI","","html-keyboard-response","539","560028","0.0-1.0-741.0","0","0","65334","","null","","","null","82","NaN","","","","","","","","","","","","","","",""
"","S2","","html-keyboard-response","540","560295","0.0-1.0-742.0","0","0","65334","","null","","","null","82","","NaN","","","","","","","","","","","","","",""
"","response","","html-keyboard-response","541","560503","0.0-1.0-743.0-0.0","0","0","65334","","203","","","75","82","","","2","82","training","adjacent","DC","4","3","P.jpg","N.jpg","0","0","1","",""
"","feedback","","html-keyboard-response","542","561519","0.0-1.0-744.0-0.0","0","0","65334","","null","","","null","82","","","","","","","","","","","","","","","",""
"","ITI","","html-keyboard-response","543","562543","0.0-1.0-747.0","0","0","65334","","null","","","null","82","","","","","","","","","","","","","","","NaN",""
"","S1","","html-keyboard-response","544","562808","0.0-1.0-749.0","0","0","65334","","null","","","null","83","","","","","","","","","","","","","","","",""
"","ISI","","html-keyboard-response","545","564813","0.0-1.0-750.0","0","0","65334","","null","","","null","83","NaN","","","","","","","","","","","","","","",""
"","S2","","html-keyboard-response","546","565088","0.0-1.0-751.0","0","0","65334","","null","","","null","83","","NaN","","","","","","","","","","","","","",""
"","response","","html-keyboard-response","547","565331","0.0-1.0-752.0-0.0","0","0","65334","","234","","","75","83","","","2","83","training","adjacent","CD","3","4","N.jpg","P.jpg","0","1","0","",""
"","feedback","","html-keyboard-response","548","566349","0.0-1.0-753.0-0.0","0","0","65334","","null","","","null","83","","","","","","","","","","","","","","","",""
"","time_out","","html-keyboard-response","549","568355","0.0-1.0-755.0-0.0","0","0","65334","","null","","","null","83","","","","","","","","","","","","","","","",""
"","ITI","","html-keyboard-response","550","569381","0.0-1.0-756.0","0","0","65334","","null","","","null","83","","","","","","","","","","","","","","","NaN",""
"","S1","","html-keyboard-response","551","569650","0.0-1.0-758.0","0","0","65334","","null","","","null","84","","","","","","","","","","","","","","","",""
"","ISI","","html-keyboard-response","552","571672","0.0-1.0-759.0","0","0","65334","","null","","","null","84","NaN","","","","","","","","","","","","","","",""
"","S2","","html-keyboard-response","553","571936","0.0-1.0-760.0","0","0","65334","","null","","","null","84","","NaN","","","","","","","","","","","","","",""
"","response","","html-keyboard-response","554","572260","0.0-1.0-761.0-0.0","0","0","65334","","312","","","75","84","","","2","84","training","adjacent","CB","3","2","N.jpg","L.jpg","0","0","1","",""
"","feedback","","html-keyboard-response","555","573291","0.0-1.0-762.0-0.0","0","0","65334","","null","","","null","84","","","","","","","","","","","","","","","",""
"","ITI","","html-keyboard-response","556","574310","0.0-1.0-765.0","0","0","65334","","null","","","null","84","","","","","","","","","","","","","","","NaN",""
"","S1","","html-keyboard-response","557","574573","0.0-1.0-767.0","0","0","65334","","null","","","null","85","","","","","","","","","","","","","","","",""
"","ISI","","html-keyboard-response","558","576582","0.0-1.0-768.0","0","0","65334","","null","","","null","85","NaN","","","","","","","","","","","","","","",""
"","S2","","html-keyboard-response","559","576851","0.0-1.0-769.0","0","0","65334","","null","","","null","85","","NaN","","","","","","","","","","","","","",""
"","response","","html-keyboard-response","560","576966","0.0-1.0-770.0-0.0","0","0","65334","","109","","","75","85","","","2","85","training","adjacent","BC","2","3","L.jpg","N.jpg","0","1","0","",""
"","feedback","","html-keyboard-response","561","577990","0.0-1.0-771.0-0.0","0","0","65334","","null","","","null","85","","","","","","","","","","","","","","","",""
"","time_out","","html-keyboard-response","562","580004","0.0-1.0-773.0-0.0","0","0","65334","","null","","","null","85","","","","","","","","","","","","","","","",""
"","ITI","","html-keyboard-response","563","581037","0.0-1.0-774.0","0","0","65334","","null","","","null","85","","","","","","","","","","","","","","","NaN",""
"","S1","","html-keyboard-response","564","581310","0.0-1.0-776.0","0","0","65334","","null","","","null","86","","","","","","","","","","","","","","","",""
"","ISI","","html-keyboard-response","565","583318","0.0-1.0-777.0","0","0","65334","","null","","","null","86","NaN","","","","","","","","","","","","","","",""
"","S2","","html-keyboard-response","566","583589","0.0-1.0-778.0","0","0","65334","","null","","","null","86","","NaN","","","","","","","","","","","","","",""
"","response","","html-keyboard-response","567","583704","0.0-1.0-779.0-0.0","0","0","65334","","108","","","75","86","","","2","86","training","adjacent","EF","5","6","O.jpg","Q.jpg","0","1","0","",""
"","feedback","","html-keyboard-response","568","584726","0.0-1.0-780.0-0.0","0","0","65334","","null","","","null","86","","","","","","","","","","","","","","","",""
"","time_out","","html-keyboard-response","569","586758","0.0-1.0-782.0-0.0","0","0","65334","","null","","","null","86","","","","","","","","","","","","","","","",""
"","ITI","","html-keyboard-response","570","587775","0.0-1.0-783.0","0","0","65334","","null","","","null","86","","","","","","","","","","","","","","","NaN",""
"","S1","","html-keyboard-response","571","588048","0.0-1.0-785.0","0","0","65334","","null","","","null","87","","","","","","","","","","","","","","","",""
"","ISI","","html-keyboard-response","572","590065","0.0-1.0-786.0","0","0","65334","","null","","","null","87","NaN","","","","","","","","","","","","","","",""
"","S2","","html-keyboard-response","573","590332","0.0-1.0-787.0","0","0","65334","","null","","","null","87","","NaN","","","","","","","","","","","","","",""
"","response","","html-keyboard-response","574","590501","0.0-1.0-788.0-0.0","0","0","65334","","163","","","68","87","","","2","87","training","adjacent","FE","6","5","Q.jpg","O.jpg","1","0","0","",""
"","feedback","","html-keyboard-response","575","591525","0.0-1.0-789.0-0.0","0","0","65334","","null","","","null","87","","","","","","","","","","","","","","","",""
"","time_out","","html-keyboard-response","576","593547","0.0-1.0-791.0-0.0","0","0","65334","","null","","","null","87","","","","","","","","","","","","","","","",""
"","ITI","","html-keyboard-response","577","594559","0.0-1.0-792.0","0","0","65334","","null","","","null","87","","","","","","","","","","","","","","","NaN",""
"","S1","","html-keyboard-response","578","594829","0.0-1.0-794.0","0","0","65334","","null","","","null","88","","","","","","","","","","","","","","","",""
"","ISI","","html-keyboard-response","579","596836","0.0-1.0-795.0","0","0","65334","","null","","","null","88","NaN","","","","","","","","","","","","","","",""
"","S2","","html-keyboard-response","580","597102","0.0-1.0-796.0","0","0","65334","","null","","","null","88","","NaN","","","","","","","","","","","","","",""
"","response","","html-keyboard-response","581","597240","0.0-1.0-797.0-0.0","0","0","65334","","130","","","75","88","","","2","88","training","adjacent","CD","3","4","N.jpg","P.jpg","0","1","0","",""
"","feedback","","html-keyboard-response","582","598257","0.0-1.0-798.0-0.0","0","0","65334","","null","","","null","88","","","","","","","","","","","","","","","",""
