"success","ttype","start_time","trial_type","trial_index","time_elapsed","internal_node_id","warning","missed_checkup","PID","view_history","rt","responses","repeat_instructions","key_press","index","keypress_isi","keypress_S2","block","trial_num","phase","group_type","pair_type","S1_stim","S2_stim","S1_img","S2_img","S1_chosen","S1_higher","accuracy","keypress_iti","total_bonus_tally"
"true","full_screen","d04132023hr2034","fullscreen","0","10999","0.0-0.0","0","0","15337","","","","","","","","","","","","","","","","","","","","","",""
"","instructions","","instructions","1","62582","0.0-1.0-0.0-0.0","0","0","15337","[{""page_index"":0,""viewing_time"":5099},{""page_index"":1,""viewing_time"":27926},{""page_index"":2,""viewing_time"":14170},{""page_index"":3,""viewing_time"":4382}]","51579","","","","","","","","","","","","","","","","","","","",""
"","comprehension_check","","survey-multi-choice","2","92711","0.0-1.0-0.0-1.0","0","0","15337","","30118","{""Q0"":""True"",""Q1"":""K"",""Q2"":""Only when the screen 'MAKE A CHOICE' is shown"",""Q3"":""Green mark"",""Q4"":""either D or K""}","1","","","","","","","","","","","","","","","","","",""
"","missed_instruction_checkup","","html-keyboard-response","3","95145","0.0-1.0-0.0-2.0-0.0","0","1","15337","","2425","","","32","","","","","","","","","","","","","","","","",""
"","instructions","","instructions","4","122195","0.0-1.0-0.1-0.1","0","0","15337","[{""page_index"":0,""viewing_time"":2722},{""page_index"":1,""viewing_time"":17530},{""page_index"":2,""viewing_time"":5018},{""page_index"":3,""viewing_time"":1776}]","27047","","","","","","","","","","","","","","","","","","","",""
"","comprehension_check","","survey-multi-choice","5","148722","0.0-1.0-0.1-1.1","0","0","15337","","26518","{""Q0"":""True"",""Q1"":""K"",""Q2"":""Once the second image appears and while the screen 'MAKE A CHOICE' is shown"",""Q3"":""Green mark"",""Q4"":""either D or K""}","0","","","","","","","","","","","","","","","","","",""
"","start_exp","","html-keyboard-response","6","151853","0.0-1.0-1.0","0","0","15337","","3128","","","32","","","","","","","","","","","","","","","","",""
"","S1","","html-keyboard-response","7","152120","0.0-1.0-2.0","0","0","15337","","null","","","null","0","","","","","","","","","","","","","","","",""
"","ISI","","html-keyboard-response","8","153128","0.0-1.0-3.0","0","0","15337","","null","","","null","0","NaN","","","","","","","","","","","","","","",""
"","S2","","html-keyboard-response","9","153392","0.0-1.0-4.0","0","0","15337","","null","","","null","0","","NaN","","","","","","","","","","","","","",""
"","response","","html-keyboard-response","10","154585","0.0-1.0-5.0-0.0","0","0","15337","","1188","","","68","0","","","1","0","training","adjacent","BC","2","3","R.jpg","M.jpg","0","1","0","",""
"","feedback","","html-keyboard-response","11","155600","0.0-1.0-6.0-0.0","0","0","15337","","null","","","null","0","","","","","","","","","","","","","","","",""
"","time_out","","html-keyboard-response","12","157613","0.0-1.0-8.0-0.0","0","0","15337","","null","","","null","0","","","","","","","","","","","","","","","",""
"","ITI","","html-keyboard-response","13","158623","0.0-1.0-9.0","0","0","15337","","848","","","75","0","","","","","","","","","","","","","","","k",""
"","S1","","html-keyboard-response","14","158889","0.0-1.0-11.0","0","0","15337","","null","","","null","1","","","","","","","","","","","","","","","",""
"","ISI","","html-keyboard-response","15","159919","0.0-1.0-12.0","0","0","15337","","null","","","null","1","NaN","","","","","","","","","","","","","","",""
"","S2","","html-keyboard-response","16","160186","0.0-1.0-13.0","0","0","15337","","null","","","null","1","","NaN","","","","","","","","","","","","","",""
"","response","","html-keyboard-response","17","161658","0.0-1.0-14.0-0.0","0","0","15337","","1468","","","75","1","","","1","1","training","adjacent","AB","1","2","Q.jpg","R.jpg","1","1","1","",""
"","feedback","","html-keyboard-response","18","162671","0.0-1.0-15.0-0.0","0","0","15337","","null","","","null","1","","","","","","","","","","","","","","","",""
"","ITI","","html-keyboard-response","19","163687","0.0-1.0-18.0","0","0","15337","","null","","","null","1","","","","","","","","","","","","","","","NaN",""
"","S1","","html-keyboard-response","20","163951","0.0-1.0-20.0","0","0","15337","","null","","","null","2","","","","","","","","","","","","","","","",""
"","ISI","","html-keyboard-response","21","164968","0.0-1.0-21.0","0","0","15337","","null","","","null","2","NaN","","","","","","","","","","","","","","",""
"","S2","","html-keyboard-response","22","165235","0.0-1.0-22.0","0","0","15337","","null","","","null","2","","NaN","","","","","","","","","","","","","",""
"","response","","html-keyboard-response","23","166105","0.0-1.0-23.0-0.0","0","0","15337","","867","","","75","2","","","1","2","training","adjacent","FE","6","5","O.jpg","P.jpg","1","0","0","",""
"","feedback","","html-keyboard-response","24","167153","0.0-1.0-24.0-0.0","0","0","15337","","null","","","null","2","","","","","","","","","","","","","","","",""
"","time_out","","html-keyboard-response","25","169167","0.0-1.0-26.0-0.0","0","0","15337","","null","","","null","2","","","","","","","","","","","","","","","",""
"","ITI","","html-keyboard-response","26","170177","0.0-1.0-27.0","0","0","15337","","null","","","null","2","","","","","","","","","","","","","","","NaN",""
"","S1","","html-keyboard-response","27","170442","0.0-1.0-29.0","0","0","15337","","null","","","null","3","","","","","","","","","","","","","","","",""
"","ISI","","html-keyboard-response","28","171456","0.0-1.0-30.0","0","0","15337","","null","","","null","3","NaN","","","","","","","","","","","","","","",""
"","S2","","html-keyboard-response","29","171722","0.0-1.0-31.0","0","0","15337","","null","","","null","3","","NaN","","","","","","","","","","","","","",""
"","response","","html-keyboard-response","30","172618","0.0-1.0-32.0-0.0","0","0","15337","","893","","","68","3","","","1","3","training","adjacent","DE","4","5","N.jpg","P.jpg","0","1","0","",""
"","feedback","","html-keyboard-response","31","173630","0.0-1.0-33.0-0.0","0","0","15337","","null","","","null","3","","","","","","","","","","","","","","","",""
"","time_out","","html-keyboard-response","32","175665","0.0-1.0-35.0-0.0","0","0","15337","","null","","","null","3","","","","","","","","","","","","","","","",""
"","ITI","","html-keyboard-response","33","176691","0.0-1.0-36.0","0","0","15337","","null","","","null","3","","","","","","","","","","","","","","","NaN",""
"","S1","","html-keyboard-response","34","176958","0.0-1.0-38.0","0","0","15337","","null","","","null","4","","","","","","","","","","","","","","","",""
"","ISI","","html-keyboard-response","35","177969","0.0-1.0-39.0","0","0","15337","","null","","","null","4","NaN","","","","","","","","","","","","","","",""
"","S2","","html-keyboard-response","36","178234","0.0-1.0-40.0","0","0","15337","","null","","","null","4","","NaN","","","","","","","","","","","","","",""
"","response","","html-keyboard-response","37","178635","0.0-1.0-41.0-0.0","0","0","15337","","397","","","75","4","","","1","4","training","adjacent","DE","4","5","N.jpg","P.jpg","1","1","1","",""
"","feedback","","html-keyboard-response","38","179639","0.0-1.0-42.0-0.0","0","0","15337","","null","","","null","4","","","","","","","","","","","","","","","",""
"","ITI","","html-keyboard-response","39","180652","0.0-1.0-45.0","0","0","15337","","null","","","null","4","","","","","","","","","","","","","","","NaN",""
"","S1","","html-keyboard-response","40","180916","0.0-1.0-47.0","0","0","15337","","null","","","null","5","","","","","","","","","","","","","","","",""
"","ISI","","html-keyboard-response","41","181928","0.0-1.0-48.0","0","0","15337","","null","","","null","5","NaN","","","","","","","","","","","","","","",""
"","S2","","html-keyboard-response","42","182211","0.0-1.0-49.0","0","0","15337","","null","","","null","5","","NaN","","","","","","","","","","","","","",""
"","response","","html-keyboard-response","43","183138","0.0-1.0-50.0-0.0","0","0","15337","","924","","","75","5","","","1","5","training","adjacent","EF","5","6","P.jpg","O.jpg","1","1","1","",""
"","feedback","","html-keyboard-response","44","184151","0.0-1.0-51.0-0.0","0","0","15337","","null","","","null","5","","","","","","","","","","","","","","","",""
"","ITI","","html-keyboard-response","45","185172","0.0-1.0-54.0","0","0","15337","","null","","","null","5","","","","","","","","","","","","","","","NaN",""
"","S1","","html-keyboard-response","46","185435","0.0-1.0-56.0","0","0","15337","","null","","","null","6","","","","","","","","","","","","","","","",""
"","ISI","","html-keyboard-response","47","186451","0.0-1.0-57.0","0","0","15337","","null","","","null","6","NaN","","","","","","","","","","","","","","",""
"","S2","","html-keyboard-response","48","186718","0.0-1.0-58.0","0","0","15337","","null","","","null","6","","NaN","","","","","","","","","","","","","",""
"","response","","html-keyboard-response","49","187355","0.0-1.0-59.0-0.0","0","0","15337","","634","","","68","6","","","1","6","training","adjacent","BA","2","1","R.jpg","Q.jpg","0","0","1","",""
"","feedback","","html-keyboard-response","50","188388","0.0-1.0-60.0-0.0","0","0","15337","","null","","","null","6","","","","","","","","","","","","","","","",""
"","ITI","","html-keyboard-response","51","189411","0.0-1.0-63.0","0","0","15337","","null","","","null","6","","","","","","","","","","","","","","","NaN",""
"","S1","","html-keyboard-response","52","189678","0.0-1.0-65.0","0","0","15337","","null","","","null","7","","","","","","","","","","","","","","","",""
"","ISI","","html-keyboard-response","53","190692","0.0-1.0-66.0","0","0","15337","","null","","","null","7","NaN","","","","","","","","","","","","","","",""
"","S2","","html-keyboard-response","54","190973","0.0-1.0-67.0","0","0","15337","","null","","","null","7","","NaN","","","","","","","","","","","","","",""
"","response","","html-keyboard-response","55","191624","0.0-1.0-68.0-0.0","0","0","15337","","649","","","68","7","","","1","7","training","adjacent","BC","2","3","R.jpg","M.jpg","0","1","0","",""
"","feedback","","html-keyboard-response","56","192633","0.0-1.0-69.0-0.0","0","0","15337","","null","","","null","7","","","","","","","","","","","","","","","",""
"","time_out","","html-keyboard-response","57","194641","0.0-1.0-71.0-0.0","0","0","15337","","null","","","null","7","","","","","","","","","","","","","","","",""
"","ITI","","html-keyboard-response","58","195653","0.0-1.0-72.0","0","0","15337","","null","","","null","7","","","","","","","","","","","","","","","NaN",""
"","S1","","html-keyboard-response","59","195917","0.0-1.0-74.0","0","0","15337","","null","","","null","8","","","","","","","","","","","","","","","",""
"","ISI","","html-keyboard-response","60","196930","0.0-1.0-75.0","0","0","15337","","null","","","null","8","NaN","","","","","","","","","","","","","","",""
"","S2","","html-keyboard-response","61","197210","0.0-1.0-76.0","0","0","15337","","null","","","null","8","","NaN","","","","","","","","","","","","","",""
"","response","","html-keyboard-response","62","197579","0.0-1.0-77.0-0.0","0","0","15337","","365","","","75","8","","","1","8","training","adjacent","CB","3","2","M.jpg","R.jpg","1","0","0","",""
"","feedback","","html-keyboard-response","63","198596","0.0-1.0-78.0-0.0","0","0","15337","","null","","","null","8","","","","","","","","","","","","","","","",""
"","time_out","","html-keyboard-response","64","200610","0.0-1.0-80.0-0.0","0","0","15337","","null","","","null","8","","","","","","","","","","","","","","","",""
"","ITI","","html-keyboard-response","65","201621","0.0-1.0-81.0","0","0","15337","","null","","","null","8","","","","","","","","","","","","","","","NaN",""
"","S1","","html-keyboard-response","66","201885","0.0-1.0-83.0","0","0","15337","","null","","","null","9","","","","","","","","","","","","","","","",""
"","ISI","","html-keyboard-response","67","202900","0.0-1.0-84.0","0","0","15337","","null","","","null","9","NaN","","","","","","","","","","","","","","",""
"","S2","","html-keyboard-response","68","203179","0.0-1.0-85.0","0","0","15337","","null","","","null","9","","NaN","","","","","","","","","","","","","",""
"","response","","html-keyboard-response","69","203465","0.0-1.0-86.0-0.0","0","0","15337","","283","","","75","9","","","1","9","training","adjacent","AB","1","2","Q.jpg","R.jpg","1","1","1","",""
"","feedback","","html-keyboard-response","70","204483","0.0-1.0-87.0-0.0","0","0","15337","","null","","","null","9","","","","","","","","","","","","","","","",""
"","ITI","","html-keyboard-response","71","205497","0.0-1.0-90.0","0","0","15337","","null","","","null","9","","","","","","","","","","","","","","","NaN",""
"","S1","","html-keyboard-response","72","205762","0.0-1.0-92.0","0","0","15337","","null","","","null","10","","","","","","","","","","","","","","","",""
"","ISI","","html-keyboard-response","73","206774","0.0-1.0-93.0","0","0","15337","","null","","","null","10","NaN","","","","","","","","","","","","","","",""
"","S2","","html-keyboard-response","74","207041","0.0-1.0-94.0","0","0","15337","","null","","","null","10","","NaN","","","","","","","","","","","","","",""
"","response","","html-keyboard-response","75","207796","0.0-1.0-95.0-0.0","0","0","15337","","752","","","75","10","","","1","10","training","adjacent","FE","6","5","O.jpg","P.jpg","1","0","0","",""
"","feedback","","html-keyboard-response","76","208822","0.0-1.0-96.0-0.0","0","0","15337","","null","","","null","10","","","","","","","","","","","","","","","",""
"","time_out","","html-keyboard-response","77","210863","0.0-1.0-98.0-0.0","0","0","15337","","null","","","null","10","","","","","","","","","","","","","","","",""
"","ITI","","html-keyboard-response","78","211872","0.0-1.0-99.0","0","0","15337","","null","","","null","10","","","","","","","","","","","","","","","NaN",""
"","S1","","html-keyboard-response","79","212153","0.0-1.0-101.0","0","0","15337","","null","","","null","11","","","","","","","","","","","","","","","",""
"","ISI","","html-keyboard-response","80","213167","0.0-1.0-102.0","0","0","15337","","null","","","null","11","NaN","","","","","","","","","","","","","","",""
"","S2","","html-keyboard-response","81","213433","0.0-1.0-103.0","0","0","15337","","null","","","null","11","","NaN","","","","","","","","","","","","","",""
"","response","","html-keyboard-response","82","213673","0.0-1.0-104.0-0.0","0","0","15337","","239","","","75","11","","","1","11","training","adjacent","CB","3","2","M.jpg","R.jpg","1","0","0","",""
"","feedback","","html-keyboard-response","83","214685","0.0-1.0-105.0-0.0","0","0","15337","","null","","","null","11","","","","","","","","","","","","","","","",""
"","time_out","","html-keyboard-response","84","216692","0.0-1.0-107.0-0.0","0","0","15337","","null","","","null","11","","","","","","","","","","","","","","","",""
"","ITI","","html-keyboard-response","85","217703","0.0-1.0-108.0","0","0","15337","","null","","","null","11","","","","","","","","","","","","","","","NaN",""
"","S1","","html-keyboard-response","86","217970","0.0-1.0-110.0","0","0","15337","","null","","","null","12","","","","","","","","","","","","","","","",""
"","ISI","","html-keyboard-response","87","218983","0.0-1.0-111.0","0","0","15337","","null","","","null","12","NaN","","","","","","","","","","","","","","",""
"","S2","","html-keyboard-response","88","219263","0.0-1.0-112.0","0","0","15337","","null","","","null","12","","NaN","","","","","","","","","","","","","",""
"","response","","html-keyboard-response","89","219779","0.0-1.0-113.0-0.0","0","0","15337","","512","","","75","12","","","1","12","training","adjacent","GF","7","6","L.jpg","O.jpg","1","0","0","",""
"","feedback","","html-keyboard-response","90","220788","0.0-1.0-114.0-0.0","0","0","15337","","null","","","null","12","","","","","","","","","","","","","","","",""
"","time_out","","html-keyboard-response","91","222806","0.0-1.0-116.0-0.0","0","0","15337","","null","","","null","12","","","","","","","","","","","","","","","",""
"","ITI","","html-keyboard-response","92","223815","0.0-1.0-117.0","0","0","15337","","null","","","null","12","","","","","","","","","","","","","","","NaN",""
"","S1","","html-keyboard-response","93","224077","0.0-1.0-119.0","0","0","15337","","null","","","null","13","","","","","","","","","","","","","","","",""
"","ISI","","html-keyboard-response","94","225105","0.0-1.0-120.0","0","0","15337","","null","","","null","13","NaN","","","","","","","","","","","","","","",""
"","S2","","html-keyboard-response","95","225371","0.0-1.0-121.0","0","0","15337","","null","","","null","13","","NaN","","","","","","","","","","","","","",""
"","response","","html-keyboard-response","96","226197","0.0-1.0-122.0-0.0","0","0","15337","","822","","","75","13","","","1","13","training","adjacent","FG","6","7","O.jpg","L.jpg","1","1","1","",""
"","feedback","","html-keyboard-response","97","227213","0.0-1.0-123.0-0.0","0","0","15337","","null","","","null","13","","","","","","","","","","","","","","","",""
"","ITI","","html-keyboard-response","98","228230","0.0-1.0-126.0","0","0","15337","","null","","","null","13","","","","","","","","","","","","","","","NaN",""
"","S1","","html-keyboard-response","99","228496","0.0-1.0-128.0","0","0","15337","","null","","","null","14","","","","","","","","","","","","","","","",""
"","ISI","","html-keyboard-response","100","229509","0.0-1.0-129.0","0","0","15337","","null","","","null","14","NaN","","","","","","","","","","","","","","",""
"","S2","","html-keyboard-response","101","229775","0.0-1.0-130.0","0","0","15337","","null","","","null","14","","NaN","","","","","","","","","","","","","",""
"","response","","html-keyboard-response","102","230339","0.0-1.0-131.0-0.0","0","0","15337","","560","","","68","14","","","1","14","training","adjacent","FG","6","7","O.jpg","L.jpg","0","1","0","",""
"","feedback","","html-keyboard-response","103","231373","0.0-1.0-132.0-0.0","0","0","15337","","null","","","null","14","","","","","","","","","","","","","","","",""
"","time_out","","html-keyboard-response","104","233386","0.0-1.0-134.0-0.0","0","0","15337","","null","","","null","14","","","","","","","","","","","","","","","",""
"","ITI","","html-keyboard-response","105","234400","0.0-1.0-135.0","0","0","15337","","null","","","null","14","","","","","","","","","","","","","","","NaN",""
"","S1","","html-keyboard-response","106","234678","0.0-1.0-137.0","0","0","15337","","null","","","null","15","","","","","","","","","","","","","","","",""
"","ISI","","html-keyboard-response","107","235702","0.0-1.0-138.0","0","0","15337","","null","","","null","15","NaN","","","","","","","","","","","","","","",""
"","S2","","html-keyboard-response","108","235968","0.0-1.0-139.0","0","0","15337","","null","","","null","15","","NaN","","","","","","","","","","","","","",""
"","response","","html-keyboard-response","109","236485","0.0-1.0-140.0-0.0","0","0","15337","","515","","","75","15","","","1","15","training","adjacent","EF","5","6","P.jpg","O.jpg","1","1","1","",""
"","feedback","","html-keyboard-response","110","237497","0.0-1.0-141.0-0.0","0","0","15337","","null","","","null","15","","","","","","","","","","","","","","","",""
"","ITI","","html-keyboard-response","111","238513","0.0-1.0-144.0","0","0","15337","","null","","","null","15","","","","","","","","","","","","","","","NaN",""
"","S1","","html-keyboard-response","112","238778","0.0-1.0-146.0","0","0","15337","","null","","","null","16","","","","","","","","","","","","","","","",""
"","ISI","","html-keyboard-response","113","239791","0.0-1.0-147.0","0","0","15337","","null","","","null","16","NaN","","","","","","","","","","","","","","",""
"","S2","","html-keyboard-response","114","240056","0.0-1.0-148.0","0","0","15337","","null","","","null","16","","NaN","","","","","","","","","","","","","",""
"","response","","html-keyboard-response","115","240959","0.0-1.0-149.0-0.0","0","0","15337","","899","","","68","16","","","1","16","training","adjacent","FE","6","5","O.jpg","P.jpg","0","0","1","",""
"","feedback","","html-keyboard-response","116","241993","0.0-1.0-150.0-0.0","0","0","15337","","null","","","null","16","","","","","","","","","","","","","","","",""
"","ITI","","html-keyboard-response","117","243019","0.0-1.0-153.0","0","0","15337","","null","","","null","16","","","","","","","","","","","","","","","NaN",""
"","S1","","html-keyboard-response","118","243282","0.0-1.0-155.0","0","0","15337","","null","","","null","17","","","","","","","","","","","","","","","",""
"","ISI","","html-keyboard-response","119","244310","0.0-1.0-156.0","0","0","15337","","null","","","null","17","NaN","","","","","","","","","","","","","","",""
"","S2","","html-keyboard-response","120","244572","0.0-1.0-157.0","0","0","15337","","null","","","null","17","","NaN","","","","","","","","","","","","","",""
"","response","","html-keyboard-response","121","245176","0.0-1.0-158.0-0.0","0","0","15337","","601","","","75","17","","","1","17","training","adjacent","DC","4","3","N.jpg","M.jpg","1","0","0","",""
"","feedback","","html-keyboard-response","122","246184","0.0-1.0-159.0-0.0","0","0","15337","","null","","","null","17","","","","","","","","","","","","","","","",""
"","time_out","","html-keyboard-response","123","248189","0.0-1.0-161.0-0.0","0","0","15337","","null","","","null","17","","","","","","","","","","","","","","","",""
"","ITI","","html-keyboard-response","124","249204","0.0-1.0-162.0","0","0","15337","","null","","","null","17","","","","","","","","","","","","","","","NaN",""
"","S1","","html-keyboard-response","125","249471","0.0-1.0-164.0","0","0","15337","","null","","","null","18","","","","","","","","","","","","","","","",""
"","ISI","","html-keyboard-response","126","250482","0.0-1.0-165.0","0","0","15337","","null","","","null","18","NaN","","","","","","","","","","","","","","",""
"","S2","","html-keyboard-response","127","250761","0.0-1.0-166.0","0","0","15337","","null","","","null","18","","NaN","","","","","","","","","","","","","",""
"","response","","html-keyboard-response","128","250877","0.0-1.0-167.0-0.0","0","0","15337","","112","","","75","18","","","1","18","training","adjacent","CD","3","4","M.jpg","N.jpg","1","1","1","",""
"","feedback","","html-keyboard-response","129","251883","0.0-1.0-168.0-0.0","0","0","15337","","null","","","null","18","","","","","","","","","","","","","","","",""
"","ITI","","html-keyboard-response","130","252887","0.0-1.0-171.0","0","0","15337","","null","","","null","18","","","","","","","","","","","","","","","NaN",""
"","S1","","html-keyboard-response","131","253154","0.0-1.0-173.0","0","0","15337","","null","","","null","19","","","","","","","","","","","","","","","",""
"","ISI","","html-keyboard-response","132","254171","0.0-1.0-174.0","0","0","15337","","null","","","null","19","NaN","","","","","","","","","","","","","","",""
"","S2","","html-keyboard-response","133","254436","0.0-1.0-175.0","0","0","15337","","null","","","null","19","","NaN","","","","","","","","","","","","","",""
"","response","","html-keyboard-response","134","254568","0.0-1.0-176.0-0.0","0","0","15337","","129","","","68","19","","","1","19","training","adjacent","BC","2","3","R.jpg","M.jpg","0","1","0","",""
"","feedback","","html-keyboard-response","135","255587","0.0-1.0-177.0-0.0","0","0","15337","","null","","","null","19","","","","","","","","","","","","","","","",""
"","time_out","","html-keyboard-response","136","257631","0.0-1.0-179.0-0.0","0","0","15337","","null","","","null","19","","","","","","","","","","","","","","","",""
"","ITI","","html-keyboard-response","137","258641","0.0-1.0-180.0","0","0","15337","","null","","","null","19","","","","","","","","","","","","","","","NaN",""
"","S1","","html-keyboard-response","138","258922","0.0-1.0-182.0","0","0","15337","","null","","","null","20","","","","","","","","","","","","","","","",""
"","ISI","","html-keyboard-response","139","259934","0.0-1.0-183.0","0","0","15337","","null","","","null","20","NaN","","","","","","","","","","","","","","",""
"","S2","","html-keyboard-response","140","260200","0.0-1.0-184.0","0","0","15337","","null","","","null","20","","NaN","","","","","","","","","","","","","",""
"","response","","html-keyboard-response","141","260635","0.0-1.0-185.0-0.0","0","0","15337","","433","","","68","20","","","1","20","training","adjacent","ED","5","4","P.jpg","N.jpg","0","0","1","",""
"","feedback","","html-keyboard-response","142","261651","0.0-1.0-186.0-0.0","0","0","15337","","null","","","null","20","","","","","","","","","","","","","","","",""
"","ITI","","html-keyboard-response","143","262658","0.0-1.0-189.0","0","0","15337","","null","","","null","20","","","","","","","","","","","","","","","NaN",""
"","S1","","html-keyboard-response","144","262924","0.0-1.0-191.0","0","0","15337","","null","","","null","21","","","","","","","","","","","","","","","",""
"","ISI","","html-keyboard-response","145","263937","0.0-1.0-192.0","0","0","15337","","null","","","null","21","NaN","","","","","","","","","","","","","","",""
"","S2","","html-keyboard-response","146","264203","0.0-1.0-193.0","0","0","15337","","null","","","null","21","","NaN","","","","","","","","","","","","","",""
"","response","","html-keyboard-response","147","265030","0.0-1.0-194.0-0.0","0","0","15337","","824","","","68","21","","","1","21","training","adjacent","FE","6","5","O.jpg","P.jpg","0","0","1","",""
"","feedback","","html-keyboard-response","148","266063","0.0-1.0-195.0-0.0","0","0","15337","","null","","","null","21","","","","","","","","","","","","","","","",""
"","ITI","","html-keyboard-response","149","267074","0.0-1.0-198.0","0","0","15337","","null","","","null","21","","","","","","","","","","","","","","","NaN",""
"","S1","","html-keyboard-response","150","267354","0.0-1.0-200.0","0","0","15337","","null","","","null","22","","","","","","","","","","","","","","","",""
"","ISI","","html-keyboard-response","151","268364","0.0-1.0-201.0","0","0","15337","","null","","","null","22","NaN","","","","","","","","","","","","","","",""
"","S2","","html-keyboard-response","152","268630","0.0-1.0-202.0","0","0","15337","","null","","","null","22","","NaN","","","","","","","","","","","","","",""
"","response","","html-keyboard-response","153","269046","0.0-1.0-203.0-0.0","0","0","15337","","413","","","75","22","","","1","22","training","adjacent","ED","5","4","P.jpg","N.jpg","1","0","0","",""
"","feedback","","html-keyboard-response","154","270059","0.0-1.0-204.0-0.0","0","0","15337","","null","","","null","22","","","","","","","","","","","","","","","",""
"","time_out","","html-keyboard-response","155","272066","0.0-1.0-206.0-0.0","0","0","15337","","null","","","null","22","","","","","","","","","","","","","","","",""
"","ITI","","html-keyboard-response","156","273080","0.0-1.0-207.0","0","0","15337","","null","","","null","22","","","","","","","","","","","","","","","NaN",""
"","S1","","html-keyboard-response","157","273348","0.0-1.0-209.0","0","0","15337","","null","","","null","23","","","","","","","","","","","","","","","",""
"","ISI","","html-keyboard-response","158","274372","0.0-1.0-210.0","0","0","15337","","null","","","null","23","NaN","","","","","","","","","","","","","","",""
"","S2","","html-keyboard-response","159","274637","0.0-1.0-211.0","0","0","15337","","null","","","null","23","","NaN","","","","","","","","","","","","","",""
"","response","","html-keyboard-response","160","275430","0.0-1.0-212.0-0.0","0","0","15337","","789","","","75","23","","","1","23","training","adjacent","AB","1","2","Q.jpg","R.jpg","1","1","1","",""
"","feedback","","html-keyboard-response","161","276446","0.0-1.0-213.0-0.0","0","0","15337","","null","","","null","23","","","","","","","","","","","","","","","",""
"","ITI","","html-keyboard-response","162","277461","0.0-1.0-216.0","0","0","15337","","null","","","null","23","","","","","","","","","","","","","","","NaN",""
"","S1","","html-keyboard-response","163","277727","0.0-1.0-218.0","0","0","15337","","null","","","null","24","","","","","","","","","","","","","","","",""
"","ISI","","html-keyboard-response","164","278740","0.0-1.0-219.0","0","0","15337","","null","","","null","24","NaN","","","","","","","","","","","","","","",""
"","S2","","html-keyboard-response","165","279005","0.0-1.0-220.0","0","0","15337","","null","","","null","24","","NaN","","","","","","","","","","","","","",""
"","response","","html-keyboard-response","166","279507","0.0-1.0-221.0-0.0","0","0","15337","","498","","","75","24","","","1","24","training","adjacent","FG","6","7","O.jpg","L.jpg","1","1","1","",""
"","feedback","","html-keyboard-response","167","280548","0.0-1.0-222.0-0.0","0","0","15337","","null","","","null","24","","","","","","","","","","","","","","","",""
"","ITI","","html-keyboard-response","168","281574","0.0-1.0-225.0","0","0","15337","","null","","","null","24","","","","","","","","","","","","","","","NaN",""
"","S1","","html-keyboard-response","169","281869","0.0-1.0-227.0","0","0","15337","","null","","","null","25","","","","","","","","","","","","","","","",""
"","ISI","","html-keyboard-response","170","282889","0.0-1.0-228.0","0","0","15337","","null","","","null","25","NaN","","","","","","","","","","","","","","",""
"","S2","","html-keyboard-response","171","283155","0.0-1.0-229.0","0","0","15337","","null","","","null","25","","NaN","","","","","","","","","","","","","",""
"","response","","html-keyboard-response","172","283466","0.0-1.0-230.0-0.0","0","0","15337","","308","","","68","25","","","1","25","training","adjacent","DC","4","3","N.jpg","M.jpg","0","0","1","",""
"","feedback","","html-keyboard-response","173","284479","0.0-1.0-231.0-0.0","0","0","15337","","null","","","null","25","","","","","","","","","","","","","","","",""
"","ITI","","html-keyboard-response","174","285493","0.0-1.0-234.0","0","0","15337","","null","","","null","25","","","","","","","","","","","","","","","NaN",""
"","S1","","html-keyboard-response","175","285758","0.0-1.0-236.0","0","0","15337","","null","","","null","26","","","","","","","","","","","","","","","",""
"","ISI","","html-keyboard-response","176","286769","0.0-1.0-237.0","0","0","15337","","null","","","null","26","NaN","","","","","","","","","","","","","","",""
"","S2","","html-keyboard-response","177","287036","0.0-1.0-238.0","0","0","15337","","null","","","null","26","","NaN","","","","","","","","","","","","","",""
"","response","","html-keyboard-response","178","287260","0.0-1.0-239.0-0.0","0","0","15337","","221","","","68","26","","","1","26","training","adjacent","DE","4","5","N.jpg","P.jpg","0","1","0","",""
"","feedback","","html-keyboard-response","179","288278","0.0-1.0-240.0-0.0","0","0","15337","","null","","","null","26","","","","","","","","","","","","","","","",""
"","time_out","","html-keyboard-response","180","290290","0.0-1.0-242.0-0.0","0","0","15337","","null","","","null","26","","","","","","","","","","","","","","","",""
"","ITI","","html-keyboard-response","181","291316","0.0-1.0-243.0","0","0","15337","","null","","","null","26","","","","","","","","","","","","","","","NaN",""
"","S1","","html-keyboard-response","182","291585","0.0-1.0-245.0","0","0","15337","","null","","","null","27","","","","","","","","","","","","","","","",""
"","ISI","","html-keyboard-response","183","292598","0.0-1.0-246.0","0","0","15337","","null","","","null","27","NaN","","","","","","","","","","","","","","",""
"","S2","","html-keyboard-response","184","292878","0.0-1.0-247.0","0","0","15337","","null","","","null","27","","NaN","","","","","","","","","","","","","",""
"","response","","html-keyboard-response","185","293117","0.0-1.0-248.0-0.0","0","0","15337","","235","","","68","27","","","1","27","training","adjacent","CB","3","2","M.jpg","R.jpg","0","0","1","",""
"","feedback","","html-keyboard-response","186","294134","0.0-1.0-249.0-0.0","0","0","15337","","null","","","null","27","","","","","","","","","","","","","","","",""
"","ITI","","html-keyboard-response","187","295144","0.0-1.0-252.0","0","0","15337","","null","","","null","27","","","","","","","","","","","","","","","NaN",""
"","S1","","html-keyboard-response","188","295409","0.0-1.0-254.0","0","0","15337","","null","","","null","28","","","","","","","","","","","","","","","",""
"","ISI","","html-keyboard-response","189","296423","0.0-1.0-255.0","0","0","15337","","null","","","null","28","NaN","","","","","","","","","","","","","","",""
"","S2","","html-keyboard-response","190","296689","0.0-1.0-256.0","0","0","15337","","null","","","null","28","","NaN","","","","","","","","","","","","","",""
"","response","","html-keyboard-response","191","296957","0.0-1.0-257.0-0.0","0","0","15337","","264","","","75","28","","","1","28","training","adjacent","CD","3","4","M.jpg","N.jpg","1","1","1","",""
"","feedback","","html-keyboard-response","192","297966","0.0-1.0-258.0-0.0","0","0","15337","","null","","","null","28","","","","","","","","","","","","","","","",""
"","ITI","","html-keyboard-response","193","299001","0.0-1.0-261.0","0","0","15337","","null","","","null","28","","","","","","","","","","","","","","","NaN",""
"","S1","","html-keyboard-response","194","299267","0.0-1.0-263.0","0","0","15337","","null","","","null","29","","","","","","","","","","","","","","","",""
"","ISI","","html-keyboard-response","195","300285","0.0-1.0-264.0","0","0","15337","","null","","","null","29","NaN","","","","","","","","","","","","","","",""
"","S2","","html-keyboard-response","196","300552","0.0-1.0-265.0","0","0","15337","","null","","","null","29","","NaN","","","","","","","","","","","","","",""
"","response","","html-keyboard-response","197","301135","0.0-1.0-266.0-0.0","0","0","15337","","581","","","75","29","","","1","29","training","adjacent","DC","4","3","N.jpg","M.jpg","1","0","0","",""
"","feedback","","html-keyboard-response","198","302142","0.0-1.0-267.0-0.0","0","0","15337","","null","","","null","29","","","","","","","","","","","","","","","",""
"","time_out","","html-keyboard-response","199","304148","0.0-1.0-269.0-0.0","0","0","15337","","null","","","null","29","","","","","","","","","","","","","","","",""
"","ITI","","html-keyboard-response","200","305167","0.0-1.0-270.0","0","0","15337","","null","","","null","29","","","","","","","","","","","","","","","NaN",""
"","S1","","html-keyboard-response","201","305430","0.0-1.0-272.0","0","0","15337","","null","","","null","30","","","","","","","","","","","","","","","",""
"","ISI","","html-keyboard-response","202","306460","0.0-1.0-273.0","0","0","15337","","null","","","null","30","NaN","","","","","","","","","","","","","","",""
"","S2","","html-keyboard-response","203","306738","0.0-1.0-274.0","0","0","15337","","null","","","null","30","","NaN","","","","","","","","","","","","","",""
"","response","","html-keyboard-response","204","307048","0.0-1.0-275.0-0.0","0","0","15337","","306","","","68","30","","","1","30","training","adjacent","EF","5","6","P.jpg","O.jpg","0","1","0","",""
"","feedback","","html-keyboard-response","205","308058","0.0-1.0-276.0-0.0","0","0","15337","","null","","","null","30","","","","","","","","","","","","","","","",""
"","time_out","","html-keyboard-response","206","310065","0.0-1.0-278.0-0.0","0","0","15337","","null","","","null","30","","","","","","","","","","","","","","","",""
"","ITI","","html-keyboard-response","207","311073","0.0-1.0-279.0","0","0","15337","","null","","","null","30","","","","","","","","","","","","","","","NaN",""
"","S1","","html-keyboard-response","208","311337","0.0-1.0-281.0","0","0","15337","","null","","","null","31","","","","","","","","","","","","","","","",""
"","ISI","","html-keyboard-response","209","312379","0.0-1.0-282.0","0","0","15337","","null","","","null","31","NaN","","","","","","","","","","","","","","",""
"","S2","","html-keyboard-response","210","312642","0.0-1.0-283.0","0","0","15337","","null","","","null","31","","NaN","","","","","","","","","","","","","",""
"","response","","html-keyboard-response","211","313061","0.0-1.0-284.0-0.0","0","0","15337","","415","","","68","31","","","1","31","training","adjacent","CB","3","2","M.jpg","R.jpg","0","0","1","",""
"","feedback","","html-keyboard-response","212","314071","0.0-1.0-285.0-0.0","0","0","15337","","null","","","null","31","","","","","","","","","","","","","","","",""
"","ITI","","html-keyboard-response","213","315085","0.0-1.0-288.0","0","0","15337","","null","","","null","31","","","","","","","","","","","","","","","NaN",""
"","S1","","html-keyboard-response","214","315347","0.0-1.0-290.0","0","0","15337","","null","","","null","32","","","","","","","","","","","","","","","",""
"","ISI","","html-keyboard-response","215","316363","0.0-1.0-291.0","0","0","15337","","null","","","null","32","NaN","","","","","","","","","","","","","","",""
"","S2","","html-keyboard-response","216","316625","0.0-1.0-292.0","0","0","15337","","null","","","null","32","","NaN","","","","","","","","","","","","","",""
"","response","","html-keyboard-response","217","316886","0.0-1.0-293.0-0.0","0","0","15337","","258","","","75","32","","","1","32","training","adjacent","FG","6","7","O.jpg","L.jpg","1","1","1","",""
"","feedback","","html-keyboard-response","218","317902","0.0-1.0-294.0-0.0","0","0","15337","","null","","","null","32","","","","","","","","","","","","","","","",""
"","ITI","","html-keyboard-response","219","318911","0.0-1.0-297.0","0","0","15337","","null","","","null","32","","","","","","","","","","","","","","","NaN",""
"","S1","","html-keyboard-response","220","319190","0.0-1.0-299.0","0","0","15337","","null","","","null","33","","","","","","","","","","","","","","","",""
"","ISI","","html-keyboard-response","221","320207","0.0-1.0-300.0","0","0","15337","","null","","","null","33","NaN","","","","","","","","","","","","","","",""
"","S2","","html-keyboard-response","222","320471","0.0-1.0-301.0","0","0","15337","","null","","","null","33","","NaN","","","","","","","","","","","","","",""
"","response","","html-keyboard-response","223","320587","0.0-1.0-302.0-0.0","0","0","15337","","113","","","75","33","","","1","33","training","adjacent","AB","1","2","Q.jpg","R.jpg","1","1","1","",""
"","feedback","","html-keyboard-response","224","321598","0.0-1.0-303.0-0.0","0","0","15337","","null","","","null","33","","","","","","","","","","","","","","","",""
"","ITI","","html-keyboard-response","225","322617","0.0-1.0-306.0","0","0","15337","","null","","","null","33","","","","","","","","","","","","","","","NaN",""
"","S1","","html-keyboard-response","226","322881","0.0-1.0-308.0","0","0","15337","","null","","","null","34","","","","","","","","","","","","","","","",""
"","ISI","","html-keyboard-response","227","323883","0.0-1.0-309.0","0","0","15337","","null","","","null","34","NaN","","","","","","","","","","","","","","",""
"","S2","","html-keyboard-response","228","324152","0.0-1.0-310.0","0","0","15337","","null","","","null","34","","NaN","","","","","","","","","","","","","",""
"","response","","html-keyboard-response","229","324366","0.0-1.0-311.0-0.0","0","0","15337","","213","","","68","34","","","1","34","training","adjacent","BC","2","3","R.jpg","M.jpg","0","1","0","",""
"","feedback","","html-keyboard-response","230","325384","0.0-1.0-312.0-0.0","0","0","15337","","null","","","null","34","","","","","","","","","","","","","","","",""
"","time_out","","html-keyboard-response","231","327403","0.0-1.0-314.0-0.0","0","0","15337","","null","","","null","34","","","","","","","","","","","","","","","",""
"","ITI","","html-keyboard-response","232","328425","0.0-1.0-315.0","0","0","15337","","null","","","null","34","","","","","","","","","","","","","","","NaN",""
"","S1","","html-keyboard-response","233","328692","0.0-1.0-317.0","0","0","15337","","null","","","null","35","","","","","","","","","","","","","","","",""
"","ISI","","html-keyboard-response","234","329721","0.0-1.0-318.0","0","0","15337","","null","","","null","35","NaN","","","","","","","","","","","","","","",""
"","S2","","html-keyboard-response","235","329985","0.0-1.0-319.0","0","0","15337","","null","","","null","35","","NaN","","","","","","","","","","","","","",""
"","response","","html-keyboard-response","236","330087","0.0-1.0-320.0-0.0","0","0","15337","","99","","","68","35","","","1","35","training","adjacent","DE","4","5","N.jpg","P.jpg","0","1","0","",""
"","feedback","","html-keyboard-response","237","331095","0.0-1.0-321.0-0.0","0","0","15337","","null","","","null","35","","","","","","","","","","","","","","","",""
"","time_out","","html-keyboard-response","238","333113","0.0-1.0-323.0-0.0","0","0","15337","","null","","","null","35","","","","","","","","","","","","","","","",""
"","ITI","","html-keyboard-response","239","334123","0.0-1.0-324.0","0","0","15337","","null","","","null","35","","","","","","","","","","","","","","","NaN",""
"","S1","","html-keyboard-response","240","334388","0.0-1.0-326.0","0","0","15337","","null","","","null","36","","","","","","","","","","","","","","","",""
"","ISI","","html-keyboard-response","241","335415","0.0-1.0-327.0","0","0","15337","","null","","","null","36","NaN","","","","","","","","","","","","","","",""
"","S2","","html-keyboard-response","242","335683","0.0-1.0-328.0","0","0","15337","","null","","","null","36","","NaN","","","","","","","","","","","","","",""
"","response","","html-keyboard-response","243","335736","0.0-1.0-329.0-0.0","0","0","15337","","52","","","68","36","","","1","36","training","adjacent","ED","5","4","P.jpg","N.jpg","0","0","1","",""
"","feedback","","html-keyboard-response","244","336754","0.0-1.0-330.0-0.0","0","0","15337","","null","","","null","36","","","","","","","","","","","","","","","",""
"","ITI","","html-keyboard-response","245","337767","0.0-1.0-333.0","0","0","15337","","null","","","null","36","","","","","","","","","","","","","","","NaN",""
"","S1","","html-keyboard-response","246","338029","0.0-1.0-335.0","0","0","15337","","null","","","null","37","","","","","","","","","","","","","","","",""
"","ISI","","html-keyboard-response","247","339039","0.0-1.0-336.0","0","0","15337","","null","","","null","37","NaN","","","","","","","","","","","","","","",""
"","S2","","html-keyboard-response","248","339306","0.0-1.0-337.0","0","0","15337","","null","","","null","37","","NaN","","","","","","","","","","","","","",""
"","response","","html-keyboard-response","249","339368","0.0-1.0-338.0-0.0","0","0","15337","","58","","","75","37","","","1","37","training","adjacent","GF","7","6","L.jpg","O.jpg","1","0","0","",""
"","feedback","","html-keyboard-response","250","340377","0.0-1.0-339.0-0.0","0","0","15337","","null","","","null","37","","","","","","","","","","","","","","","",""
"","time_out","","html-keyboard-response","251","342400","0.0-1.0-341.0-0.0","0","0","15337","","null","","","null","37","","","","","","","","","","","","","","","",""
"","ITI","","html-keyboard-response","252","343430","0.0-1.0-342.0","0","0","15337","","null","","","null","37","","","","","","","","","","","","","","","NaN",""
"","S1","","html-keyboard-response","253","343692","0.0-1.0-344.0","0","0","15337","","null","","","null","38","","","","","","","","","","","","","","","",""
"","ISI","","html-keyboard-response","254","344721","0.0-1.0-345.0","0","0","15337","","null","","","null","38","NaN","","","","","","","","","","","","","","",""
"","S2","","html-keyboard-response","255","344988","0.0-1.0-346.0","0","0","15337","","null","","","null","38","","NaN","","","","","","","","","","","","","",""
"","response","","html-keyboard-response","256","345015","0.0-1.0-347.0-0.0","0","0","15337","","26","","","75","38","","","1","38","training","adjacent","ED","5","4","P.jpg","N.jpg","1","0","0","",""
"","feedback","","html-keyboard-response","257","346034","0.0-1.0-348.0-0.0","0","0","15337","","null","","","null","38","","","","","","","","","","","","","","","",""
"","time_out","","html-keyboard-response","258","348044","0.0-1.0-350.0-0.0","0","0","15337","","null","","","null","38","","","","","","","","","","","","","","","",""
"","ITI","","html-keyboard-response","259","349056","0.0-1.0-351.0","0","0","15337","","null","","","null","38","","","","","","","","","","","","","","","NaN",""
"","S1","","html-keyboard-response","260","349325","0.0-1.0-353.0","0","0","15337","","null","","","null","39","","","","","","","","","","","","","","","",""
"","ISI","","html-keyboard-response","261","350328","0.0-1.0-354.0","0","0","15337","","null","","","null","39","NaN","","","","","","","","","","","","","","",""
"","S2","","html-keyboard-response","262","350579","0.0-1.0-355.0","0","0","15337","","249","","","75","39","","k","1","39","training","adjacent","CD","3","4","M.jpg","N.jpg","1","1","1","",""
"","feedback","","html-keyboard-response","263","351592","0.0-1.0-357.0-0.0","0","0","15337","","null","","","null","39","","","","","","","","","","","","","","","",""
"","ITI","","html-keyboard-response","264","352602","0.0-1.0-360.0","0","0","15337","","null","","","null","39","","","","","","","","","","","","","","","NaN",""
"","S1","","html-keyboard-response","265","352869","0.0-1.0-362.0","0","0","15337","","null","","","null","40","","","","","","","","","","","","","","","",""
"","ISI","","html-keyboard-response","266","353879","0.0-1.0-363.0","0","0","15337","","null","","","null","40","NaN","","","","","","","","","","","","","","",""
"","S2","","html-keyboard-response","267","354146","0.0-1.0-364.0","0","0","15337","","null","","","null","40","","NaN","","","","","","","","","","","","","",""
"","response","","html-keyboard-response","268","354297","0.0-1.0-365.0-0.0","0","0","15337","","148","","","68","40","","","1","40","training","adjacent","CD","3","4","M.jpg","N.jpg","0","1","0","",""
"","feedback","","html-keyboard-response","269","355315","0.0-1.0-366.0-0.0","0","0","15337","","null","","","null","40","","","","","","","","","","","","","","","",""
"","time_out","","html-keyboard-response","270","357323","0.0-1.0-368.0-0.0","0","0","15337","","null","","","null","40","","","","","","","","","","","","","","","",""
"","ITI","","html-keyboard-response","271","358334","0.0-1.0-369.0","0","0","15337","","null","","","null","40","","","","","","","","","","","","","","","NaN",""
"","S1","","html-keyboard-response","272","358599","0.0-1.0-371.0","0","0","15337","","null","","","null","41","","","","","","","","","","","","","","","",""
"","ISI","","html-keyboard-response","273","359628","0.0-1.0-372.0","0","0","15337","","null","","","null","41","NaN","","","","","","","","","","","","","","",""
"","S2","","html-keyboard-response","274","359891","0.0-1.0-373.0","0","0","15337","","null","","","null","41","","NaN","","","","","","","","","","","","","",""
"","response","","html-keyboard-response","275","360005","0.0-1.0-374.0-0.0","0","0","15337","","112","","","75","41","","","1","41","training","adjacent","DC","4","3","N.jpg","M.jpg","1","0","0","",""
"","feedback","","html-keyboard-response","276","361016","0.0-1.0-375.0-0.0","0","0","15337","","null","","","null","41","","","","","","","","","","","","","","","",""
"","time_out","","html-keyboard-response","277","363026","0.0-1.0-377.0-0.0","0","0","15337","","null","","","null","41","","","","","","","","","","","","","","","",""
"","ITI","","html-keyboard-response","278","364039","0.0-1.0-378.0","0","0","15337","","null","","","null","41","","","","","","","","","","","","","","","NaN",""
"","S1","","html-keyboard-response","279","364301","0.0-1.0-380.0","0","0","15337","","null","","","null","42","","","","","","","","","","","","","","","",""
"","ISI","","html-keyboard-response","280","365331","0.0-1.0-381.0","0","0","15337","","null","","","null","42","NaN","","","","","","","","","","","","","","",""
"","S2","","html-keyboard-response","281","365596","0.0-1.0-382.0","0","0","15337","","null","","","null","42","","NaN","","","","","","","","","","","","","",""
"","response","","html-keyboard-response","282","366046","0.0-1.0-383.0-0.0","0","0","15337","","449","","","75","42","","","1","42","training","adjacent","BA","2","1","R.jpg","Q.jpg","1","0","0","",""
"","feedback","","html-keyboard-response","283","367050","0.0-1.0-384.0-0.0","0","0","15337","","null","","","null","42","","","","","","","","","","","","","","","",""
"","time_out","","html-keyboard-response","284","369059","0.0-1.0-386.0-0.0","0","0","15337","","null","","","null","42","","","","","","","","","","","","","","","",""
"","ITI","","html-keyboard-response","285","370077","0.0-1.0-387.0","0","0","15337","","null","","","null","42","","","","","","","","","","","","","","","NaN",""
"","S1","","html-keyboard-response","286","370338","0.0-1.0-389.0","0","0","15337","","null","","","null","43","","","","","","","","","","","","","","","",""
"","ISI","","html-keyboard-response","287","371356","0.0-1.0-390.0","0","0","15337","","null","","","null","43","NaN","","","","","","","","","","","","","","",""
"","S2","","html-keyboard-response","288","371623","0.0-1.0-391.0","0","0","15337","","null","","","null","43","","NaN","","","","","","","","","","","","","",""
"","response","","html-keyboard-response","289","371669","0.0-1.0-392.0-0.0","0","0","15337","","41","","","75","43","","","1","43","training","adjacent","GF","7","6","L.jpg","O.jpg","1","0","0","",""
"","feedback","","html-keyboard-response","290","372676","0.0-1.0-393.0-0.0","0","0","15337","","null","","","null","43","","","","","","","","","","","","","","","",""
"","time_out","","html-keyboard-response","291","374683","0.0-1.0-395.0-0.0","0","0","15337","","null","","","null","43","","","","","","","","","","","","","","","",""
"","ITI","","html-keyboard-response","292","375694","0.0-1.0-396.0","0","0","15337","","null","","","null","43","","","","","","","","","","","","","","","NaN",""
"","S1","","html-keyboard-response","293","375960","0.0-1.0-398.0","0","0","15337","","null","","","null","44","","","","","","","","","","","","","","","",""
"","ISI","","html-keyboard-response","294","377003","0.0-1.0-399.0","0","0","15337","","null","","","null","44","NaN","","","","","","","","","","","","","","",""
"","S2","","html-keyboard-response","295","377267","0.0-1.0-400.0","0","0","15337","","null","","","null","44","","NaN","","","","","","","","","","","","","",""
"","response","","html-keyboard-response","296","377481","0.0-1.0-401.0-0.0","0","0","15337","","211","","","68","44","","","1","44","training","adjacent","GF","7","6","L.jpg","O.jpg","0","0","1","",""
"","feedback","","html-keyboard-response","297","378491","0.0-1.0-402.0-0.0","0","0","15337","","null","","","null","44","","","","","","","","","","","","","","","",""
"","ITI","","html-keyboard-response","298","379506","0.0-1.0-405.0","0","0","15337","","null","","","null","44","","","","","","","","","","","","","","","NaN",""
"","S1","","html-keyboard-response","299","379771","0.0-1.0-407.0","0","0","15337","","null","","","null","45","","","","","","","","","","","","","","","",""
"","ISI","","html-keyboard-response","300","380786","0.0-1.0-408.0","0","0","15337","","null","","","null","45","NaN","","","","","","","","","","","","","","",""
"","S2","","html-keyboard-response","301","381051","0.0-1.0-409.0","0","0","15337","","null","","","null","45","","NaN","","","","","","","","","","","","","",""
"","response","","html-keyboard-response","302","381266","0.0-1.0-410.0-0.0","0","0","15337","","213","","","75","45","","","1","45","training","adjacent","EF","5","6","P.jpg","O.jpg","1","1","1","",""
"","feedback","","html-keyboard-response","303","382280","0.0-1.0-411.0-0.0","0","0","15337","","null","","","null","45","","","","","","","","","","","","","","","",""
"","ITI","","html-keyboard-response","304","383304","0.0-1.0-414.0","0","0","15337","","null","","","null","45","","","","","","","","","","","","","","","NaN",""
"","S1","","html-keyboard-response","305","383570","0.0-1.0-416.0","0","0","15337","","null","","","null","46","","","","","","","","","","","","","","","",""
"","ISI","","html-keyboard-response","306","384581","0.0-1.0-417.0","0","0","15337","","null","","","null","46","NaN","","","","","","","","","","","","","","",""
"","S2","","html-keyboard-response","307","384860","0.0-1.0-418.0","0","0","15337","","null","","","null","46","","NaN","","","","","","","","","","","","","",""
"","response","","html-keyboard-response","308","385580","0.0-1.0-419.0-0.0","0","0","15337","","715","","","75","46","","","1","46","training","adjacent","BA","2","1","R.jpg","Q.jpg","1","0","0","",""
"","feedback","","html-keyboard-response","309","386593","0.0-1.0-420.0-0.0","0","0","15337","","null","","","null","46","","","","","","","","","","","","","","","",""
"","time_out","","html-keyboard-response","310","388600","0.0-1.0-422.0-0.0","0","0","15337","","null","","","null","46","","","","","","","","","","","","","","","",""
"","ITI","","html-keyboard-response","311","389617","0.0-1.0-423.0","0","0","15337","","671","","","68","46","","","","","","","","","","","","","","","d",""
"","S1","","html-keyboard-response","312","389882","0.0-1.0-425.0","0","0","15337","","null","","","null","47","","","","","","","","","","","","","","","",""
"","ISI","","html-keyboard-response","313","390920","0.0-1.0-426.0","0","0","15337","","null","","","null","47","NaN","","","","","","","","","","","","","","",""
"","S2","","html-keyboard-response","314","391185","0.0-1.0-427.0","0","0","15337","","null","","","null","47","","NaN","","","","","","","","","","","","","",""
"","response","","html-keyboard-response","315","391439","0.0-1.0-428.0-0.0","0","0","15337","","250","","","68","47","","","1","47","training","adjacent","BA","2","1","R.jpg","Q.jpg","0","0","1","",""
"","feedback","","html-keyboard-response","316","392448","0.0-1.0-429.0-0.0","0","0","15337","","null","","","null","47","","","","","","","","","","","","","","","",""
"","ITI","","html-keyboard-response","317","393459","0.0-1.0-432.0","0","0","15337","","null","","","null","47","","","","","","","","","","","","","","","NaN",""
"","block_over","","html-keyboard-response","318","402692","0.0-1.0-433.0-0.0","0","0","15337","","9229","","","32","47","","","","","","","","","","","","","","","",""
"","S1","","html-keyboard-response","319","402953","0.0-1.0-434.0","0","0","15337","","null","","","null","48","","","","","","","","","","","","","","","",""
"","ISI","","html-keyboard-response","320","403963","0.0-1.0-435.0","0","0","15337","","null","","","null","48","NaN","","","","","","","","","","","","","","",""
"","S2","","html-keyboard-response","321","404224","0.0-1.0-436.0","0","0","15337","","null","","","null","48","","NaN","","","","","","","","","","","","","",""
"","response","","html-keyboard-response","322","405077","0.0-1.0-437.0-0.0","0","0","15337","","850","","","75","48","","","2","48","training","adjacent","CB","3","2","M.jpg","R.jpg","1","0","0","",""
"","feedback","","html-keyboard-response","323","406089","0.0-1.0-438.0-0.0","0","0","15337","","null","","","null","48","","","","","","","","","","","","","","","",""
"","time_out","","html-keyboard-response","324","408100","0.0-1.0-440.0-0.0","0","0","15337","","null","","","null","48","","","","","","","","","","","","","","","",""
"","ITI","","html-keyboard-response","325","409127","0.0-1.0-441.0","0","0","15337","","null","","","null","48","","","","","","","","","","","","","","","NaN",""
"","S1","","html-keyboard-response","326","409394","0.0-1.0-443.0","0","0","15337","","null","","","null","49","","","","","","","","","","","","","","","",""
"","ISI","","html-keyboard-response","327","410424","0.0-1.0-444.0","0","0","15337","","null","","","null","49","NaN","","","","","","","","","","","","","","",""
"","S2","","html-keyboard-response","328","410686","0.0-1.0-445.0","0","0","15337","","null","","","null","49","","NaN","","","","","","","","","","","","","",""
"","response","","html-keyboard-response","329","411048","0.0-1.0-446.0-0.0","0","0","15337","","359","","","75","49","","","2","49","training","adjacent","ED","5","4","P.jpg","N.jpg","1","0","0","",""
"","feedback","","html-keyboard-response","330","412057","0.0-1.0-447.0-0.0","0","0","15337","","null","","","null","49","","","","","","","","","","","","","","","",""
"","time_out","","html-keyboard-response","331","414073","0.0-1.0-449.0-0.0","0","0","15337","","null","","","null","49","","","","","","","","","","","","","","","",""
"","ITI","","html-keyboard-response","332","415078","0.0-1.0-450.0","0","0","15337","","null","","","null","49","","","","","","","","","","","","","","","NaN",""
"","S1","","html-keyboard-response","333","415344","0.0-1.0-452.0","0","0","15337","","null","","","null","50","","","","","","","","","","","","","","","",""
"","ISI","","html-keyboard-response","334","416354","0.0-1.0-453.0","0","0","15337","","null","","","null","50","NaN","","","","","","","","","","","","","","",""
"","S2","","html-keyboard-response","335","416617","0.0-1.0-454.0","0","0","15337","","261","","","75","50","","k","2","50","training","adjacent","EF","5","6","P.jpg","O.jpg","1","1","1","",""
"","feedback","","html-keyboard-response","336","417624","0.0-1.0-456.0-0.0","0","0","15337","","null","","","null","50","","","","","","","","","","","","","","","",""
"","ITI","","html-keyboard-response","337","418636","0.0-1.0-459.0","0","0","15337","","null","","","null","50","","","","","","","","","","","","","","","NaN",""
"","S1","","html-keyboard-response","338","418901","0.0-1.0-461.0","0","0","15337","","null","","","null","51","","","","","","","","","","","","","","","",""
"","ISI","","html-keyboard-response","339","419913","0.0-1.0-462.0","0","0","15337","","null","","","null","51","NaN","","","","","","","","","","","","","","",""
"","S2","","html-keyboard-response","340","420179","0.0-1.0-463.0","0","0","15337","","null","","","null","51","","NaN","","","","","","","","","","","","","",""
"","response","","html-keyboard-response","341","420389","0.0-1.0-464.0-0.0","0","0","15337","","206","","","68","51","","","2","51","training","adjacent","BA","2","1","R.jpg","Q.jpg","0","0","1","",""
"","feedback","","html-keyboard-response","342","421396","0.0-1.0-465.0-0.0","0","0","15337","","null","","","null","51","","","","","","","","","","","","","","","",""
"","ITI","","html-keyboard-response","343","422410","0.0-1.0-468.0","0","0","15337","","null","","","null","51","","","","","","","","","","","","","","","NaN",""
"","S1","","html-keyboard-response","344","422688","0.0-1.0-470.0","0","0","15337","","null","","","null","52","","","","","","","","","","","","","","","",""
"","ISI","","html-keyboard-response","345","423704","0.0-1.0-471.0","0","0","15337","","null","","","null","52","NaN","","","","","","","","","","","","","","",""
"","S2","","html-keyboard-response","346","423984","0.0-1.0-472.0","0","0","15337","","null","","","null","52","","NaN","","","","","","","","","","","","","",""
"","response","","html-keyboard-response","347","424179","0.0-1.0-473.0-0.0","0","0","15337","","191","","","68","52","","","2","52","training","adjacent","DE","4","5","N.jpg","P.jpg","0","1","0","",""
"","feedback","","html-keyboard-response","348","425194","0.0-1.0-474.0-0.0","0","0","15337","","null","","","null","52","","","","","","","","","","","","","","","",""
"","time_out","","html-keyboard-response","349","427203","0.0-1.0-476.0-0.0","0","0","15337","","null","","","null","52","","","","","","","","","","","","","","","",""
"","ITI","","html-keyboard-response","350","428216","0.0-1.0-477.0","0","0","15337","","null","","","null","52","","","","","","","","","","","","","","","NaN",""
"","S1","","html-keyboard-response","351","428481","0.0-1.0-479.0","0","0","15337","","null","","","null","53","","","","","","","","","","","","","","","",""
"","ISI","","html-keyboard-response","352","429495","0.0-1.0-480.0","0","0","15337","","null","","","null","53","NaN","","","","","","","","","","","","","","",""
"","S2","","html-keyboard-response","353","429762","0.0-1.0-481.0","0","0","15337","","null","","","null","53","","NaN","","","","","","","","","","","","","",""
"","response","","html-keyboard-response","354","430154","0.0-1.0-482.0-0.0","0","0","15337","","388","","","68","53","","","2","53","training","adjacent","DC","4","3","N.jpg","M.jpg","0","0","1","",""
"","feedback","","html-keyboard-response","355","431170","0.0-1.0-483.0-0.0","0","0","15337","","null","","","null","53","","","","","","","","","","","","","","","",""
"","ITI","","html-keyboard-response","356","432182","0.0-1.0-486.0","0","0","15337","","null","","","null","53","","","","","","","","","","","","","","","NaN",""
"","S1","","html-keyboard-response","357","432451","0.0-1.0-488.0","0","0","15337","","null","","","null","54","","","","","","","","","","","","","","","",""
"","ISI","","html-keyboard-response","358","433457","0.0-1.0-489.0","0","0","15337","","null","","","null","54","NaN","","","","","","","","","","","","","","",""
"","S2","","html-keyboard-response","359","433722","0.0-1.0-490.0","0","0","15337","","null","","","null","54","","NaN","","","","","","","","","","","","","",""
"","response","","html-keyboard-response","360","433818","0.0-1.0-491.0-0.0","0","0","15337","","93","","","75","54","","","2","54","training","adjacent","ED","5","4","P.jpg","N.jpg","1","0","0","",""
"","feedback","","html-keyboard-response","361","434830","0.0-1.0-492.0-0.0","0","0","15337","","null","","","null","54","","","","","","","","","","","","","","","",""
"","time_out","","html-keyboard-response","362","436841","0.0-1.0-494.0-0.0","0","0","15337","","null","","","null","54","","","","","","","","","","","","","","","",""
"","ITI","","html-keyboard-response","363","437859","0.0-1.0-495.0","0","0","15337","","null","","","null","54","","","","","","","","","","","","","","","NaN",""
"","S1","","html-keyboard-response","364","438139","0.0-1.0-497.0","0","0","15337","","null","","","null","55","","","","","","","","","","","","","","","",""
"","ISI","","html-keyboard-response","365","439153","0.0-1.0-498.0","0","0","15337","","null","","","null","55","NaN","","","","","","","","","","","","","","",""
"","S2","","html-keyboard-response","366","439434","0.0-1.0-499.0","0","0","15337","","null","","","null","55","","NaN","","","","","","","","","","","","","",""
"","response","","html-keyboard-response","367","439610","0.0-1.0-500.0-0.0","0","0","15337","","172","","","75","55","","","2","55","training","adjacent","ED","5","4","P.jpg","N.jpg","1","0","0","",""
"","feedback","","html-keyboard-response","368","440623","0.0-1.0-501.0-0.0","0","0","15337","","null","","","null","55","","","","","","","","","","","","","","","",""
"","time_out","","html-keyboard-response","369","442631","0.0-1.0-503.0-0.0","0","0","15337","","null","","","null","55","","","","","","","","","","","","","","","",""
"","ITI","","html-keyboard-response","370","443643","0.0-1.0-504.0","0","0","15337","","null","","","null","55","","","","","","","","","","","","","","","NaN",""
"","S1","","html-keyboard-response","371","443907","0.0-1.0-506.0","0","0","15337","","null","","","null","56","","","","","","","","","","","","","","","",""
"","ISI","","html-keyboard-response","372","444951","0.0-1.0-507.0","0","0","15337","","null","","","null","56","NaN","","","","","","","","","","","","","","",""
"","S2","","html-keyboard-response","373","445212","0.0-1.0-508.0","0","0","15337","","259","","","75","56","","k","2","56","training","adjacent","AB","1","2","Q.jpg","R.jpg","1","1","1","",""
"","feedback","","html-keyboard-response","374","446226","0.0-1.0-510.0-0.0","0","0","15337","","null","","","null","56","","","","","","","","","","","","","","","",""
"","ITI","","html-keyboard-response","375","447240","0.0-1.0-513.0","0","0","15337","","null","","","null","56","","","","","","","","","","","","","","","NaN",""
"","S1","","html-keyboard-response","376","447505","0.0-1.0-515.0","0","0","15337","","null","","","null","57","","","","","","","","","","","","","","","",""
"","ISI","","html-keyboard-response","377","448519","0.0-1.0-516.0","0","0","15337","","null","","","null","57","NaN","","","","","","","","","","","","","","",""
"","S2","","html-keyboard-response","378","448784","0.0-1.0-517.0","0","0","15337","","null","","","null","57","","NaN","","","","","","","","","","","","","",""
"","response","","html-keyboard-response","379","449110","0.0-1.0-518.0-0.0","0","0","15337","","322","","","68","57","","","2","57","training","adjacent","FE","6","5","O.jpg","P.jpg","0","0","1","",""
"","feedback","","html-keyboard-response","380","450121","0.0-1.0-519.0-0.0","0","0","15337","","null","","","null","57","","","","","","","","","","","","","","","",""
"","ITI","","html-keyboard-response","381","451161","0.0-1.0-522.0","0","0","15337","","null","","","null","57","","","","","","","","","","","","","","","NaN",""
"","S1","","html-keyboard-response","382","451425","0.0-1.0-524.0","0","0","15337","","null","","","null","58","","","","","","","","","","","","","","","",""
"","ISI","","html-keyboard-response","383","452439","0.0-1.0-525.0","0","0","15337","","null","","","null","58","NaN","","","","","","","","","","","","","","",""
"","S2","","html-keyboard-response","384","452721","0.0-1.0-526.0","0","0","15337","","null","","","null","58","","NaN","","","","","","","","","","","","","",""
"","response","","html-keyboard-response","385","453097","0.0-1.0-527.0-0.0","0","0","15337","","374","","","68","58","","","2","58","training","adjacent","FE","6","5","O.jpg","P.jpg","0","0","1","",""
"","feedback","","html-keyboard-response","386","454107","0.0-1.0-528.0-0.0","0","0","15337","","null","","","null","58","","","","","","","","","","","","","","","",""
"","ITI","","html-keyboard-response","387","455122","0.0-1.0-531.0","0","0","15337","","null","","","null","58","","","","","","","","","","","","","","","NaN",""
"","S1","","html-keyboard-response","388","455389","0.0-1.0-533.0","0","0","15337","","null","","","null","59","","","","","","","","","","","","","","","",""
"","ISI","","html-keyboard-response","389","456404","0.0-1.0-534.0","0","0","15337","","null","","","null","59","NaN","","","","","","","","","","","","","","",""
"","S2","","html-keyboard-response","390","456669","0.0-1.0-535.0","0","0","15337","","null","","","null","59","","NaN","","","","","","","","","","","","","",""
"","response","","html-keyboard-response","391","457024","0.0-1.0-536.0-0.0","0","0","15337","","351","","","68","59","","","2","59","training","adjacent","BA","2","1","R.jpg","Q.jpg","0","0","1","",""
"","feedback","","html-keyboard-response","392","458037","0.0-1.0-537.0-0.0","0","0","15337","","null","","","null","59","","","","","","","","","","","","","","","",""
"","ITI","","html-keyboard-response","393","459082","0.0-1.0-540.0","0","0","15337","","null","","","null","59","","","","","","","","","","","","","","","NaN",""
"","S1","","html-keyboard-response","394","459351","0.0-1.0-542.0","0","0","15337","","null","","","null","60","","","","","","","","","","","","","","","",""
"","ISI","","html-keyboard-response","395","460365","0.0-1.0-543.0","0","0","15337","","null","","","null","60","NaN","","","","","","","","","","","","","","",""
"","S2","","html-keyboard-response","396","460633","0.0-1.0-544.0","0","0","15337","","null","","","null","60","","NaN","","","","","","","","","","","","","",""
"","response","","html-keyboard-response","397","460740","0.0-1.0-545.0-0.0","0","0","15337","","103","","","75","60","","","2","60","training","adjacent","FG","6","7","O.jpg","L.jpg","1","1","1","",""
"","feedback","","html-keyboard-response","398","461759","0.0-1.0-546.0-0.0","0","0","15337","","null","","","null","60","","","","","","","","","","","","","","","",""
"","ITI","","html-keyboard-response","399","462773","0.0-1.0-549.0","0","0","15337","","null","","","null","60","","","","","","","","","","","","","","","NaN",""
"","S1","","html-keyboard-response","400","463040","0.0-1.0-551.0","0","0","15337","","null","","","null","61","","","","","","","","","","","","","","","",""
"","ISI","","html-keyboard-response","401","464052","0.0-1.0-552.0","0","0","15337","","null","","","null","61","NaN","","","","","","","","","","","","","","",""
"","S2","","html-keyboard-response","402","464316","0.0-1.0-553.0","0","0","15337","","null","","","null","61","","NaN","","","","","","","","","","","","","",""
"","response","","html-keyboard-response","403","464520","0.0-1.0-554.0-0.0","0","0","15337","","200","","","75","61","","","2","61","training","adjacent","AB","1","2","Q.jpg","R.jpg","1","1","1","",""
"","feedback","","html-keyboard-response","404","465527","0.0-1.0-555.0-0.0","0","0","15337","","null","","","null","61","","","","","","","","","","","","","","","",""
"","ITI","","html-keyboard-response","405","466549","0.0-1.0-558.0","0","0","15337","","null","","","null","61","","","","","","","","","","","","","","","NaN",""
"","S1","","html-keyboard-response","406","466817","0.0-1.0-560.0","0","0","15337","","null","","","null","62","","","","","","","","","","","","","","","",""
"","ISI","","html-keyboard-response","407","467843","0.0-1.0-561.0","0","0","15337","","null","","","null","62","NaN","","","","","","","","","","","","","","",""
"","S2","","html-keyboard-response","408","468107","0.0-1.0-562.0","0","0","15337","","null","","","null","62","","NaN","","","","","","","","","","","","","",""
"","response","","html-keyboard-response","409","468343","0.0-1.0-563.0-0.0","0","0","15337","","233","","","75","62","","","2","62","training","adjacent","FE","6","5","O.jpg","P.jpg","1","0","0","",""
"","feedback","","html-keyboard-response","410","469362","0.0-1.0-564.0-0.0","0","0","15337","","null","","","null","62","","","","","","","","","","","","","","","",""
"","time_out","","html-keyboard-response","411","471368","0.0-1.0-566.0-0.0","0","0","15337","","null","","","null","62","","","","","","","","","","","","","","","",""
"","ITI","","html-keyboard-response","412","472380","0.0-1.0-567.0","0","0","15337","","null","","","null","62","","","","","","","","","","","","","","","NaN",""
"","S1","","html-keyboard-response","413","472644","0.0-1.0-569.0","0","0","15337","","null","","","null","63","","","","","","","","","","","","","","","",""
"","ISI","","html-keyboard-response","414","473655","0.0-1.0-570.0","0","0","15337","","null","","","null","63","NaN","","","","","","","","","","","","","","",""
"","S2","","html-keyboard-response","415","473918","0.0-1.0-571.0","0","0","15337","","null","","","null","63","","NaN","","","","","","","","","","","","","",""
"","response","","html-keyboard-response","416","474088","0.0-1.0-572.0-0.0","0","0","15337","","167","","","68","63","","","2","63","training","adjacent","FG","6","7","O.jpg","L.jpg","0","1","0","",""
"","feedback","","html-keyboard-response","417","475106","0.0-1.0-573.0-0.0","0","0","15337","","null","","","null","63","","","","","","","","","","","","","","","",""
"","time_out","","html-keyboard-response","418","477110","0.0-1.0-575.0-0.0","0","0","15337","","null","","","null","63","","","","","","","","","","","","","","","",""
"","ITI","","html-keyboard-response","419","478123","0.0-1.0-576.0","0","0","15337","","null","","","null","63","","","","","","","","","","","","","","","NaN",""
"","S1","","html-keyboard-response","420","478388","0.0-1.0-578.0","0","0","15337","","null","","","null","64","","","","","","","","","","","","","","","",""
"","ISI","","html-keyboard-response","421","479418","0.0-1.0-579.0","0","0","15337","","null","","","null","64","NaN","","","","","","","","","","","","","","",""
"","S2","","html-keyboard-response","422","479682","0.0-1.0-580.0","0","0","15337","","null","","","null","64","","NaN","","","","","","","","","","","","","",""
"","response","","html-keyboard-response","423","479763","0.0-1.0-581.0-0.0","0","0","15337","","77","","","68","64","","","2","64","training","adjacent","ED","5","4","P.jpg","N.jpg","0","0","1","",""
"","feedback","","html-keyboard-response","424","480773","0.0-1.0-582.0-0.0","0","0","15337","","null","","","null","64","","","","","","","","","","","","","","","",""
"","ITI","","html-keyboard-response","425","481788","0.0-1.0-585.0","0","0","15337","","null","","","null","64","","","","","","","","","","","","","","","NaN",""
"","S1","","html-keyboard-response","426","482052","0.0-1.0-587.0","0","0","15337","","null","","","null","65","","","","","","","","","","","","","","","",""
"","ISI","","html-keyboard-response","427","483069","0.0-1.0-588.0","0","0","15337","","null","","","null","65","NaN","","","","","","","","","","","","","","",""
"","S2","","html-keyboard-response","428","483334","0.0-1.0-589.0","0","0","15337","","null","","","null","65","","NaN","","","","","","","","","","","","","",""
"","response","","html-keyboard-response","429","483960","0.0-1.0-590.0-0.0","0","0","15337","","621","","","75","65","","","2","65","training","adjacent","AB","1","2","Q.jpg","R.jpg","1","1","1","",""
"","feedback","","html-keyboard-response","430","485002","0.0-1.0-591.0-0.0","0","0","15337","","null","","","null","65","","","","","","","","","","","","","","","",""
"","ITI","","html-keyboard-response","431","486016","0.0-1.0-594.0","0","0","15337","","null","","","null","65","","","","","","","","","","","","","","","NaN",""
"","S1","","html-keyboard-response","432","486281","0.0-1.0-596.0","0","0","15337","","null","","","null","66","","","","","","","","","","","","","","","",""
"","ISI","","html-keyboard-response","433","487308","0.0-1.0-597.0","0","0","15337","","null","","","null","66","NaN","","","","","","","","","","","","","","",""
"","S2","","html-keyboard-response","434","487573","0.0-1.0-598.0","0","0","15337","","null","","","null","66","","NaN","","","","","","","","","","","","","",""
"","response","","html-keyboard-response","435","487740","0.0-1.0-599.0-0.0","0","0","15337","","164","","","75","66","","","2","66","training","adjacent","CB","3","2","M.jpg","R.jpg","1","0","0","",""
"","feedback","","html-keyboard-response","436","488754","0.0-1.0-600.0-0.0","0","0","15337","","null","","","null","66","","","","","","","","","","","","","","","",""
"","time_out","","html-keyboard-response","437","490763","0.0-1.0-602.0-0.0","0","0","15337","","null","","","null","66","","","","","","","","","","","","","","","",""
"","ITI","","html-keyboard-response","438","491774","0.0-1.0-603.0","0","0","15337","","null","","","null","66","","","","","","","","","","","","","","","NaN",""
"","S1","","html-keyboard-response","439","492036","0.0-1.0-605.0","0","0","15337","","null","","","null","67","","","","","","","","","","","","","","","",""
"","ISI","","html-keyboard-response","440","493062","0.0-1.0-606.0","0","0","15337","","null","","","null","67","NaN","","","","","","","","","","","","","","",""
"","S2","","html-keyboard-response","441","493339","0.0-1.0-607.0","0","0","15337","","null","","","null","67","","NaN","","","","","","","","","","","","","",""
"","response","","html-keyboard-response","442","493361","0.0-1.0-608.0-0.0","0","0","15337","","20","","","75","67","","","2","67","training","adjacent","GF","7","6","L.jpg","O.jpg","1","0","0","",""
"","feedback","","html-keyboard-response","443","494370","0.0-1.0-609.0-0.0","0","0","15337","","null","","","null","67","","","","","","","","","","","","","","","",""
"","time_out","","html-keyboard-response","444","496390","0.0-1.0-611.0-0.0","0","0","15337","","null","","","null","67","","","","","","","","","","","","","","","",""
"","ITI","","html-keyboard-response","445","497404","0.0-1.0-612.0","0","0","15337","","null","","","null","67","","","","","","","","","","","","","","","NaN",""
"","S1","","html-keyboard-response","446","497668","0.0-1.0-614.0","0","0","15337","","null","","","null","68","","","","","","","","","","","","","","","",""
"","ISI","","html-keyboard-response","447","498708","0.0-1.0-615.0","0","0","15337","","null","","","null","68","NaN","","","","","","","","","","","","","","",""
"","S2","","html-keyboard-response","448","498976","0.0-1.0-616.0","0","0","15337","","null","","","null","68","","NaN","","","","","","","","","","","","","",""
"","response","","html-keyboard-response","449","498990","0.0-1.0-617.0-0.0","0","0","15337","","11","","","75","68","","","2","68","training","adjacent","CB","3","2","M.jpg","R.jpg","1","0","0","",""
"","feedback","","html-keyboard-response","450","500001","0.0-1.0-618.0-0.0","0","0","15337","","null","","","null","68","","","","","","","","","","","","","","","",""
"","time_out","","html-keyboard-response","451","502005","0.0-1.0-620.0-0.0","0","0","15337","","null","","","null","68","","","","","","","","","","","","","","","",""
"","ITI","","html-keyboard-response","452","503019","0.0-1.0-621.0","0","0","15337","","null","","","null","68","","","","","","","","","","","","","","","NaN",""
"","S1","","html-keyboard-response","453","503285","0.0-1.0-623.0","0","0","15337","","null","","","null","69","","","","","","","","","","","","","","","",""
"","ISI","","html-keyboard-response","454","504313","0.0-1.0-624.0","0","0","15337","","null","","","null","69","NaN","","","","","","","","","","","","","","",""
"","S2","","html-keyboard-response","455","504594","0.0-1.0-625.0","0","0","15337","","null","","","null","69","","NaN","","","","","","","","","","","","","",""
"","response","","html-keyboard-response","456","504630","0.0-1.0-626.0-0.0","0","0","15337","","33","","","75","69","","","2","69","training","adjacent","GF","7","6","L.jpg","O.jpg","1","0","0","",""
"","feedback","","html-keyboard-response","457","505648","0.0-1.0-627.0-0.0","0","0","15337","","null","","","null","69","","","","","","","","","","","","","","","",""
"","time_out","","html-keyboard-response","458","507659","0.0-1.0-629.0-0.0","0","0","15337","","null","","","null","69","","","","","","","","","","","","","","","",""
"","ITI","","html-keyboard-response","459","508666","0.0-1.0-630.0","0","0","15337","","null","","","null","69","","","","","","","","","","","","","","","NaN",""
"","S1","","html-keyboard-response","460","508930","0.0-1.0-632.0","0","0","15337","","null","","","null","70","","","","","","","","","","","","","","","",""
"","ISI","","html-keyboard-response","461","509959","0.0-1.0-633.0","0","0","15337","","null","","","null","70","NaN","","","","","","","","","","","","","","",""
"","S2","","html-keyboard-response","462","510224","0.0-1.0-634.0","0","0","15337","","null","","","null","70","","NaN","","","","","","","","","","","","","",""
"","response","","html-keyboard-response","463","510750","0.0-1.0-635.0-0.0","0","0","15337","","523","","","68","70","","","2","70","training","adjacent","DC","4","3","N.jpg","M.jpg","0","0","1","",""
"","feedback","","html-keyboard-response","464","511764","0.0-1.0-636.0-0.0","0","0","15337","","null","","","null","70","","","","","","","","","","","","","","","",""
"","ITI","","html-keyboard-response","465","512777","0.0-1.0-639.0","0","0","15337","","null","","","null","70","","","","","","","","","","","","","","","NaN",""
"","S1","","html-keyboard-response","466","513042","0.0-1.0-641.0","0","0","15337","","null","","","null","71","","","","","","","","","","","","","","","",""
"","ISI","","html-keyboard-response","467","514054","0.0-1.0-642.0","0","0","15337","","null","","","null","71","NaN","","","","","","","","","","","","","","",""
"","S2","","html-keyboard-response","468","514316","0.0-1.0-643.0","0","0","15337","","null","","","null","71","","NaN","","","","","","","","","","","","","",""
"","response","","html-keyboard-response","469","514400","0.0-1.0-644.0-0.0","0","0","15337","","80","","","75","71","","","2","71","training","adjacent","CD","3","4","M.jpg","N.jpg","1","1","1","",""
"","feedback","","html-keyboard-response","470","515409","0.0-1.0-645.0-0.0","0","0","15337","","null","","","null","71","","","","","","","","","","","","","","","",""
"","ITI","","html-keyboard-response","471","516436","0.0-1.0-648.0","0","0","15337","","null","","","null","71","","","","","","","","","","","","","","","NaN",""
"","S1","","html-keyboard-response","472","516699","0.0-1.0-650.0","0","0","15337","","null","","","null","72","","","","","","","","","","","","","","","",""
"","ISI","","html-keyboard-response","473","517729","0.0-1.0-651.0","0","0","15337","","null","","","null","72","NaN","","","","","","","","","","","","","","",""
"","S2","","html-keyboard-response","474","517994","0.0-1.0-652.0","0","0","15337","","null","","","null","72","","NaN","","","","","","","","","","","","","",""
"","response","","html-keyboard-response","475","518129","0.0-1.0-653.0-0.0","0","0","15337","","133","","","75","72","","","2","72","training","adjacent","DE","4","5","N.jpg","P.jpg","1","1","1","",""
"","feedback","","html-keyboard-response","476","519144","0.0-1.0-654.0-0.0","0","0","15337","","null","","","null","72","","","","","","","","","","","","","","","",""
"","ITI","","html-keyboard-response","477","520156","0.0-1.0-657.0","0","0","15337","","null","","","null","72","","","","","","","","","","","","","","","NaN",""
"","S1","","html-keyboard-response","478","520421","0.0-1.0-659.0","0","0","15337","","null","","","null","73","","","","","","","","","","","","","","","",""
"","ISI","","html-keyboard-response","479","521436","0.0-1.0-660.0","0","0","15337","","null","","","null","73","NaN","","","","","","","","","","","","","","",""
"","S2","","html-keyboard-response","480","521700","0.0-1.0-661.0","0","0","15337","","null","","","null","73","","NaN","","","","","","","","","","","","","",""
"","response","","html-keyboard-response","481","521820","0.0-1.0-662.0-0.0","0","0","15337","","117","","","75","73","","","2","73","training","adjacent","DE","4","5","N.jpg","P.jpg","1","1","1","",""
"","feedback","","html-keyboard-response","482","522831","0.0-1.0-663.0-0.0","0","0","15337","","null","","","null","73","","","","","","","","","","","","","","","",""
"","ITI","","html-keyboard-response","483","523844","0.0-1.0-666.0","0","0","15337","","null","","","null","73","","","","","","","","","","","","","","","NaN",""
"","S1","","html-keyboard-response","484","524109","0.0-1.0-668.0","0","0","15337","","null","","","null","74","","","","","","","","","","","","","","","",""
"","ISI","","html-keyboard-response","485","525139","0.0-1.0-669.0","0","0","15337","","null","","","null","74","NaN","","","","","","","","","","","","","","",""
"","S2","","html-keyboard-response","486","525404","0.0-1.0-670.0","0","0","15337","","null","","","null","74","","NaN","","","","","","","","","","","","","",""
"","response","","html-keyboard-response","487","525681","0.0-1.0-671.0-0.0","0","0","15337","","273","","","68","74","","","2","74","training","adjacent","DC","4","3","N.jpg","M.jpg","0","0","1","",""
"","feedback","","html-keyboard-response","488","526694","0.0-1.0-672.0-0.0","0","0","15337","","null","","","null","74","","","","","","","","","","","","","","","",""
"","ITI","","html-keyboard-response","489","527711","0.0-1.0-675.0","0","0","15337","","null","","","null","74","","","","","","","","","","","","","","","NaN",""
"","S1","","html-keyboard-response","490","527972","0.0-1.0-677.0","0","0","15337","","null","","","null","75","","","","","","","","","","","","","","","",""
"","ISI","","html-keyboard-response","491","528976","0.0-1.0-678.0","0","0","15337","","null","","","null","75","NaN","","","","","","","","","","","","","","",""
"","S2","","html-keyboard-response","492","529243","0.0-1.0-679.0","0","0","15337","","null","","","null","75","","NaN","","","","","","","","","","","","","",""
"","response","","html-keyboard-response","493","529505","0.0-1.0-680.0-0.0","0","0","15337","","258","","","68","75","","","2","75","training","adjacent","BC","2","3","R.jpg","M.jpg","0","1","0","",""
"","feedback","","html-keyboard-response","494","530509","0.0-1.0-681.0-0.0","0","0","15337","","null","","","null","75","","","","","","","","","","","","","","","",""
"","time_out","","html-keyboard-response","495","532550","0.0-1.0-683.0-0.0","0","0","15337","","null","","","null","75","","","","","","","","","","","","","","","",""
"","ITI","","html-keyboard-response","496","533562","0.0-1.0-684.0","0","0","15337","","null","","","null","75","","","","","","","","","","","","","","","NaN",""
"","S1","","html-keyboard-response","497","533844","0.0-1.0-686.0","0","0","15337","","null","","","null","76","","","","","","","","","","","","","","","",""
"","ISI","","html-keyboard-response","498","534854","0.0-1.0-687.0","0","0","15337","","null","","","null","76","NaN","","","","","","","","","","","","","","",""
"","S2","","html-keyboard-response","499","535120","0.0-1.0-688.0","0","0","15337","","null","","","null","76","","NaN","","","","","","","","","","","","","",""
"","response","","html-keyboard-response","500","535310","0.0-1.0-689.0-0.0","0","0","15337","","187","","","75","76","","","2","76","training","adjacent","FG","6","7","O.jpg","L.jpg","1","1","1","",""
"","feedback","","html-keyboard-response","501","536319","0.0-1.0-690.0-0.0","0","0","15337","","null","","","null","76","","","","","","","","","","","","","","","",""
"","ITI","","html-keyboard-response","502","537331","0.0-1.0-693.0","0","0","15337","","null","","","null","76","","","","","","","","","","","","","","","NaN",""
"","S1","","html-keyboard-response","503","537596","0.0-1.0-695.0","0","0","15337","","null","","","null","77","","","","","","","","","","","","","","","",""
"","ISI","","html-keyboard-response","504","538614","0.0-1.0-696.0","0","0","15337","","null","","","null","77","NaN","","","","","","","","","","","","","","",""
"","S2","","html-keyboard-response","505","538875","0.0-1.0-697.0","0","0","15337","","null","","","null","77","","NaN","","","","","","","","","","","","","",""
"","response","","html-keyboard-response","506","538990","0.0-1.0-698.0-0.0","0","0","15337","","112","","","75","77","","","2","77","training","adjacent","EF","5","6","P.jpg","O.jpg","1","1","1","",""
"","feedback","","html-keyboard-response","507","539994","0.0-1.0-699.0-0.0","0","0","15337","","null","","","null","77","","","","","","","","","","","","","","","",""
"","ITI","","html-keyboard-response","508","541036","0.0-1.0-702.0","0","0","15337","","null","","","null","77","","","","","","","","","","","","","","","NaN",""
"","S1","","html-keyboard-response","509","541303","0.0-1.0-704.0","0","0","15337","","null","","","null","78","","","","","","","","","","","","","","","",""
"","ISI","","html-keyboard-response","510","542328","0.0-1.0-705.0","0","0","15337","","null","","","null","78","NaN","","","","","","","","","","","","","","",""
"","S2","","html-keyboard-response","511","542593","0.0-1.0-706.0","0","0","15337","","null","","","null","78","","NaN","","","","","","","","","","","","","",""
"","response","","html-keyboard-response","512","542764","0.0-1.0-707.0-0.0","0","0","15337","","168","","","68","78","","","2","78","training","adjacent","BA","2","1","R.jpg","Q.jpg","0","0","1","",""
"","feedback","","html-keyboard-response","513","543775","0.0-1.0-708.0-0.0","0","0","15337","","null","","","null","78","","","","","","","","","","","","","","","",""
"","ITI","","html-keyboard-response","514","544789","0.0-1.0-711.0","0","0","15337","","null","","","null","78","","","","","","","","","","","","","","","NaN",""
"","S1","","html-keyboard-response","515","545052","0.0-1.0-713.0","0","0","15337","","null","","","null","79","","","","","","","","","","","","","","","",""
"","ISI","","html-keyboard-response","516","546063","0.0-1.0-714.0","0","0","15337","","null","","","null","79","NaN","","","","","","","","","","","","","","",""
"","S2","","html-keyboard-response","517","546326","0.0-1.0-715.0","0","0","15337","","null","","","null","79","","NaN","","","","","","","","","","","","","",""
"","response","","html-keyboard-response","518","546721","0.0-1.0-716.0-0.0","0","0","15337","","391","","","68","79","","","2","79","training","adjacent","CD","3","4","M.jpg","N.jpg","0","1","0","",""
"","feedback","","html-keyboard-response","519","547742","0.0-1.0-717.0-0.0","0","0","15337","","null","","","null","79","","","","","","","","","","","","","","","",""
"","time_out","","html-keyboard-response","520","549765","0.0-1.0-719.0-0.0","0","0","15337","","null","","","null","79","","","","","","","","","","","","","","","",""
"","ITI","","html-keyboard-response","521","550788","0.0-1.0-720.0","0","0","15337","","null","","","null","79","","","","","","","","","","","","","","","NaN",""
"","S1","","html-keyboard-response","522","551056","0.0-1.0-722.0","0","0","15337","","null","","","null","80","","","","","","","","","","","","","","","",""
"","ISI","","html-keyboard-response","523","552078","0.0-1.0-723.0","0","0","15337","","null","","","null","80","NaN","","","","","","","","","","","","","","",""
"","S2","","html-keyboard-response","524","552344","0.0-1.0-724.0","0","0","15337","","null","","","null","80","","NaN","","","","","","","","","","","","","",""
"","response","","html-keyboard-response","525","552709","0.0-1.0-725.0-0.0","0","0","15337","","362","","","68","80","","","2","80","training","adjacent","BC","2","3","R.jpg","M.jpg","0","1","0","",""
"","feedback","","html-keyboard-response","526","553721","0.0-1.0-726.0-0.0","0","0","15337","","null","","","null","80","","","","","","","","","","","","","","","",""
"","time_out","","html-keyboard-response","527","555727","0.0-1.0-728.0-0.0","0","0","15337","","null","","","null","80","","","","","","","","","","","","","","","",""
"","ITI","","html-keyboard-response","528","556738","0.0-1.0-729.0","0","0","15337","","null","","","null","80","","","","","","","","","","","","","","","NaN",""
"","S1","","html-keyboard-response","529","557003","0.0-1.0-731.0","0","0","15337","","null","","","null","81","","","","","","","","","","","","","","","",""
"","ISI","","html-keyboard-response","530","558011","0.0-1.0-732.0","0","0","15337","","null","","","null","81","NaN","","","","","","","","","","","","","","",""
"","S2","","html-keyboard-response","531","558290","0.0-1.0-733.0","0","0","15337","","null","","","null","81","","NaN","","","","","","","","","","","","","",""
"","response","","html-keyboard-response","532","558320","0.0-1.0-734.0-0.0","0","0","15337","","28","","","75","81","","","2","81","training","adjacent","EF","5","6","P.jpg","O.jpg","1","1","1","",""
"","feedback","","html-keyboard-response","533","559328","0.0-1.0-735.0-0.0","0","0","15337","","null","","","null","81","","","","","","","","","","","","","","","",""
"","ITI","","html-keyboard-response","534","560340","0.0-1.0-738.0","0","0","15337","","null","","","null","81","","","","","","","","","","","","","","","NaN",""
"","S1","","html-keyboard-response","535","560605","0.0-1.0-740.0","0","0","15337","","null","","","null","82","","","","","","","","","","","","","","","",""
"","ISI","","html-keyboard-response","536","561615","0.0-1.0-741.0","0","0","15337","","null","","","null","82","NaN","","","","","","","","","","","","","","",""
"","S2","","html-keyboard-response","537","561879","0.0-1.0-742.0","0","0","15337","","null","","","null","82","","NaN","","","","","","","","","","","","","",""
"","response","","html-keyboard-response","538","562062","0.0-1.0-743.0-0.0","0","0","15337","","179","","","68","82","","","2","82","training","adjacent","BA","2","1","R.jpg","Q.jpg","0","0","1","",""
"","feedback","","html-keyboard-response","539","563077","0.0-1.0-744.0-0.0","0","0","15337","","null","","","null","82","","","","","","","","","","","","","","","",""
"","ITI","","html-keyboard-response","540","564101","0.0-1.0-747.0","0","0","15337","","null","","","null","82","","","","","","","","","","","","","","","NaN",""
"","S1","","html-keyboard-response","541","564383","0.0-1.0-749.0","0","0","15337","","null","","","null","83","","","","","","","","","","","","","","","",""
"","ISI","","html-keyboard-response","542","565394","0.0-1.0-750.0","0","0","15337","","null","","","null","83","NaN","","","","","","","","","","","","","","",""
"","S2","","html-keyboard-response","543","565672","0.0-1.0-751.0","0","0","15337","","null","","","null","83","","NaN","","","","","","","","","","","","","",""
"","response","","html-keyboard-response","544","565932","0.0-1.0-752.0-0.0","0","0","15337","","256","","","75","83","","","2","83","training","adjacent","BC","2","3","R.jpg","M.jpg","1","1","1","",""
"","feedback","","html-keyboard-response","545","566951","0.0-1.0-753.0-0.0","0","0","15337","","null","","","null","83","","","","","","","","","","","","","","","",""
"","ITI","","html-keyboard-response","546","567963","0.0-1.0-756.0","0","0","15337","","null","","","null","83","","","","","","","","","","","","","","","NaN",""
"","S1","","html-keyboard-response","547","568228","0.0-1.0-758.0","0","0","15337","","null","","","null","84","","","","","","","","","","","","","","","",""
"","ISI","","html-keyboard-response","548","569237","0.0-1.0-759.0","0","0","15337","","null","","","null","84","NaN","","","","","","","","","","","","","","",""
"","S2","","html-keyboard-response","549","569504","0.0-1.0-760.0","0","0","15337","","null","","","null","84","","NaN","","","","","","","","","","","","","",""
"","response","","html-keyboard-response","550","569795","0.0-1.0-761.0-0.0","0","0","15337","","287","","","75","84","","","2","84","training","adjacent","DC","4","3","N.jpg","M.jpg","1","0","0","",""
"","feedback","","html-keyboard-response","551","570812","0.0-1.0-762.0-0.0","0","0","15337","","null","","","null","84","","","","","","","","","","","","","","","",""
"","time_out","","html-keyboard-response","552","572839","0.0-1.0-764.0-0.0","0","0","15337","","null","","","null","84","","","","","","","","","","","","","","","",""
"","ITI","","html-keyboard-response","553","573855","0.0-1.0-765.0","0","0","15337","","null","","","null","84","","","","","","","","","","","","","","","NaN",""
"","S1","","html-keyboard-response","554","574120","0.0-1.0-767.0","0","0","15337","","null","","","null","85","","","","","","","","","","","","","","","",""
"","ISI","","html-keyboard-response","555","575138","0.0-1.0-768.0","0","0","15337","","null","","","null","85","NaN","","","","","","","","","","","","","","",""
"","S2","","html-keyboard-response","556","575423","0.0-1.0-769.0","0","0","15337","","null","","","null","85","","NaN","","","","","","","","","","","","","",""
"","response","","html-keyboard-response","557","575609","0.0-1.0-770.0-0.0","0","0","15337","","185","","","75","85","","","2","85","training","adjacent","CB","3","2","M.jpg","R.jpg","1","0","0","",""
"","feedback","","html-keyboard-response","558","576616","0.0-1.0-771.0-0.0","0","0","15337","","null","","","null","85","","","","","","","","","","","","","","","",""
"","time_out","","html-keyboard-response","559","578620","0.0-1.0-773.0-0.0","0","0","15337","","null","","","null","85","","","","","","","","","","","","","","","",""
"","ITI","","html-keyboard-response","560","579633","0.0-1.0-774.0","0","0","15337","","null","","","null","85","","","","","","","","","","","","","","","NaN",""
"","S1","","html-keyboard-response","561","579895","0.0-1.0-776.0","0","0","15337","","null","","","null","86","","","","","","","","","","","","","","","",""
"","ISI","","html-keyboard-response","562","580940","0.0-1.0-777.0","0","0","15337","","null","","","null","86","NaN","","","","","","","","","","","","","","",""
"","S2","","html-keyboard-response","563","581208","0.0-1.0-778.0","0","0","15337","","null","","","null","86","","NaN","","","","","","","","","","","","","",""
"","response","","html-keyboard-response","564","581354","0.0-1.0-779.0-0.0","0","0","15337","","143","","","75","86","","","2","86","training","adjacent","GF","7","6","L.jpg","O.jpg","1","0","0","",""
"","feedback","","html-keyboard-response","565","582360","0.0-1.0-780.0-0.0","0","0","15337","","null","","","null","86","","","","","","","","","","","","","","","",""
"","time_out","","html-keyboard-response","566","584379","0.0-1.0-782.0-0.0","0","0","15337","","null","","","null","86","","","","","","","","","","","","","","","",""
"","ITI","","html-keyboard-response","567","585388","0.0-1.0-783.0","0","0","15337","","null","","","null","86","","","","","","","","","","","","","","","NaN",""
"","S1","","html-keyboard-response","568","585650","0.0-1.0-785.0","0","0","15337","","null","","","null","87","","","","","","","","","","","","","","","",""
"","ISI","","html-keyboard-response","569","586662","0.0-1.0-786.0","0","0","15337","","null","","","null","87","NaN","","","","","","","","","","","","","","",""
"","S2","","html-keyboard-response","570","586944","0.0-1.0-787.0","0","0","15337","","null","","","null","87","","NaN","","","","","","","","","","","","","",""
"","response","","html-keyboard-response","571","587181","0.0-1.0-788.0-0.0","0","0","15337","","234","","","75","87","","","2","87","training","adjacent","FG","6","7","O.jpg","L.jpg","1","1","1","",""
"","feedback","","html-keyboard-response","572","588201","0.0-1.0-789.0-0.0","0","0","15337","","null","","","null","87","","","","","","","","","","","","","","","",""
"","ITI","","html-keyboard-response","573","589216","0.0-1.0-792.0","0","0","15337","","null","","","null","87","","","","","","","","","","","","","","","NaN",""
"","S1","","html-keyboard-response","574","589480","0.0-1.0-794.0","0","0","15337","","null","","","null","88","","","","","","","","","","","","","","","",""
"","ISI","","html-keyboard-response","575","590488","0.0-1.0-795.0","0","0","15337","","null","","","null","88","NaN","","","","","","","","","","","","","","",""
"","S2","","html-keyboard-response","576","590754","0.0-1.0-796.0","0","0","15337","","null","","","null","88","","NaN","","","","","","","","","","","","","",""
"","response","","html-keyboard-response","577","591121","0.0-1.0-797.0-0.0","0","0","15337","","365","","","75","88","","","2","88","training","adjacent","EF","5","6","P.jpg","O.jpg","1","1","1","",""
"","feedback","","html-keyboard-response","578","592129","0.0-1.0-798.0-0.0","0","0","15337","","null","","","null","88","","","","","","","","","","","","","","","",""
"","ITI","","html-keyboard-response","579","593144","0.0-1.0-801.0","0","0","15337","","null","","","null","88","","","","","","","","","","","","","","","NaN",""
"","S1","","html-keyboard-response","580","593424","0.0-1.0-803.0","0","0","15337","","null","","","null","89","","","","","","","","","","","","","","","",""
"","ISI","","html-keyboard-response","581","594440","0.0-1.0-804.0","0","0","15337","","null","","","null","89","NaN","","","","","","","","","","","","","","",""
