"success","ttype","start_time","trial_type","trial_index","time_elapsed","internal_node_id","warning","missed_checkup","PID","view_history","rt","responses","repeat_instructions","key_press","index","keypress_isi","keypress_S2","block","trial_num","phase","group_type","pair_type","S1_stim","S2_stim","S1_img","S2_img","S1_chosen","S1_higher","accuracy","keypress_iti","total_bonus_tally"
"true","full_screen","d04142023hr1243","fullscreen","0","188360","0.0-0.0","0","0","30294","","","","","","","","","","","","","","","","","","","","","",""
"","instructions","","instructions","1","235394","0.0-1.0-0.0-0.0","0","0","30294","[{""page_index"":0,""viewing_time"":4031},{""page_index"":1,""viewing_time"":31684},{""page_index"":2,""viewing_time"":8982},{""page_index"":3,""viewing_time"":2334}]","47032","","","","","","","","","","","","","","","","","","","",""
"","comprehension_check","","survey-multi-choice","2","256099","0.0-1.0-0.0-1.0","0","0","30294","","20696","{""Q0"":""True"",""Q1"":""D"",""Q2"":""Once the second image appears and while the screen 'MAKE A CHOICE' is shown"",""Q3"":""Green mark"",""Q4"":""either D or K""}","0","","","","","","","","","","","","","","","","","",""
"","start_exp","","html-keyboard-response","3","257997","0.0-1.0-1.0","0","0","30294","","1894","","","32","","","","","","","","","","","","","","","","",""
"","S1","","html-keyboard-response","4","258253","0.0-1.0-2.0","0","0","30294","","null","","","null","0","","","","","","","","","","","","","","","",""
"","ISI","","html-keyboard-response","5","259261","0.0-1.0-3.0","0","0","30294","","null","","","null","0","NaN","","","","","","","","","","","","","","",""
"","S2","","html-keyboard-response","6","259517","0.0-1.0-4.0","0","0","30294","","null","","","null","0","","NaN","","","","","","","","","","","","","",""
"","response","","html-keyboard-response","7","260102","0.0-1.0-5.0-0.0","0","0","30294","","582","","","75","0","","","1","0","training","adjacent","BA","2","1","Q.jpg","N.jpg","0","0","1","",""
"","feedback","","html-keyboard-response","8","261109","0.0-1.0-6.0-0.0","0","0","30294","","null","","","null","0","","","","","","","","","","","","","","","",""
"","ITI","","html-keyboard-response","9","262117","0.0-1.0-9.0","0","0","30294","","null","","","null","0","","","","","","","","","","","","","","","NaN",""
"","S1","","html-keyboard-response","10","262372","0.0-1.0-11.0","0","0","30294","","null","","","null","1","","","","","","","","","","","","","","","",""
"","ISI","","html-keyboard-response","11","263381","0.0-1.0-12.0","0","0","30294","","null","","","null","1","NaN","","","","","","","","","","","","","","",""
"","S2","","html-keyboard-response","12","263637","0.0-1.0-13.0","0","0","30294","","null","","","null","1","","NaN","","","","","","","","","","","","","",""
"","response","","html-keyboard-response","13","264081","0.0-1.0-14.0-0.0","0","0","30294","","442","","","75","1","","","1","1","training","adjacent","FE","6","5","L.jpg","M.jpg","0","0","1","",""
"","feedback","","html-keyboard-response","14","265084","0.0-1.0-15.0-0.0","0","0","30294","","null","","","null","1","","","","","","","","","","","","","","","",""
"","ITI","","html-keyboard-response","15","266093","0.0-1.0-18.0","0","0","30294","","null","","","null","1","","","","","","","","","","","","","","","NaN",""
"","S1","","html-keyboard-response","16","266348","0.0-1.0-20.0","0","0","30294","","null","","","null","2","","","","","","","","","","","","","","","",""
"","ISI","","html-keyboard-response","17","267357","0.0-1.0-21.0","0","0","30294","","null","","","null","2","NaN","","","","","","","","","","","","","","",""
"","S2","","html-keyboard-response","18","267613","0.0-1.0-22.0","0","0","30294","","null","","","null","2","","NaN","","","","","","","","","","","","","",""
"","response","","html-keyboard-response","19","268033","0.0-1.0-23.0-0.0","0","0","30294","","418","","","68","2","","","1","2","training","adjacent","ED","5","4","M.jpg","R.jpg","1","0","0","",""
"","feedback","","html-keyboard-response","20","269037","0.0-1.0-24.0-0.0","0","0","30294","","null","","","null","2","","","","","","","","","","","","","","","",""
"","time_out","","html-keyboard-response","21","271046","0.0-1.0-26.0-0.0","0","0","30294","","null","","","null","2","","","","","","","","","","","","","","","",""
"","ITI","","html-keyboard-response","22","272054","0.0-1.0-27.0","0","0","30294","","null","","","null","2","","","","","","","","","","","","","","","NaN",""
"","S1","","html-keyboard-response","23","272309","0.0-1.0-29.0","0","0","30294","","null","","","null","3","","","","","","","","","","","","","","","",""
"","ISI","","html-keyboard-response","24","273317","0.0-1.0-30.0","0","0","30294","","null","","","null","3","NaN","","","","","","","","","","","","","","",""
"","S2","","html-keyboard-response","25","273572","0.0-1.0-31.0","0","0","30294","","null","","","null","3","","NaN","","","","","","","","","","","","","",""
"","response","","html-keyboard-response","26","274097","0.0-1.0-32.0-0.0","0","0","30294","","523","","","68","3","","","1","3","training","adjacent","CB","3","2","P.jpg","Q.jpg","1","0","0","",""
"","feedback","","html-keyboard-response","27","275100","0.0-1.0-33.0-0.0","0","0","30294","","null","","","null","3","","","","","","","","","","","","","","","",""
"","time_out","","html-keyboard-response","28","277108","0.0-1.0-35.0-0.0","0","0","30294","","null","","","null","3","","","","","","","","","","","","","","","",""
"","ITI","","html-keyboard-response","29","278117","0.0-1.0-36.0","0","0","30294","","null","","","null","3","","","","","","","","","","","","","","","NaN",""
"","S1","","html-keyboard-response","30","278373","0.0-1.0-38.0","0","0","30294","","null","","","null","4","","","","","","","","","","","","","","","",""
"","ISI","","html-keyboard-response","31","279380","0.0-1.0-39.0","0","0","30294","","null","","","null","4","NaN","","","","","","","","","","","","","","",""
"","S2","","html-keyboard-response","32","279637","0.0-1.0-40.0","0","0","30294","","null","","","null","4","","NaN","","","","","","","","","","","","","",""
"","response","","html-keyboard-response","33","279794","0.0-1.0-41.0-0.0","0","0","30294","","155","","","75","4","","","1","4","training","adjacent","BC","2","3","Q.jpg","P.jpg","0","1","0","",""
"","feedback","","html-keyboard-response","34","280803","0.0-1.0-42.0-0.0","0","0","30294","","null","","","null","4","","","","","","","","","","","","","","","",""
"","time_out","","html-keyboard-response","35","282812","0.0-1.0-44.0-0.0","0","0","30294","","null","","","null","4","","","","","","","","","","","","","","","",""
"","ITI","","html-keyboard-response","36","283820","0.0-1.0-45.0","0","0","30294","","null","","","null","4","","","","","","","","","","","","","","","NaN",""
"","S1","","html-keyboard-response","37","284076","0.0-1.0-47.0","0","0","30294","","null","","","null","5","","","","","","","","","","","","","","","",""
"","ISI","","html-keyboard-response","38","285084","0.0-1.0-48.0","0","0","30294","","null","","","null","5","NaN","","","","","","","","","","","","","","",""
"","S2","","html-keyboard-response","39","285340","0.0-1.0-49.0","0","0","30294","","null","","","null","5","","NaN","","","","","","","","","","","","","",""
"","response","","html-keyboard-response","40","285716","0.0-1.0-50.0-0.0","0","0","30294","","373","","","68","5","","","1","5","training","adjacent","FG","6","7","L.jpg","O.jpg","1","1","1","",""
"","feedback","","html-keyboard-response","41","286723","0.0-1.0-51.0-0.0","0","0","30294","","null","","","null","5","","","","","","","","","","","","","","","",""
"","ITI","","html-keyboard-response","42","287732","0.0-1.0-54.0","0","0","30294","","null","","","null","5","","","","","","","","","","","","","","","NaN",""
"","S1","","html-keyboard-response","43","287989","0.0-1.0-56.0","0","0","30294","","null","","","null","6","","","","","","","","","","","","","","","",""
"","ISI","","html-keyboard-response","44","288996","0.0-1.0-57.0","0","0","30294","","null","","","null","6","NaN","","","","","","","","","","","","","","",""
"","S2","","html-keyboard-response","45","289253","0.0-1.0-58.0","0","0","30294","","null","","","null","6","","NaN","","","","","","","","","","","","","",""
"","response","","html-keyboard-response","46","289434","0.0-1.0-59.0-0.0","0","0","30294","","178","","","68","6","","","1","6","training","adjacent","EF","5","6","M.jpg","L.jpg","1","1","1","",""
"","feedback","","html-keyboard-response","47","290443","0.0-1.0-60.0-0.0","0","0","30294","","null","","","null","6","","","","","","","","","","","","","","","",""
"","ITI","","html-keyboard-response","48","291452","0.0-1.0-63.0","0","0","30294","","null","","","null","6","","","","","","","","","","","","","","","NaN",""
"","S1","","html-keyboard-response","49","291707","0.0-1.0-65.0","0","0","30294","","null","","","null","7","","","","","","","","","","","","","","","",""
"","ISI","","html-keyboard-response","50","292716","0.0-1.0-66.0","0","0","30294","","null","","","null","7","NaN","","","","","","","","","","","","","","",""
"","S2","","html-keyboard-response","51","292972","0.0-1.0-67.0","0","0","30294","","null","","","null","7","","NaN","","","","","","","","","","","","","",""
"","response","","html-keyboard-response","52","293041","0.0-1.0-68.0-0.0","0","0","30294","","67","","","68","7","","","1","7","training","adjacent","BA","2","1","Q.jpg","N.jpg","1","0","0","",""
"","feedback","","html-keyboard-response","53","294053","0.0-1.0-69.0-0.0","0","0","30294","","null","","","null","7","","","","","","","","","","","","","","","",""
"","time_out","","html-keyboard-response","54","296059","0.0-1.0-71.0-0.0","0","0","30294","","null","","","null","7","","","","","","","","","","","","","","","",""
"","ITI","","html-keyboard-response","55","297067","0.0-1.0-72.0","0","0","30294","","null","","","null","7","","","","","","","","","","","","","","","NaN",""
"","S1","","html-keyboard-response","56","297324","0.0-1.0-74.0","0","0","30294","","null","","","null","8","","","","","","","","","","","","","","","",""
"","ISI","","html-keyboard-response","57","298332","0.0-1.0-75.0","0","0","30294","","null","","","null","8","NaN","","","","","","","","","","","","","","",""
"","S2","","html-keyboard-response","58","298587","0.0-1.0-76.0","0","0","30294","","null","","","null","8","","NaN","","","","","","","","","","","","","",""
"","response","","html-keyboard-response","59","298720","0.0-1.0-77.0-0.0","0","0","30294","","130","","","68","8","","","1","8","training","adjacent","FG","6","7","L.jpg","O.jpg","1","1","1","",""
"","feedback","","html-keyboard-response","60","299724","0.0-1.0-78.0-0.0","0","0","30294","","null","","","null","8","","","","","","","","","","","","","","","",""
"","ITI","","html-keyboard-response","61","300731","0.0-1.0-81.0","0","0","30294","","null","","","null","8","","","","","","","","","","","","","","","NaN",""
"","S1","","html-keyboard-response","62","300987","0.0-1.0-83.0","0","0","30294","","null","","","null","9","","","","","","","","","","","","","","","",""
"","ISI","","html-keyboard-response","63","301996","0.0-1.0-84.0","0","0","30294","","null","","","null","9","NaN","","","","","","","","","","","","","","",""
"","S2","","html-keyboard-response","64","302251","0.0-1.0-85.0","0","0","30294","","null","","","null","9","","NaN","","","","","","","","","","","","","",""
"","response","","html-keyboard-response","65","302753","0.0-1.0-86.0-0.0","0","0","30294","","500","","","68","9","","","1","9","training","adjacent","CD","3","4","P.jpg","R.jpg","1","1","1","",""
"","feedback","","html-keyboard-response","66","303764","0.0-1.0-87.0-0.0","0","0","30294","","null","","","null","9","","","","","","","","","","","","","","","",""
"","ITI","","html-keyboard-response","67","304771","0.0-1.0-90.0","0","0","30294","","null","","","null","9","","","","","","","","","","","","","","","NaN",""
"","S1","","html-keyboard-response","68","305028","0.0-1.0-92.0","0","0","30294","","null","","","null","10","","","","","","","","","","","","","","","",""
"","ISI","","html-keyboard-response","69","306034","0.0-1.0-93.0","0","0","30294","","null","","","null","10","NaN","","","","","","","","","","","","","","",""
"","S2","","html-keyboard-response","70","306292","0.0-1.0-94.0","0","0","30294","","null","","","null","10","","NaN","","","","","","","","","","","","","",""
"","response","","html-keyboard-response","71","306722","0.0-1.0-95.0-0.0","0","0","30294","","428","","","68","10","","","1","10","training","adjacent","FG","6","7","L.jpg","O.jpg","1","1","1","",""
"","feedback","","html-keyboard-response","72","307731","0.0-1.0-96.0-0.0","0","0","30294","","null","","","null","10","","","","","","","","","","","","","","","",""
"","ITI","","html-keyboard-response","73","308740","0.0-1.0-99.0","0","0","30294","","null","","","null","10","","","","","","","","","","","","","","","NaN",""
"","S1","","html-keyboard-response","74","308996","0.0-1.0-101.0","0","0","30294","","null","","","null","11","","","","","","","","","","","","","","","",""
"","ISI","","html-keyboard-response","75","310003","0.0-1.0-102.0","0","0","30294","","null","","","null","11","NaN","","","","","","","","","","","","","","",""
"","S2","","html-keyboard-response","76","310261","0.0-1.0-103.0","0","0","30294","","null","","","null","11","","NaN","","","","","","","","","","","","","",""
"","response","","html-keyboard-response","77","310619","0.0-1.0-104.0-0.0","0","0","30294","","355","","","75","11","","","1","11","training","adjacent","BA","2","1","Q.jpg","N.jpg","0","0","1","",""
"","feedback","","html-keyboard-response","78","311627","0.0-1.0-105.0-0.0","0","0","30294","","null","","","null","11","","","","","","","","","","","","","","","",""
"","ITI","","html-keyboard-response","79","312636","0.0-1.0-108.0","0","0","30294","","null","","","null","11","","","","","","","","","","","","","","","NaN",""
"","S1","","html-keyboard-response","80","312891","0.0-1.0-110.0","0","0","30294","","null","","","null","12","","","","","","","","","","","","","","","",""
"","ISI","","html-keyboard-response","81","313899","0.0-1.0-111.0","0","0","30294","","null","","","null","12","NaN","","","","","","","","","","","","","","",""
"","S2","","html-keyboard-response","82","314155","0.0-1.0-112.0","0","0","30294","","null","","","null","12","","NaN","","","","","","","","","","","","","",""
"","response","","html-keyboard-response","83","314506","0.0-1.0-113.0-0.0","0","0","30294","","349","","","68","12","","","1","12","training","adjacent","DE","4","5","R.jpg","M.jpg","1","1","1","",""
"","feedback","","html-keyboard-response","84","315515","0.0-1.0-114.0-0.0","0","0","30294","","null","","","null","12","","","","","","","","","","","","","","","",""
"","ITI","","html-keyboard-response","85","316528","0.0-1.0-117.0","0","0","30294","","null","","","null","12","","","","","","","","","","","","","","","NaN",""
"","S1","","html-keyboard-response","86","316788","0.0-1.0-119.0","0","0","30294","","null","","","null","13","","","","","","","","","","","","","","","",""
"","ISI","","html-keyboard-response","87","317796","0.0-1.0-120.0","0","0","30294","","null","","","null","13","NaN","","","","","","","","","","","","","","",""
"","S2","","html-keyboard-response","88","318052","0.0-1.0-121.0","0","0","30294","","null","","","null","13","","NaN","","","","","","","","","","","","","",""
"","response","","html-keyboard-response","89","318520","0.0-1.0-122.0-0.0","0","0","30294","","466","","","75","13","","","1","13","training","adjacent","FE","6","5","L.jpg","M.jpg","0","0","1","",""
"","feedback","","html-keyboard-response","90","319531","0.0-1.0-123.0-0.0","0","0","30294","","null","","","null","13","","","","","","","","","","","","","","","",""
"","ITI","","html-keyboard-response","91","320539","0.0-1.0-126.0","0","0","30294","","null","","","null","13","","","","","","","","","","","","","","","NaN",""
"","S1","","html-keyboard-response","92","320794","0.0-1.0-128.0","0","0","30294","","null","","","null","14","","","","","","","","","","","","","","","",""
"","ISI","","html-keyboard-response","93","321802","0.0-1.0-129.0","0","0","30294","","null","","","null","14","NaN","","","","","","","","","","","","","","",""
"","S2","","html-keyboard-response","94","322058","0.0-1.0-130.0","0","0","30294","","null","","","null","14","","NaN","","","","","","","","","","","","","",""
"","response","","html-keyboard-response","95","322494","0.0-1.0-131.0-0.0","0","0","30294","","434","","","68","14","","","1","14","training","adjacent","DC","4","3","R.jpg","P.jpg","1","0","0","",""
"","feedback","","html-keyboard-response","96","323499","0.0-1.0-132.0-0.0","0","0","30294","","null","","","null","14","","","","","","","","","","","","","","","",""
"","time_out","","html-keyboard-response","97","325508","0.0-1.0-134.0-0.0","0","0","30294","","null","","","null","14","","","","","","","","","","","","","","","",""
"","ITI","","html-keyboard-response","98","326515","0.0-1.0-135.0","0","0","30294","","null","","","null","14","","","","","","","","","","","","","","","NaN",""
"","S1","","html-keyboard-response","99","326770","0.0-1.0-137.0","0","0","30294","","null","","","null","15","","","","","","","","","","","","","","","",""
"","ISI","","html-keyboard-response","100","327780","0.0-1.0-138.0","0","0","30294","","null","","","null","15","NaN","","","","","","","","","","","","","","",""
"","S2","","html-keyboard-response","101","328034","0.0-1.0-139.0","0","0","30294","","null","","","null","15","","NaN","","","","","","","","","","","","","",""
"","response","","html-keyboard-response","102","328279","0.0-1.0-140.0-0.0","0","0","30294","","242","","","68","15","","","1","15","training","adjacent","EF","5","6","M.jpg","L.jpg","1","1","1","",""
"","feedback","","html-keyboard-response","103","329284","0.0-1.0-141.0-0.0","0","0","30294","","null","","","null","15","","","","","","","","","","","","","","","",""
"","ITI","","html-keyboard-response","104","330291","0.0-1.0-144.0","0","0","30294","","null","","","null","15","","","","","","","","","","","","","","","NaN",""
"","S1","","html-keyboard-response","105","330548","0.0-1.0-146.0","0","0","30294","","null","","","null","16","","","","","","","","","","","","","","","",""
"","ISI","","html-keyboard-response","106","331554","0.0-1.0-147.0","0","0","30294","","null","","","null","16","NaN","","","","","","","","","","","","","","",""
"","S2","","html-keyboard-response","107","331812","0.0-1.0-148.0","0","0","30294","","null","","","null","16","","NaN","","","","","","","","","","","","","",""
"","response","","html-keyboard-response","108","332189","0.0-1.0-149.0-0.0","0","0","30294","","375","","","68","16","","","1","16","training","adjacent","DC","4","3","R.jpg","P.jpg","1","0","0","",""
"","feedback","","html-keyboard-response","109","333195","0.0-1.0-150.0-0.0","0","0","30294","","null","","","null","16","","","","","","","","","","","","","","","",""
"","time_out","","html-keyboard-response","110","335203","0.0-1.0-152.0-0.0","0","0","30294","","null","","","null","16","","","","","","","","","","","","","","","",""
"","ITI","","html-keyboard-response","111","336210","0.0-1.0-153.0","0","0","30294","","null","","","null","16","","","","","","","","","","","","","","","NaN",""
"","S1","","html-keyboard-response","112","336467","0.0-1.0-155.0","0","0","30294","","null","","","null","17","","","","","","","","","","","","","","","",""
"","ISI","","html-keyboard-response","113","337475","0.0-1.0-156.0","0","0","30294","","null","","","null","17","NaN","","","","","","","","","","","","","","",""
"","S2","","html-keyboard-response","114","337732","0.0-1.0-157.0","0","0","30294","","null","","","null","17","","NaN","","","","","","","","","","","","","",""
"","response","","html-keyboard-response","115","338010","0.0-1.0-158.0-0.0","0","0","30294","","276","","","75","17","","","1","17","training","adjacent","CD","3","4","P.jpg","R.jpg","0","1","0","",""
"","feedback","","html-keyboard-response","116","339019","0.0-1.0-159.0-0.0","0","0","30294","","null","","","null","17","","","","","","","","","","","","","","","",""
"","time_out","","html-keyboard-response","117","341027","0.0-1.0-161.0-0.0","0","0","30294","","null","","","null","17","","","","","","","","","","","","","","","",""
"","ITI","","html-keyboard-response","118","342035","0.0-1.0-162.0","0","0","30294","","null","","","null","17","","","","","","","","","","","","","","","NaN",""
"","S1","","html-keyboard-response","119","342290","0.0-1.0-164.0","0","0","30294","","null","","","null","18","","","","","","","","","","","","","","","",""
"","ISI","","html-keyboard-response","120","343299","0.0-1.0-165.0","0","0","30294","","null","","","null","18","NaN","","","","","","","","","","","","","","",""
"","S2","","html-keyboard-response","121","343556","0.0-1.0-166.0","0","0","30294","","null","","","null","18","","NaN","","","","","","","","","","","","","",""
"","response","","html-keyboard-response","122","343713","0.0-1.0-167.0-0.0","0","0","30294","","155","","","75","18","","","1","18","training","adjacent","FE","6","5","L.jpg","M.jpg","0","0","1","",""
"","feedback","","html-keyboard-response","123","344723","0.0-1.0-168.0-0.0","0","0","30294","","null","","","null","18","","","","","","","","","","","","","","","",""
"","ITI","","html-keyboard-response","124","345731","0.0-1.0-171.0","0","0","30294","","null","","","null","18","","","","","","","","","","","","","","","NaN",""
"","S1","","html-keyboard-response","125","345987","0.0-1.0-173.0","0","0","30294","","null","","","null","19","","","","","","","","","","","","","","","",""
"","ISI","","html-keyboard-response","126","346995","0.0-1.0-174.0","0","0","30294","","null","","","null","19","NaN","","","","","","","","","","","","","","",""
"","S2","","html-keyboard-response","127","347251","0.0-1.0-175.0","0","0","30294","","null","","","null","19","","NaN","","","","","","","","","","","","","",""
"","response","","html-keyboard-response","128","347633","0.0-1.0-176.0-0.0","0","0","30294","","379","","","68","19","","","1","19","training","adjacent","DE","4","5","R.jpg","M.jpg","1","1","1","",""
"","feedback","","html-keyboard-response","129","348643","0.0-1.0-177.0-0.0","0","0","30294","","null","","","null","19","","","","","","","","","","","","","","","",""
"","ITI","","html-keyboard-response","130","349650","0.0-1.0-180.0","0","0","30294","","null","","","null","19","","","","","","","","","","","","","","","NaN",""
"","S1","","html-keyboard-response","131","349907","0.0-1.0-182.0","0","0","30294","","null","","","null","20","","","","","","","","","","","","","","","",""
"","ISI","","html-keyboard-response","132","350915","0.0-1.0-183.0","0","0","30294","","null","","","null","20","NaN","","","","","","","","","","","","","","",""
"","S2","","html-keyboard-response","133","351169","0.0-1.0-184.0","0","0","30294","","null","","","null","20","","NaN","","","","","","","","","","","","","",""
"","response","","html-keyboard-response","134","351566","0.0-1.0-185.0-0.0","0","0","30294","","394","","","68","20","","","1","20","training","adjacent","ED","5","4","M.jpg","R.jpg","1","0","0","",""
"","feedback","","html-keyboard-response","135","352570","0.0-1.0-186.0-0.0","0","0","30294","","null","","","null","20","","","","","","","","","","","","","","","",""
"","time_out","","html-keyboard-response","136","354579","0.0-1.0-188.0-0.0","0","0","30294","","null","","","null","20","","","","","","","","","","","","","","","",""
"","ITI","","html-keyboard-response","137","355587","0.0-1.0-189.0","0","0","30294","","null","","","null","20","","","","","","","","","","","","","","","NaN",""
"","S1","","html-keyboard-response","138","355842","0.0-1.0-191.0","0","0","30294","","null","","","null","21","","","","","","","","","","","","","","","",""
"","ISI","","html-keyboard-response","139","356849","0.0-1.0-192.0","0","0","30294","","null","","","null","21","NaN","","","","","","","","","","","","","","",""
"","S2","","html-keyboard-response","140","357107","0.0-1.0-193.0","0","0","30294","","null","","","null","21","","NaN","","","","","","","","","","","","","",""
"","response","","html-keyboard-response","141","357206","0.0-1.0-194.0-0.0","0","0","30294","","98","","","75","21","","","1","21","training","adjacent","GF","7","6","O.jpg","L.jpg","0","0","1","",""
"","feedback","","html-keyboard-response","142","358211","0.0-1.0-195.0-0.0","0","0","30294","","null","","","null","21","","","","","","","","","","","","","","","",""
"","ITI","","html-keyboard-response","143","359219","0.0-1.0-198.0","0","0","30294","","null","","","null","21","","","","","","","","","","","","","","","NaN",""
"","S1","","html-keyboard-response","144","359474","0.0-1.0-200.0","0","0","30294","","null","","","null","22","","","","","","","","","","","","","","","",""
"","ISI","","html-keyboard-response","145","360482","0.0-1.0-201.0","0","0","30294","","null","","","null","22","NaN","","","","","","","","","","","","","","",""
"","S2","","html-keyboard-response","146","360738","0.0-1.0-202.0","0","0","30294","","null","","","null","22","","NaN","","","","","","","","","","","","","",""
"","response","","html-keyboard-response","147","361203","0.0-1.0-203.0-0.0","0","0","30294","","463","","","75","22","","","1","22","training","adjacent","AB","1","2","N.jpg","Q.jpg","0","1","0","",""
"","feedback","","html-keyboard-response","148","362211","0.0-1.0-204.0-0.0","0","0","30294","","null","","","null","22","","","","","","","","","","","","","","","",""
"","time_out","","html-keyboard-response","149","364218","0.0-1.0-206.0-0.0","0","0","30294","","null","","","null","22","","","","","","","","","","","","","","","",""
"","ITI","","html-keyboard-response","150","365226","0.0-1.0-207.0","0","0","30294","","null","","","null","22","","","","","","","","","","","","","","","NaN",""
"","S1","","html-keyboard-response","151","365482","0.0-1.0-209.0","0","0","30294","","null","","","null","23","","","","","","","","","","","","","","","",""
"","ISI","","html-keyboard-response","152","366490","0.0-1.0-210.0","0","0","30294","","null","","","null","23","NaN","","","","","","","","","","","","","","",""
"","S2","","html-keyboard-response","153","366745","0.0-1.0-211.0","0","0","30294","","null","","","null","23","","NaN","","","","","","","","","","","","","",""
"","response","","html-keyboard-response","154","367433","0.0-1.0-212.0-0.0","0","0","30294","","687","","","68","23","","","1","23","training","adjacent","ED","5","4","M.jpg","R.jpg","1","0","0","",""
"","feedback","","html-keyboard-response","155","368442","0.0-1.0-213.0-0.0","0","0","30294","","null","","","null","23","","","","","","","","","","","","","","","",""
"","time_out","","html-keyboard-response","156","370451","0.0-1.0-215.0-0.0","0","0","30294","","null","","","null","23","","","","","","","","","","","","","","","",""
"","ITI","","html-keyboard-response","157","371459","0.0-1.0-216.0","0","0","30294","","null","","","null","23","","","","","","","","","","","","","","","NaN",""
"","S1","","html-keyboard-response","158","371714","0.0-1.0-218.0","0","0","30294","","null","","","null","24","","","","","","","","","","","","","","","",""
"","ISI","","html-keyboard-response","159","372723","0.0-1.0-219.0","0","0","30294","","null","","","null","24","NaN","","","","","","","","","","","","","","",""
"","S2","","html-keyboard-response","160","372977","0.0-1.0-220.0","0","0","30294","","null","","","null","24","","NaN","","","","","","","","","","","","","",""
"","response","","html-keyboard-response","161","373137","0.0-1.0-221.0-0.0","0","0","30294","","157","","","75","24","","","1","24","training","adjacent","CB","3","2","P.jpg","Q.jpg","0","0","1","",""
"","feedback","","html-keyboard-response","162","374146","0.0-1.0-222.0-0.0","0","0","30294","","null","","","null","24","","","","","","","","","","","","","","","",""
"","ITI","","html-keyboard-response","163","375155","0.0-1.0-225.0","0","0","30294","","null","","","null","24","","","","","","","","","","","","","","","NaN",""
"","S1","","html-keyboard-response","164","375410","0.0-1.0-227.0","0","0","30294","","null","","","null","25","","","","","","","","","","","","","","","",""
"","ISI","","html-keyboard-response","165","376417","0.0-1.0-228.0","0","0","30294","","null","","","null","25","NaN","","","","","","","","","","","","","","",""
"","S2","","html-keyboard-response","166","376674","0.0-1.0-229.0","0","0","30294","","null","","","null","25","","NaN","","","","","","","","","","","","","",""
"","response","","html-keyboard-response","167","376991","0.0-1.0-230.0-0.0","0","0","30294","","315","","","75","25","","","1","25","training","adjacent","GF","7","6","O.jpg","L.jpg","0","0","1","",""
"","feedback","","html-keyboard-response","168","378001","0.0-1.0-231.0-0.0","0","0","30294","","null","","","null","25","","","","","","","","","","","","","","","",""
"","ITI","","html-keyboard-response","169","379011","0.0-1.0-234.0","0","0","30294","","null","","","null","25","","","","","","","","","","","","","","","NaN",""
"","S1","","html-keyboard-response","170","379267","0.0-1.0-236.0","0","0","30294","","null","","","null","26","","","","","","","","","","","","","","","",""
"","ISI","","html-keyboard-response","171","380274","0.0-1.0-237.0","0","0","30294","","null","","","null","26","NaN","","","","","","","","","","","","","","",""
"","S2","","html-keyboard-response","172","380531","0.0-1.0-238.0","0","0","30294","","null","","","null","26","","NaN","","","","","","","","","","","","","",""
"","response","","html-keyboard-response","173","380751","0.0-1.0-239.0-0.0","0","0","30294","","218","","","75","26","","","1","26","training","adjacent","BC","2","3","Q.jpg","P.jpg","0","1","0","",""
"","feedback","","html-keyboard-response","174","381761","0.0-1.0-240.0-0.0","0","0","30294","","null","","","null","26","","","","","","","","","","","","","","","",""
"","time_out","","html-keyboard-response","175","383769","0.0-1.0-242.0-0.0","0","0","30294","","null","","","null","26","","","","","","","","","","","","","","","",""
"","ITI","","html-keyboard-response","176","384778","0.0-1.0-243.0","0","0","30294","","null","","","null","26","","","","","","","","","","","","","","","NaN",""
"","S1","","html-keyboard-response","177","385033","0.0-1.0-245.0","0","0","30294","","null","","","null","27","","","","","","","","","","","","","","","",""
"","ISI","","html-keyboard-response","178","386041","0.0-1.0-246.0","0","0","30294","","null","","","null","27","NaN","","","","","","","","","","","","","","",""
"","S2","","html-keyboard-response","179","386297","0.0-1.0-247.0","0","0","30294","","null","","","null","27","","NaN","","","","","","","","","","","","","",""
"","response","","html-keyboard-response","180","386407","0.0-1.0-248.0-0.0","0","0","30294","","109","","","75","27","","","1","27","training","adjacent","GF","7","6","O.jpg","L.jpg","0","0","1","",""
"","feedback","","html-keyboard-response","181","387418","0.0-1.0-249.0-0.0","0","0","30294","","null","","","null","27","","","","","","","","","","","","","","","",""
"","ITI","","html-keyboard-response","182","388426","0.0-1.0-252.0","0","0","30294","","null","","","null","27","","","","","","","","","","","","","","","NaN",""
"","S1","","html-keyboard-response","183","388681","0.0-1.0-254.0","0","0","30294","","null","","","null","28","","","","","","","","","","","","","","","",""
"","ISI","","html-keyboard-response","184","389689","0.0-1.0-255.0","0","0","30294","","null","","","null","28","NaN","","","","","","","","","","","","","","",""
"","S2","","html-keyboard-response","185","389945","0.0-1.0-256.0","0","0","30294","","null","","","null","28","","NaN","","","","","","","","","","","","","",""
"","response","","html-keyboard-response","186","390295","0.0-1.0-257.0-0.0","0","0","30294","","347","","","68","28","","","1","28","training","adjacent","AB","1","2","N.jpg","Q.jpg","1","1","1","",""
"","feedback","","html-keyboard-response","187","391306","0.0-1.0-258.0-0.0","0","0","30294","","null","","","null","28","","","","","","","","","","","","","","","",""
"","ITI","","html-keyboard-response","188","392313","0.0-1.0-261.0","0","0","30294","","null","","","null","28","","","","","","","","","","","","","","","NaN",""
"","S1","","html-keyboard-response","189","392569","0.0-1.0-263.0","0","0","30294","","null","","","null","29","","","","","","","","","","","","","","","",""
"","ISI","","html-keyboard-response","190","393577","0.0-1.0-264.0","0","0","30294","","null","","","null","29","NaN","","","","","","","","","","","","","","",""
"","S2","","html-keyboard-response","191","393833","0.0-1.0-265.0","0","0","30294","","null","","","null","29","","NaN","","","","","","","","","","","","","",""
"","response","","html-keyboard-response","192","394107","0.0-1.0-266.0-0.0","0","0","30294","","272","","","75","29","","","1","29","training","adjacent","DE","4","5","R.jpg","M.jpg","0","1","0","",""
"","feedback","","html-keyboard-response","193","395113","0.0-1.0-267.0-0.0","0","0","30294","","null","","","null","29","","","","","","","","","","","","","","","",""
"","time_out","","html-keyboard-response","194","397120","0.0-1.0-269.0-0.0","0","0","30294","","null","","","null","29","","","","","","","","","","","","","","","",""
"","ITI","","html-keyboard-response","195","398130","0.0-1.0-270.0","0","0","30294","","null","","","null","29","","","","","","","","","","","","","","","NaN",""
"","S1","","html-keyboard-response","196","398385","0.0-1.0-272.0","0","0","30294","","null","","","null","30","","","","","","","","","","","","","","","",""
"","ISI","","html-keyboard-response","197","399393","0.0-1.0-273.0","0","0","30294","","null","","","null","30","NaN","","","","","","","","","","","","","","",""
"","S2","","html-keyboard-response","198","399649","0.0-1.0-274.0","0","0","30294","","null","","","null","30","","NaN","","","","","","","","","","","","","",""
"","response","","html-keyboard-response","199","399810","0.0-1.0-275.0-0.0","0","0","30294","","160","","","75","30","","","1","30","training","adjacent","CD","3","4","P.jpg","R.jpg","0","1","0","",""
"","feedback","","html-keyboard-response","200","400818","0.0-1.0-276.0-0.0","0","0","30294","","null","","","null","30","","","","","","","","","","","","","","","",""
"","time_out","","html-keyboard-response","201","402825","0.0-1.0-278.0-0.0","0","0","30294","","null","","","null","30","","","","","","","","","","","","","","","",""
"","ITI","","html-keyboard-response","202","403832","0.0-1.0-279.0","0","0","30294","","null","","","null","30","","","","","","","","","","","","","","","NaN",""
"","S1","","html-keyboard-response","203","404089","0.0-1.0-281.0","0","0","30294","","null","","","null","31","","","","","","","","","","","","","","","",""
"","ISI","","html-keyboard-response","204","405096","0.0-1.0-282.0","0","0","30294","","null","","","null","31","NaN","","","","","","","","","","","","","","",""
"","S2","","html-keyboard-response","205","405352","0.0-1.0-283.0","0","0","30294","","null","","","null","31","","NaN","","","","","","","","","","","","","",""
"","response","","html-keyboard-response","206","405505","0.0-1.0-284.0-0.0","0","0","30294","","151","","","75","31","","","1","31","training","adjacent","BA","2","1","Q.jpg","N.jpg","0","0","1","",""
"","feedback","","html-keyboard-response","207","406513","0.0-1.0-285.0-0.0","0","0","30294","","null","","","null","31","","","","","","","","","","","","","","","",""
"","ITI","","html-keyboard-response","208","407521","0.0-1.0-288.0","0","0","30294","","null","","","null","31","","","","","","","","","","","","","","","NaN",""
"","S1","","html-keyboard-response","209","407777","0.0-1.0-290.0","0","0","30294","","null","","","null","32","","","","","","","","","","","","","","","",""
"","ISI","","html-keyboard-response","210","408786","0.0-1.0-291.0","0","0","30294","","null","","","null","32","NaN","","","","","","","","","","","","","","",""
"","S2","","html-keyboard-response","211","409040","0.0-1.0-292.0","0","0","30294","","null","","","null","32","","NaN","","","","","","","","","","","","","",""
"","response","","html-keyboard-response","212","409404","0.0-1.0-293.0-0.0","0","0","30294","","362","","","75","32","","","1","32","training","adjacent","DE","4","5","R.jpg","M.jpg","0","1","0","",""
"","feedback","","html-keyboard-response","213","410408","0.0-1.0-294.0-0.0","0","0","30294","","null","","","null","32","","","","","","","","","","","","","","","",""
"","time_out","","html-keyboard-response","214","412418","0.0-1.0-296.0-0.0","0","0","30294","","null","","","null","32","","","","","","","","","","","","","","","",""
"","ITI","","html-keyboard-response","215","413424","0.0-1.0-297.0","0","0","30294","","null","","","null","32","","","","","","","","","","","","","","","NaN",""
"","S1","","html-keyboard-response","216","413679","0.0-1.0-299.0","0","0","30294","","null","","","null","33","","","","","","","","","","","","","","","",""
"","ISI","","html-keyboard-response","217","414689","0.0-1.0-300.0","0","0","30294","","null","","","null","33","NaN","","","","","","","","","","","","","","",""
"","S2","","html-keyboard-response","218","414944","0.0-1.0-301.0","0","0","30294","","null","","","null","33","","NaN","","","","","","","","","","","","","",""
"","response","","html-keyboard-response","219","415022","0.0-1.0-302.0-0.0","0","0","30294","","77","","","75","33","","","1","33","training","adjacent","GF","7","6","O.jpg","L.jpg","0","0","1","",""
"","feedback","","html-keyboard-response","220","416032","0.0-1.0-303.0-0.0","0","0","30294","","null","","","null","33","","","","","","","","","","","","","","","",""
"","ITI","","html-keyboard-response","221","417040","0.0-1.0-306.0","0","0","30294","","null","","","null","33","","","","","","","","","","","","","","","NaN",""
"","S1","","html-keyboard-response","222","417297","0.0-1.0-308.0","0","0","30294","","null","","","null","34","","","","","","","","","","","","","","","",""
"","ISI","","html-keyboard-response","223","418305","0.0-1.0-309.0","0","0","30294","","null","","","null","34","NaN","","","","","","","","","","","","","","",""
"","S2","","html-keyboard-response","224","418561","0.0-1.0-310.0","0","0","30294","","null","","","null","34","","NaN","","","","","","","","","","","","","",""
"","response","","html-keyboard-response","225","418686","0.0-1.0-311.0-0.0","0","0","30294","","124","","","68","34","","","1","34","training","adjacent","DC","4","3","R.jpg","P.jpg","1","0","0","",""
"","feedback","","html-keyboard-response","226","419697","0.0-1.0-312.0-0.0","0","0","30294","","null","","","null","34","","","","","","","","","","","","","","","",""
"","time_out","","html-keyboard-response","227","421704","0.0-1.0-314.0-0.0","0","0","30294","","null","","","null","34","","","","","","","","","","","","","","","",""
"","ITI","","html-keyboard-response","228","422712","0.0-1.0-315.0","0","0","30294","","null","","","null","34","","","","","","","","","","","","","","","NaN",""
"","S1","","html-keyboard-response","229","422968","0.0-1.0-317.0","0","0","30294","","null","","","null","35","","","","","","","","","","","","","","","",""
"","ISI","","html-keyboard-response","230","423975","0.0-1.0-318.0","0","0","30294","","null","","","null","35","NaN","","","","","","","","","","","","","","",""
"","S2","","html-keyboard-response","231","424231","0.0-1.0-319.0","0","0","30294","","null","","","null","35","","NaN","","","","","","","","","","","","","",""
"","response","","html-keyboard-response","232","424316","0.0-1.0-320.0-0.0","0","0","30294","","83","","","75","35","","","1","35","training","adjacent","BC","2","3","Q.jpg","P.jpg","0","1","0","",""
"","feedback","","html-keyboard-response","233","425319","0.0-1.0-321.0-0.0","0","0","30294","","null","","","null","35","","","","","","","","","","","","","","","",""
"","time_out","","html-keyboard-response","234","427328","0.0-1.0-323.0-0.0","0","0","30294","","null","","","null","35","","","","","","","","","","","","","","","",""
"","ITI","","html-keyboard-response","235","428337","0.0-1.0-324.0","0","0","30294","","null","","","null","35","","","","","","","","","","","","","","","NaN",""
"","S1","","html-keyboard-response","236","428592","0.0-1.0-326.0","0","0","30294","","null","","","null","36","","","","","","","","","","","","","","","",""
"","ISI","","html-keyboard-response","237","429601","0.0-1.0-327.0","0","0","30294","","null","","","null","36","NaN","","","","","","","","","","","","","","",""
"","S2","","html-keyboard-response","238","429855","0.0-1.0-328.0","0","0","30294","","null","","","null","36","","NaN","","","","","","","","","","","","","",""
"","response","","html-keyboard-response","239","430190","0.0-1.0-329.0-0.0","0","0","30294","","333","","","68","36","","","1","36","training","adjacent","AB","1","2","N.jpg","Q.jpg","1","1","1","",""
"","feedback","","html-keyboard-response","240","431201","0.0-1.0-330.0-0.0","0","0","30294","","null","","","null","36","","","","","","","","","","","","","","","",""
"","ITI","","html-keyboard-response","241","432209","0.0-1.0-333.0","0","0","30294","","null","","","null","36","","","","","","","","","","","","","","","NaN",""
"","S1","","html-keyboard-response","242","432464","0.0-1.0-335.0","0","0","30294","","null","","","null","37","","","","","","","","","","","","","","","",""
"","ISI","","html-keyboard-response","243","433473","0.0-1.0-336.0","0","0","30294","","null","","","null","37","NaN","","","","","","","","","","","","","","",""
"","S2","","html-keyboard-response","244","433727","0.0-1.0-337.0","0","0","30294","","null","","","null","37","","NaN","","","","","","","","","","","","","",""
"","response","","html-keyboard-response","245","434144","0.0-1.0-338.0-0.0","0","0","30294","","414","","","68","37","","","1","37","training","adjacent","EF","5","6","M.jpg","L.jpg","1","1","1","",""
"","feedback","","html-keyboard-response","246","435153","0.0-1.0-339.0-0.0","0","0","30294","","null","","","null","37","","","","","","","","","","","","","","","",""
"","ITI","","html-keyboard-response","247","436160","0.0-1.0-342.0","0","0","30294","","901","","","68","37","","","","","","","","","","","","","","","d",""
"","S1","","html-keyboard-response","248","436416","0.0-1.0-344.0","0","0","30294","","null","","","null","38","","","","","","","","","","","","","","","",""
"","ISI","","html-keyboard-response","249","437425","0.0-1.0-345.0","0","0","30294","","null","","","null","38","NaN","","","","","","","","","","","","","","",""
"","S2","","html-keyboard-response","250","437680","0.0-1.0-346.0","0","0","30294","","null","","","null","38","","NaN","","","","","","","","","","","","","",""
"","response","","html-keyboard-response","251","437856","0.0-1.0-347.0-0.0","0","0","30294","","173","","","75","38","","","1","38","training","adjacent","FE","6","5","L.jpg","M.jpg","0","0","1","",""
"","feedback","","html-keyboard-response","252","438864","0.0-1.0-348.0-0.0","0","0","30294","","null","","","null","38","","","","","","","","","","","","","","","",""
"","ITI","","html-keyboard-response","253","439872","0.0-1.0-351.0","0","0","30294","","null","","","null","38","","","","","","","","","","","","","","","NaN",""
"","S1","","html-keyboard-response","254","440128","0.0-1.0-353.0","0","0","30294","","null","","","null","39","","","","","","","","","","","","","","","",""
"","ISI","","html-keyboard-response","255","441136","0.0-1.0-354.0","0","0","30294","","null","","","null","39","NaN","","","","","","","","","","","","","","",""
"","S2","","html-keyboard-response","256","441392","0.0-1.0-355.0","0","0","30294","","null","","","null","39","","NaN","","","","","","","","","","","","","",""
"","response","","html-keyboard-response","257","441586","0.0-1.0-356.0-0.0","0","0","30294","","191","","","68","39","","","1","39","training","adjacent","CB","3","2","P.jpg","Q.jpg","1","0","0","",""
"","feedback","","html-keyboard-response","258","442591","0.0-1.0-357.0-0.0","0","0","30294","","null","","","null","39","","","","","","","","","","","","","","","",""
"","time_out","","html-keyboard-response","259","444601","0.0-1.0-359.0-0.0","0","0","30294","","null","","","null","39","","","","","","","","","","","","","","","",""
"","ITI","","html-keyboard-response","260","445607","0.0-1.0-360.0","0","0","30294","","null","","","null","39","","","","","","","","","","","","","","","NaN",""
"","S1","","html-keyboard-response","261","445863","0.0-1.0-362.0","0","0","30294","","null","","","null","40","","","","","","","","","","","","","","","",""
"","ISI","","html-keyboard-response","262","446872","0.0-1.0-363.0","0","0","30294","","null","","","null","40","NaN","","","","","","","","","","","","","","",""
"","S2","","html-keyboard-response","263","447128","0.0-1.0-364.0","0","0","30294","","null","","","null","40","","NaN","","","","","","","","","","","","","",""
"","response","","html-keyboard-response","264","447310","0.0-1.0-365.0-0.0","0","0","30294","","180","","","68","40","","","1","40","training","adjacent","FG","6","7","L.jpg","O.jpg","1","1","1","",""
"","feedback","","html-keyboard-response","265","448320","0.0-1.0-366.0-0.0","0","0","30294","","null","","","null","40","","","","","","","","","","","","","","","",""
"","ITI","","html-keyboard-response","266","449327","0.0-1.0-369.0","0","0","30294","","null","","","null","40","","","","","","","","","","","","","","","NaN",""
"","S1","","html-keyboard-response","267","449584","0.0-1.0-371.0","0","0","30294","","null","","","null","41","","","","","","","","","","","","","","","",""
"","ISI","","html-keyboard-response","268","450591","0.0-1.0-372.0","0","0","30294","","null","","","null","41","NaN","","","","","","","","","","","","","","",""
"","S2","","html-keyboard-response","269","450848","0.0-1.0-373.0","0","0","30294","","null","","","null","41","","NaN","","","","","","","","","","","","","",""
"","response","","html-keyboard-response","270","451252","0.0-1.0-374.0-0.0","0","0","30294","","402","","","75","41","","","1","41","training","adjacent","ED","5","4","M.jpg","R.jpg","0","0","1","",""
"","feedback","","html-keyboard-response","271","452263","0.0-1.0-375.0-0.0","0","0","30294","","null","","","null","41","","","","","","","","","","","","","","","",""
"","ITI","","html-keyboard-response","272","453271","0.0-1.0-378.0","0","0","30294","","null","","","null","41","","","","","","","","","","","","","","","NaN",""
"","S1","","html-keyboard-response","273","453527","0.0-1.0-380.0","0","0","30294","","null","","","null","42","","","","","","","","","","","","","","","",""
"","ISI","","html-keyboard-response","274","454535","0.0-1.0-381.0","0","0","30294","","null","","","null","42","NaN","","","","","","","","","","","","","","",""
"","S2","","html-keyboard-response","275","454792","0.0-1.0-382.0","0","0","30294","","null","","","null","42","","NaN","","","","","","","","","","","","","",""
"","response","","html-keyboard-response","276","455180","0.0-1.0-383.0-0.0","0","0","30294","","386","","","68","42","","","1","42","training","adjacent","CD","3","4","P.jpg","R.jpg","1","1","1","",""
"","feedback","","html-keyboard-response","277","456192","0.0-1.0-384.0-0.0","0","0","30294","","null","","","null","42","","","","","","","","","","","","","","","",""
"","ITI","","html-keyboard-response","278","457199","0.0-1.0-387.0","0","0","30294","","null","","","null","42","","","","","","","","","","","","","","","NaN",""
"","S1","","html-keyboard-response","279","457454","0.0-1.0-389.0","0","0","30294","","null","","","null","43","","","","","","","","","","","","","","","",""
"","ISI","","html-keyboard-response","280","458464","0.0-1.0-390.0","0","0","30294","","null","","","null","43","NaN","","","","","","","","","","","","","","",""
"","S2","","html-keyboard-response","281","458720","0.0-1.0-391.0","0","0","30294","","null","","","null","43","","NaN","","","","","","","","","","","","","",""
"","response","","html-keyboard-response","282","459014","0.0-1.0-392.0-0.0","0","0","30294","","292","","","75","43","","","1","43","training","adjacent","EF","5","6","M.jpg","L.jpg","0","1","0","",""
"","feedback","","html-keyboard-response","283","460023","0.0-1.0-393.0-0.0","0","0","30294","","null","","","null","43","","","","","","","","","","","","","","","",""
"","time_out","","html-keyboard-response","284","462031","0.0-1.0-395.0-0.0","0","0","30294","","null","","","null","43","","","","","","","","","","","","","","","",""
"","ITI","","html-keyboard-response","285","463039","0.0-1.0-396.0","0","0","30294","","null","","","null","43","","","","","","","","","","","","","","","NaN",""
"","S1","","html-keyboard-response","286","463295","0.0-1.0-398.0","0","0","30294","","null","","","null","44","","","","","","","","","","","","","","","",""
"","ISI","","html-keyboard-response","287","464303","0.0-1.0-399.0","0","0","30294","","null","","","null","44","NaN","","","","","","","","","","","","","","",""
"","S2","","html-keyboard-response","288","464559","0.0-1.0-400.0","0","0","30294","","null","","","null","44","","NaN","","","","","","","","","","","","","",""
"","response","","html-keyboard-response","289","464898","0.0-1.0-401.0-0.0","0","0","30294","","336","","","68","44","","","1","44","training","adjacent","DC","4","3","R.jpg","P.jpg","1","0","0","",""
"","feedback","","html-keyboard-response","290","465904","0.0-1.0-402.0-0.0","0","0","30294","","null","","","null","44","","","","","","","","","","","","","","","",""
"","time_out","","html-keyboard-response","291","467910","0.0-1.0-404.0-0.0","0","0","30294","","null","","","null","44","","","","","","","","","","","","","","","",""
"","ITI","","html-keyboard-response","292","468919","0.0-1.0-405.0","0","0","30294","","null","","","null","44","","","","","","","","","","","","","","","NaN",""
"","S1","","html-keyboard-response","293","469175","0.0-1.0-407.0","0","0","30294","","null","","","null","45","","","","","","","","","","","","","","","",""
"","ISI","","html-keyboard-response","294","470183","0.0-1.0-408.0","0","0","30294","","null","","","null","45","NaN","","","","","","","","","","","","","","",""
"","S2","","html-keyboard-response","295","470438","0.0-1.0-409.0","0","0","30294","","null","","","null","45","","NaN","","","","","","","","","","","","","",""
"","response","","html-keyboard-response","296","470542","0.0-1.0-410.0-0.0","0","0","30294","","101","","","75","45","","","1","45","training","adjacent","BC","2","3","Q.jpg","P.jpg","0","1","0","",""
"","feedback","","html-keyboard-response","297","471552","0.0-1.0-411.0-0.0","0","0","30294","","null","","","null","45","","","","","","","","","","","","","","","",""
"","time_out","","html-keyboard-response","298","473558","0.0-1.0-413.0-0.0","0","0","30294","","null","","","null","45","","","","","","","","","","","","","","","",""
"","ITI","","html-keyboard-response","299","474567","0.0-1.0-414.0","0","0","30294","","null","","","null","45","","","","","","","","","","","","","","","NaN",""
"","S1","","html-keyboard-response","300","474823","0.0-1.0-416.0","0","0","30294","","null","","","null","46","","","","","","","","","","","","","","","",""
"","ISI","","html-keyboard-response","301","475830","0.0-1.0-417.0","0","0","30294","","null","","","null","46","NaN","","","","","","","","","","","","","","",""
"","S2","","html-keyboard-response","302","476087","0.0-1.0-418.0","0","0","30294","","null","","","null","46","","NaN","","","","","","","","","","","","","",""
"","response","","html-keyboard-response","303","476180","0.0-1.0-419.0-0.0","0","0","30294","","91","","","75","46","","","1","46","training","adjacent","CB","3","2","P.jpg","Q.jpg","0","0","1","",""
"","feedback","","html-keyboard-response","304","477190","0.0-1.0-420.0-0.0","0","0","30294","","null","","","null","46","","","","","","","","","","","","","","","",""
"","ITI","","html-keyboard-response","305","478198","0.0-1.0-423.0","0","0","30294","","null","","","null","46","","","","","","","","","","","","","","","NaN",""
"","S1","","html-keyboard-response","306","478454","0.0-1.0-425.0","0","0","30294","","null","","","null","47","","","","","","","","","","","","","","","",""
"","ISI","","html-keyboard-response","307","479462","0.0-1.0-426.0","0","0","30294","","null","","","null","47","NaN","","","","","","","","","","","","","","",""
"","S2","","html-keyboard-response","308","479718","0.0-1.0-427.0","0","0","30294","","null","","","null","47","","NaN","","","","","","","","","","","","","",""
"","response","","html-keyboard-response","309","480138","0.0-1.0-428.0-0.0","0","0","30294","","418","","","68","47","","","1","47","training","adjacent","AB","1","2","N.jpg","Q.jpg","1","1","1","",""
"","feedback","","html-keyboard-response","310","481142","0.0-1.0-429.0-0.0","0","0","30294","","null","","","null","47","","","","","","","","","","","","","","","",""
"","ITI","","html-keyboard-response","311","482151","0.0-1.0-432.0","0","0","30294","","null","","","null","47","","","","","","","","","","","","","","","NaN",""
"","block_over","","html-keyboard-response","312","622904","0.0-1.0-433.0-0.0","0","0","30294","","140750","","","32","47","","","","","","","","","","","","","","","",""
"","S1","","html-keyboard-response","313","623162","0.0-1.0-434.0","0","0","30294","","null","","","null","48","","","","","","","","","","","","","","","",""
"","ISI","","html-keyboard-response","314","624170","0.0-1.0-435.0","0","0","30294","","null","","","null","48","NaN","","","","","","","","","","","","","","",""
"","S2","","html-keyboard-response","315","624427","0.0-1.0-436.0","0","0","30294","","null","","","null","48","","NaN","","","","","","","","","","","","","",""
"","response","","html-keyboard-response","316","625275","0.0-1.0-437.0-0.0","0","0","30294","","845","","","75","48","","","2","48","training","adjacent","DE","4","5","R.jpg","M.jpg","0","1","0","",""
"","feedback","","html-keyboard-response","317","626282","0.0-1.0-438.0-0.0","0","0","30294","","null","","","null","48","","","","","","","","","","","","","","","",""
"","time_out","","html-keyboard-response","318","628291","0.0-1.0-440.0-0.0","0","0","30294","","null","","","null","48","","","","","","","","","","","","","","","",""
"","ITI","","html-keyboard-response","319","629298","0.0-1.0-441.0","0","0","30294","","null","","","null","48","","","","","","","","","","","","","","","NaN",""
"","S1","","html-keyboard-response","320","629555","0.0-1.0-443.0","0","0","30294","","null","","","null","49","","","","","","","","","","","","","","","",""
"","ISI","","html-keyboard-response","321","630562","0.0-1.0-444.0","0","0","30294","","null","","","null","49","NaN","","","","","","","","","","","","","","",""
"","S2","","html-keyboard-response","322","630819","0.0-1.0-445.0","0","0","30294","","null","","","null","49","","NaN","","","","","","","","","","","","","",""
"","response","","html-keyboard-response","323","631000","0.0-1.0-446.0-0.0","0","0","30294","","178","","","75","49","","","2","49","training","adjacent","CD","3","4","P.jpg","R.jpg","0","1","0","",""
"","feedback","","html-keyboard-response","324","632011","0.0-1.0-447.0-0.0","0","0","30294","","null","","","null","49","","","","","","","","","","","","","","","",""
"","time_out","","html-keyboard-response","325","634018","0.0-1.0-449.0-0.0","0","0","30294","","null","","","null","49","","","","","","","","","","","","","","","",""
"","ITI","","html-keyboard-response","326","635026","0.0-1.0-450.0","0","0","30294","","null","","","null","49","","","","","","","","","","","","","","","NaN",""
"","S1","","html-keyboard-response","327","635283","0.0-1.0-452.0","0","0","30294","","null","","","null","50","","","","","","","","","","","","","","","",""
"","ISI","","html-keyboard-response","328","636291","0.0-1.0-453.0","0","0","30294","","306","","","68","50","d","","","","","","","","","","","","","","",""
"","S2","","html-keyboard-response","329","636547","0.0-1.0-454.0","0","0","30294","","null","","","null","50","","NaN","","","","","","","","","","","","","",""
"","response","","html-keyboard-response","330","636834","0.0-1.0-455.0-0.0","0","0","30294","","285","","","68","50","","","2","50","training","adjacent","FG","6","7","L.jpg","O.jpg","1","1","1","",""
"","feedback","","html-keyboard-response","331","637843","0.0-1.0-456.0-0.0","0","0","30294","","null","","","null","50","","","","","","","","","","","","","","","",""
"","ITI","","html-keyboard-response","332","638850","0.0-1.0-459.0","0","0","30294","","null","","","null","50","","","","","","","","","","","","","","","NaN",""
"","S1","","html-keyboard-response","333","639106","0.0-1.0-461.0","0","0","30294","","null","","","null","51","","","","","","","","","","","","","","","",""
"","ISI","","html-keyboard-response","334","640114","0.0-1.0-462.0","0","0","30294","","null","","","null","51","NaN","","","","","","","","","","","","","","",""
"","S2","","html-keyboard-response","335","640370","0.0-1.0-463.0","0","0","30294","","null","","","null","51","","NaN","","","","","","","","","","","","","",""
"","response","","html-keyboard-response","336","640766","0.0-1.0-464.0-0.0","0","0","30294","","394","","","75","51","","","2","51","training","adjacent","BA","2","1","Q.jpg","N.jpg","0","0","1","",""
"","feedback","","html-keyboard-response","337","641771","0.0-1.0-465.0-0.0","0","0","30294","","null","","","null","51","","","","","","","","","","","","","","","",""
"","ITI","","html-keyboard-response","338","642779","0.0-1.0-468.0","0","0","30294","","null","","","null","51","","","","","","","","","","","","","","","NaN",""
"","S1","","html-keyboard-response","339","643034","0.0-1.0-470.0","0","0","30294","","null","","","null","52","","","","","","","","","","","","","","","",""
"","ISI","","html-keyboard-response","340","644041","0.0-1.0-471.0","0","0","30294","","null","","","null","52","NaN","","","","","","","","","","","","","","",""
"","S2","","html-keyboard-response","341","644298","0.0-1.0-472.0","0","0","30294","","null","","","null","52","","NaN","","","","","","","","","","","","","",""
"","response","","html-keyboard-response","342","646058","0.0-1.0-473.0-0.0","0","0","30294","","null","","","null","52","","","2","52","training","adjacent","GF","7","6","O.jpg","L.jpg","NaN","0","0","",""
"","too_slow_prompt","","html-keyboard-response","343","647066","0.0-1.0-475.0-0.0","1","0","30294","","null","","","null","","","","","","","","","","","","","","","","",""
"","time_out","","html-keyboard-response","344","649074","0.0-1.0-476.0-0.0","0","0","30294","","null","","","null","52","","","","","","","","","","","","","","","",""
"","ITI","","html-keyboard-response","345","650082","0.0-1.0-477.0","0","0","30294","","null","","","null","52","","","","","","","","","","","","","","","NaN",""
"","S1","","html-keyboard-response","346","650338","0.0-1.0-479.0","0","0","30294","","null","","","null","53","","","","","","","","","","","","","","","",""
"","ISI","","html-keyboard-response","347","651346","0.0-1.0-480.0","0","0","30294","","null","","","null","53","NaN","","","","","","","","","","","","","","",""
"","S2","","html-keyboard-response","348","651601","0.0-1.0-481.0","0","0","30294","","null","","","null","53","","NaN","","","","","","","","","","","","","",""
"","response","","html-keyboard-response","349","651780","0.0-1.0-482.0-0.0","0","0","30294","","177","","","75","53","","","2","53","training","adjacent","CD","3","4","P.jpg","R.jpg","0","1","0","",""
"","feedback","","html-keyboard-response","350","652786","0.0-1.0-483.0-0.0","0","0","30294","","null","","","null","53","","","","","","","","","","","","","","","",""
"","time_out","","html-keyboard-response","351","654795","0.0-1.0-485.0-0.0","0","0","30294","","null","","","null","53","","","","","","","","","","","","","","","",""
"","ITI","","html-keyboard-response","352","655801","0.0-1.0-486.0","0","0","30294","","null","","","null","53","","","","","","","","","","","","","","","NaN",""
"","S1","","html-keyboard-response","353","656059","0.0-1.0-488.0","0","0","30294","","null","","","null","54","","","","","","","","","","","","","","","",""
"","ISI","","html-keyboard-response","354","657066","0.0-1.0-489.0","0","0","30294","","null","","","null","54","NaN","","","","","","","","","","","","","","",""
"","S2","","html-keyboard-response","355","657321","0.0-1.0-490.0","0","0","30294","","null","","","null","54","","NaN","","","","","","","","","","","","","",""
"","response","","html-keyboard-response","356","657673","0.0-1.0-491.0-0.0","0","0","30294","","349","","","75","54","","","2","54","training","adjacent","AB","1","2","N.jpg","Q.jpg","0","1","0","",""
"","feedback","","html-keyboard-response","357","658683","0.0-1.0-492.0-0.0","0","0","30294","","null","","","null","54","","","","","","","","","","","","","","","",""
"","time_out","","html-keyboard-response","358","660690","0.0-1.0-494.0-0.0","0","0","30294","","null","","","null","54","","","","","","","","","","","","","","","",""
"","ITI","","html-keyboard-response","359","661698","0.0-1.0-495.0","0","0","30294","","null","","","null","54","","","","","","","","","","","","","","","NaN",""
"","S1","","html-keyboard-response","360","661953","0.0-1.0-497.0","0","0","30294","","null","","","null","55","","","","","","","","","","","","","","","",""
"","ISI","","html-keyboard-response","361","662962","0.0-1.0-498.0","0","0","30294","","null","","","null","55","NaN","","","","","","","","","","","","","","",""
"","S2","","html-keyboard-response","362","663218","0.0-1.0-499.0","0","0","30294","","null","","","null","55","","NaN","","","","","","","","","","","","","",""
"","response","","html-keyboard-response","363","663733","0.0-1.0-500.0-0.0","0","0","30294","","514","","","68","55","","","2","55","training","adjacent","FG","6","7","L.jpg","O.jpg","1","1","1","",""
"","feedback","","html-keyboard-response","364","664738","0.0-1.0-501.0-0.0","0","0","30294","","null","","","null","55","","","","","","","","","","","","","","","",""
"","ITI","","html-keyboard-response","365","665746","0.0-1.0-504.0","0","0","30294","","null","","","null","55","","","","","","","","","","","","","","","NaN",""
"","S1","","html-keyboard-response","366","666001","0.0-1.0-506.0","0","0","30294","","null","","","null","56","","","","","","","","","","","","","","","",""
"","ISI","","html-keyboard-response","367","667009","0.0-1.0-507.0","0","0","30294","","null","","","null","56","NaN","","","","","","","","","","","","","","",""
"","S2","","html-keyboard-response","368","667266","0.0-1.0-508.0","0","0","30294","","null","","","null","56","","NaN","","","","","","","","","","","","","",""
"","response","","html-keyboard-response","369","667440","0.0-1.0-509.0-0.0","0","0","30294","","173","","","75","56","","","2","56","training","adjacent","DC","4","3","R.jpg","P.jpg","0","0","1","",""
"","feedback","","html-keyboard-response","370","668449","0.0-1.0-510.0-0.0","0","0","30294","","null","","","null","56","","","","","","","","","","","","","","","",""
"","ITI","","html-keyboard-response","371","669457","0.0-1.0-513.0","0","0","30294","","null","","","null","56","","","","","","","","","","","","","","","NaN",""
"","S1","","html-keyboard-response","372","669713","0.0-1.0-515.0","0","0","30294","","null","","","null","57","","","","","","","","","","","","","","","",""
"","ISI","","html-keyboard-response","373","670721","0.0-1.0-516.0","0","0","30294","","null","","","null","57","NaN","","","","","","","","","","","","","","",""
"","S2","","html-keyboard-response","374","670977","0.0-1.0-517.0","0","0","30294","","null","","","null","57","","NaN","","","","","","","","","","","","","",""
"","response","","html-keyboard-response","375","671528","0.0-1.0-518.0-0.0","0","0","30294","","549","","","75","57","","","2","57","training","adjacent","FE","6","5","L.jpg","M.jpg","0","0","1","",""
"","feedback","","html-keyboard-response","376","672538","0.0-1.0-519.0-0.0","0","0","30294","","null","","","null","57","","","","","","","","","","","","","","","",""
"","ITI","","html-keyboard-response","377","673546","0.0-1.0-522.0","0","0","30294","","null","","","null","57","","","","","","","","","","","","","","","NaN",""
"","S1","","html-keyboard-response","378","673801","0.0-1.0-524.0","0","0","30294","","null","","","null","58","","","","","","","","","","","","","","","",""
"","ISI","","html-keyboard-response","379","674809","0.0-1.0-525.0","0","0","30294","","null","","","null","58","NaN","","","","","","","","","","","","","","",""
"","S2","","html-keyboard-response","380","675066","0.0-1.0-526.0","0","0","30294","","null","","","null","58","","NaN","","","","","","","","","","","","","",""
"","response","","html-keyboard-response","381","675582","0.0-1.0-527.0-0.0","0","0","30294","","513","","","68","58","","","2","58","training","adjacent","AB","1","2","N.jpg","Q.jpg","1","1","1","",""
"","feedback","","html-keyboard-response","382","676593","0.0-1.0-528.0-0.0","0","0","30294","","null","","","null","58","","","","","","","","","","","","","","","",""
"","ITI","","html-keyboard-response","383","677600","0.0-1.0-531.0","0","0","30294","","null","","","null","58","","","","","","","","","","","","","","","NaN",""
"","S1","","html-keyboard-response","384","677857","0.0-1.0-533.0","0","0","30294","","null","","","null","59","","","","","","","","","","","","","","","",""
"","ISI","","html-keyboard-response","385","678864","0.0-1.0-534.0","0","0","30294","","null","","","null","59","NaN","","","","","","","","","","","","","","",""
"","S2","","html-keyboard-response","386","679121","0.0-1.0-535.0","0","0","30294","","null","","","null","59","","NaN","","","","","","","","","","","","","",""
"","response","","html-keyboard-response","387","679440","0.0-1.0-536.0-0.0","0","0","30294","","317","","","68","59","","","2","59","training","adjacent","ED","5","4","M.jpg","R.jpg","1","0","0","",""
"","feedback","","html-keyboard-response","388","680449","0.0-1.0-537.0-0.0","0","0","30294","","null","","","null","59","","","","","","","","","","","","","","","",""
"","time_out","","html-keyboard-response","389","682457","0.0-1.0-539.0-0.0","0","0","30294","","null","","","null","59","","","","","","","","","","","","","","","",""
"","ITI","","html-keyboard-response","390","683464","0.0-1.0-540.0","0","0","30294","","null","","","null","59","","","","","","","","","","","","","","","NaN",""
"","S1","","html-keyboard-response","391","683722","0.0-1.0-542.0","0","0","30294","","null","","","null","60","","","","","","","","","","","","","","","",""
"","ISI","","html-keyboard-response","392","684730","0.0-1.0-543.0","0","0","30294","","null","","","null","60","NaN","","","","","","","","","","","","","","",""
"","S2","","html-keyboard-response","393","684986","0.0-1.0-544.0","0","0","30294","","null","","","null","60","","NaN","","","","","","","","","","","","","",""
"","response","","html-keyboard-response","394","685439","0.0-1.0-545.0-0.0","0","0","30294","","450","","","68","60","","","2","60","training","adjacent","CB","3","2","P.jpg","Q.jpg","1","0","0","",""
"","feedback","","html-keyboard-response","395","686448","0.0-1.0-546.0-0.0","0","0","30294","","null","","","null","60","","","","","","","","","","","","","","","",""
"","time_out","","html-keyboard-response","396","688458","0.0-1.0-548.0-0.0","0","0","30294","","null","","","null","60","","","","","","","","","","","","","","","",""
"","ITI","","html-keyboard-response","397","689466","0.0-1.0-549.0","0","0","30294","","null","","","null","60","","","","","","","","","","","","","","","NaN",""
"","S1","","html-keyboard-response","398","689721","0.0-1.0-551.0","0","0","30294","","null","","","null","61","","","","","","","","","","","","","","","",""
"","ISI","","html-keyboard-response","399","690729","0.0-1.0-552.0","0","0","30294","","null","","","null","61","NaN","","","","","","","","","","","","","","",""
"","S2","","html-keyboard-response","400","690984","0.0-1.0-553.0","0","0","30294","","null","","","null","61","","NaN","","","","","","","","","","","","","",""
"","response","","html-keyboard-response","401","691254","0.0-1.0-554.0-0.0","0","0","30294","","269","","","75","61","","","2","61","training","adjacent","EF","5","6","M.jpg","L.jpg","0","1","0","",""
"","feedback","","html-keyboard-response","402","692266","0.0-1.0-555.0-0.0","0","0","30294","","null","","","null","61","","","","","","","","","","","","","","","",""
"","time_out","","html-keyboard-response","403","694273","0.0-1.0-557.0-0.0","0","0","30294","","null","","","null","61","","","","","","","","","","","","","","","",""
"","ITI","","html-keyboard-response","404","695280","0.0-1.0-558.0","0","0","30294","","null","","","null","61","","","","","","","","","","","","","","","NaN",""
"","S1","","html-keyboard-response","405","695536","0.0-1.0-560.0","0","0","30294","","null","","","null","62","","","","","","","","","","","","","","","",""
"","ISI","","html-keyboard-response","406","696544","0.0-1.0-561.0","0","0","30294","","null","","","null","62","NaN","","","","","","","","","","","","","","",""
"","S2","","html-keyboard-response","407","696800","0.0-1.0-562.0","0","0","30294","","null","","","null","62","","NaN","","","","","","","","","","","","","",""
"","response","","html-keyboard-response","408","696998","0.0-1.0-563.0-0.0","0","0","30294","","196","","","75","62","","","2","62","training","adjacent","BA","2","1","Q.jpg","N.jpg","0","0","1","",""
"","feedback","","html-keyboard-response","409","698009","0.0-1.0-564.0-0.0","0","0","30294","","null","","","null","62","","","","","","","","","","","","","","","",""
"","ITI","","html-keyboard-response","410","699016","0.0-1.0-567.0","0","0","30294","","null","","","null","62","","","","","","","","","","","","","","","NaN",""
"","S1","","html-keyboard-response","411","699273","0.0-1.0-569.0","0","0","30294","","null","","","null","63","","","","","","","","","","","","","","","",""
"","ISI","","html-keyboard-response","412","700281","0.0-1.0-570.0","0","0","30294","","null","","","null","63","NaN","","","","","","","","","","","","","","",""
"","S2","","html-keyboard-response","413","700537","0.0-1.0-571.0","0","0","30294","","null","","","null","63","","NaN","","","","","","","","","","","","","",""
"","response","","html-keyboard-response","414","700851","0.0-1.0-572.0-0.0","0","0","30294","","312","","","68","63","","","2","63","training","adjacent","FE","6","5","L.jpg","M.jpg","1","0","0","",""
"","feedback","","html-keyboard-response","415","701856","0.0-1.0-573.0-0.0","0","0","30294","","null","","","null","63","","","","","","","","","","","","","","","",""
"","time_out","","html-keyboard-response","416","703865","0.0-1.0-575.0-0.0","0","0","30294","","null","","","null","63","","","","","","","","","","","","","","","",""
"","ITI","","html-keyboard-response","417","704873","0.0-1.0-576.0","0","0","30294","","null","","","null","63","","","","","","","","","","","","","","","NaN",""
"","S1","","html-keyboard-response","418","705129","0.0-1.0-578.0","0","0","30294","","null","","","null","64","","","","","","","","","","","","","","","",""
"","ISI","","html-keyboard-response","419","706136","0.0-1.0-579.0","0","0","30294","","null","","","null","64","NaN","","","","","","","","","","","","","","",""
"","S2","","html-keyboard-response","420","706393","0.0-1.0-580.0","0","0","30294","","null","","","null","64","","NaN","","","","","","","","","","","","","",""
"","response","","html-keyboard-response","421","706473","0.0-1.0-581.0-0.0","0","0","30294","","78","","","75","64","","","2","64","training","adjacent","GF","7","6","O.jpg","L.jpg","0","0","1","",""
"","feedback","","html-keyboard-response","422","707481","0.0-1.0-582.0-0.0","0","0","30294","","null","","","null","64","","","","","","","","","","","","","","","",""
"","ITI","","html-keyboard-response","423","708489","0.0-1.0-585.0","0","0","30294","","null","","","null","64","","","","","","","","","","","","","","","NaN",""
"","S1","","html-keyboard-response","424","708744","0.0-1.0-587.0","0","0","30294","","null","","","null","65","","","","","","","","","","","","","","","",""
"","ISI","","html-keyboard-response","425","709753","0.0-1.0-588.0","0","0","30294","","null","","","null","65","NaN","","","","","","","","","","","","","","",""
"","S2","","html-keyboard-response","426","710009","0.0-1.0-589.0","0","0","30294","","null","","","null","65","","NaN","","","","","","","","","","","","","",""
"","response","","html-keyboard-response","427","710132","0.0-1.0-590.0-0.0","0","0","30294","","121","","","75","65","","","2","65","training","adjacent","ED","5","4","M.jpg","R.jpg","0","0","1","",""
"","feedback","","html-keyboard-response","428","711135","0.0-1.0-591.0-0.0","0","0","30294","","null","","","null","65","","","","","","","","","","","","","","","",""
"","ITI","","html-keyboard-response","429","712144","0.0-1.0-594.0","0","0","30294","","null","","","null","65","","","","","","","","","","","","","","","NaN",""
"","S1","","html-keyboard-response","430","712399","0.0-1.0-596.0","0","0","30294","","null","","","null","66","","","","","","","","","","","","","","","",""
"","ISI","","html-keyboard-response","431","713409","0.0-1.0-597.0","0","0","30294","","null","","","null","66","NaN","","","","","","","","","","","","","","",""
"","S2","","html-keyboard-response","432","713663","0.0-1.0-598.0","0","0","30294","","null","","","null","66","","NaN","","","","","","","","","","","","","",""
"","response","","html-keyboard-response","433","714266","0.0-1.0-599.0-0.0","0","0","30294","","600","","","75","66","","","2","66","training","adjacent","DE","4","5","R.jpg","M.jpg","0","1","0","",""
"","feedback","","html-keyboard-response","434","715273","0.0-1.0-600.0-0.0","0","0","30294","","null","","","null","66","","","","","","","","","","","","","","","",""
"","time_out","","html-keyboard-response","435","717280","0.0-1.0-602.0-0.0","0","0","30294","","null","","","null","66","","","","","","","","","","","","","","","",""
"","ITI","","html-keyboard-response","436","718288","0.0-1.0-603.0","0","0","30294","","null","","","null","66","","","","","","","","","","","","","","","NaN",""
"","S1","","html-keyboard-response","437","718544","0.0-1.0-605.0","0","0","30294","","null","","","null","67","","","","","","","","","","","","","","","",""
"","ISI","","html-keyboard-response","438","719551","0.0-1.0-606.0","0","0","30294","","null","","","null","67","NaN","","","","","","","","","","","","","","",""
"","S2","","html-keyboard-response","439","719808","0.0-1.0-607.0","0","0","30294","","null","","","null","67","","NaN","","","","","","","","","","","","","",""
"","response","","html-keyboard-response","440","720375","0.0-1.0-608.0-0.0","0","0","30294","","565","","","75","67","","","2","67","training","adjacent","BA","2","1","Q.jpg","N.jpg","0","0","1","",""
"","feedback","","html-keyboard-response","441","721384","0.0-1.0-609.0-0.0","0","0","30294","","null","","","null","67","","","","","","","","","","","","","","","",""
"","ITI","","html-keyboard-response","442","722392","0.0-1.0-612.0","0","0","30294","","null","","","null","67","","","","","","","","","","","","","","","NaN",""
"","S1","","html-keyboard-response","443","722649","0.0-1.0-614.0","0","0","30294","","null","","","null","68","","","","","","","","","","","","","","","",""
"","ISI","","html-keyboard-response","444","723656","0.0-1.0-615.0","0","0","30294","","null","","","null","68","NaN","","","","","","","","","","","","","","",""
"","S2","","html-keyboard-response","445","723912","0.0-1.0-616.0","0","0","30294","","null","","","null","68","","NaN","","","","","","","","","","","","","",""
"","response","","html-keyboard-response","446","724407","0.0-1.0-617.0-0.0","0","0","30294","","493","","","68","68","","","2","68","training","adjacent","CB","3","2","P.jpg","Q.jpg","1","0","0","",""
"","feedback","","html-keyboard-response","447","725415","0.0-1.0-618.0-0.0","0","0","30294","","null","","","null","68","","","","","","","","","","","","","","","",""
"","time_out","","html-keyboard-response","448","727424","0.0-1.0-620.0-0.0","0","0","30294","","null","","","null","68","","","","","","","","","","","","","","","",""
"","ITI","","html-keyboard-response","449","728431","0.0-1.0-621.0","0","0","30294","","null","","","null","68","","","","","","","","","","","","","","","NaN",""
"","S1","","html-keyboard-response","450","728688","0.0-1.0-623.0","0","0","30294","","null","","","null","69","","","","","","","","","","","","","","","",""
"","ISI","","html-keyboard-response","451","729697","0.0-1.0-624.0","0","0","30294","","null","","","null","69","NaN","","","","","","","","","","","","","","",""
"","S2","","html-keyboard-response","452","729952","0.0-1.0-625.0","0","0","30294","","null","","","null","69","","NaN","","","","","","","","","","","","","",""
"","response","","html-keyboard-response","453","730609","0.0-1.0-626.0-0.0","0","0","30294","","656","","","75","69","","","2","69","training","adjacent","FE","6","5","L.jpg","M.jpg","0","0","1","",""
"","feedback","","html-keyboard-response","454","731615","0.0-1.0-627.0-0.0","0","0","30294","","null","","","null","69","","","","","","","","","","","","","","","",""
"","ITI","","html-keyboard-response","455","732623","0.0-1.0-630.0","0","0","30294","","null","","","null","69","","","","","","","","","","","","","","","NaN",""
"","S1","","html-keyboard-response","456","732880","0.0-1.0-632.0","0","0","30294","","null","","","null","70","","","","","","","","","","","","","","","",""
"","ISI","","html-keyboard-response","457","733888","0.0-1.0-633.0","0","0","30294","","null","","","null","70","NaN","","","","","","","","","","","","","","",""
"","S2","","html-keyboard-response","458","734143","0.0-1.0-634.0","0","0","30294","","null","","","null","70","","NaN","","","","","","","","","","","","","",""
"","response","","html-keyboard-response","459","734510","0.0-1.0-635.0-0.0","0","0","30294","","364","","","75","70","","","2","70","training","adjacent","EF","5","6","M.jpg","L.jpg","0","1","0","",""
"","feedback","","html-keyboard-response","460","735520","0.0-1.0-636.0-0.0","0","0","30294","","null","","","null","70","","","","","","","","","","","","","","","",""
"","time_out","","html-keyboard-response","461","737528","0.0-1.0-638.0-0.0","0","0","30294","","null","","","null","70","","","","","","","","","","","","","","","",""
"","ITI","","html-keyboard-response","462","738536","0.0-1.0-639.0","0","0","30294","","null","","","null","70","","","","","","","","","","","","","","","NaN",""
"","S1","","html-keyboard-response","463","738792","0.0-1.0-641.0","0","0","30294","","null","","","null","71","","","","","","","","","","","","","","","",""
"","ISI","","html-keyboard-response","464","739798","0.0-1.0-642.0","0","0","30294","","null","","","null","71","NaN","","","","","","","","","","","","","","",""
"","S2","","html-keyboard-response","465","740056","0.0-1.0-643.0","0","0","30294","","null","","","null","71","","NaN","","","","","","","","","","","","","",""
"","response","","html-keyboard-response","466","740357","0.0-1.0-644.0-0.0","0","0","30294","","298","","","75","71","","","2","71","training","adjacent","FE","6","5","L.jpg","M.jpg","0","0","1","",""
"","feedback","","html-keyboard-response","467","741360","0.0-1.0-645.0-0.0","0","0","30294","","null","","","null","71","","","","","","","","","","","","","","","",""
"","ITI","","html-keyboard-response","468","742367","0.0-1.0-648.0","0","0","30294","","null","","","null","71","","","","","","","","","","","","","","","NaN",""
"","S1","","html-keyboard-response","469","742623","0.0-1.0-650.0","0","0","30294","","null","","","null","72","","","","","","","","","","","","","","","",""
"","ISI","","html-keyboard-response","470","743631","0.0-1.0-651.0","0","0","30294","","null","","","null","72","NaN","","","","","","","","","","","","","","",""
"","S2","","html-keyboard-response","471","743887","0.0-1.0-652.0","0","0","30294","","null","","","null","72","","NaN","","","","","","","","","","","","","",""
"","response","","html-keyboard-response","472","744781","0.0-1.0-653.0-0.0","0","0","30294","","892","","","68","72","","","2","72","training","adjacent","EF","5","6","M.jpg","L.jpg","1","1","1","",""
"","feedback","","html-keyboard-response","473","745792","0.0-1.0-654.0-0.0","0","0","30294","","null","","","null","72","","","","","","","","","","","","","","","",""
"","ITI","","html-keyboard-response","474","746799","0.0-1.0-657.0","0","0","30294","","null","","","null","72","","","","","","","","","","","","","","","NaN",""
"","S1","","html-keyboard-response","475","747056","0.0-1.0-659.0","0","0","30294","","null","","","null","73","","","","","","","","","","","","","","","",""
"","ISI","","html-keyboard-response","476","748063","0.0-1.0-660.0","0","0","30294","","null","","","null","73","NaN","","","","","","","","","","","","","","",""
"","S2","","html-keyboard-response","477","748318","0.0-1.0-661.0","0","0","30294","","null","","","null","73","","NaN","","","","","","","","","","","","","",""
"","response","","html-keyboard-response","478","748675","0.0-1.0-662.0-0.0","0","0","30294","","355","","","75","73","","","2","73","training","adjacent","DC","4","3","R.jpg","P.jpg","0","0","1","",""
"","feedback","","html-keyboard-response","479","749679","0.0-1.0-663.0-0.0","0","0","30294","","null","","","null","73","","","","","","","","","","","","","","","",""
"","ITI","","html-keyboard-response","480","750686","0.0-1.0-666.0","0","0","30294","","null","","","null","73","","","","","","","","","","","","","","","NaN",""
"","S1","","html-keyboard-response","481","750943","0.0-1.0-668.0","0","0","30294","","null","","","null","74","","","","","","","","","","","","","","","",""
"","ISI","","html-keyboard-response","482","751951","0.0-1.0-669.0","0","0","30294","","null","","","null","74","NaN","","","","","","","","","","","","","","",""
"","S2","","html-keyboard-response","483","752207","0.0-1.0-670.0","0","0","30294","","null","","","null","74","","NaN","","","","","","","","","","","","","",""
"","response","","html-keyboard-response","484","752995","0.0-1.0-671.0-0.0","0","0","30294","","785","","","68","74","","","2","74","training","adjacent","DE","4","5","R.jpg","M.jpg","1","1","1","",""
"","feedback","","html-keyboard-response","485","753999","0.0-1.0-672.0-0.0","0","0","30294","","null","","","null","74","","","","","","","","","","","","","","","",""
"","ITI","","html-keyboard-response","486","755006","0.0-1.0-675.0","0","0","30294","","null","","","null","74","","","","","","","","","","","","","","","NaN",""
"","S1","","html-keyboard-response","487","755264","0.0-1.0-677.0","0","0","30294","","null","","","null","75","","","","","","","","","","","","","","","",""
"","ISI","","html-keyboard-response","488","756271","0.0-1.0-678.0","0","0","30294","","null","","","null","75","NaN","","","","","","","","","","","","","","",""
"","S2","","html-keyboard-response","489","756526","0.0-1.0-679.0","0","0","30294","","null","","","null","75","","NaN","","","","","","","","","","","","","",""
"","response","","html-keyboard-response","490","756825","0.0-1.0-680.0-0.0","0","0","30294","","297","","","75","75","","","2","75","training","adjacent","GF","7","6","O.jpg","L.jpg","0","0","1","",""
"","feedback","","html-keyboard-response","491","757831","0.0-1.0-681.0-0.0","0","0","30294","","null","","","null","75","","","","","","","","","","","","","","","",""
"","ITI","","html-keyboard-response","492","758839","0.0-1.0-684.0","0","0","30294","","null","","","null","75","","","","","","","","","","","","","","","NaN",""
"","S1","","html-keyboard-response","493","759095","0.0-1.0-686.0","0","0","30294","","null","","","null","76","","","","","","","","","","","","","","","",""
"","ISI","","html-keyboard-response","494","760103","0.0-1.0-687.0","0","0","30294","","null","","","null","76","NaN","","","","","","","","","","","","","","",""
"","S2","","html-keyboard-response","495","760359","0.0-1.0-688.0","0","0","30294","","null","","","null","76","","NaN","","","","","","","","","","","","","",""
"","response","","html-keyboard-response","496","760696","0.0-1.0-689.0-0.0","0","0","30294","","335","","","68","76","","","2","76","training","adjacent","BA","2","1","Q.jpg","N.jpg","1","0","0","",""
"","feedback","","html-keyboard-response","497","761703","0.0-1.0-690.0-0.0","0","0","30294","","null","","","null","76","","","","","","","","","","","","","","","",""
"","time_out","","html-keyboard-response","498","763710","0.0-1.0-692.0-0.0","0","0","30294","","null","","","null","76","","","","","","","","","","","","","","","",""
"","ITI","","html-keyboard-response","499","764718","0.0-1.0-693.0","0","0","30294","","null","","","null","76","","","","","","","","","","","","","","","NaN",""
"","S1","","html-keyboard-response","500","764975","0.0-1.0-695.0","0","0","30294","","null","","","null","77","","","","","","","","","","","","","","","",""
"","ISI","","html-keyboard-response","501","765983","0.0-1.0-696.0","0","0","30294","","null","","","null","77","NaN","","","","","","","","","","","","","","",""
"","S2","","html-keyboard-response","502","766238","0.0-1.0-697.0","0","0","30294","","null","","","null","77","","NaN","","","","","","","","","","","","","",""
"","response","","html-keyboard-response","503","766536","0.0-1.0-698.0-0.0","0","0","30294","","295","","","75","77","","","2","77","training","adjacent","AB","1","2","N.jpg","Q.jpg","0","1","0","",""
"","feedback","","html-keyboard-response","504","767544","0.0-1.0-699.0-0.0","0","0","30294","","null","","","null","77","","","","","","","","","","","","","","","",""
"","time_out","","html-keyboard-response","505","769551","0.0-1.0-701.0-0.0","0","0","30294","","null","","","null","77","","","","","","","","","","","","","","","",""
"","ITI","","html-keyboard-response","506","770559","0.0-1.0-702.0","0","0","30294","","null","","","null","77","","","","","","","","","","","","","","","NaN",""
"","S1","","html-keyboard-response","507","770814","0.0-1.0-704.0","0","0","30294","","null","","","null","78","","","","","","","","","","","","","","","",""
"","ISI","","html-keyboard-response","508","771823","0.0-1.0-705.0","0","0","30294","","null","","","null","78","NaN","","","","","","","","","","","","","","",""
"","S2","","html-keyboard-response","509","772079","0.0-1.0-706.0","0","0","30294","","null","","","null","78","","NaN","","","","","","","","","","","","","",""
"","response","","html-keyboard-response","510","772445","0.0-1.0-707.0-0.0","0","0","30294","","364","","","68","78","","","2","78","training","adjacent","DE","4","5","R.jpg","M.jpg","1","1","1","",""
"","feedback","","html-keyboard-response","511","773455","0.0-1.0-708.0-0.0","0","0","30294","","null","","","null","78","","","","","","","","","","","","","","","",""
"","ITI","","html-keyboard-response","512","774463","0.0-1.0-711.0","0","0","30294","","null","","","null","78","","","","","","","","","","","","","","","NaN",""
"","S1","","html-keyboard-response","513","774719","0.0-1.0-713.0","0","0","30294","","null","","","null","79","","","","","","","","","","","","","","","",""
"","ISI","","html-keyboard-response","514","775726","0.0-1.0-714.0","0","0","30294","","null","","","null","79","NaN","","","","","","","","","","","","","","",""
"","S2","","html-keyboard-response","515","775983","0.0-1.0-715.0","0","0","30294","","null","","","null","79","","NaN","","","","","","","","","","","","","",""
"","response","","html-keyboard-response","516","776489","0.0-1.0-716.0-0.0","0","0","30294","","504","","","68","79","","","2","79","training","adjacent","AB","1","2","N.jpg","Q.jpg","1","1","1","",""
"","feedback","","html-keyboard-response","517","777495","0.0-1.0-717.0-0.0","0","0","30294","","null","","","null","79","","","","","","","","","","","","","","","",""
"","ITI","","html-keyboard-response","518","778503","0.0-1.0-720.0","0","0","30294","","null","","","null","79","","","","","","","","","","","","","","","NaN",""
"","S1","","html-keyboard-response","519","778759","0.0-1.0-722.0","0","0","30294","","null","","","null","80","","","","","","","","","","","","","","","",""
"","ISI","","html-keyboard-response","520","779768","0.0-1.0-723.0","0","0","30294","","null","","","null","80","NaN","","","","","","","","","","","","","","",""
"","S2","","html-keyboard-response","521","780023","0.0-1.0-724.0","0","0","30294","","null","","","null","80","","NaN","","","","","","","","","","","","","",""
"","response","","html-keyboard-response","522","780328","0.0-1.0-725.0-0.0","0","0","30294","","303","","","68","80","","","2","80","training","adjacent","CB","3","2","P.jpg","Q.jpg","1","0","0","",""
"","feedback","","html-keyboard-response","523","781335","0.0-1.0-726.0-0.0","0","0","30294","","null","","","null","80","","","","","","","","","","","","","","","",""
"","time_out","","html-keyboard-response","524","783343","0.0-1.0-728.0-0.0","0","0","30294","","null","","","null","80","","","","","","","","","","","","","","","",""
"","ITI","","html-keyboard-response","525","784350","0.0-1.0-729.0","0","0","30294","","null","","","null","80","","","","","","","","","","","","","","","NaN",""
"","S1","","html-keyboard-response","526","784607","0.0-1.0-731.0","0","0","30294","","null","","","null","81","","","","","","","","","","","","","","","",""
"","ISI","","html-keyboard-response","527","785614","0.0-1.0-732.0","0","0","30294","","null","","","null","81","NaN","","","","","","","","","","","","","","",""
"","S2","","html-keyboard-response","528","785870","0.0-1.0-733.0","0","0","30294","","null","","","null","81","","NaN","","","","","","","","","","","","","",""
"","response","","html-keyboard-response","529","786100","0.0-1.0-734.0-0.0","0","0","30294","","228","","","75","81","","","2","81","training","adjacent","EF","5","6","M.jpg","L.jpg","0","1","0","",""
"","feedback","","html-keyboard-response","530","787110","0.0-1.0-735.0-0.0","0","0","30294","","null","","","null","81","","","","","","","","","","","","","","","",""
"","time_out","","html-keyboard-response","531","789118","0.0-1.0-737.0-0.0","0","0","30294","","null","","","null","81","","","","","","","","","","","","","","","",""
"","ITI","","html-keyboard-response","532","790126","0.0-1.0-738.0","0","0","30294","","null","","","null","81","","","","","","","","","","","","","","","NaN",""
"","S1","","html-keyboard-response","533","790382","0.0-1.0-740.0","0","0","30294","","null","","","null","82","","","","","","","","","","","","","","","",""
"","ISI","","html-keyboard-response","534","791390","0.0-1.0-741.0","0","0","30294","","null","","","null","82","NaN","","","","","","","","","","","","","","",""
"","S2","","html-keyboard-response","535","791647","0.0-1.0-742.0","0","0","30294","","null","","","null","82","","NaN","","","","","","","","","","","","","",""
"","response","","html-keyboard-response","536","791652","0.0-1.0-743.0-0.0","0","0","30294","","4","","","75","82","","","2","82","training","adjacent","GF","7","6","O.jpg","L.jpg","0","0","1","",""
"","feedback","","html-keyboard-response","537","792661","0.0-1.0-744.0-0.0","0","0","30294","","null","","","null","82","","","","","","","","","","","","","","","",""
"","ITI","","html-keyboard-response","538","793670","0.0-1.0-747.0","0","0","30294","","null","","","null","82","","","","","","","","","","","","","","","NaN",""
"","S1","","html-keyboard-response","539","793925","0.0-1.0-749.0","0","0","30294","","null","","","null","83","","","","","","","","","","","","","","","",""
"","ISI","","html-keyboard-response","540","794935","0.0-1.0-750.0","0","0","30294","","null","","","null","83","NaN","","","","","","","","","","","","","","",""
"","S2","","html-keyboard-response","541","795191","0.0-1.0-751.0","0","0","30294","","null","","","null","83","","NaN","","","","","","","","","","","","","",""
"","response","","html-keyboard-response","542","795586","0.0-1.0-752.0-0.0","0","0","30294","","392","","","75","83","","","2","83","training","adjacent","DC","4","3","R.jpg","P.jpg","0","0","1","",""
"","feedback","","html-keyboard-response","543","796589","0.0-1.0-753.0-0.0","0","0","30294","","null","","","null","83","","","","","","","","","","","","","","","",""
"","ITI","","html-keyboard-response","544","797597","0.0-1.0-756.0","0","0","30294","","null","","","null","83","","","","","","","","","","","","","","","NaN",""
"","S1","","html-keyboard-response","545","797854","0.0-1.0-758.0","0","0","30294","","null","","","null","84","","","","","","","","","","","","","","","",""
"","ISI","","html-keyboard-response","546","798862","0.0-1.0-759.0","0","0","30294","","null","","","null","84","NaN","","","","","","","","","","","","","","",""
"","S2","","html-keyboard-response","547","799118","0.0-1.0-760.0","0","0","30294","","null","","","null","84","","NaN","","","","","","","","","","","","","",""
"","response","","html-keyboard-response","548","799462","0.0-1.0-761.0-0.0","0","0","30294","","343","","","68","84","","","2","84","training","adjacent","CD","3","4","P.jpg","R.jpg","1","1","1","",""
"","feedback","","html-keyboard-response","549","800471","0.0-1.0-762.0-0.0","0","0","30294","","null","","","null","84","","","","","","","","","","","","","","","",""
"","ITI","","html-keyboard-response","550","801477","0.0-1.0-765.0","0","0","30294","","null","","","null","84","","","","","","","","","","","","","","","NaN",""
"","S1","","html-keyboard-response","551","801734","0.0-1.0-767.0","0","0","30294","","null","","","null","85","","","","","","","","","","","","","","","",""
"","ISI","","html-keyboard-response","552","802743","0.0-1.0-768.0","0","0","30294","","null","","","null","85","NaN","","","","","","","","","","","","","","",""
"","S2","","html-keyboard-response","553","802999","0.0-1.0-769.0","0","0","30294","","null","","","null","85","","NaN","","","","","","","","","","","","","",""
"","response","","html-keyboard-response","554","803331","0.0-1.0-770.0-0.0","0","0","30294","","330","","","68","85","","","2","85","training","adjacent","CB","3","2","P.jpg","Q.jpg","1","0","0","",""
"","feedback","","html-keyboard-response","555","804342","0.0-1.0-771.0-0.0","0","0","30294","","null","","","null","85","","","","","","","","","","","","","","","",""
"","time_out","","html-keyboard-response","556","806350","0.0-1.0-773.0-0.0","0","0","30294","","null","","","null","85","","","","","","","","","","","","","","","",""
"","ITI","","html-keyboard-response","557","807357","0.0-1.0-774.0","0","0","30294","","null","","","null","85","","","","","","","","","","","","","","","NaN",""
"","S1","","html-keyboard-response","558","807613","0.0-1.0-776.0","0","0","30294","","null","","","null","86","","","","","","","","","","","","","","","",""
"","ISI","","html-keyboard-response","559","808622","0.0-1.0-777.0","0","0","30294","","null","","","null","86","NaN","","","","","","","","","","","","","","",""
"","S2","","html-keyboard-response","560","808878","0.0-1.0-778.0","0","0","30294","","null","","","null","86","","NaN","","","","","","","","","","","","","",""
"","response","","html-keyboard-response","561","809223","0.0-1.0-779.0-0.0","0","0","30294","","342","","","75","86","","","2","86","training","adjacent","ED","5","4","M.jpg","R.jpg","0","0","1","",""
"","feedback","","html-keyboard-response","562","810230","0.0-1.0-780.0-0.0","0","0","30294","","null","","","null","86","","","","","","","","","","","","","","","",""
"","ITI","","html-keyboard-response","563","811238","0.0-1.0-783.0","0","0","30294","","null","","","null","86","","","","","","","","","","","","","","","NaN",""
"","S1","","html-keyboard-response","564","811493","0.0-1.0-785.0","0","0","30294","","null","","","null","87","","","","","","","","","","","","","","","",""
"","ISI","","html-keyboard-response","565","812502","0.0-1.0-786.0","0","0","30294","","null","","","null","87","NaN","","","","","","","","","","","","","","",""
"","S2","","html-keyboard-response","566","812758","0.0-1.0-787.0","0","0","30294","","null","","","null","87","","NaN","","","","","","","","","","","","","",""
"","response","","html-keyboard-response","567","812922","0.0-1.0-788.0-0.0","0","0","30294","","161","","","75","87","","","2","87","training","adjacent","CD","3","4","P.jpg","R.jpg","0","1","0","",""
"","feedback","","html-keyboard-response","568","813926","0.0-1.0-789.0-0.0","0","0","30294","","null","","","null","87","","","","","","","","","","","","","","","",""
"","time_out","","html-keyboard-response","569","815932","0.0-1.0-791.0-0.0","0","0","30294","","null","","","null","87","","","","","","","","","","","","","","","",""
"","ITI","","html-keyboard-response","570","816941","0.0-1.0-792.0","0","0","30294","","null","","","null","87","","","","","","","","","","","","","","","NaN",""
"","S1","","html-keyboard-response","571","817197","0.0-1.0-794.0","0","0","30294","","null","","","null","88","","","","","","","","","","","","","","","",""
"","ISI","","html-keyboard-response","572","818204","0.0-1.0-795.0","0","0","30294","","null","","","null","88","NaN","","","","","","","","","","","","","","",""
"","S2","","html-keyboard-response","573","818461","0.0-1.0-796.0","0","0","30294","","null","","","null","88","","NaN","","","","","","","","","","","","","",""
"","response","","html-keyboard-response","574","818548","0.0-1.0-797.0-0.0","0","0","30294","","84","","","68","88","","","2","88","training","adjacent","DC","4","3","R.jpg","P.jpg","1","0","0","",""
"","feedback","","html-keyboard-response","575","819557","0.0-1.0-798.0-0.0","0","0","30294","","null","","","null","88","","","","","","","","","","","","","","","",""
"","time_out","","html-keyboard-response","576","821564","0.0-1.0-800.0-0.0","0","0","30294","","null","","","null","88","","","","","","","","","","","","","","","",""
"","ITI","","html-keyboard-response","577","822573","0.0-1.0-801.0","0","0","30294","","null","","","null","88","","","","","","","","","","","","","","","NaN",""
"","S1","","html-keyboard-response","578","822828","0.0-1.0-803.0","0","0","30294","","null","","","null","89","","","","","","","","","","","","","","","",""
"","ISI","","html-keyboard-response","579","823837","0.0-1.0-804.0","0","0","30294","","null","","","null","89","NaN","","","","","","","","","","","","","","",""
"","S2","","html-keyboard-response","580","824092","0.0-1.0-805.0","0","0","30294","","null","","","null","89","","NaN","","","","","","","","","","","","","",""
"","response","","html-keyboard-response","581","824126","0.0-1.0-806.0-0.0","0","0","30294","","32","","","75","89","","","2","89","training","adjacent","BC","2","3","Q.jpg","P.jpg","0","1","0","",""
"","feedback","","html-keyboard-response","582","825133","0.0-1.0-807.0-0.0","0","0","30294","","null","","","null","89","","","","","","","","","","","","","","","",""
