"success","ttype","start_time","trial_type","trial_index","time_elapsed","internal_node_id","warning","missed_checkup","PID","view_history","rt","responses","repeat_instructions","key_press","index","keypress_isi","keypress_S2","block","trial_num","phase","group_type","pair_type","S1_stim","S2_stim","S1_img","S2_img","S1_chosen","S1_higher","accuracy","keypress_iti","total_bonus_tally"
"true","full_screen","d04142023hr1413","fullscreen","0","53334","0.0-0.0","0","0","55766","","","","","","","","","","","","","","","","","","","","","",""
"","instructions","","instructions","1","88693","0.0-1.0-0.0-0.0","0","0","55766","[{""page_index"":0,""viewing_time"":3981},{""page_index"":1,""viewing_time"":16742},{""page_index"":2,""viewing_time"":12703},{""page_index"":3,""viewing_time"":1929}]","35356","","","","","","","","","","","","","","","","","","","",""
"","comprehension_check","","survey-multi-choice","2","109316","0.0-1.0-0.0-1.0","0","0","55766","","20616","{""Q0"":""True"",""Q1"":""D"",""Q2"":""Once the second image appears and while the screen 'MAKE A CHOICE' is shown"",""Q3"":""Green mark"",""Q4"":""either D or K""}","0","","","","","","","","","","","","","","","","","",""
"","start_exp","","html-keyboard-response","3","111715","0.0-1.0-1.0","0","0","55766","","2395","","","32","","","","","","","","","","","","","","","","",""
"","S1","","html-keyboard-response","4","111969","0.0-1.0-2.0","0","0","55766","","null","","","null","0","","","","","","","","","","","","","","","",""
"","ISI","","html-keyboard-response","5","112972","0.0-1.0-3.0","0","0","55766","","null","","","null","0","NaN","","","","","","","","","","","","","","",""
"","S2","","html-keyboard-response","6","113224","0.0-1.0-4.0","0","0","55766","","null","","","null","0","","NaN","","","","","","","","","","","","","",""
"","response","","html-keyboard-response","7","113771","0.0-1.0-5.0-0.0","0","0","55766","","545","","","75","0","","","1","0","training","adjacent","EF","5","6","M.jpg","L.jpg","0","1","0","",""
"","feedback","","html-keyboard-response","8","114775","0.0-1.0-6.0-0.0","0","0","55766","","null","","","null","0","","","","","","","","","","","","","","","",""
"","time_out","","html-keyboard-response","9","116779","0.0-1.0-8.0-0.0","0","0","55766","","null","","","null","0","","","","","","","","","","","","","","","",""
"","ITI","","html-keyboard-response","10","117787","0.0-1.0-9.0","0","0","55766","","null","","","null","0","","","","","","","","","","","","","","","NaN",""
"","S1","","html-keyboard-response","11","118043","0.0-1.0-11.0","0","0","55766","","null","","","null","1","","","","","","","","","","","","","","","",""
"","ISI","","html-keyboard-response","12","119047","0.0-1.0-12.0","0","0","55766","","null","","","null","1","NaN","","","","","","","","","","","","","","",""
"","S2","","html-keyboard-response","13","119301","0.0-1.0-13.0","0","0","55766","","null","","","null","1","","NaN","","","","","","","","","","","","","",""
"","response","","html-keyboard-response","14","119928","0.0-1.0-14.0-0.0","0","0","55766","","623","","","68","1","","","1","1","training","adjacent","DC","4","3","O.jpg","P.jpg","1","0","0","",""
"","feedback","","html-keyboard-response","15","120931","0.0-1.0-15.0-0.0","0","0","55766","","null","","","null","1","","","","","","","","","","","","","","","",""
"","time_out","","html-keyboard-response","16","122935","0.0-1.0-17.0-0.0","0","0","55766","","null","","","null","1","","","","","","","","","","","","","","","",""
"","ITI","","html-keyboard-response","17","123938","0.0-1.0-18.0","0","0","55766","","null","","","null","1","","","","","","","","","","","","","","","NaN",""
"","S1","","html-keyboard-response","18","124192","0.0-1.0-20.0","0","0","55766","","null","","","null","2","","","","","","","","","","","","","","","",""
"","ISI","","html-keyboard-response","19","125195","0.0-1.0-21.0","0","0","55766","","null","","","null","2","NaN","","","","","","","","","","","","","","",""
"","S2","","html-keyboard-response","20","125447","0.0-1.0-22.0","0","0","55766","","null","","","null","2","","NaN","","","","","","","","","","","","","",""
"","response","","html-keyboard-response","21","125781","0.0-1.0-23.0-0.0","0","0","55766","","332","","","75","2","","","1","2","training","adjacent","CB","3","2","P.jpg","Q.jpg","0","0","1","",""
"","feedback","","html-keyboard-response","22","126793","0.0-1.0-24.0-0.0","0","0","55766","","null","","","null","2","","","","","","","","","","","","","","","",""
"","ITI","","html-keyboard-response","23","127797","0.0-1.0-27.0","0","0","55766","","null","","","null","2","","","","","","","","","","","","","","","NaN",""
"","S1","","html-keyboard-response","24","128062","0.0-1.0-29.0","0","0","55766","","null","","","null","3","","","","","","","","","","","","","","","",""
"","ISI","","html-keyboard-response","25","129065","0.0-1.0-30.0","0","0","55766","","null","","","null","3","NaN","","","","","","","","","","","","","","",""
"","S2","","html-keyboard-response","26","129320","0.0-1.0-31.0","0","0","55766","","null","","","null","3","","NaN","","","","","","","","","","","","","",""
"","response","","html-keyboard-response","27","129852","0.0-1.0-32.0-0.0","0","0","55766","","528","","","75","3","","","1","3","training","adjacent","DE","4","5","O.jpg","M.jpg","0","1","0","",""
"","feedback","","html-keyboard-response","28","130858","0.0-1.0-33.0-0.0","0","0","55766","","null","","","null","3","","","","","","","","","","","","","","","",""
"","time_out","","html-keyboard-response","29","132860","0.0-1.0-35.0-0.0","0","0","55766","","null","","","null","3","","","","","","","","","","","","","","","",""
"","ITI","","html-keyboard-response","30","133865","0.0-1.0-36.0","0","0","55766","","893","","","32","3","","","","","","","","","","","","","","","space",""
"","S1","","html-keyboard-response","31","134121","0.0-1.0-38.0","0","0","55766","","null","","","null","4","","","","","","","","","","","","","","","",""
"","ISI","","html-keyboard-response","32","135134","0.0-1.0-39.0","0","0","55766","","null","","","null","4","NaN","","","","","","","","","","","","","","",""
"","S2","","html-keyboard-response","33","135389","0.0-1.0-40.0","0","0","55766","","null","","","null","4","","NaN","","","","","","","","","","","","","",""
"","response","","html-keyboard-response","34","135888","0.0-1.0-41.0-0.0","0","0","55766","","495","","","68","4","","","1","4","training","adjacent","DE","4","5","O.jpg","M.jpg","1","1","1","",""
"","feedback","","html-keyboard-response","35","136893","0.0-1.0-42.0-0.0","0","0","55766","","null","","","null","4","","","","","","","","","","","","","","","",""
"","ITI","","html-keyboard-response","36","137898","0.0-1.0-45.0","0","0","55766","","null","","","null","4","","","","","","","","","","","","","","","NaN",""
"","S1","","html-keyboard-response","37","138153","0.0-1.0-47.0","0","0","55766","","null","","","null","5","","","","","","","","","","","","","","","",""
"","ISI","","html-keyboard-response","38","139158","0.0-1.0-48.0","0","0","55766","","null","","","null","5","NaN","","","","","","","","","","","","","","",""
"","S2","","html-keyboard-response","39","139413","0.0-1.0-49.0","0","0","55766","","null","","","null","5","","NaN","","","","","","","","","","","","","",""
"","response","","html-keyboard-response","40","139923","0.0-1.0-50.0-0.0","0","0","55766","","506","","","75","5","","","1","5","training","adjacent","CB","3","2","P.jpg","Q.jpg","0","0","1","",""
"","feedback","","html-keyboard-response","41","140926","0.0-1.0-51.0-0.0","0","0","55766","","null","","","null","5","","","","","","","","","","","","","","","",""
"","ITI","","html-keyboard-response","42","141929","0.0-1.0-54.0","0","0","55766","","null","","","null","5","","","","","","","","","","","","","","","NaN",""
"","S1","","html-keyboard-response","43","142183","0.0-1.0-56.0","0","0","55766","","null","","","null","6","","","","","","","","","","","","","","","",""
"","ISI","","html-keyboard-response","44","143185","0.0-1.0-57.0","0","0","55766","","null","","","null","6","NaN","","","","","","","","","","","","","","",""
"","S2","","html-keyboard-response","45","143438","0.0-1.0-58.0","0","0","55766","","null","","","null","6","","NaN","","","","","","","","","","","","","",""
"","response","","html-keyboard-response","46","143899","0.0-1.0-59.0-0.0","0","0","55766","","457","","","68","6","","","1","6","training","adjacent","FE","6","5","L.jpg","M.jpg","1","0","0","",""
"","feedback","","html-keyboard-response","47","144904","0.0-1.0-60.0-0.0","0","0","55766","","null","","","null","6","","","","","","","","","","","","","","","",""
"","time_out","","html-keyboard-response","48","146909","0.0-1.0-62.0-0.0","0","0","55766","","null","","","null","6","","","","","","","","","","","","","","","",""
"","ITI","","html-keyboard-response","49","147915","0.0-1.0-63.0","0","0","55766","","null","","","null","6","","","","","","","","","","","","","","","NaN",""
"","S1","","html-keyboard-response","50","148169","0.0-1.0-65.0","0","0","55766","","null","","","null","7","","","","","","","","","","","","","","","",""
"","ISI","","html-keyboard-response","51","149173","0.0-1.0-66.0","0","0","55766","","null","","","null","7","NaN","","","","","","","","","","","","","","",""
"","S2","","html-keyboard-response","52","149429","0.0-1.0-67.0","0","0","55766","","null","","","null","7","","NaN","","","","","","","","","","","","","",""
"","response","","html-keyboard-response","53","149475","0.0-1.0-68.0-0.0","0","0","55766","","44","","","68","7","","","1","7","training","adjacent","DC","4","3","O.jpg","P.jpg","1","0","0","",""
"","feedback","","html-keyboard-response","54","150479","0.0-1.0-69.0-0.0","0","0","55766","","null","","","null","7","","","","","","","","","","","","","","","",""
"","time_out","","html-keyboard-response","55","152483","0.0-1.0-71.0-0.0","0","0","55766","","null","","","null","7","","","","","","","","","","","","","","","",""
"","ITI","","html-keyboard-response","56","153495","0.0-1.0-72.0","0","0","55766","","null","","","null","7","","","","","","","","","","","","","","","NaN",""
"","S1","","html-keyboard-response","57","153749","0.0-1.0-74.0","0","0","55766","","null","","","null","8","","","","","","","","","","","","","","","",""
"","ISI","","html-keyboard-response","58","154761","0.0-1.0-75.0","0","0","55766","","null","","","null","8","NaN","","","","","","","","","","","","","","",""
"","S2","","html-keyboard-response","59","155016","0.0-1.0-76.0","0","0","55766","","null","","","null","8","","NaN","","","","","","","","","","","","","",""
"","response","","html-keyboard-response","60","155593","0.0-1.0-77.0-0.0","0","0","55766","","573","","","75","8","","","1","8","training","adjacent","CD","3","4","P.jpg","O.jpg","0","1","0","",""
"","feedback","","html-keyboard-response","61","156596","0.0-1.0-78.0-0.0","0","0","55766","","null","","","null","8","","","","","","","","","","","","","","","",""
"","time_out","","html-keyboard-response","62","158599","0.0-1.0-80.0-0.0","0","0","55766","","null","","","null","8","","","","","","","","","","","","","","","",""
"","ITI","","html-keyboard-response","63","159603","0.0-1.0-81.0","0","0","55766","","null","","","null","8","","","","","","","","","","","","","","","NaN",""
"","S1","","html-keyboard-response","64","159857","0.0-1.0-83.0","0","0","55766","","null","","","null","9","","","","","","","","","","","","","","","",""
"","ISI","","html-keyboard-response","65","160861","0.0-1.0-84.0","0","0","55766","","null","","","null","9","NaN","","","","","","","","","","","","","","",""
"","S2","","html-keyboard-response","66","161116","0.0-1.0-85.0","0","0","55766","","null","","","null","9","","NaN","","","","","","","","","","","","","",""
"","response","","html-keyboard-response","67","161558","0.0-1.0-86.0-0.0","0","0","55766","","440","","","75","9","","","1","9","training","adjacent","DE","4","5","O.jpg","M.jpg","0","1","0","",""
"","feedback","","html-keyboard-response","68","162562","0.0-1.0-87.0-0.0","0","0","55766","","null","","","null","9","","","","","","","","","","","","","","","",""
"","time_out","","html-keyboard-response","69","164564","0.0-1.0-89.0-0.0","0","0","55766","","null","","","null","9","","","","","","","","","","","","","","","",""
"","ITI","","html-keyboard-response","70","165568","0.0-1.0-90.0","0","0","55766","","null","","","null","9","","","","","","","","","","","","","","","NaN",""
"","S1","","html-keyboard-response","71","165822","0.0-1.0-92.0","0","0","55766","","null","","","null","10","","","","","","","","","","","","","","","",""
"","ISI","","html-keyboard-response","72","166827","0.0-1.0-93.0","0","0","55766","","null","","","null","10","NaN","","","","","","","","","","","","","","",""
"","S2","","html-keyboard-response","73","167079","0.0-1.0-94.0","0","0","55766","","null","","","null","10","","NaN","","","","","","","","","","","","","",""
"","response","","html-keyboard-response","74","167291","0.0-1.0-95.0-0.0","0","0","55766","","208","","","68","10","","","1","10","training","adjacent","BA","2","1","Q.jpg","N.jpg","1","0","0","",""
"","feedback","","html-keyboard-response","75","168295","0.0-1.0-96.0-0.0","0","0","55766","","null","","","null","10","","","","","","","","","","","","","","","",""
"","time_out","","html-keyboard-response","76","170298","0.0-1.0-98.0-0.0","0","0","55766","","null","","","null","10","","","","","","","","","","","","","","","",""
"","ITI","","html-keyboard-response","77","171302","0.0-1.0-99.0","0","0","55766","","null","","","null","10","","","","","","","","","","","","","","","NaN",""
"","S1","","html-keyboard-response","78","171555","0.0-1.0-101.0","0","0","55766","","null","","","null","11","","","","","","","","","","","","","","","",""
"","ISI","","html-keyboard-response","79","172558","0.0-1.0-102.0","0","0","55766","","null","","","null","11","NaN","","","","","","","","","","","","","","",""
"","S2","","html-keyboard-response","80","172811","0.0-1.0-103.0","0","0","55766","","null","","","null","11","","NaN","","","","","","","","","","","","","",""
"","response","","html-keyboard-response","81","173194","0.0-1.0-104.0-0.0","0","0","55766","","381","","","75","11","","","1","11","training","adjacent","ED","5","4","M.jpg","O.jpg","0","0","1","",""
"","feedback","","html-keyboard-response","82","174199","0.0-1.0-105.0-0.0","0","0","55766","","null","","","null","11","","","","","","","","","","","","","","","",""
"","ITI","","html-keyboard-response","83","175204","0.0-1.0-108.0","0","0","55766","","null","","","null","11","","","","","","","","","","","","","","","NaN",""
"","S1","","html-keyboard-response","84","175459","0.0-1.0-110.0","0","0","55766","","null","","","null","12","","","","","","","","","","","","","","","",""
"","ISI","","html-keyboard-response","85","176463","0.0-1.0-111.0","0","0","55766","","null","","","null","12","NaN","","","","","","","","","","","","","","",""
"","S2","","html-keyboard-response","86","176719","0.0-1.0-112.0","0","0","55766","","null","","","null","12","","NaN","","","","","","","","","","","","","",""
"","response","","html-keyboard-response","87","177098","0.0-1.0-113.0-0.0","0","0","55766","","375","","","75","12","","","1","12","training","adjacent","BC","2","3","Q.jpg","P.jpg","0","1","0","",""
"","feedback","","html-keyboard-response","88","178103","0.0-1.0-114.0-0.0","0","0","55766","","null","","","null","12","","","","","","","","","","","","","","","",""
"","time_out","","html-keyboard-response","89","180106","0.0-1.0-116.0-0.0","0","0","55766","","null","","","null","12","","","","","","","","","","","","","","","",""
"","ITI","","html-keyboard-response","90","181115","0.0-1.0-117.0","0","0","55766","","null","","","null","12","","","","","","","","","","","","","","","NaN",""
"","S1","","html-keyboard-response","91","181369","0.0-1.0-119.0","0","0","55766","","null","","","null","13","","","","","","","","","","","","","","","",""
"","ISI","","html-keyboard-response","92","182374","0.0-1.0-120.0","0","0","55766","","null","","","null","13","NaN","","","","","","","","","","","","","","",""
"","S2","","html-keyboard-response","93","182629","0.0-1.0-121.0","0","0","55766","","null","","","null","13","","NaN","","","","","","","","","","","","","",""
"","response","","html-keyboard-response","94","183271","0.0-1.0-122.0-0.0","0","0","55766","","641","","","68","13","","","1","13","training","adjacent","CD","3","4","P.jpg","O.jpg","1","1","1","",""
"","feedback","","html-keyboard-response","95","184274","0.0-1.0-123.0-0.0","0","0","55766","","null","","","null","13","","","","","","","","","","","","","","","",""
"","ITI","","html-keyboard-response","96","185277","0.0-1.0-126.0","0","0","55766","","null","","","null","13","","","","","","","","","","","","","","","NaN",""
"","S1","","html-keyboard-response","97","185533","0.0-1.0-128.0","0","0","55766","","null","","","null","14","","","","","","","","","","","","","","","",""
"","ISI","","html-keyboard-response","98","186536","0.0-1.0-129.0","0","0","55766","","null","","","null","14","NaN","","","","","","","","","","","","","","",""
"","S2","","html-keyboard-response","99","186791","0.0-1.0-130.0","0","0","55766","","null","","","null","14","","NaN","","","","","","","","","","","","","",""
"","response","","html-keyboard-response","100","187335","0.0-1.0-131.0-0.0","0","0","55766","","541","","","68","14","","","1","14","training","adjacent","DC","4","3","O.jpg","P.jpg","1","0","0","",""
"","feedback","","html-keyboard-response","101","188339","0.0-1.0-132.0-0.0","0","0","55766","","null","","","null","14","","","","","","","","","","","","","","","",""
"","time_out","","html-keyboard-response","102","190344","0.0-1.0-134.0-0.0","0","0","55766","","null","","","null","14","","","","","","","","","","","","","","","",""
"","ITI","","html-keyboard-response","103","191349","0.0-1.0-135.0","0","0","55766","","null","","","null","14","","","","","","","","","","","","","","","NaN",""
"","S1","","html-keyboard-response","104","191602","0.0-1.0-137.0","0","0","55766","","null","","","null","15","","","","","","","","","","","","","","","",""
"","ISI","","html-keyboard-response","105","192606","0.0-1.0-138.0","0","0","55766","","null","","","null","15","NaN","","","","","","","","","","","","","","",""
"","S2","","html-keyboard-response","106","192860","0.0-1.0-139.0","0","0","55766","","null","","","null","15","","NaN","","","","","","","","","","","","","",""
"","response","","html-keyboard-response","107","193275","0.0-1.0-140.0-0.0","0","0","55766","","412","","","75","15","","","1","15","training","adjacent","FG","6","7","L.jpg","R.jpg","0","1","0","",""
"","feedback","","html-keyboard-response","108","194279","0.0-1.0-141.0-0.0","0","0","55766","","null","","","null","15","","","","","","","","","","","","","","","",""
"","time_out","","html-keyboard-response","109","196291","0.0-1.0-143.0-0.0","0","0","55766","","null","","","null","15","","","","","","","","","","","","","","","",""
"","ITI","","html-keyboard-response","110","197294","0.0-1.0-144.0","0","0","55766","","null","","","null","15","","","","","","","","","","","","","","","NaN",""
"","S1","","html-keyboard-response","111","197548","0.0-1.0-146.0","0","0","55766","","null","","","null","16","","","","","","","","","","","","","","","",""
"","ISI","","html-keyboard-response","112","198551","0.0-1.0-147.0","0","0","55766","","null","","","null","16","NaN","","","","","","","","","","","","","","",""
"","S2","","html-keyboard-response","113","198804","0.0-1.0-148.0","0","0","55766","","null","","","null","16","","NaN","","","","","","","","","","","","","",""
"","response","","html-keyboard-response","114","199341","0.0-1.0-149.0-0.0","0","0","55766","","533","","","75","16","","","1","16","training","adjacent","CD","3","4","P.jpg","O.jpg","0","1","0","",""
"","feedback","","html-keyboard-response","115","200345","0.0-1.0-150.0-0.0","0","0","55766","","null","","","null","16","","","","","","","","","","","","","","","",""
"","time_out","","html-keyboard-response","116","202349","0.0-1.0-152.0-0.0","0","0","55766","","null","","","null","16","","","","","","","","","","","","","","","",""
"","ITI","","html-keyboard-response","117","203352","0.0-1.0-153.0","0","0","55766","","null","","","null","16","","","","","","","","","","","","","","","NaN",""
"","S1","","html-keyboard-response","118","203605","0.0-1.0-155.0","0","0","55766","","null","","","null","17","","","","","","","","","","","","","","","",""
"","ISI","","html-keyboard-response","119","204608","0.0-1.0-156.0","0","0","55766","","null","","","null","17","NaN","","","","","","","","","","","","","","",""
"","S2","","html-keyboard-response","120","204861","0.0-1.0-157.0","0","0","55766","","null","","","null","17","","NaN","","","","","","","","","","","","","",""
"","response","","html-keyboard-response","121","205631","0.0-1.0-158.0-0.0","0","0","55766","","769","","","75","17","","","1","17","training","adjacent","BA","2","1","Q.jpg","N.jpg","0","0","1","",""
"","feedback","","html-keyboard-response","122","206634","0.0-1.0-159.0-0.0","0","0","55766","","null","","","null","17","","","","","","","","","","","","","","","",""
"","ITI","","html-keyboard-response","123","207637","0.0-1.0-162.0","0","0","55766","","null","","","null","17","","","","","","","","","","","","","","","NaN",""
"","S1","","html-keyboard-response","124","207891","0.0-1.0-164.0","0","0","55766","","null","","","null","18","","","","","","","","","","","","","","","",""
"","ISI","","html-keyboard-response","125","208905","0.0-1.0-165.0","0","0","55766","","null","","","null","18","NaN","","","","","","","","","","","","","","",""
"","S2","","html-keyboard-response","126","209160","0.0-1.0-166.0","0","0","55766","","null","","","null","18","","NaN","","","","","","","","","","","","","",""
"","response","","html-keyboard-response","127","209651","0.0-1.0-167.0-0.0","0","0","55766","","489","","","75","18","","","1","18","training","adjacent","BA","2","1","Q.jpg","N.jpg","0","0","1","",""
"","feedback","","html-keyboard-response","128","210668","0.0-1.0-168.0-0.0","0","0","55766","","null","","","null","18","","","","","","","","","","","","","","","",""
"","ITI","","html-keyboard-response","129","211672","0.0-1.0-171.0","0","0","55766","","null","","","null","18","","","","","","","","","","","","","","","NaN",""
"","S1","","html-keyboard-response","130","211925","0.0-1.0-173.0","0","0","55766","","null","","","null","19","","","","","","","","","","","","","","","",""
"","ISI","","html-keyboard-response","131","212928","0.0-1.0-174.0","0","0","55766","","null","","","null","19","NaN","","","","","","","","","","","","","","",""
"","S2","","html-keyboard-response","132","213181","0.0-1.0-175.0","0","0","55766","","null","","","null","19","","NaN","","","","","","","","","","","","","",""
"","response","","html-keyboard-response","133","213987","0.0-1.0-176.0-0.0","0","0","55766","","804","","","68","19","","","1","19","training","adjacent","FE","6","5","L.jpg","M.jpg","1","0","0","",""
"","feedback","","html-keyboard-response","134","214990","0.0-1.0-177.0-0.0","0","0","55766","","null","","","null","19","","","","","","","","","","","","","","","",""
"","time_out","","html-keyboard-response","135","216994","0.0-1.0-179.0-0.0","0","0","55766","","null","","","null","19","","","","","","","","","","","","","","","",""
"","ITI","","html-keyboard-response","136","218004","0.0-1.0-180.0","0","0","55766","","null","","","null","19","","","","","","","","","","","","","","","NaN",""
"","S1","","html-keyboard-response","137","218259","0.0-1.0-182.0","0","0","55766","","null","","","null","20","","","","","","","","","","","","","","","",""
"","ISI","","html-keyboard-response","138","219263","0.0-1.0-183.0","0","0","55766","","null","","","null","20","NaN","","","","","","","","","","","","","","",""
"","S2","","html-keyboard-response","139","219517","0.0-1.0-184.0","0","0","55766","","null","","","null","20","","NaN","","","","","","","","","","","","","",""
"","response","","html-keyboard-response","140","220151","0.0-1.0-185.0-0.0","0","0","55766","","633","","","68","20","","","1","20","training","adjacent","FE","6","5","L.jpg","M.jpg","1","0","0","",""
"","feedback","","html-keyboard-response","141","221163","0.0-1.0-186.0-0.0","0","0","55766","","null","","","null","20","","","","","","","","","","","","","","","",""
"","time_out","","html-keyboard-response","142","223166","0.0-1.0-188.0-0.0","0","0","55766","","null","","","null","20","","","","","","","","","","","","","","","",""
"","ITI","","html-keyboard-response","143","224171","0.0-1.0-189.0","0","0","55766","","null","","","null","20","","","","","","","","","","","","","","","NaN",""
"","S1","","html-keyboard-response","144","224424","0.0-1.0-191.0","0","0","55766","","null","","","null","21","","","","","","","","","","","","","","","",""
"","ISI","","html-keyboard-response","145","225429","0.0-1.0-192.0","0","0","55766","","null","","","null","21","NaN","","","","","","","","","","","","","","",""
"","S2","","html-keyboard-response","146","225682","0.0-1.0-193.0","0","0","55766","","null","","","null","21","","NaN","","","","","","","","","","","","","",""
"","response","","html-keyboard-response","147","225980","0.0-1.0-194.0-0.0","0","0","55766","","297","","","75","21","","","1","21","training","adjacent","GF","7","6","R.jpg","L.jpg","0","0","1","",""
"","feedback","","html-keyboard-response","148","226984","0.0-1.0-195.0-0.0","0","0","55766","","null","","","null","21","","","","","","","","","","","","","","","",""
"","ITI","","html-keyboard-response","149","227987","0.0-1.0-198.0","0","0","55766","","null","","","null","21","","","","","","","","","","","","","","","NaN",""
"","S1","","html-keyboard-response","150","228241","0.0-1.0-200.0","0","0","55766","","null","","","null","22","","","","","","","","","","","","","","","",""
"","ISI","","html-keyboard-response","151","229243","0.0-1.0-201.0","0","0","55766","","null","","","null","22","NaN","","","","","","","","","","","","","","",""
"","S2","","html-keyboard-response","152","229497","0.0-1.0-202.0","0","0","55766","","null","","","null","22","","NaN","","","","","","","","","","","","","",""
"","response","","html-keyboard-response","153","229908","0.0-1.0-203.0-0.0","0","0","55766","","408","","","75","22","","","1","22","training","adjacent","AB","1","2","N.jpg","Q.jpg","0","1","0","",""
"","feedback","","html-keyboard-response","154","230915","0.0-1.0-204.0-0.0","0","0","55766","","null","","","null","22","","","","","","","","","","","","","","","",""
"","time_out","","html-keyboard-response","155","232919","0.0-1.0-206.0-0.0","0","0","55766","","null","","","null","22","","","","","","","","","","","","","","","",""
"","ITI","","html-keyboard-response","156","233922","0.0-1.0-207.0","0","0","55766","","null","","","null","22","","","","","","","","","","","","","","","NaN",""
"","S1","","html-keyboard-response","157","234175","0.0-1.0-209.0","0","0","55766","","null","","","null","23","","","","","","","","","","","","","","","",""
"","ISI","","html-keyboard-response","158","235178","0.0-1.0-210.0","0","0","55766","","null","","","null","23","NaN","","","","","","","","","","","","","","",""
"","S2","","html-keyboard-response","159","235431","0.0-1.0-211.0","0","0","55766","","null","","","null","23","","NaN","","","","","","","","","","","","","",""
"","response","","html-keyboard-response","160","235984","0.0-1.0-212.0-0.0","0","0","55766","","551","","","75","23","","","1","23","training","adjacent","EF","5","6","M.jpg","L.jpg","0","1","0","",""
"","feedback","","html-keyboard-response","161","236988","0.0-1.0-213.0-0.0","0","0","55766","","null","","","null","23","","","","","","","","","","","","","","","",""
"","time_out","","html-keyboard-response","162","238995","0.0-1.0-215.0-0.0","0","0","55766","","null","","","null","23","","","","","","","","","","","","","","","",""
"","ITI","","html-keyboard-response","163","240001","0.0-1.0-216.0","0","0","55766","","null","","","null","23","","","","","","","","","","","","","","","NaN",""
"","S1","","html-keyboard-response","164","240255","0.0-1.0-218.0","0","0","55766","","null","","","null","24","","","","","","","","","","","","","","","",""
"","ISI","","html-keyboard-response","165","241259","0.0-1.0-219.0","0","0","55766","","null","","","null","24","NaN","","","","","","","","","","","","","","",""
"","S2","","html-keyboard-response","166","241513","0.0-1.0-220.0","0","0","55766","","null","","","null","24","","NaN","","","","","","","","","","","","","",""
"","response","","html-keyboard-response","167","241931","0.0-1.0-221.0-0.0","0","0","55766","","416","","","68","24","","","1","24","training","adjacent","EF","5","6","M.jpg","L.jpg","1","1","1","",""
"","feedback","","html-keyboard-response","168","242933","0.0-1.0-222.0-0.0","0","0","55766","","null","","","null","24","","","","","","","","","","","","","","","",""
"","ITI","","html-keyboard-response","169","243937","0.0-1.0-225.0","0","0","55766","","null","","","null","24","","","","","","","","","","","","","","","NaN",""
"","S1","","html-keyboard-response","170","244191","0.0-1.0-227.0","0","0","55766","","null","","","null","25","","","","","","","","","","","","","","","",""
"","ISI","","html-keyboard-response","171","245195","0.0-1.0-228.0","0","0","55766","","null","","","null","25","NaN","","","","","","","","","","","","","","",""
"","S2","","html-keyboard-response","172","245450","0.0-1.0-229.0","0","0","55766","","null","","","null","25","","NaN","","","","","","","","","","","","","",""
"","response","","html-keyboard-response","173","246058","0.0-1.0-230.0-0.0","0","0","55766","","606","","","68","25","","","1","25","training","adjacent","EF","5","6","M.jpg","L.jpg","1","1","1","",""
"","feedback","","html-keyboard-response","174","247073","0.0-1.0-231.0-0.0","0","0","55766","","null","","","null","25","","","","","","","","","","","","","","","",""
"","ITI","","html-keyboard-response","175","248076","0.0-1.0-234.0","0","0","55766","","null","","","null","25","","","","","","","","","","","","","","","NaN",""
"","S1","","html-keyboard-response","176","248329","0.0-1.0-236.0","0","0","55766","","null","","","null","26","","","","","","","","","","","","","","","",""
"","ISI","","html-keyboard-response","177","249331","0.0-1.0-237.0","0","0","55766","","null","","","null","26","NaN","","","","","","","","","","","","","","",""
"","S2","","html-keyboard-response","178","249585","0.0-1.0-238.0","0","0","55766","","null","","","null","26","","NaN","","","","","","","","","","","","","",""
"","response","","html-keyboard-response","179","249839","0.0-1.0-239.0-0.0","0","0","55766","","252","","","68","26","","","1","26","training","adjacent","AB","1","2","N.jpg","Q.jpg","1","1","1","",""
"","feedback","","html-keyboard-response","180","250843","0.0-1.0-240.0-0.0","0","0","55766","","null","","","null","26","","","","","","","","","","","","","","","",""
"","ITI","","html-keyboard-response","181","251848","0.0-1.0-243.0","0","0","55766","","null","","","null","26","","","","","","","","","","","","","","","NaN",""
"","S1","","html-keyboard-response","182","252101","0.0-1.0-245.0","0","0","55766","","null","","","null","27","","","","","","","","","","","","","","","",""
"","ISI","","html-keyboard-response","183","253104","0.0-1.0-246.0","0","0","55766","","null","","","null","27","NaN","","","","","","","","","","","","","","",""
"","S2","","html-keyboard-response","184","253356","0.0-1.0-247.0","0","0","55766","","null","","","null","27","","NaN","","","","","","","","","","","","","",""
"","response","","html-keyboard-response","185","253801","0.0-1.0-248.0-0.0","0","0","55766","","443","","","68","27","","","1","27","training","adjacent","CB","3","2","P.jpg","Q.jpg","1","0","0","",""
"","feedback","","html-keyboard-response","186","254804","0.0-1.0-249.0-0.0","0","0","55766","","null","","","null","27","","","","","","","","","","","","","","","",""
"","time_out","","html-keyboard-response","187","256809","0.0-1.0-251.0-0.0","0","0","55766","","null","","","null","27","","","","","","","","","","","","","","","",""
"","ITI","","html-keyboard-response","188","257815","0.0-1.0-252.0","0","0","55766","","null","","","null","27","","","","","","","","","","","","","","","NaN",""
"","S1","","html-keyboard-response","189","258069","0.0-1.0-254.0","0","0","55766","","null","","","null","28","","","","","","","","","","","","","","","",""
"","ISI","","html-keyboard-response","190","259086","0.0-1.0-255.0","0","0","55766","","null","","","null","28","NaN","","","","","","","","","","","","","","",""
"","S2","","html-keyboard-response","191","259339","0.0-1.0-256.0","0","0","55766","","null","","","null","28","","NaN","","","","","","","","","","","","","",""
"","response","","html-keyboard-response","192","260351","0.0-1.0-257.0-0.0","0","0","55766","","1010","","","68","28","","","1","28","training","adjacent","CD","3","4","P.jpg","O.jpg","1","1","1","",""
"","feedback","","html-keyboard-response","193","261353","0.0-1.0-258.0-0.0","0","0","55766","","null","","","null","28","","","","","","","","","","","","","","","",""
"","ITI","","html-keyboard-response","194","262356","0.0-1.0-261.0","0","0","55766","","null","","","null","28","","","","","","","","","","","","","","","NaN",""
"","S1","","html-keyboard-response","195","262610","0.0-1.0-263.0","0","0","55766","","null","","","null","29","","","","","","","","","","","","","","","",""
"","ISI","","html-keyboard-response","196","263614","0.0-1.0-264.0","0","0","55766","","null","","","null","29","NaN","","","","","","","","","","","","","","",""
"","S2","","html-keyboard-response","197","263867","0.0-1.0-265.0","0","0","55766","","null","","","null","29","","NaN","","","","","","","","","","","","","",""
"","response","","html-keyboard-response","198","264420","0.0-1.0-266.0-0.0","0","0","55766","","550","","","68","29","","","1","29","training","adjacent","FG","6","7","L.jpg","R.jpg","1","1","1","",""
"","feedback","","html-keyboard-response","199","265424","0.0-1.0-267.0-0.0","0","0","55766","","null","","","null","29","","","","","","","","","","","","","","","",""
"","ITI","","html-keyboard-response","200","266428","0.0-1.0-270.0","0","0","55766","","null","","","null","29","","","","","","","","","","","","","","","NaN",""
"","S1","","html-keyboard-response","201","266682","0.0-1.0-272.0","0","0","55766","","null","","","null","30","","","","","","","","","","","","","","","",""
"","ISI","","html-keyboard-response","202","267688","0.0-1.0-273.0","0","0","55766","","null","","","null","30","NaN","","","","","","","","","","","","","","",""
"","S2","","html-keyboard-response","203","267941","0.0-1.0-274.0","0","0","55766","","null","","","null","30","","NaN","","","","","","","","","","","","","",""
"","response","","html-keyboard-response","204","268518","0.0-1.0-275.0-0.0","0","0","55766","","575","","","75","30","","","1","30","training","adjacent","AB","1","2","N.jpg","Q.jpg","0","1","0","",""
"","feedback","","html-keyboard-response","205","269522","0.0-1.0-276.0-0.0","0","0","55766","","null","","","null","30","","","","","","","","","","","","","","","",""
"","time_out","","html-keyboard-response","206","271525","0.0-1.0-278.0-0.0","0","0","55766","","null","","","null","30","","","","","","","","","","","","","","","",""
"","ITI","","html-keyboard-response","207","272529","0.0-1.0-279.0","0","0","55766","","null","","","null","30","","","","","","","","","","","","","","","NaN",""
"","S1","","html-keyboard-response","208","272783","0.0-1.0-281.0","0","0","55766","","null","","","null","31","","","","","","","","","","","","","","","",""
"","ISI","","html-keyboard-response","209","273788","0.0-1.0-282.0","0","0","55766","","null","","","null","31","NaN","","","","","","","","","","","","","","",""
"","S2","","html-keyboard-response","210","274044","0.0-1.0-283.0","0","0","55766","","null","","","null","31","","NaN","","","","","","","","","","","","","",""
"","response","","html-keyboard-response","211","274504","0.0-1.0-284.0-0.0","0","0","55766","","457","","","68","31","","","1","31","training","adjacent","FG","6","7","L.jpg","R.jpg","1","1","1","",""
"","feedback","","html-keyboard-response","212","275507","0.0-1.0-285.0-0.0","0","0","55766","","null","","","null","31","","","","","","","","","","","","","","","",""
"","ITI","","html-keyboard-response","213","276510","0.0-1.0-288.0","0","0","55766","","null","","","null","31","","","","","","","","","","","","","","","NaN",""
"","S1","","html-keyboard-response","214","276762","0.0-1.0-290.0","0","0","55766","","null","","","null","32","","","","","","","","","","","","","","","",""
"","ISI","","html-keyboard-response","215","277765","0.0-1.0-291.0","0","0","55766","","null","","","null","32","NaN","","","","","","","","","","","","","","",""
"","S2","","html-keyboard-response","216","278018","0.0-1.0-292.0","0","0","55766","","null","","","null","32","","NaN","","","","","","","","","","","","","",""
"","response","","html-keyboard-response","217","278299","0.0-1.0-293.0-0.0","0","0","55766","","280","","","75","32","","","1","32","training","adjacent","ED","5","4","M.jpg","O.jpg","0","0","1","",""
"","feedback","","html-keyboard-response","218","279318","0.0-1.0-294.0-0.0","0","0","55766","","null","","","null","32","","","","","","","","","","","","","","","",""
"","ITI","","html-keyboard-response","219","280321","0.0-1.0-297.0","0","0","55766","","null","","","null","32","","","","","","","","","","","","","","","NaN",""
"","S1","","html-keyboard-response","220","280574","0.0-1.0-299.0","0","0","55766","","null","","","null","33","","","","","","","","","","","","","","","",""
"","ISI","","html-keyboard-response","221","281583","0.0-1.0-300.0","0","0","55766","","null","","","null","33","NaN","","","","","","","","","","","","","","",""
"","S2","","html-keyboard-response","222","281836","0.0-1.0-301.0","0","0","55766","","null","","","null","33","","NaN","","","","","","","","","","","","","",""
"","response","","html-keyboard-response","223","282092","0.0-1.0-302.0-0.0","0","0","55766","","254","","","75","33","","","1","33","training","adjacent","GF","7","6","R.jpg","L.jpg","0","0","1","",""
"","feedback","","html-keyboard-response","224","283096","0.0-1.0-303.0-0.0","0","0","55766","","null","","","null","33","","","","","","","","","","","","","","","",""
"","ITI","","html-keyboard-response","225","284101","0.0-1.0-306.0","0","0","55766","","null","","","null","33","","","","","","","","","","","","","","","NaN",""
"","S1","","html-keyboard-response","226","284355","0.0-1.0-308.0","0","0","55766","","null","","","null","34","","","","","","","","","","","","","","","",""
"","ISI","","html-keyboard-response","227","285359","0.0-1.0-309.0","0","0","55766","","null","","","null","34","NaN","","","","","","","","","","","","","","",""
"","S2","","html-keyboard-response","228","285614","0.0-1.0-310.0","0","0","55766","","null","","","null","34","","NaN","","","","","","","","","","","","","",""
"","response","","html-keyboard-response","229","286212","0.0-1.0-311.0-0.0","0","0","55766","","596","","","75","34","","","1","34","training","adjacent","ED","5","4","M.jpg","O.jpg","0","0","1","",""
"","feedback","","html-keyboard-response","230","287215","0.0-1.0-312.0-0.0","0","0","55766","","null","","","null","34","","","","","","","","","","","","","","","",""
"","ITI","","html-keyboard-response","231","288219","0.0-1.0-315.0","0","0","55766","","null","","","null","34","","","","","","","","","","","","","","","NaN",""
"","S1","","html-keyboard-response","232","288472","0.0-1.0-317.0","0","0","55766","","null","","","null","35","","","","","","","","","","","","","","","",""
"","ISI","","html-keyboard-response","233","289476","0.0-1.0-318.0","0","0","55766","","null","","","null","35","NaN","","","","","","","","","","","","","","",""
"","S2","","html-keyboard-response","234","289728","0.0-1.0-319.0","0","0","55766","","null","","","null","35","","NaN","","","","","","","","","","","","","",""
"","response","","html-keyboard-response","235","290522","0.0-1.0-320.0-0.0","0","0","55766","","792","","","75","35","","","1","35","training","adjacent","CB","3","2","P.jpg","Q.jpg","0","0","1","",""
"","feedback","","html-keyboard-response","236","291526","0.0-1.0-321.0-0.0","0","0","55766","","null","","","null","35","","","","","","","","","","","","","","","",""
"","ITI","","html-keyboard-response","237","292528","0.0-1.0-324.0","0","0","55766","","null","","","null","35","","","","","","","","","","","","","","","NaN",""
"","S1","","html-keyboard-response","238","292782","0.0-1.0-326.0","0","0","55766","","null","","","null","36","","","","","","","","","","","","","","","",""
"","ISI","","html-keyboard-response","239","293784","0.0-1.0-327.0","0","0","55766","","null","","","null","36","NaN","","","","","","","","","","","","","","",""
"","S2","","html-keyboard-response","240","294038","0.0-1.0-328.0","0","0","55766","","null","","","null","36","","NaN","","","","","","","","","","","","","",""
"","response","","html-keyboard-response","241","294881","0.0-1.0-329.0-0.0","0","0","55766","","841","","","75","36","","","1","36","training","adjacent","ED","5","4","M.jpg","O.jpg","0","0","1","",""
"","feedback","","html-keyboard-response","242","295884","0.0-1.0-330.0-0.0","0","0","55766","","null","","","null","36","","","","","","","","","","","","","","","",""
"","ITI","","html-keyboard-response","243","296888","0.0-1.0-333.0","0","0","55766","","null","","","null","36","","","","","","","","","","","","","","","NaN",""
"","S1","","html-keyboard-response","244","297141","0.0-1.0-335.0","0","0","55766","","null","","","null","37","","","","","","","","","","","","","","","",""
"","ISI","","html-keyboard-response","245","298145","0.0-1.0-336.0","0","0","55766","","null","","","null","37","NaN","","","","","","","","","","","","","","",""
"","S2","","html-keyboard-response","246","298398","0.0-1.0-337.0","0","0","55766","","null","","","null","37","","NaN","","","","","","","","","","","","","",""
"","response","","html-keyboard-response","247","299005","0.0-1.0-338.0-0.0","0","0","55766","","605","","","68","37","","","1","37","training","adjacent","AB","1","2","N.jpg","Q.jpg","1","1","1","",""
"","feedback","","html-keyboard-response","248","300008","0.0-1.0-339.0-0.0","0","0","55766","","null","","","null","37","","","","","","","","","","","","","","","",""
"","ITI","","html-keyboard-response","249","301012","0.0-1.0-342.0","0","0","55766","","null","","","null","37","","","","","","","","","","","","","","","NaN",""
"","S1","","html-keyboard-response","250","301265","0.0-1.0-344.0","0","0","55766","","null","","","null","38","","","","","","","","","","","","","","","",""
"","ISI","","html-keyboard-response","251","302267","0.0-1.0-345.0","0","0","55766","","null","","","null","38","NaN","","","","","","","","","","","","","","",""
"","S2","","html-keyboard-response","252","302519","0.0-1.0-346.0","0","0","55766","","null","","","null","38","","NaN","","","","","","","","","","","","","",""
"","response","","html-keyboard-response","253","302806","0.0-1.0-347.0-0.0","0","0","55766","","286","","","68","38","","","1","38","training","adjacent","FE","6","5","L.jpg","M.jpg","1","0","0","",""
"","feedback","","html-keyboard-response","254","303809","0.0-1.0-348.0-0.0","0","0","55766","","null","","","null","38","","","","","","","","","","","","","","","",""
"","time_out","","html-keyboard-response","255","305814","0.0-1.0-350.0-0.0","0","0","55766","","null","","","null","38","","","","","","","","","","","","","","","",""
"","ITI","","html-keyboard-response","256","306817","0.0-1.0-351.0","0","0","55766","","null","","","null","38","","","","","","","","","","","","","","","NaN",""
"","S1","","html-keyboard-response","257","307070","0.0-1.0-353.0","0","0","55766","","null","","","null","39","","","","","","","","","","","","","","","",""
"","ISI","","html-keyboard-response","258","308072","0.0-1.0-354.0","0","0","55766","","null","","","null","39","NaN","","","","","","","","","","","","","","",""
"","S2","","html-keyboard-response","259","308326","0.0-1.0-355.0","0","0","55766","","null","","","null","39","","NaN","","","","","","","","","","","","","",""
"","response","","html-keyboard-response","260","308336","0.0-1.0-356.0-0.0","0","0","55766","","9","","","75","39","","","1","39","training","adjacent","GF","7","6","R.jpg","L.jpg","0","0","1","",""
"","feedback","","html-keyboard-response","261","309339","0.0-1.0-357.0-0.0","0","0","55766","","null","","","null","39","","","","","","","","","","","","","","","",""
"","ITI","","html-keyboard-response","262","310343","0.0-1.0-360.0","0","0","55766","","null","","","null","39","","","","","","","","","","","","","","","NaN",""
"","S1","","html-keyboard-response","263","310596","0.0-1.0-362.0","0","0","55766","","null","","","null","40","","","","","","","","","","","","","","","",""
"","ISI","","html-keyboard-response","264","311598","0.0-1.0-363.0","0","0","55766","","null","","","null","40","NaN","","","","","","","","","","","","","","",""
"","S2","","html-keyboard-response","265","311851","0.0-1.0-364.0","0","0","55766","","null","","","null","40","","NaN","","","","","","","","","","","","","",""
"","response","","html-keyboard-response","266","312330","0.0-1.0-365.0-0.0","0","0","55766","","476","","","75","40","","","1","40","training","adjacent","DC","4","3","O.jpg","P.jpg","0","0","1","",""
"","feedback","","html-keyboard-response","267","313333","0.0-1.0-366.0-0.0","0","0","55766","","null","","","null","40","","","","","","","","","","","","","","","",""
"","ITI","","html-keyboard-response","268","314337","0.0-1.0-369.0","0","0","55766","","null","","","null","40","","","","","","","","","","","","","","","NaN",""
"","S1","","html-keyboard-response","269","314591","0.0-1.0-371.0","0","0","55766","","null","","","null","41","","","","","","","","","","","","","","","",""
"","ISI","","html-keyboard-response","270","315593","0.0-1.0-372.0","0","0","55766","","null","","","null","41","NaN","","","","","","","","","","","","","","",""
"","S2","","html-keyboard-response","271","315846","0.0-1.0-373.0","0","0","55766","","null","","","null","41","","NaN","","","","","","","","","","","","","",""
"","response","","html-keyboard-response","272","316097","0.0-1.0-374.0-0.0","0","0","55766","","250","","","68","41","","","1","41","training","adjacent","FG","6","7","L.jpg","R.jpg","1","1","1","",""
"","feedback","","html-keyboard-response","273","317101","0.0-1.0-375.0-0.0","0","0","55766","","null","","","null","41","","","","","","","","","","","","","","","",""
"","ITI","","html-keyboard-response","274","318103","0.0-1.0-378.0","0","0","55766","","null","","","null","41","","","","","","","","","","","","","","","NaN",""
"","S1","","html-keyboard-response","275","318355","0.0-1.0-380.0","0","0","55766","","null","","","null","42","","","","","","","","","","","","","","","",""
"","ISI","","html-keyboard-response","276","319357","0.0-1.0-381.0","0","0","55766","","null","","","null","42","NaN","","","","","","","","","","","","","","",""
"","S2","","html-keyboard-response","277","319610","0.0-1.0-382.0","0","0","55766","","null","","","null","42","","NaN","","","","","","","","","","","","","",""
"","response","","html-keyboard-response","278","319922","0.0-1.0-383.0-0.0","0","0","55766","","310","","","75","42","","","1","42","training","adjacent","GF","7","6","R.jpg","L.jpg","0","0","1","",""
"","feedback","","html-keyboard-response","279","320925","0.0-1.0-384.0-0.0","0","0","55766","","null","","","null","42","","","","","","","","","","","","","","","",""
"","ITI","","html-keyboard-response","280","321928","0.0-1.0-387.0","0","0","55766","","null","","","null","42","","","","","","","","","","","","","","","NaN",""
"","S1","","html-keyboard-response","281","322183","0.0-1.0-389.0","0","0","55766","","null","","","null","43","","","","","","","","","","","","","","","",""
"","ISI","","html-keyboard-response","282","323187","0.0-1.0-390.0","0","0","55766","","null","","","null","43","NaN","","","","","","","","","","","","","","",""
"","S2","","html-keyboard-response","283","323440","0.0-1.0-391.0","0","0","55766","","null","","","null","43","","NaN","","","","","","","","","","","","","",""
"","response","","html-keyboard-response","284","323678","0.0-1.0-392.0-0.0","0","0","55766","","235","","","68","43","","","1","43","training","adjacent","BC","2","3","Q.jpg","P.jpg","1","1","1","",""
"","feedback","","html-keyboard-response","285","324682","0.0-1.0-393.0-0.0","0","0","55766","","null","","","null","43","","","","","","","","","","","","","","","",""
"","ITI","","html-keyboard-response","286","325685","0.0-1.0-396.0","0","0","55766","","null","","","null","43","","","","","","","","","","","","","","","NaN",""
"","S1","","html-keyboard-response","287","325937","0.0-1.0-398.0","0","0","55766","","null","","","null","44","","","","","","","","","","","","","","","",""
"","ISI","","html-keyboard-response","288","326941","0.0-1.0-399.0","0","0","55766","","null","","","null","44","NaN","","","","","","","","","","","","","","",""
"","S2","","html-keyboard-response","289","327195","0.0-1.0-400.0","0","0","55766","","null","","","null","44","","NaN","","","","","","","","","","","","","",""
"","response","","html-keyboard-response","290","327608","0.0-1.0-401.0-0.0","0","0","55766","","411","","","68","44","","","1","44","training","adjacent","BC","2","3","Q.jpg","P.jpg","1","1","1","",""
"","feedback","","html-keyboard-response","291","328623","0.0-1.0-402.0-0.0","0","0","55766","","null","","","null","44","","","","","","","","","","","","","","","",""
"","ITI","","html-keyboard-response","292","329625","0.0-1.0-405.0","0","0","55766","","null","","","null","44","","","","","","","","","","","","","","","NaN",""
"","S1","","html-keyboard-response","293","329879","0.0-1.0-407.0","0","0","55766","","null","","","null","45","","","","","","","","","","","","","","","",""
"","ISI","","html-keyboard-response","294","330881","0.0-1.0-408.0","0","0","55766","","null","","","null","45","NaN","","","","","","","","","","","","","","",""
"","S2","","html-keyboard-response","295","331134","0.0-1.0-409.0","0","0","55766","","null","","","null","45","","NaN","","","","","","","","","","","","","",""
"","response","","html-keyboard-response","296","331883","0.0-1.0-410.0-0.0","0","0","55766","","748","","","75","45","","","1","45","training","adjacent","BA","2","1","Q.jpg","N.jpg","0","0","1","",""
"","feedback","","html-keyboard-response","297","332886","0.0-1.0-411.0-0.0","0","0","55766","","null","","","null","45","","","","","","","","","","","","","","","",""
"","ITI","","html-keyboard-response","298","333888","0.0-1.0-414.0","0","0","55766","","null","","","null","45","","","","","","","","","","","","","","","NaN",""
"","S1","","html-keyboard-response","299","334140","0.0-1.0-416.0","0","0","55766","","null","","","null","46","","","","","","","","","","","","","","","",""
"","ISI","","html-keyboard-response","300","335143","0.0-1.0-417.0","0","0","55766","","null","","","null","46","NaN","","","","","","","","","","","","","","",""
"","S2","","html-keyboard-response","301","335395","0.0-1.0-418.0","0","0","55766","","null","","","null","46","","NaN","","","","","","","","","","","","","",""
"","response","","html-keyboard-response","302","336073","0.0-1.0-419.0-0.0","0","0","55766","","676","","","68","46","","","1","46","training","adjacent","BC","2","3","Q.jpg","P.jpg","1","1","1","",""
"","feedback","","html-keyboard-response","303","337076","0.0-1.0-420.0-0.0","0","0","55766","","null","","","null","46","","","","","","","","","","","","","","","",""
"","ITI","","html-keyboard-response","304","338079","0.0-1.0-423.0","0","0","55766","","null","","","null","46","","","","","","","","","","","","","","","NaN",""
"","S1","","html-keyboard-response","305","338333","0.0-1.0-425.0","0","0","55766","","null","","","null","47","","","","","","","","","","","","","","","",""
"","ISI","","html-keyboard-response","306","339348","0.0-1.0-426.0","0","0","55766","","null","","","null","47","NaN","","","","","","","","","","","","","","",""
"","S2","","html-keyboard-response","307","339603","0.0-1.0-427.0","0","0","55766","","null","","","null","47","","NaN","","","","","","","","","","","","","",""
"","response","","html-keyboard-response","308","340064","0.0-1.0-428.0-0.0","0","0","55766","","458","","","68","47","","","1","47","training","adjacent","DE","4","5","O.jpg","M.jpg","1","1","1","",""
"","feedback","","html-keyboard-response","309","341067","0.0-1.0-429.0-0.0","0","0","55766","","null","","","null","47","","","","","","","","","","","","","","","",""
"","ITI","","html-keyboard-response","310","342071","0.0-1.0-432.0","0","0","55766","","null","","","null","47","","","","","","","","","","","","","","","NaN",""
"","block_over","","html-keyboard-response","311","364866","0.0-1.0-433.0-0.0","0","0","55766","","22792","","","32","47","","","","","","","","","","","","","","","",""
"","S1","","html-keyboard-response","312","365122","0.0-1.0-434.0","0","0","55766","","null","","","null","48","","","","","","","","","","","","","","","",""
"","ISI","","html-keyboard-response","313","366125","0.0-1.0-435.0","0","0","55766","","null","","","null","48","NaN","","","","","","","","","","","","","","",""
"","S2","","html-keyboard-response","314","366379","0.0-1.0-436.0","0","0","55766","","null","","","null","48","","NaN","","","","","","","","","","","","","",""
"","response","","html-keyboard-response","315","366463","0.0-1.0-437.0-0.0","0","0","55766","","80","","","75","48","","","2","48","training","adjacent","GF","7","6","R.jpg","L.jpg","0","0","1","",""
"","feedback","","html-keyboard-response","316","367468","0.0-1.0-438.0-0.0","0","0","55766","","null","","","null","48","","","","","","","","","","","","","","","",""
"","ITI","","html-keyboard-response","317","368472","0.0-1.0-441.0","0","0","55766","","null","","","null","48","","","","","","","","","","","","","","","NaN",""
"","S1","","html-keyboard-response","318","368725","0.0-1.0-443.0","0","0","55766","","null","","","null","49","","","","","","","","","","","","","","","",""
"","ISI","","html-keyboard-response","319","369728","0.0-1.0-444.0","0","0","55766","","null","","","null","49","NaN","","","","","","","","","","","","","","",""
"","S2","","html-keyboard-response","320","369982","0.0-1.0-445.0","0","0","55766","","null","","","null","49","","NaN","","","","","","","","","","","","","",""
"","response","","html-keyboard-response","321","370112","0.0-1.0-446.0-0.0","0","0","55766","","128","","","68","49","","","2","49","training","adjacent","AB","1","2","N.jpg","Q.jpg","1","1","1","",""
"","feedback","","html-keyboard-response","322","371129","0.0-1.0-447.0-0.0","0","0","55766","","null","","","null","49","","","","","","","","","","","","","","","",""
"","ITI","","html-keyboard-response","323","372133","0.0-1.0-450.0","0","0","55766","","null","","","null","49","","","","","","","","","","","","","","","NaN",""
"","S1","","html-keyboard-response","324","372386","0.0-1.0-452.0","0","0","55766","","null","","","null","50","","","","","","","","","","","","","","","",""
"","ISI","","html-keyboard-response","325","373389","0.0-1.0-453.0","0","0","55766","","null","","","null","50","NaN","","","","","","","","","","","","","","",""
"","S2","","html-keyboard-response","326","373642","0.0-1.0-454.0","0","0","55766","","null","","","null","50","","NaN","","","","","","","","","","","","","",""
"","response","","html-keyboard-response","327","374014","0.0-1.0-455.0-0.0","0","0","55766","","370","","","68","50","","","2","50","training","adjacent","BC","2","3","Q.jpg","P.jpg","1","1","1","",""
"","feedback","","html-keyboard-response","328","375019","0.0-1.0-456.0-0.0","0","0","55766","","null","","","null","50","","","","","","","","","","","","","","","",""
"","ITI","","html-keyboard-response","329","376023","0.0-1.0-459.0","0","0","55766","","null","","","null","50","","","","","","","","","","","","","","","NaN",""
"","S1","","html-keyboard-response","330","376276","0.0-1.0-461.0","0","0","55766","","null","","","null","51","","","","","","","","","","","","","","","",""
"","ISI","","html-keyboard-response","331","377279","0.0-1.0-462.0","0","0","55766","","null","","","null","51","NaN","","","","","","","","","","","","","","",""
"","S2","","html-keyboard-response","332","377534","0.0-1.0-463.0","0","0","55766","","null","","","null","51","","NaN","","","","","","","","","","","","","",""
"","response","","html-keyboard-response","333","377779","0.0-1.0-464.0-0.0","0","0","55766","","244","","","68","51","","","2","51","training","adjacent","FG","6","7","L.jpg","R.jpg","1","1","1","",""
"","feedback","","html-keyboard-response","334","378795","0.0-1.0-465.0-0.0","0","0","55766","","null","","","null","51","","","","","","","","","","","","","","","",""
"","ITI","","html-keyboard-response","335","379798","0.0-1.0-468.0","0","0","55766","","null","","","null","51","","","","","","","","","","","","","","","NaN",""
"","S1","","html-keyboard-response","336","380053","0.0-1.0-470.0","0","0","55766","","null","","","null","52","","","","","","","","","","","","","","","",""
"","ISI","","html-keyboard-response","337","381058","0.0-1.0-471.0","0","0","55766","","null","","","null","52","NaN","","","","","","","","","","","","","","",""
"","S2","","html-keyboard-response","338","381313","0.0-1.0-472.0","0","0","55766","","null","","","null","52","","NaN","","","","","","","","","","","","","",""
"","response","","html-keyboard-response","339","382271","0.0-1.0-473.0-0.0","0","0","55766","","956","","","75","52","","","2","52","training","adjacent","CB","3","2","P.jpg","Q.jpg","0","0","1","",""
"","feedback","","html-keyboard-response","340","383275","0.0-1.0-474.0-0.0","0","0","55766","","null","","","null","52","","","","","","","","","","","","","","","",""
"","ITI","","html-keyboard-response","341","384278","0.0-1.0-477.0","0","0","55766","","null","","","null","52","","","","","","","","","","","","","","","NaN",""
"","S1","","html-keyboard-response","342","384533","0.0-1.0-479.0","0","0","55766","","null","","","null","53","","","","","","","","","","","","","","","",""
"","ISI","","html-keyboard-response","343","385549","0.0-1.0-480.0","0","0","55766","","null","","","null","53","NaN","","","","","","","","","","","","","","",""
"","S2","","html-keyboard-response","344","385804","0.0-1.0-481.0","0","0","55766","","null","","","null","53","","NaN","","","","","","","","","","","","","",""
"","response","","html-keyboard-response","345","386167","0.0-1.0-482.0-0.0","0","0","55766","","360","","","75","53","","","2","53","training","adjacent","GF","7","6","R.jpg","L.jpg","0","0","1","",""
"","feedback","","html-keyboard-response","346","387172","0.0-1.0-483.0-0.0","0","0","55766","","null","","","null","53","","","","","","","","","","","","","","","",""
"","ITI","","html-keyboard-response","347","388176","0.0-1.0-486.0","0","0","55766","","null","","","null","53","","","","","","","","","","","","","","","NaN",""
"","S1","","html-keyboard-response","348","388429","0.0-1.0-488.0","0","0","55766","","null","","","null","54","","","","","","","","","","","","","","","",""
"","ISI","","html-keyboard-response","349","389434","0.0-1.0-489.0","0","0","55766","","null","","","null","54","NaN","","","","","","","","","","","","","","",""
"","S2","","html-keyboard-response","350","389690","0.0-1.0-490.0","0","0","55766","","null","","","null","54","","NaN","","","","","","","","","","","","","",""
"","response","","html-keyboard-response","351","390201","0.0-1.0-491.0-0.0","0","0","55766","","508","","","68","54","","","2","54","training","adjacent","AB","1","2","N.jpg","Q.jpg","1","1","1","",""
"","feedback","","html-keyboard-response","352","391206","0.0-1.0-492.0-0.0","0","0","55766","","null","","","null","54","","","","","","","","","","","","","","","",""
"","ITI","","html-keyboard-response","353","392211","0.0-1.0-495.0","0","0","55766","","null","","","null","54","","","","","","","","","","","","","","","NaN",""
"","S1","","html-keyboard-response","354","392464","0.0-1.0-497.0","0","0","55766","","null","","","null","55","","","","","","","","","","","","","","","",""
"","ISI","","html-keyboard-response","355","393477","0.0-1.0-498.0","0","0","55766","","null","","","null","55","NaN","","","","","","","","","","","","","","",""
"","S2","","html-keyboard-response","356","393713","0.0-1.0-499.0","0","0","55766","","233","","","75","55","","k","2","55","training","adjacent","GF","7","6","R.jpg","L.jpg","0","0","1","",""
"","feedback","","html-keyboard-response","357","394717","0.0-1.0-501.0-0.0","0","0","55766","","null","","","null","55","","","","","","","","","","","","","","","",""
"","ITI","","html-keyboard-response","358","395732","0.0-1.0-504.0","0","0","55766","","null","","","null","55","","","","","","","","","","","","","","","NaN",""
"","S1","","html-keyboard-response","359","395987","0.0-1.0-506.0","0","0","55766","","null","","","null","56","","","","","","","","","","","","","","","",""
"","ISI","","html-keyboard-response","360","396992","0.0-1.0-507.0","0","0","55766","","null","","","null","56","NaN","","","","","","","","","","","","","","",""
"","S2","","html-keyboard-response","361","397246","0.0-1.0-508.0","0","0","55766","","null","","","null","56","","NaN","","","","","","","","","","","","","",""
"","response","","html-keyboard-response","362","397869","0.0-1.0-509.0-0.0","0","0","55766","","622","","","68","56","","","2","56","training","adjacent","AB","1","2","N.jpg","Q.jpg","1","1","1","",""
"","feedback","","html-keyboard-response","363","398888","0.0-1.0-510.0-0.0","0","0","55766","","null","","","null","56","","","","","","","","","","","","","","","",""
"","ITI","","html-keyboard-response","364","399891","0.0-1.0-513.0","0","0","55766","","null","","","null","56","","","","","","","","","","","","","","","NaN",""
"","S1","","html-keyboard-response","365","400146","0.0-1.0-515.0","0","0","55766","","null","","","null","57","","","","","","","","","","","","","","","",""
"","ISI","","html-keyboard-response","366","401150","0.0-1.0-516.0","0","0","55766","","null","","","null","57","NaN","","","","","","","","","","","","","","",""
"","S2","","html-keyboard-response","367","401402","0.0-1.0-517.0","0","0","55766","","null","","","null","57","","NaN","","","","","","","","","","","","","",""
"","response","","html-keyboard-response","368","401679","0.0-1.0-518.0-0.0","0","0","55766","","276","","","75","57","","","2","57","training","adjacent","EF","5","6","M.jpg","L.jpg","0","1","0","",""
"","feedback","","html-keyboard-response","369","402684","0.0-1.0-519.0-0.0","0","0","55766","","null","","","null","57","","","","","","","","","","","","","","","",""
"","time_out","","html-keyboard-response","370","404689","0.0-1.0-521.0-0.0","0","0","55766","","null","","","null","57","","","","","","","","","","","","","","","",""
"","ITI","","html-keyboard-response","371","405693","0.0-1.0-522.0","0","0","55766","","null","","","null","57","","","","","","","","","","","","","","","NaN",""
"","S1","","html-keyboard-response","372","405948","0.0-1.0-524.0","0","0","55766","","null","","","null","58","","","","","","","","","","","","","","","",""
"","ISI","","html-keyboard-response","373","406953","0.0-1.0-525.0","0","0","55766","","null","","","null","58","NaN","","","","","","","","","","","","","","",""
"","S2","","html-keyboard-response","374","407208","0.0-1.0-526.0","0","0","55766","","null","","","null","58","","NaN","","","","","","","","","","","","","",""
"","response","","html-keyboard-response","375","407873","0.0-1.0-527.0-0.0","0","0","55766","","662","","","75","58","","","2","58","training","adjacent","ED","5","4","M.jpg","O.jpg","0","0","1","",""
"","feedback","","html-keyboard-response","376","408879","0.0-1.0-528.0-0.0","0","0","55766","","null","","","null","58","","","","","","","","","","","","","","","",""
"","ITI","","html-keyboard-response","377","409886","0.0-1.0-531.0","0","0","55766","","null","","","null","58","","","","","","","","","","","","","","","NaN",""
"","S1","","html-keyboard-response","378","410141","0.0-1.0-533.0","0","0","55766","","null","","","null","59","","","","","","","","","","","","","","","",""
"","ISI","","html-keyboard-response","379","411145","0.0-1.0-534.0","0","0","55766","","null","","","null","59","NaN","","","","","","","","","","","","","","",""
"","S2","","html-keyboard-response","380","411400","0.0-1.0-535.0","0","0","55766","","null","","","null","59","","NaN","","","","","","","","","","","","","",""
"","response","","html-keyboard-response","381","411745","0.0-1.0-536.0-0.0","0","0","55766","","342","","","75","59","","","2","59","training","adjacent","EF","5","6","M.jpg","L.jpg","0","1","0","",""
"","feedback","","html-keyboard-response","382","412748","0.0-1.0-537.0-0.0","0","0","55766","","null","","","null","59","","","","","","","","","","","","","","","",""
"","time_out","","html-keyboard-response","383","414752","0.0-1.0-539.0-0.0","0","0","55766","","null","","","null","59","","","","","","","","","","","","","","","",""
"","ITI","","html-keyboard-response","384","415756","0.0-1.0-540.0","0","0","55766","","null","","","null","59","","","","","","","","","","","","","","","NaN",""
"","S1","","html-keyboard-response","385","416011","0.0-1.0-542.0","0","0","55766","","null","","","null","60","","","","","","","","","","","","","","","",""
"","ISI","","html-keyboard-response","386","417015","0.0-1.0-543.0","0","0","55766","","null","","","null","60","NaN","","","","","","","","","","","","","","",""
"","S2","","html-keyboard-response","387","417269","0.0-1.0-544.0","0","0","55766","","null","","","null","60","","NaN","","","","","","","","","","","","","",""
"","response","","html-keyboard-response","388","417774","0.0-1.0-545.0-0.0","0","0","55766","","501","","","68","60","","","2","60","training","adjacent","CD","3","4","P.jpg","O.jpg","1","1","1","",""
"","feedback","","html-keyboard-response","389","418778","0.0-1.0-546.0-0.0","0","0","55766","","null","","","null","60","","","","","","","","","","","","","","","",""
"","ITI","","html-keyboard-response","390","419782","0.0-1.0-549.0","0","0","55766","","null","","","null","60","","","","","","","","","","","","","","","NaN",""
"","S1","","html-keyboard-response","391","420036","0.0-1.0-551.0","0","0","55766","","null","","","null","61","","","","","","","","","","","","","","","",""
"","ISI","","html-keyboard-response","392","421041","0.0-1.0-552.0","0","0","55766","","null","","","null","61","NaN","","","","","","","","","","","","","","",""
"","S2","","html-keyboard-response","393","421297","0.0-1.0-553.0","0","0","55766","","null","","","null","61","","NaN","","","","","","","","","","","","","",""
"","response","","html-keyboard-response","394","421672","0.0-1.0-554.0-0.0","0","0","55766","","373","","","75","61","","","2","61","training","adjacent","CD","3","4","P.jpg","O.jpg","0","1","0","",""
"","feedback","","html-keyboard-response","395","422676","0.0-1.0-555.0-0.0","0","0","55766","","null","","","null","61","","","","","","","","","","","","","","","",""
"","time_out","","html-keyboard-response","396","424682","0.0-1.0-557.0-0.0","0","0","55766","","null","","","null","61","","","","","","","","","","","","","","","",""
"","ITI","","html-keyboard-response","397","425687","0.0-1.0-558.0","0","0","55766","","null","","","null","61","","","","","","","","","","","","","","","NaN",""
"","S1","","html-keyboard-response","398","425942","0.0-1.0-560.0","0","0","55766","","null","","","null","62","","","","","","","","","","","","","","","",""
"","ISI","","html-keyboard-response","399","426945","0.0-1.0-561.0","0","0","55766","","null","","","null","62","NaN","","","","","","","","","","","","","","",""
"","S2","","html-keyboard-response","400","427199","0.0-1.0-562.0","0","0","55766","","null","","","null","62","","NaN","","","","","","","","","","","","","",""
"","response","","html-keyboard-response","401","427621","0.0-1.0-563.0-0.0","0","0","55766","","418","","","75","62","","","2","62","training","adjacent","ED","5","4","M.jpg","O.jpg","0","0","1","",""
"","feedback","","html-keyboard-response","402","428625","0.0-1.0-564.0-0.0","0","0","55766","","null","","","null","62","","","","","","","","","","","","","","","",""
"","ITI","","html-keyboard-response","403","429631","0.0-1.0-567.0","0","0","55766","","null","","","null","62","","","","","","","","","","","","","","","NaN",""
"","S1","","html-keyboard-response","404","429886","0.0-1.0-569.0","0","0","55766","","null","","","null","63","","","","","","","","","","","","","","","",""
"","ISI","","html-keyboard-response","405","430891","0.0-1.0-570.0","0","0","55766","","null","","","null","63","NaN","","","","","","","","","","","","","","",""
"","S2","","html-keyboard-response","406","431145","0.0-1.0-571.0","0","0","55766","","null","","","null","63","","NaN","","","","","","","","","","","","","",""
"","response","","html-keyboard-response","407","431487","0.0-1.0-572.0-0.0","0","0","55766","","341","","","68","63","","","2","63","training","adjacent","CD","3","4","P.jpg","O.jpg","1","1","1","",""
"","feedback","","html-keyboard-response","408","432490","0.0-1.0-573.0-0.0","0","0","55766","","null","","","null","63","","","","","","","","","","","","","","","",""
"","ITI","","html-keyboard-response","409","433493","0.0-1.0-576.0","0","0","55766","","null","","","null","63","","","","","","","","","","","","","","","NaN",""
"","S1","","html-keyboard-response","410","433746","0.0-1.0-578.0","0","0","55766","","null","","","null","64","","","","","","","","","","","","","","","",""
"","ISI","","html-keyboard-response","411","434761","0.0-1.0-579.0","0","0","55766","","null","","","null","64","NaN","","","","","","","","","","","","","","",""
"","S2","","html-keyboard-response","412","435016","0.0-1.0-580.0","0","0","55766","","null","","","null","64","","NaN","","","","","","","","","","","","","",""
"","response","","html-keyboard-response","413","435617","0.0-1.0-581.0-0.0","0","0","55766","","598","","","75","64","","","2","64","training","adjacent","CB","3","2","P.jpg","Q.jpg","0","0","1","",""
"","feedback","","html-keyboard-response","414","436620","0.0-1.0-582.0-0.0","0","0","55766","","null","","","null","64","","","","","","","","","","","","","","","",""
"","ITI","","html-keyboard-response","415","437624","0.0-1.0-585.0","0","0","55766","","null","","","null","64","","","","","","","","","","","","","","","NaN",""
"","S1","","html-keyboard-response","416","437879","0.0-1.0-587.0","0","0","55766","","null","","","null","65","","","","","","","","","","","","","","","",""
"","ISI","","html-keyboard-response","417","438883","0.0-1.0-588.0","0","0","55766","","null","","","null","65","NaN","","","","","","","","","","","","","","",""
"","S2","","html-keyboard-response","418","439137","0.0-1.0-589.0","0","0","55766","","null","","","null","65","","NaN","","","","","","","","","","","","","",""
"","response","","html-keyboard-response","419","439454","0.0-1.0-590.0-0.0","0","0","55766","","315","","","75","65","","","2","65","training","adjacent","CB","3","2","P.jpg","Q.jpg","0","0","1","",""
"","feedback","","html-keyboard-response","420","440458","0.0-1.0-591.0-0.0","0","0","55766","","null","","","null","65","","","","","","","","","","","","","","","",""
"","ITI","","html-keyboard-response","421","441463","0.0-1.0-594.0","0","0","55766","","null","","","null","65","","","","","","","","","","","","","","","NaN",""
"","S1","","html-keyboard-response","422","441719","0.0-1.0-596.0","0","0","55766","","null","","","null","66","","","","","","","","","","","","","","","",""
"","ISI","","html-keyboard-response","423","442722","0.0-1.0-597.0","0","0","55766","","null","","","null","66","NaN","","","","","","","","","","","","","","",""
"","S2","","html-keyboard-response","424","442977","0.0-1.0-598.0","0","0","55766","","null","","","null","66","","NaN","","","","","","","","","","","","","",""
"","response","","html-keyboard-response","425","443763","0.0-1.0-599.0-0.0","0","0","55766","","782","","","68","66","","","2","66","training","adjacent","DC","4","3","O.jpg","P.jpg","1","0","0","",""
"","feedback","","html-keyboard-response","426","444768","0.0-1.0-600.0-0.0","0","0","55766","","null","","","null","66","","","","","","","","","","","","","","","",""
"","time_out","","html-keyboard-response","427","446772","0.0-1.0-602.0-0.0","0","0","55766","","null","","","null","66","","","","","","","","","","","","","","","",""
"","ITI","","html-keyboard-response","428","447777","0.0-1.0-603.0","0","0","55766","","null","","","null","66","","","","","","","","","","","","","","","NaN",""
"","S1","","html-keyboard-response","429","448032","0.0-1.0-605.0","0","0","55766","","null","","","null","67","","","","","","","","","","","","","","","",""
"","ISI","","html-keyboard-response","430","449036","0.0-1.0-606.0","0","0","55766","","null","","","null","67","NaN","","","","","","","","","","","","","","",""
"","S2","","html-keyboard-response","431","449291","0.0-1.0-607.0","0","0","55766","","null","","","null","67","","NaN","","","","","","","","","","","","","",""
"","response","","html-keyboard-response","432","449847","0.0-1.0-608.0-0.0","0","0","55766","","552","","","75","67","","","2","67","training","adjacent","BA","2","1","Q.jpg","N.jpg","0","0","1","",""
"","feedback","","html-keyboard-response","433","450850","0.0-1.0-609.0-0.0","0","0","55766","","null","","","null","67","","","","","","","","","","","","","","","",""
"","ITI","","html-keyboard-response","434","451856","0.0-1.0-612.0","0","0","55766","","null","","","null","67","","","","","","","","","","","","","","","NaN",""
"","S1","","html-keyboard-response","435","452110","0.0-1.0-614.0","0","0","55766","","null","","","null","68","","","","","","","","","","","","","","","",""
"","ISI","","html-keyboard-response","436","453114","0.0-1.0-615.0","0","0","55766","","null","","","null","68","NaN","","","","","","","","","","","","","","",""
"","S2","","html-keyboard-response","437","453368","0.0-1.0-616.0","0","0","55766","","null","","","null","68","","NaN","","","","","","","","","","","","","",""
"","response","","html-keyboard-response","438","453715","0.0-1.0-617.0-0.0","0","0","55766","","346","","","68","68","","","2","68","training","adjacent","FG","6","7","L.jpg","R.jpg","1","1","1","",""
"","feedback","","html-keyboard-response","439","454721","0.0-1.0-618.0-0.0","0","0","55766","","null","","","null","68","","","","","","","","","","","","","","","",""
"","ITI","","html-keyboard-response","440","455726","0.0-1.0-621.0","0","0","55766","","null","","","null","68","","","","","","","","","","","","","","","NaN",""
"","S1","","html-keyboard-response","441","455981","0.0-1.0-623.0","0","0","55766","","null","","","null","69","","","","","","","","","","","","","","","",""
"","ISI","","html-keyboard-response","442","456986","0.0-1.0-624.0","0","0","55766","","null","","","null","69","NaN","","","","","","","","","","","","","","",""
"","S2","","html-keyboard-response","443","457240","0.0-1.0-625.0","0","0","55766","","null","","","null","69","","NaN","","","","","","","","","","","","","",""
"","response","","html-keyboard-response","444","457525","0.0-1.0-626.0-0.0","0","0","55766","","284","","","68","69","","","2","69","training","adjacent","FG","6","7","L.jpg","R.jpg","1","1","1","",""
"","feedback","","html-keyboard-response","445","458530","0.0-1.0-627.0-0.0","0","0","55766","","null","","","null","69","","","","","","","","","","","","","","","",""
"","ITI","","html-keyboard-response","446","459534","0.0-1.0-630.0","0","0","55766","","null","","","null","69","","","","","","","","","","","","","","","NaN",""
"","S1","","html-keyboard-response","447","459789","0.0-1.0-632.0","0","0","55766","","null","","","null","70","","","","","","","","","","","","","","","",""
"","ISI","","html-keyboard-response","448","460793","0.0-1.0-633.0","0","0","55766","","null","","","null","70","NaN","","","","","","","","","","","","","","",""
"","S2","","html-keyboard-response","449","461047","0.0-1.0-634.0","0","0","55766","","null","","","null","70","","NaN","","","","","","","","","","","","","",""
"","response","","html-keyboard-response","450","461443","0.0-1.0-635.0-0.0","0","0","55766","","395","","","68","70","","","2","70","training","adjacent","DE","4","5","O.jpg","M.jpg","1","1","1","",""
"","feedback","","html-keyboard-response","451","462448","0.0-1.0-636.0-0.0","0","0","55766","","null","","","null","70","","","","","","","","","","","","","","","",""
"","ITI","","html-keyboard-response","452","463454","0.0-1.0-639.0","0","0","55766","","null","","","null","70","","","","","","","","","","","","","","","NaN",""
"","S1","","html-keyboard-response","453","463709","0.0-1.0-641.0","0","0","55766","","null","","","null","71","","","","","","","","","","","","","","","",""
"","ISI","","html-keyboard-response","454","464712","0.0-1.0-642.0","0","0","55766","","null","","","null","71","NaN","","","","","","","","","","","","","","",""
"","S2","","html-keyboard-response","455","464967","0.0-1.0-643.0","0","0","55766","","null","","","null","71","","NaN","","","","","","","","","","","","","",""
"","response","","html-keyboard-response","456","465276","0.0-1.0-644.0-0.0","0","0","55766","","306","","","68","71","","","2","71","training","adjacent","FE","6","5","L.jpg","M.jpg","1","0","0","",""
"","feedback","","html-keyboard-response","457","466279","0.0-1.0-645.0-0.0","0","0","55766","","null","","","null","71","","","","","","","","","","","","","","","",""
"","time_out","","html-keyboard-response","458","468282","0.0-1.0-647.0-0.0","0","0","55766","","null","","","null","71","","","","","","","","","","","","","","","",""
"","ITI","","html-keyboard-response","459","469285","0.0-1.0-648.0","0","0","55766","","null","","","null","71","","","","","","","","","","","","","","","NaN",""
"","S1","","html-keyboard-response","460","469538","0.0-1.0-650.0","0","0","55766","","null","","","null","72","","","","","","","","","","","","","","","",""
"","ISI","","html-keyboard-response","461","470542","0.0-1.0-651.0","0","0","55766","","null","","","null","72","NaN","","","","","","","","","","","","","","",""
"","S2","","html-keyboard-response","462","470796","0.0-1.0-652.0","0","0","55766","","null","","","null","72","","NaN","","","","","","","","","","","","","",""
"","response","","html-keyboard-response","463","471326","0.0-1.0-653.0-0.0","0","0","55766","","527","","","75","72","","","2","72","training","adjacent","BA","2","1","Q.jpg","N.jpg","0","0","1","",""
"","feedback","","html-keyboard-response","464","472331","0.0-1.0-654.0-0.0","0","0","55766","","null","","","null","72","","","","","","","","","","","","","","","",""
"","ITI","","html-keyboard-response","465","473333","0.0-1.0-657.0","0","0","55766","","null","","","null","72","","","","","","","","","","","","","","","NaN",""
"","S1","","html-keyboard-response","466","473586","0.0-1.0-659.0","0","0","55766","","null","","","null","73","","","","","","","","","","","","","","","",""
"","ISI","","html-keyboard-response","467","474589","0.0-1.0-660.0","0","0","55766","","null","","","null","73","NaN","","","","","","","","","","","","","","",""
"","S2","","html-keyboard-response","468","474845","0.0-1.0-661.0","0","0","55766","","null","","","null","73","","NaN","","","","","","","","","","","","","",""
"","response","","html-keyboard-response","469","475165","0.0-1.0-662.0-0.0","0","0","55766","","315","","","68","73","","","2","73","training","adjacent","FE","6","5","L.jpg","M.jpg","1","0","0","",""
"","feedback","","html-keyboard-response","470","476170","0.0-1.0-663.0-0.0","0","0","55766","","null","","","null","73","","","","","","","","","","","","","","","",""
"","time_out","","html-keyboard-response","471","478175","0.0-1.0-665.0-0.0","0","0","55766","","null","","","null","73","","","","","","","","","","","","","","","",""
"","ITI","","html-keyboard-response","472","479178","0.0-1.0-666.0","0","0","55766","","null","","","null","73","","","","","","","","","","","","","","","NaN",""
"","S1","","html-keyboard-response","473","479433","0.0-1.0-668.0","0","0","55766","","null","","","null","74","","","","","","","","","","","","","","","",""
"","ISI","","html-keyboard-response","474","480438","0.0-1.0-669.0","0","0","55766","","null","","","null","74","NaN","","","","","","","","","","","","","","",""
"","S2","","html-keyboard-response","475","480693","0.0-1.0-670.0","0","0","55766","","null","","","null","74","","NaN","","","","","","","","","","","","","",""
"","response","","html-keyboard-response","476","480842","0.0-1.0-671.0-0.0","0","0","55766","","147","","","75","74","","","2","74","training","adjacent","FE","6","5","L.jpg","M.jpg","0","0","1","",""
"","feedback","","html-keyboard-response","477","481847","0.0-1.0-672.0-0.0","0","0","55766","","null","","","null","74","","","","","","","","","","","","","","","",""
"","ITI","","html-keyboard-response","478","482852","0.0-1.0-675.0","0","0","55766","","null","","","null","74","","","","","","","","","","","","","","","NaN",""
"","S1","","html-keyboard-response","479","483107","0.0-1.0-677.0","0","0","55766","","null","","","null","75","","","","","","","","","","","","","","","",""
"","ISI","","html-keyboard-response","480","484113","0.0-1.0-678.0","0","0","55766","","null","","","null","75","NaN","","","","","","","","","","","","","","",""
"","S2","","html-keyboard-response","481","484368","0.0-1.0-679.0","0","0","55766","","null","","","null","75","","NaN","","","","","","","","","","","","","",""
"","response","","html-keyboard-response","482","484499","0.0-1.0-680.0-0.0","0","0","55766","","129","","","68","75","","","2","75","training","adjacent","AB","1","2","N.jpg","Q.jpg","1","1","1","",""
"","feedback","","html-keyboard-response","483","485505","0.0-1.0-681.0-0.0","0","0","55766","","null","","","null","75","","","","","","","","","","","","","","","",""
"","ITI","","html-keyboard-response","484","486510","0.0-1.0-684.0","0","0","55766","","null","","","null","75","","","","","","","","","","","","","","","NaN",""
"","S1","","html-keyboard-response","485","486764","0.0-1.0-686.0","0","0","55766","","null","","","null","76","","","","","","","","","","","","","","","",""
"","ISI","","html-keyboard-response","486","487768","0.0-1.0-687.0","0","0","55766","","null","","","null","76","NaN","","","","","","","","","","","","","","",""
"","S2","","html-keyboard-response","487","488035","0.0-1.0-688.0","0","0","55766","","null","","","null","76","","NaN","","","","","","","","","","","","","",""
"","response","","html-keyboard-response","488","488460","0.0-1.0-689.0-0.0","0","0","55766","","421","","","68","76","","","2","76","training","adjacent","DE","4","5","O.jpg","M.jpg","1","1","1","",""
"","feedback","","html-keyboard-response","489","489469","0.0-1.0-690.0-0.0","0","0","55766","","null","","","null","76","","","","","","","","","","","","","","","",""
"","ITI","","html-keyboard-response","490","490485","0.0-1.0-693.0","0","0","55766","","null","","","null","76","","","","","","","","","","","","","","","NaN",""
"","S1","","html-keyboard-response","491","490740","0.0-1.0-695.0","0","0","55766","","null","","","null","77","","","","","","","","","","","","","","","",""
"","ISI","","html-keyboard-response","492","491746","0.0-1.0-696.0","0","0","55766","","null","","","null","77","NaN","","","","","","","","","","","","","","",""
"","S2","","html-keyboard-response","493","492001","0.0-1.0-697.0","0","0","55766","","null","","","null","77","","NaN","","","","","","","","","","","","","",""
"","response","","html-keyboard-response","494","492336","0.0-1.0-698.0-0.0","0","0","55766","","332","","","75","77","","","2","77","training","adjacent","BA","2","1","Q.jpg","N.jpg","0","0","1","",""
"","feedback","","html-keyboard-response","495","493341","0.0-1.0-699.0-0.0","0","0","55766","","null","","","null","77","","","","","","","","","","","","","","","",""
"","ITI","","html-keyboard-response","496","494346","0.0-1.0-702.0","0","0","55766","","null","","","null","77","","","","","","","","","","","","","","","NaN",""
"","S1","","html-keyboard-response","497","494599","0.0-1.0-704.0","0","0","55766","","null","","","null","78","","","","","","","","","","","","","","","",""
"","ISI","","html-keyboard-response","498","495603","0.0-1.0-705.0","0","0","55766","","null","","","null","78","NaN","","","","","","","","","","","","","","",""
"","S2","","html-keyboard-response","499","495859","0.0-1.0-706.0","0","0","55766","","null","","","null","78","","NaN","","","","","","","","","","","","","",""
"","response","","html-keyboard-response","500","496343","0.0-1.0-707.0-0.0","0","0","55766","","480","","","75","78","","","2","78","training","adjacent","DC","4","3","O.jpg","P.jpg","0","0","1","",""
"","feedback","","html-keyboard-response","501","497349","0.0-1.0-708.0-0.0","0","0","55766","","null","","","null","78","","","","","","","","","","","","","","","",""
"","ITI","","html-keyboard-response","502","498354","0.0-1.0-711.0","0","0","55766","","null","","","null","78","","","","","","","","","","","","","","","NaN",""
"","S1","","html-keyboard-response","503","498608","0.0-1.0-713.0","0","0","55766","","null","","","null","79","","","","","","","","","","","","","","","",""
"","ISI","","html-keyboard-response","504","499611","0.0-1.0-714.0","0","0","55766","","null","","","null","79","NaN","","","","","","","","","","","","","","",""
"","S2","","html-keyboard-response","505","499864","0.0-1.0-715.0","0","0","55766","","null","","","null","79","","NaN","","","","","","","","","","","","","",""
"","response","","html-keyboard-response","506","500154","0.0-1.0-716.0-0.0","0","0","55766","","288","","","75","79","","","2","79","training","adjacent","FE","6","5","L.jpg","M.jpg","0","0","1","",""
"","feedback","","html-keyboard-response","507","501167","0.0-1.0-717.0-0.0","0","0","55766","","null","","","null","79","","","","","","","","","","","","","","","",""
"","ITI","","html-keyboard-response","508","502171","0.0-1.0-720.0","0","0","55766","","null","","","null","79","","","","","","","","","","","","","","","NaN",""
"","S1","","html-keyboard-response","509","502427","0.0-1.0-722.0","0","0","55766","","null","","","null","80","","","","","","","","","","","","","","","",""
"","ISI","","html-keyboard-response","510","503432","0.0-1.0-723.0","0","0","55766","","null","","","null","80","NaN","","","","","","","","","","","","","","",""
"","S2","","html-keyboard-response","511","503687","0.0-1.0-724.0","0","0","55766","","null","","","null","80","","NaN","","","","","","","","","","","","","",""
"","response","","html-keyboard-response","512","504163","0.0-1.0-725.0-0.0","0","0","55766","","470","","","75","80","","","2","80","training","adjacent","CB","3","2","P.jpg","Q.jpg","0","0","1","",""
"","feedback","","html-keyboard-response","513","505166","0.0-1.0-726.0-0.0","0","0","55766","","null","","","null","80","","","","","","","","","","","","","","","",""
"","ITI","","html-keyboard-response","514","506170","0.0-1.0-729.0","0","0","55766","","null","","","null","80","","","","","","","","","","","","","","","NaN",""
"","S1","","html-keyboard-response","515","506424","0.0-1.0-731.0","0","0","55766","","null","","","null","81","","","","","","","","","","","","","","","",""
"","ISI","","html-keyboard-response","516","507431","0.0-1.0-732.0","0","0","55766","","null","","","null","81","NaN","","","","","","","","","","","","","","",""
"","S2","","html-keyboard-response","517","507686","0.0-1.0-733.0","0","0","55766","","null","","","null","81","","NaN","","","","","","","","","","","","","",""
"","response","","html-keyboard-response","518","507937","0.0-1.0-734.0-0.0","0","0","55766","","249","","","68","81","","","2","81","training","adjacent","BC","2","3","Q.jpg","P.jpg","1","1","1","",""
"","feedback","","html-keyboard-response","519","508943","0.0-1.0-735.0-0.0","0","0","55766","","null","","","null","81","","","","","","","","","","","","","","","",""
"","ITI","","html-keyboard-response","520","509946","0.0-1.0-738.0","0","0","55766","","null","","","null","81","","","","","","","","","","","","","","","NaN",""
"","S1","","html-keyboard-response","521","510201","0.0-1.0-740.0","0","0","55766","","null","","","null","82","","","","","","","","","","","","","","","",""
"","ISI","","html-keyboard-response","522","511206","0.0-1.0-741.0","0","0","55766","","null","","","null","82","NaN","","","","","","","","","","","","","","",""
"","S2","","html-keyboard-response","523","511459","0.0-1.0-742.0","0","0","55766","","null","","","null","82","","NaN","","","","","","","","","","","","","",""
"","response","","html-keyboard-response","524","511910","0.0-1.0-743.0-0.0","0","0","55766","","448","","","68","82","","","2","82","training","adjacent","BC","2","3","Q.jpg","P.jpg","1","1","1","",""
"","feedback","","html-keyboard-response","525","512915","0.0-1.0-744.0-0.0","0","0","55766","","null","","","null","82","","","","","","","","","","","","","","","",""
"","ITI","","html-keyboard-response","526","513921","0.0-1.0-747.0","0","0","55766","","null","","","null","82","","","","","","","","","","","","","","","NaN",""
"","S1","","html-keyboard-response","527","514176","0.0-1.0-749.0","0","0","55766","","null","","","null","83","","","","","","","","","","","","","","","",""
"","ISI","","html-keyboard-response","528","515180","0.0-1.0-750.0","0","0","55766","","null","","","null","83","NaN","","","","","","","","","","","","","","",""
"","S2","","html-keyboard-response","529","515434","0.0-1.0-751.0","0","0","55766","","null","","","null","83","","NaN","","","","","","","","","","","","","",""
"","response","","html-keyboard-response","530","515763","0.0-1.0-752.0-0.0","0","0","55766","","327","","","75","83","","","2","83","training","adjacent","DC","4","3","O.jpg","P.jpg","0","0","1","",""
"","feedback","","html-keyboard-response","531","516768","0.0-1.0-753.0-0.0","0","0","55766","","null","","","null","83","","","","","","","","","","","","","","","",""
"","ITI","","html-keyboard-response","532","517775","0.0-1.0-756.0","0","0","55766","","null","","","null","83","","","","","","","","","","","","","","","NaN",""
"","S1","","html-keyboard-response","533","518030","0.0-1.0-758.0","0","0","55766","","null","","","null","84","","","","","","","","","","","","","","","",""
"","ISI","","html-keyboard-response","534","519035","0.0-1.0-759.0","0","0","55766","","null","","","null","84","NaN","","","","","","","","","","","","","","",""
"","S2","","html-keyboard-response","535","519289","0.0-1.0-760.0","0","0","55766","","null","","","null","84","","NaN","","","","","","","","","","","","","",""
"","response","","html-keyboard-response","536","519763","0.0-1.0-761.0-0.0","0","0","55766","","471","","","75","84","","","2","84","training","adjacent","BA","2","1","Q.jpg","N.jpg","0","0","1","",""
"","feedback","","html-keyboard-response","537","520767","0.0-1.0-762.0-0.0","0","0","55766","","null","","","null","84","","","","","","","","","","","","","","","",""
"","ITI","","html-keyboard-response","538","521772","0.0-1.0-765.0","0","0","55766","","null","","","null","84","","","","","","","","","","","","","","","NaN",""
"","S1","","html-keyboard-response","539","522026","0.0-1.0-767.0","0","0","55766","","null","","","null","85","","","","","","","","","","","","","","","",""
"","ISI","","html-keyboard-response","540","523030","0.0-1.0-768.0","0","0","55766","","null","","","null","85","NaN","","","","","","","","","","","","","","",""
"","S2","","html-keyboard-response","541","523285","0.0-1.0-769.0","0","0","55766","","null","","","null","85","","NaN","","","","","","","","","","","","","",""
"","response","","html-keyboard-response","542","523797","0.0-1.0-770.0-0.0","0","0","55766","","510","","","68","85","","","2","85","training","adjacent","BC","2","3","Q.jpg","P.jpg","1","1","1","",""
"","feedback","","html-keyboard-response","543","524803","0.0-1.0-771.0-0.0","0","0","55766","","null","","","null","85","","","","","","","","","","","","","","","",""
"","ITI","","html-keyboard-response","544","525807","0.0-1.0-774.0","0","0","55766","","null","","","null","85","","","","","","","","","","","","","","","NaN",""
"","S1","","html-keyboard-response","545","526060","0.0-1.0-776.0","0","0","55766","","null","","","null","86","","","","","","","","","","","","","","","",""
"","ISI","","html-keyboard-response","546","527066","0.0-1.0-777.0","0","0","55766","","null","","","null","86","NaN","","","","","","","","","","","","","","",""
"","S2","","html-keyboard-response","547","527319","0.0-1.0-778.0","0","0","55766","","null","","","null","86","","NaN","","","","","","","","","","","","","",""
"","response","","html-keyboard-response","548","528291","0.0-1.0-779.0-0.0","0","0","55766","","968","","","68","86","","","2","86","training","adjacent","ED","5","4","M.jpg","O.jpg","1","0","0","",""
"","feedback","","html-keyboard-response","549","529296","0.0-1.0-780.0-0.0","0","0","55766","","null","","","null","86","","","","","","","","","","","","","","","",""
"","time_out","","html-keyboard-response","550","531299","0.0-1.0-782.0-0.0","0","0","55766","","null","","","null","86","","","","","","","","","","","","","","","",""
"","ITI","","html-keyboard-response","551","532302","0.0-1.0-783.0","0","0","55766","","null","","","null","86","","","","","","","","","","","","","","","NaN",""
"","S1","","html-keyboard-response","552","532556","0.0-1.0-785.0","0","0","55766","","null","","","null","87","","","","","","","","","","","","","","","",""
"","ISI","","html-keyboard-response","553","533560","0.0-1.0-786.0","0","0","55766","","null","","","null","87","NaN","","","","","","","","","","","","","","",""
"","S2","","html-keyboard-response","554","533816","0.0-1.0-787.0","0","0","55766","","null","","","null","87","","NaN","","","","","","","","","","","","","",""
"","response","","html-keyboard-response","555","534476","0.0-1.0-788.0-0.0","0","0","55766","","657","","","68","87","","","2","87","training","adjacent","CD","3","4","P.jpg","O.jpg","1","1","1","",""
"","feedback","","html-keyboard-response","556","535478","0.0-1.0-789.0-0.0","0","0","55766","","null","","","null","87","","","","","","","","","","","","","","","",""
"","ITI","","html-keyboard-response","557","536483","0.0-1.0-792.0","0","0","55766","","null","","","null","87","","","","","","","","","","","","","","","NaN",""
"","S1","","html-keyboard-response","558","536737","0.0-1.0-794.0","0","0","55766","","null","","","null","88","","","","","","","","","","","","","","","",""
"","ISI","","html-keyboard-response","559","537754","0.0-1.0-795.0","0","0","55766","","null","","","null","88","NaN","","","","","","","","","","","","","","",""
"","S2","","html-keyboard-response","560","538010","0.0-1.0-796.0","0","0","55766","","null","","","null","88","","NaN","","","","","","","","","","","","","",""
"","response","","html-keyboard-response","561","538351","0.0-1.0-797.0-0.0","0","0","55766","","338","","","68","88","","","2","88","training","adjacent","EF","5","6","M.jpg","L.jpg","1","1","1","",""
"","feedback","","html-keyboard-response","562","539356","0.0-1.0-798.0-0.0","0","0","55766","","null","","","null","88","","","","","","","","","","","","","","","",""
"","ITI","","html-keyboard-response","563","540361","0.0-1.0-801.0","0","0","55766","","null","","","null","88","","","","","","","","","","","","","","","NaN",""
"","S1","","html-keyboard-response","564","540615","0.0-1.0-803.0","0","0","55766","","null","","","null","89","","","","","","","","","","","","","","","",""
"","ISI","","html-keyboard-response","565","541618","0.0-1.0-804.0","0","0","55766","","null","","","null","89","NaN","","","","","","","","","","","","","","",""
"","S2","","html-keyboard-response","566","541873","0.0-1.0-805.0","0","0","55766","","null","","","null","89","","NaN","","","","","","","","","","","","","",""
"","response","","html-keyboard-response","567","542693","0.0-1.0-806.0-0.0","0","0","55766","","816","","","75","89","","","2","89","training","adjacent","DE","4","5","O.jpg","M.jpg","0","1","0","",""
"","feedback","","html-keyboard-response","568","543698","0.0-1.0-807.0-0.0","0","0","55766","","null","","","null","89","","","","","","","","","","","","","","","",""
"","time_out","","html-keyboard-response","569","545703","0.0-1.0-809.0-0.0","0","0","55766","","null","","","null","89","","","","","","","","","","","","","","","",""
"","ITI","","html-keyboard-response","570","546706","0.0-1.0-810.0","0","0","55766","","null","","","null","89","","","","","","","","","","","","","","","NaN",""
"","S1","","html-keyboard-response","571","546961","0.0-1.0-812.0","0","0","55766","","null","","","null","90","","","","","","","","","","","","","","","",""
"","ISI","","html-keyboard-response","572","547966","0.0-1.0-813.0","0","0","55766","","null","","","null","90","NaN","","","","","","","","","","","","","","",""
"","S2","","html-keyboard-response","573","548221","0.0-1.0-814.0","0","0","55766","","null","","","null","90","","NaN","","","","","","","","","","","","","",""
"","response","","html-keyboard-response","574","548658","0.0-1.0-815.0-0.0","0","0","55766","","434","","","68","90","","","2","90","training","adjacent","FG","6","7","L.jpg","R.jpg","1","1","1","",""
"","feedback","","html-keyboard-response","575","549662","0.0-1.0-816.0-0.0","0","0","55766","","null","","","null","90","","","","","","","","","","","","","","","",""
"","ITI","","html-keyboard-response","576","550667","0.0-1.0-819.0","0","0","55766","","null","","","null","90","","","","","","","","","","","","","","","NaN",""
"","S1","","html-keyboard-response","577","550920","0.0-1.0-821.0","0","0","55766","","null","","","null","91","","","","","","","","","","","","","","","",""
"","ISI","","html-keyboard-response","578","551925","0.0-1.0-822.0","0","0","55766","","null","","","null","91","NaN","","","","","","","","","","","","","","",""
"","S2","","html-keyboard-response","579","552180","0.0-1.0-823.0","0","0","55766","","null","","","null","91","","NaN","","","","","","","","","","","","","",""
"","response","","html-keyboard-response","580","552194","0.0-1.0-824.0-0.0","0","0","55766","","12","","","75","91","","","2","91","training","adjacent","GF","7","6","R.jpg","L.jpg","0","0","1","",""
"","feedback","","html-keyboard-response","581","553199","0.0-1.0-825.0-0.0","0","0","55766","","null","","","null","91","","","","","","","","","","","","","","","",""
"","ITI","","html-keyboard-response","582","554205","0.0-1.0-828.0","0","0","55766","","null","","","null","91","","","","","","","","","","","","","","","NaN",""
