"success","ttype","start_time","trial_type","trial_index","time_elapsed","internal_node_id","warning","missed_checkup","PID","view_history","rt","responses","repeat_instructions","key_press","index","keypress_isi","keypress_S2","block","trial_num","phase","group_type","pair_type","S1_stim","S2_stim","S1_img","S2_img","S1_chosen","S1_higher","accuracy","keypress_iti","total_bonus_tally"
"true","full_screen","d04062023hr1923","fullscreen","0","201162","0.0-0.0","0","0","46576","","","","","","","","","","","","","","","","","","","","","",""
"","instructions","","instructions","1","217304","0.0-1.0-0.0-0.0","0","0","46576","[{""page_index"":0,""viewing_time"":4473},{""page_index"":1,""viewing_time"":6170},{""page_index"":2,""viewing_time"":3305},{""page_index"":3,""viewing_time"":2190}]","16139","","","","","","","","","","","","","","","","","","","",""
"","comprehension_check","","survey-multi-choice","2","234938","0.0-1.0-0.0-1.0","0","0","46576","","17630","{""Q0"":""True"",""Q1"":""D"",""Q2"":""Once the second image appears and while the screen 'MAKE A CHOICE' is shown"",""Q3"":""Green mark"",""Q4"":""either D or K""}","0","","","","","","","","","","","","","","","","","",""
"","start_exp","","html-keyboard-response","3","238195","0.0-1.0-1.0","0","0","46576","","3254","","","32","","","","","","","","","","","","","","","","",""
"","S1","","html-keyboard-response","4","238349","0.0-1.0-2.0","0","0","46576","","null","","","null","0","","","","","","","","","","","","","","","",""
"","ISI","","html-keyboard-response","5","240352","0.0-1.0-3.0","0","0","46576","","null","","","null","0","NaN","","","","","","","","","","","","","","",""
"","S2","","html-keyboard-response","6","240505","0.0-1.0-4.0","0","0","46576","","null","","","null","0","","NaN","","","","","","","","","","","","","",""
"","response","","html-keyboard-response","7","241562","0.0-1.0-5.0-0.0","0","0","46576","","1054","","","75","0","","","1","0","training","adjacent","CB","3","2","L.jpg","Q.jpg","0","0","1","",""
"","feedback","","html-keyboard-response","8","242566","0.0-1.0-6.0-0.0","0","0","46576","","null","","","null","0","","","","","","","","","","","","","","","",""
"","ITI","","html-keyboard-response","9","243569","0.0-1.0-9.0","0","0","46576","","null","","","null","0","","","","","","","","","","","","","","","NaN",""
"","S1","","html-keyboard-response","10","243723","0.0-1.0-11.0","0","0","46576","","null","","","null","1","","","","","","","","","","","","","","","",""
"","ISI","","html-keyboard-response","11","245726","0.0-1.0-12.0","0","0","46576","","null","","","null","1","NaN","","","","","","","","","","","","","","",""
"","S2","","html-keyboard-response","12","245879","0.0-1.0-13.0","0","0","46576","","null","","","null","1","","NaN","","","","","","","","","","","","","",""
"","response","","html-keyboard-response","13","246562","0.0-1.0-14.0-0.0","0","0","46576","","682","","","75","1","","","1","1","training","adjacent","GF","7","6","P.jpg","R.jpg","0","0","1","",""
"","feedback","","html-keyboard-response","14","247566","0.0-1.0-15.0-0.0","0","0","46576","","null","","","null","1","","","","","","","","","","","","","","","",""
"","ITI","","html-keyboard-response","15","248569","0.0-1.0-18.0","0","0","46576","","null","","","null","1","","","","","","","","","","","","","","","NaN",""
"","S1","","html-keyboard-response","16","248722","0.0-1.0-20.0","0","0","46576","","null","","","null","2","","","","","","","","","","","","","","","",""
"","ISI","","html-keyboard-response","17","250725","0.0-1.0-21.0","0","0","46576","","null","","","null","2","NaN","","","","","","","","","","","","","","",""
"","S2","","html-keyboard-response","18","250878","0.0-1.0-22.0","0","0","46576","","null","","","null","2","","NaN","","","","","","","","","","","","","",""
"","response","","html-keyboard-response","19","251514","0.0-1.0-23.0-0.0","0","0","46576","","633","","","68","2","","","1","2","training","adjacent","DE","4","5","N.jpg","M.jpg","1","1","1","",""
"","feedback","","html-keyboard-response","20","252517","0.0-1.0-24.0-0.0","0","0","46576","","null","","","null","2","","","","","","","","","","","","","","","",""
"","ITI","","html-keyboard-response","21","253520","0.0-1.0-27.0","0","0","46576","","null","","","null","2","","","","","","","","","","","","","","","NaN",""
"","S1","","html-keyboard-response","22","253674","0.0-1.0-29.0","0","0","46576","","null","","","null","3","","","","","","","","","","","","","","","",""
"","ISI","","html-keyboard-response","23","255677","0.0-1.0-30.0","0","0","46576","","null","","","null","3","NaN","","","","","","","","","","","","","","",""
"","S2","","html-keyboard-response","24","255831","0.0-1.0-31.0","0","0","46576","","null","","","null","3","","NaN","","","","","","","","","","","","","",""
"","response","","html-keyboard-response","25","256401","0.0-1.0-32.0-0.0","0","0","46576","","569","","","68","3","","","1","3","training","adjacent","GF","7","6","P.jpg","R.jpg","1","0","0","",""
"","feedback","","html-keyboard-response","26","257416","0.0-1.0-33.0-0.0","0","0","46576","","null","","","null","3","","","","","","","","","","","","","","","",""
"","time_out","","html-keyboard-response","27","259431","0.0-1.0-35.0-0.0","0","0","46576","","null","","","null","3","","","","","","","","","","","","","","","",""
"","ITI","","html-keyboard-response","28","260434","0.0-1.0-36.0","0","0","46576","","null","","","null","3","","","","","","","","","","","","","","","NaN",""
"","S1","","html-keyboard-response","29","260587","0.0-1.0-38.0","0","0","46576","","null","","","null","4","","","","","","","","","","","","","","","",""
"","ISI","","html-keyboard-response","30","262591","0.0-1.0-39.0","0","0","46576","","null","","","null","4","NaN","","","","","","","","","","","","","","",""
"","S2","","html-keyboard-response","31","262744","0.0-1.0-40.0","0","0","46576","","null","","","null","4","","NaN","","","","","","","","","","","","","",""
"","response","","html-keyboard-response","32","263226","0.0-1.0-41.0-0.0","0","0","46576","","479","","","68","4","","","1","4","training","adjacent","AB","1","2","O.jpg","Q.jpg","1","1","1","",""
"","feedback","","html-keyboard-response","33","264229","0.0-1.0-42.0-0.0","0","0","46576","","null","","","null","4","","","","","","","","","","","","","","","",""
"","ITI","","html-keyboard-response","34","265232","0.0-1.0-45.0","0","0","46576","","null","","","null","4","","","","","","","","","","","","","","","NaN",""
"","S1","","html-keyboard-response","35","265385","0.0-1.0-47.0","0","0","46576","","null","","","null","5","","","","","","","","","","","","","","","",""
"","ISI","","html-keyboard-response","36","267388","0.0-1.0-48.0","0","0","46576","","null","","","null","5","NaN","","","","","","","","","","","","","","",""
"","S2","","html-keyboard-response","37","267541","0.0-1.0-49.0","0","0","46576","","null","","","null","5","","NaN","","","","","","","","","","","","","",""
"","response","","html-keyboard-response","38","268097","0.0-1.0-50.0-0.0","0","0","46576","","555","","","75","5","","","1","5","training","adjacent","EF","5","6","M.jpg","R.jpg","0","1","0","",""
"","feedback","","html-keyboard-response","39","269101","0.0-1.0-51.0-0.0","0","0","46576","","null","","","null","5","","","","","","","","","","","","","","","",""
"","time_out","","html-keyboard-response","40","271102","0.0-1.0-53.0-0.0","0","0","46576","","null","","","null","5","","","","","","","","","","","","","","","",""
"","ITI","","html-keyboard-response","41","272105","0.0-1.0-54.0","0","0","46576","","null","","","null","5","","","","","","","","","","","","","","","NaN",""
"","S1","","html-keyboard-response","42","272259","0.0-1.0-56.0","0","0","46576","","null","","","null","6","","","","","","","","","","","","","","","",""
"","ISI","","html-keyboard-response","43","274262","0.0-1.0-57.0","0","0","46576","","null","","","null","6","NaN","","","","","","","","","","","","","","",""
"","S2","","html-keyboard-response","44","274416","0.0-1.0-58.0","0","0","46576","","null","","","null","6","","NaN","","","","","","","","","","","","","",""
"","response","","html-keyboard-response","45","274570","0.0-1.0-59.0-0.0","0","0","46576","","152","","","68","6","","","1","6","training","adjacent","FE","6","5","R.jpg","M.jpg","1","0","0","",""
"","feedback","","html-keyboard-response","46","275573","0.0-1.0-60.0-0.0","0","0","46576","","null","","","null","6","","","","","","","","","","","","","","","",""
"","time_out","","html-keyboard-response","47","277576","0.0-1.0-62.0-0.0","0","0","46576","","null","","","null","6","","","","","","","","","","","","","","","",""
"","ITI","","html-keyboard-response","48","278578","0.0-1.0-63.0","0","0","46576","","null","","","null","6","","","","","","","","","","","","","","","NaN",""
"","S1","","html-keyboard-response","49","278731","0.0-1.0-65.0","0","0","46576","","null","","","null","7","","","","","","","","","","","","","","","",""
"","ISI","","html-keyboard-response","50","280733","0.0-1.0-66.0","0","0","46576","","null","","","null","7","NaN","","","","","","","","","","","","","","",""
"","S2","","html-keyboard-response","51","280887","0.0-1.0-67.0","0","0","46576","","null","","","null","7","","NaN","","","","","","","","","","","","","",""
"","response","","html-keyboard-response","52","281554","0.0-1.0-68.0-0.0","0","0","46576","","664","","","75","7","","","1","7","training","adjacent","BA","2","1","Q.jpg","O.jpg","0","0","1","",""
"","feedback","","html-keyboard-response","53","282558","0.0-1.0-69.0-0.0","0","0","46576","","null","","","null","7","","","","","","","","","","","","","","","",""
"","ITI","","html-keyboard-response","54","283561","0.0-1.0-72.0","0","0","46576","","null","","","null","7","","","","","","","","","","","","","","","NaN",""
"","S1","","html-keyboard-response","55","283714","0.0-1.0-74.0","0","0","46576","","null","","","null","8","","","","","","","","","","","","","","","",""
"","ISI","","html-keyboard-response","56","285716","0.0-1.0-75.0","0","0","46576","","null","","","null","8","NaN","","","","","","","","","","","","","","",""
"","S2","","html-keyboard-response","57","285870","0.0-1.0-76.0","0","0","46576","","null","","","null","8","","NaN","","","","","","","","","","","","","",""
"","response","","html-keyboard-response","58","286418","0.0-1.0-77.0-0.0","0","0","46576","","545","","","68","8","","","1","8","training","adjacent","CD","3","4","L.jpg","N.jpg","1","1","1","",""
"","feedback","","html-keyboard-response","59","287421","0.0-1.0-78.0-0.0","0","0","46576","","null","","","null","8","","","","","","","","","","","","","","","",""
"","ITI","","html-keyboard-response","60","288424","0.0-1.0-81.0","0","0","46576","","null","","","null","8","","","","","","","","","","","","","","","NaN",""
"","S1","","html-keyboard-response","61","288577","0.0-1.0-83.0","0","0","46576","","null","","","null","9","","","","","","","","","","","","","","","",""
"","ISI","","html-keyboard-response","62","290580","0.0-1.0-84.0","0","0","46576","","null","","","null","9","NaN","","","","","","","","","","","","","","",""
"","S2","","html-keyboard-response","63","290733","0.0-1.0-85.0","0","0","46576","","null","","","null","9","","NaN","","","","","","","","","","","","","",""
"","response","","html-keyboard-response","64","291321","0.0-1.0-86.0-0.0","0","0","46576","","586","","","75","9","","","1","9","training","adjacent","GF","7","6","P.jpg","R.jpg","0","0","1","",""
"","feedback","","html-keyboard-response","65","292324","0.0-1.0-87.0-0.0","0","0","46576","","null","","","null","9","","","","","","","","","","","","","","","",""
"","ITI","","html-keyboard-response","66","293327","0.0-1.0-90.0","0","0","46576","","null","","","null","9","","","","","","","","","","","","","","","NaN",""
"","S1","","html-keyboard-response","67","293480","0.0-1.0-92.0","0","0","46576","","null","","","null","10","","","","","","","","","","","","","","","",""
"","ISI","","html-keyboard-response","68","295482","0.0-1.0-93.0","0","0","46576","","null","","","null","10","NaN","","","","","","","","","","","","","","",""
"","S2","","html-keyboard-response","69","295636","0.0-1.0-94.0","0","0","46576","","null","","","null","10","","NaN","","","","","","","","","","","","","",""
"","response","","html-keyboard-response","70","296050","0.0-1.0-95.0-0.0","0","0","46576","","411","","","68","10","","","1","10","training","adjacent","AB","1","2","O.jpg","Q.jpg","1","1","1","",""
"","feedback","","html-keyboard-response","71","297053","0.0-1.0-96.0-0.0","0","0","46576","","null","","","null","10","","","","","","","","","","","","","","","",""
"","ITI","","html-keyboard-response","72","298056","0.0-1.0-99.0","0","0","46576","","null","","","null","10","","","","","","","","","","","","","","","NaN",""
"","S1","","html-keyboard-response","73","298222","0.0-1.0-101.0","0","0","46576","","null","","","null","11","","","","","","","","","","","","","","","",""
"","ISI","","html-keyboard-response","74","300224","0.0-1.0-102.0","0","0","46576","","null","","","null","11","NaN","","","","","","","","","","","","","","",""
"","S2","","html-keyboard-response","75","300378","0.0-1.0-103.0","0","0","46576","","null","","","null","11","","NaN","","","","","","","","","","","","","",""
"","response","","html-keyboard-response","76","300626","0.0-1.0-104.0-0.0","0","0","46576","","246","","","75","11","","","1","11","training","adjacent","BA","2","1","Q.jpg","O.jpg","0","0","1","",""
"","feedback","","html-keyboard-response","77","301629","0.0-1.0-105.0-0.0","0","0","46576","","null","","","null","11","","","","","","","","","","","","","","","",""
"","ITI","","html-keyboard-response","78","302647","0.0-1.0-108.0","0","0","46576","","null","","","null","11","","","","","","","","","","","","","","","NaN",""
"","S1","","html-keyboard-response","79","302802","0.0-1.0-110.0","0","0","46576","","null","","","null","12","","","","","","","","","","","","","","","",""
"","ISI","","html-keyboard-response","80","304805","0.0-1.0-111.0","0","0","46576","","1654","","","68","12","d","","","","","","","","","","","","","","",""
"","S2","","html-keyboard-response","81","304960","0.0-1.0-112.0","0","0","46576","","null","","","null","12","","NaN","","","","","","","","","","","","","",""
"","response","","html-keyboard-response","82","305065","0.0-1.0-113.0-0.0","0","0","46576","","102","","","68","12","","","1","12","training","adjacent","BC","2","3","Q.jpg","L.jpg","1","1","1","",""
"","feedback","","html-keyboard-response","83","306069","0.0-1.0-114.0-0.0","0","0","46576","","null","","","null","12","","","","","","","","","","","","","","","",""
"","ITI","","html-keyboard-response","84","307071","0.0-1.0-117.0","0","0","46576","","null","","","null","12","","","","","","","","","","","","","","","NaN",""
"","S1","","html-keyboard-response","85","307224","0.0-1.0-119.0","0","0","46576","","null","","","null","13","","","","","","","","","","","","","","","",""
"","ISI","","html-keyboard-response","86","309227","0.0-1.0-120.0","0","0","46576","","null","","","null","13","NaN","","","","","","","","","","","","","","",""
"","S2","","html-keyboard-response","87","309381","0.0-1.0-121.0","0","0","46576","","null","","","null","13","","NaN","","","","","","","","","","","","","",""
"","response","","html-keyboard-response","88","309489","0.0-1.0-122.0-0.0","0","0","46576","","107","","","75","13","","","1","13","training","adjacent","FG","6","7","R.jpg","P.jpg","0","1","0","",""
"","feedback","","html-keyboard-response","89","310493","0.0-1.0-123.0-0.0","0","0","46576","","null","","","null","13","","","","","","","","","","","","","","","",""
"","time_out","","html-keyboard-response","90","312495","0.0-1.0-125.0-0.0","0","0","46576","","null","","","null","13","","","","","","","","","","","","","","","",""
"","ITI","","html-keyboard-response","91","313498","0.0-1.0-126.0","0","0","46576","","null","","","null","13","","","","","","","","","","","","","","","NaN",""
"","S1","","html-keyboard-response","92","313651","0.0-1.0-128.0","0","0","46576","","null","","","null","14","","","","","","","","","","","","","","","",""
"","ISI","","html-keyboard-response","93","315653","0.0-1.0-129.0","0","0","46576","","null","","","null","14","NaN","","","","","","","","","","","","","","",""
"","S2","","html-keyboard-response","94","315806","0.0-1.0-130.0","0","0","46576","","null","","","null","14","","NaN","","","","","","","","","","","","","",""
"","response","","html-keyboard-response","95","315930","0.0-1.0-131.0-0.0","0","0","46576","","122","","","68","14","","","1","14","training","adjacent","EF","5","6","M.jpg","R.jpg","1","1","1","",""
"","feedback","","html-keyboard-response","96","316934","0.0-1.0-132.0-0.0","0","0","46576","","null","","","null","14","","","","","","","","","","","","","","","",""
"","ITI","","html-keyboard-response","97","317938","0.0-1.0-135.0","0","0","46576","","null","","","null","14","","","","","","","","","","","","","","","NaN",""
"","S1","","html-keyboard-response","98","318091","0.0-1.0-137.0","0","0","46576","","null","","","null","15","","","","","","","","","","","","","","","",""
"","ISI","","html-keyboard-response","99","320094","0.0-1.0-138.0","0","0","46576","","1948","","","75","15","k","","","","","","","","","","","","","","",""
"","S2","","html-keyboard-response","100","320247","0.0-1.0-139.0","0","0","46576","","null","","","null","15","","NaN","","","","","","","","","","","","","",""
"","response","","html-keyboard-response","101","320441","0.0-1.0-140.0-0.0","0","0","46576","","192","","","75","15","","","1","15","training","adjacent","ED","5","4","M.jpg","N.jpg","0","0","1","",""
"","feedback","","html-keyboard-response","102","321444","0.0-1.0-141.0-0.0","0","0","46576","","null","","","null","15","","","","","","","","","","","","","","","",""
"","ITI","","html-keyboard-response","103","322447","0.0-1.0-144.0","0","0","46576","","null","","","null","15","","","","","","","","","","","","","","","NaN",""
"","S1","","html-keyboard-response","104","322605","0.0-1.0-146.0","0","0","46576","","null","","","null","16","","","","","","","","","","","","","","","",""
"","ISI","","html-keyboard-response","105","324607","0.0-1.0-147.0","0","0","46576","","null","","","null","16","NaN","","","","","","","","","","","","","","",""
"","S2","","html-keyboard-response","106","324760","0.0-1.0-148.0","0","0","46576","","null","","","null","16","","NaN","","","","","","","","","","","","","",""
"","response","","html-keyboard-response","107","324858","0.0-1.0-149.0-0.0","0","0","46576","","95","","","68","16","","","1","16","training","adjacent","ED","5","4","M.jpg","N.jpg","1","0","0","",""
"","feedback","","html-keyboard-response","108","325861","0.0-1.0-150.0-0.0","0","0","46576","","null","","","null","16","","","","","","","","","","","","","","","",""
"","time_out","","html-keyboard-response","109","327864","0.0-1.0-152.0-0.0","0","0","46576","","null","","","null","16","","","","","","","","","","","","","","","",""
"","ITI","","html-keyboard-response","110","328867","0.0-1.0-153.0","0","0","46576","","null","","","null","16","","","","","","","","","","","","","","","NaN",""
"","S1","","html-keyboard-response","111","329021","0.0-1.0-155.0","0","0","46576","","null","","","null","17","","","","","","","","","","","","","","","",""
"","ISI","","html-keyboard-response","112","331024","0.0-1.0-156.0","0","0","46576","","null","","","null","17","NaN","","","","","","","","","","","","","","",""
"","S2","","html-keyboard-response","113","331177","0.0-1.0-157.0","0","0","46576","","null","","","null","17","","NaN","","","","","","","","","","","","","",""
"","response","","html-keyboard-response","114","331473","0.0-1.0-158.0-0.0","0","0","46576","","294","","","75","17","","","1","17","training","adjacent","FG","6","7","R.jpg","P.jpg","0","1","0","",""
"","feedback","","html-keyboard-response","115","332489","0.0-1.0-159.0-0.0","0","0","46576","","null","","","null","17","","","","","","","","","","","","","","","",""
"","time_out","","html-keyboard-response","116","334492","0.0-1.0-161.0-0.0","0","0","46576","","null","","","null","17","","","","","","","","","","","","","","","",""
"","ITI","","html-keyboard-response","117","335495","0.0-1.0-162.0","0","0","46576","","null","","","null","17","","","","","","","","","","","","","","","NaN",""
"","S1","","html-keyboard-response","118","335648","0.0-1.0-164.0","0","0","46576","","null","","","null","18","","","","","","","","","","","","","","","",""
"","ISI","","html-keyboard-response","119","337651","0.0-1.0-165.0","0","0","46576","","null","","","null","18","NaN","","","","","","","","","","","","","","",""
"","S2","","html-keyboard-response","120","337803","0.0-1.0-166.0","0","0","46576","","null","","","null","18","","NaN","","","","","","","","","","","","","",""
"","response","","html-keyboard-response","121","337848","0.0-1.0-167.0-0.0","0","0","46576","","43","","","68","18","","","1","18","training","adjacent","CD","3","4","L.jpg","N.jpg","1","1","1","",""
"","feedback","","html-keyboard-response","122","338852","0.0-1.0-168.0-0.0","0","0","46576","","null","","","null","18","","","","","","","","","","","","","","","",""
"","ITI","","html-keyboard-response","123","339854","0.0-1.0-171.0","0","0","46576","","null","","","null","18","","","","","","","","","","","","","","","NaN",""
"","S1","","html-keyboard-response","124","340007","0.0-1.0-173.0","0","0","46576","","null","","","null","19","","","","","","","","","","","","","","","",""
"","ISI","","html-keyboard-response","125","342010","0.0-1.0-174.0","0","0","46576","","null","","","null","19","NaN","","","","","","","","","","","","","","",""
"","S2","","html-keyboard-response","126","342165","0.0-1.0-175.0","0","0","46576","","null","","","null","19","","NaN","","","","","","","","","","","","","",""
"","response","","html-keyboard-response","127","342610","0.0-1.0-176.0-0.0","0","0","46576","","443","","","75","19","","","1","19","training","adjacent","ED","5","4","M.jpg","N.jpg","0","0","1","",""
"","feedback","","html-keyboard-response","128","343613","0.0-1.0-177.0-0.0","0","0","46576","","null","","","null","19","","","","","","","","","","","","","","","",""
"","ITI","","html-keyboard-response","129","344617","0.0-1.0-180.0","0","0","46576","","null","","","null","19","","","","","","","","","","","","","","","NaN",""
"","S1","","html-keyboard-response","130","344771","0.0-1.0-182.0","0","0","46576","","null","","","null","20","","","","","","","","","","","","","","","",""
"","ISI","","html-keyboard-response","131","346774","0.0-1.0-183.0","0","0","46576","","null","","","null","20","NaN","","","","","","","","","","","","","","",""
"","S2","","html-keyboard-response","132","346928","0.0-1.0-184.0","0","0","46576","","null","","","null","20","","NaN","","","","","","","","","","","","","",""
"","response","","html-keyboard-response","133","347426","0.0-1.0-185.0-0.0","0","0","46576","","495","","","68","20","","","1","20","training","adjacent","DE","4","5","N.jpg","M.jpg","1","1","1","",""
"","feedback","","html-keyboard-response","134","348430","0.0-1.0-186.0-0.0","0","0","46576","","null","","","null","20","","","","","","","","","","","","","","","",""
"","ITI","","html-keyboard-response","135","349440","0.0-1.0-189.0","0","0","46576","","null","","","null","20","","","","","","","","","","","","","","","NaN",""
"","S1","","html-keyboard-response","136","349593","0.0-1.0-191.0","0","0","46576","","null","","","null","21","","","","","","","","","","","","","","","",""
"","ISI","","html-keyboard-response","137","351597","0.0-1.0-192.0","0","0","46576","","null","","","null","21","NaN","","","","","","","","","","","","","","",""
"","S2","","html-keyboard-response","138","351752","0.0-1.0-193.0","0","0","46576","","null","","","null","21","","NaN","","","","","","","","","","","","","",""
"","response","","html-keyboard-response","139","352746","0.0-1.0-194.0-0.0","0","0","46576","","993","","","75","21","","","1","21","training","adjacent","DC","4","3","N.jpg","L.jpg","0","0","1","",""
"","feedback","","html-keyboard-response","140","353750","0.0-1.0-195.0-0.0","0","0","46576","","null","","","null","21","","","","","","","","","","","","","","","",""
"","ITI","","html-keyboard-response","141","354753","0.0-1.0-198.0","0","0","46576","","null","","","null","21","","","","","","","","","","","","","","","NaN",""
"","S1","","html-keyboard-response","142","354905","0.0-1.0-200.0","0","0","46576","","null","","","null","22","","","","","","","","","","","","","","","",""
"","ISI","","html-keyboard-response","143","356908","0.0-1.0-201.0","0","0","46576","","null","","","null","22","NaN","","","","","","","","","","","","","","",""
"","S2","","html-keyboard-response","144","357062","0.0-1.0-202.0","0","0","46576","","null","","","null","22","","NaN","","","","","","","","","","","","","",""
"","response","","html-keyboard-response","145","357306","0.0-1.0-203.0-0.0","0","0","46576","","242","","","68","22","","","1","22","training","adjacent","FG","6","7","R.jpg","P.jpg","1","1","1","",""
"","feedback","","html-keyboard-response","146","358309","0.0-1.0-204.0-0.0","0","0","46576","","null","","","null","22","","","","","","","","","","","","","","","",""
"","ITI","","html-keyboard-response","147","359312","0.0-1.0-207.0","0","0","46576","","null","","","null","22","","","","","","","","","","","","","","","NaN",""
"","S1","","html-keyboard-response","148","359465","0.0-1.0-209.0","0","0","46576","","null","","","null","23","","","","","","","","","","","","","","","",""
"","ISI","","html-keyboard-response","149","361468","0.0-1.0-210.0","0","0","46576","","null","","","null","23","NaN","","","","","","","","","","","","","","",""
"","S2","","html-keyboard-response","150","361577","0.0-1.0-211.0","0","0","46576","","106","","","75","23","","k","1","23","training","adjacent","BA","2","1","Q.jpg","O.jpg","0","0","1","",""
"","feedback","","html-keyboard-response","151","362580","0.0-1.0-213.0-0.0","0","0","46576","","null","","","null","23","","","","","","","","","","","","","","","",""
"","ITI","","html-keyboard-response","152","363583","0.0-1.0-216.0","0","0","46576","","null","","","null","23","","","","","","","","","","","","","","","NaN",""
"","S1","","html-keyboard-response","153","363736","0.0-1.0-218.0","0","0","46576","","null","","","null","24","","","","","","","","","","","","","","","",""
"","ISI","","html-keyboard-response","154","365739","0.0-1.0-219.0","0","0","46576","","null","","","null","24","NaN","","","","","","","","","","","","","","",""
"","S2","","html-keyboard-response","155","365893","0.0-1.0-220.0","0","0","46576","","null","","","null","24","","NaN","","","","","","","","","","","","","",""
"","response","","html-keyboard-response","156","366353","0.0-1.0-221.0-0.0","0","0","46576","","458","","","68","24","","","1","24","training","adjacent","CB","3","2","L.jpg","Q.jpg","1","0","0","",""
"","feedback","","html-keyboard-response","157","367357","0.0-1.0-222.0-0.0","0","0","46576","","null","","","null","24","","","","","","","","","","","","","","","",""
"","time_out","","html-keyboard-response","158","369361","0.0-1.0-224.0-0.0","0","0","46576","","null","","","null","24","","","","","","","","","","","","","","","",""
"","ITI","","html-keyboard-response","159","370364","0.0-1.0-225.0","0","0","46576","","null","","","null","24","","","","","","","","","","","","","","","NaN",""
"","S1","","html-keyboard-response","160","370517","0.0-1.0-227.0","0","0","46576","","null","","","null","25","","","","","","","","","","","","","","","",""
"","ISI","","html-keyboard-response","161","372520","0.0-1.0-228.0","0","0","46576","","null","","","null","25","NaN","","","","","","","","","","","","","","",""
"","S2","","html-keyboard-response","162","372674","0.0-1.0-229.0","0","0","46576","","null","","","null","25","","NaN","","","","","","","","","","","","","",""
"","response","","html-keyboard-response","163","372810","0.0-1.0-230.0-0.0","0","0","46576","","134","","","75","25","","","1","25","training","adjacent","FE","6","5","R.jpg","M.jpg","0","0","1","",""
"","feedback","","html-keyboard-response","164","373813","0.0-1.0-231.0-0.0","0","0","46576","","null","","","null","25","","","","","","","","","","","","","","","",""
"","ITI","","html-keyboard-response","165","374816","0.0-1.0-234.0","0","0","46576","","null","","","null","25","","","","","","","","","","","","","","","NaN",""
"","S1","","html-keyboard-response","166","374970","0.0-1.0-236.0","0","0","46576","","null","","","null","26","","","","","","","","","","","","","","","",""
"","ISI","","html-keyboard-response","167","376973","0.0-1.0-237.0","0","0","46576","","null","","","null","26","NaN","","","","","","","","","","","","","","",""
"","S2","","html-keyboard-response","168","377127","0.0-1.0-238.0","0","0","46576","","null","","","null","26","","NaN","","","","","","","","","","","","","",""
"","response","","html-keyboard-response","169","377225","0.0-1.0-239.0-0.0","0","0","46576","","97","","","68","26","","","1","26","training","adjacent","BC","2","3","Q.jpg","L.jpg","1","1","1","",""
"","feedback","","html-keyboard-response","170","378229","0.0-1.0-240.0-0.0","0","0","46576","","null","","","null","26","","","","","","","","","","","","","","","",""
"","ITI","","html-keyboard-response","171","379232","0.0-1.0-243.0","0","0","46576","","null","","","null","26","","","","","","","","","","","","","","","NaN",""
"","S1","","html-keyboard-response","172","379384","0.0-1.0-245.0","0","0","46576","","null","","","null","27","","","","","","","","","","","","","","","",""
"","ISI","","html-keyboard-response","173","381387","0.0-1.0-246.0","0","0","46576","","null","","","null","27","NaN","","","","","","","","","","","","","","",""
"","S2","","html-keyboard-response","174","381541","0.0-1.0-247.0","0","0","46576","","null","","","null","27","","NaN","","","","","","","","","","","","","",""
"","response","","html-keyboard-response","175","381617","0.0-1.0-248.0-0.0","0","0","46576","","74","","","75","27","","","1","27","training","adjacent","DC","4","3","N.jpg","L.jpg","0","0","1","",""
"","feedback","","html-keyboard-response","176","382620","0.0-1.0-249.0-0.0","0","0","46576","","null","","","null","27","","","","","","","","","","","","","","","",""
"","ITI","","html-keyboard-response","177","383624","0.0-1.0-252.0","0","0","46576","","null","","","null","27","","","","","","","","","","","","","","","NaN",""
"","S1","","html-keyboard-response","178","383777","0.0-1.0-254.0","0","0","46576","","null","","","null","28","","","","","","","","","","","","","","","",""
"","ISI","","html-keyboard-response","179","385779","0.0-1.0-255.0","0","0","46576","","1894","","","75","28","k","","","","","","","","","","","","","","",""
"","S2","","html-keyboard-response","180","385932","0.0-1.0-256.0","0","0","46576","","null","","","null","28","","NaN","","","","","","","","","","","","","",""
"","response","","html-keyboard-response","181","386097","0.0-1.0-257.0-0.0","0","0","46576","","163","","","75","28","","","1","28","training","adjacent","GF","7","6","P.jpg","R.jpg","0","0","1","",""
"","feedback","","html-keyboard-response","182","387101","0.0-1.0-258.0-0.0","0","0","46576","","null","","","null","28","","","","","","","","","","","","","","","",""
"","ITI","","html-keyboard-response","183","388105","0.0-1.0-261.0","0","0","46576","","null","","","null","28","","","","","","","","","","","","","","","NaN",""
"","S1","","html-keyboard-response","184","388258","0.0-1.0-263.0","0","0","46576","","null","","","null","29","","","","","","","","","","","","","","","",""
"","ISI","","html-keyboard-response","185","390261","0.0-1.0-264.0","0","0","46576","","null","","","null","29","NaN","","","","","","","","","","","","","","",""
"","S2","","html-keyboard-response","186","390414","0.0-1.0-265.0","0","0","46576","","null","","","null","29","","NaN","","","","","","","","","","","","","",""
"","response","","html-keyboard-response","187","390545","0.0-1.0-266.0-0.0","0","0","46576","","129","","","68","29","","","1","29","training","adjacent","ED","5","4","M.jpg","N.jpg","1","0","0","",""
"","feedback","","html-keyboard-response","188","391549","0.0-1.0-267.0-0.0","0","0","46576","","null","","","null","29","","","","","","","","","","","","","","","",""
"","time_out","","html-keyboard-response","189","393551","0.0-1.0-269.0-0.0","0","0","46576","","null","","","null","29","","","","","","","","","","","","","","","",""
"","ITI","","html-keyboard-response","190","394555","0.0-1.0-270.0","0","0","46576","","null","","","null","29","","","","","","","","","","","","","","","NaN",""
"","S1","","html-keyboard-response","191","394708","0.0-1.0-272.0","0","0","46576","","null","","","null","30","","","","","","","","","","","","","","","",""
"","ISI","","html-keyboard-response","192","396712","0.0-1.0-273.0","0","0","46576","","282","","","75","30","k","","","","","","","","","","","","","","",""
"","S2","","html-keyboard-response","193","396865","0.0-1.0-274.0","0","0","46576","","null","","","null","30","","NaN","","","","","","","","","","","","","",""
"","response","","html-keyboard-response","194","396977","0.0-1.0-275.0-0.0","0","0","46576","","109","","","75","30","","","1","30","training","adjacent","FG","6","7","R.jpg","P.jpg","0","1","0","",""
"","feedback","","html-keyboard-response","195","397980","0.0-1.0-276.0-0.0","0","0","46576","","null","","","null","30","","","","","","","","","","","","","","","",""
"","time_out","","html-keyboard-response","196","399984","0.0-1.0-278.0-0.0","0","0","46576","","null","","","null","30","","","","","","","","","","","","","","","",""
"","ITI","","html-keyboard-response","197","400987","0.0-1.0-279.0","0","0","46576","","null","","","null","30","","","","","","","","","","","","","","","NaN",""
"","S1","","html-keyboard-response","198","401140","0.0-1.0-281.0","0","0","46576","","null","","","null","31","","","","","","","","","","","","","","","",""
"","ISI","","html-keyboard-response","199","403143","0.0-1.0-282.0","0","0","46576","","1868","","","68","31","d","","","","","","","","","","","","","","",""
"","S2","","html-keyboard-response","200","403297","0.0-1.0-283.0","0","0","46576","","null","","","null","31","","NaN","","","","","","","","","","","","","",""
"","response","","html-keyboard-response","201","403360","0.0-1.0-284.0-0.0","0","0","46576","","62","","","68","31","","","1","31","training","adjacent","FE","6","5","R.jpg","M.jpg","1","0","0","",""
"","feedback","","html-keyboard-response","202","404363","0.0-1.0-285.0-0.0","0","0","46576","","null","","","null","31","","","","","","","","","","","","","","","",""
"","time_out","","html-keyboard-response","203","406365","0.0-1.0-287.0-0.0","0","0","46576","","null","","","null","31","","","","","","","","","","","","","","","",""
"","ITI","","html-keyboard-response","204","407368","0.0-1.0-288.0","0","0","46576","","null","","","null","31","","","","","","","","","","","","","","","NaN",""
"","S1","","html-keyboard-response","205","407522","0.0-1.0-290.0","0","0","46576","","null","","","null","32","","","","","","","","","","","","","","","",""
"","ISI","","html-keyboard-response","206","409524","0.0-1.0-291.0","0","0","46576","","null","","","null","32","NaN","","","","","","","","","","","","","","",""
"","S2","","html-keyboard-response","207","409677","0.0-1.0-292.0","0","0","46576","","null","","","null","32","","NaN","","","","","","","","","","","","","",""
"","response","","html-keyboard-response","208","409737","0.0-1.0-293.0-0.0","0","0","46576","","57","","","75","32","","","1","32","training","adjacent","DC","4","3","N.jpg","L.jpg","0","0","1","",""
"","feedback","","html-keyboard-response","209","410741","0.0-1.0-294.0-0.0","0","0","46576","","null","","","null","32","","","","","","","","","","","","","","","",""
"","ITI","","html-keyboard-response","210","411754","0.0-1.0-297.0","0","0","46576","","null","","","null","32","","","","","","","","","","","","","","","NaN",""
"","S1","","html-keyboard-response","211","411907","0.0-1.0-299.0","0","0","46576","","null","","","null","33","","","","","","","","","","","","","","","",""
"","ISI","","html-keyboard-response","212","413910","0.0-1.0-300.0","0","0","46576","","null","","","null","33","NaN","","","","","","","","","","","","","","",""
"","S2","","html-keyboard-response","213","414064","0.0-1.0-301.0","0","0","46576","","null","","","null","33","","NaN","","","","","","","","","","","","","",""
"","response","","html-keyboard-response","214","414561","0.0-1.0-302.0-0.0","0","0","46576","","495","","","68","33","","","1","33","training","adjacent","BC","2","3","Q.jpg","L.jpg","1","1","1","",""
"","feedback","","html-keyboard-response","215","415565","0.0-1.0-303.0-0.0","0","0","46576","","null","","","null","33","","","","","","","","","","","","","","","",""
"","ITI","","html-keyboard-response","216","416568","0.0-1.0-306.0","0","0","46576","","null","","","null","33","","","","","","","","","","","","","","","NaN",""
"","S1","","html-keyboard-response","217","416721","0.0-1.0-308.0","0","0","46576","","null","","","null","34","","","","","","","","","","","","","","","",""
"","ISI","","html-keyboard-response","218","418724","0.0-1.0-309.0","0","0","46576","","null","","","null","34","NaN","","","","","","","","","","","","","","",""
"","S2","","html-keyboard-response","219","418878","0.0-1.0-310.0","0","0","46576","","null","","","null","34","","NaN","","","","","","","","","","","","","",""
"","response","","html-keyboard-response","220","418977","0.0-1.0-311.0-0.0","0","0","46576","","96","","","75","34","","","1","34","training","adjacent","EF","5","6","M.jpg","R.jpg","0","1","0","",""
"","feedback","","html-keyboard-response","221","419981","0.0-1.0-312.0-0.0","0","0","46576","","null","","","null","34","","","","","","","","","","","","","","","",""
"","time_out","","html-keyboard-response","222","421984","0.0-1.0-314.0-0.0","0","0","46576","","null","","","null","34","","","","","","","","","","","","","","","",""
"","ITI","","html-keyboard-response","223","422987","0.0-1.0-315.0","0","0","46576","","null","","","null","34","","","","","","","","","","","","","","","NaN",""
"","S1","","html-keyboard-response","224","423140","0.0-1.0-317.0","0","0","46576","","null","","","null","35","","","","","","","","","","","","","","","",""
"","ISI","","html-keyboard-response","225","425143","0.0-1.0-318.0","0","0","46576","","1659","","","68","35","d","","","","","","","","","","","","","","",""
"","S2","","html-keyboard-response","226","425177","0.0-1.0-319.0","0","0","46576","","32","","","68","35","","d","1","35","training","adjacent","DC","4","3","N.jpg","L.jpg","1","0","0","",""
"","feedback","","html-keyboard-response","227","426181","0.0-1.0-321.0-0.0","0","0","46576","","null","","","null","35","","","","","","","","","","","","","","","",""
"","time_out","","html-keyboard-response","228","428185","0.0-1.0-323.0-0.0","0","0","46576","","null","","","null","35","","","","","","","","","","","","","","","",""
"","ITI","","html-keyboard-response","229","429188","0.0-1.0-324.0","0","0","46576","","null","","","null","35","","","","","","","","","","","","","","","NaN",""
"","S1","","html-keyboard-response","230","429341","0.0-1.0-326.0","0","0","46576","","null","","","null","36","","","","","","","","","","","","","","","",""
"","ISI","","html-keyboard-response","231","431344","0.0-1.0-327.0","0","0","46576","","66","","","75","36","k","","","","","","","","","","","","","","",""
"","S2","","html-keyboard-response","232","431497","0.0-1.0-328.0","0","0","46576","","null","","","null","36","","NaN","","","","","","","","","","","","","",""
"","response","","html-keyboard-response","233","431552","0.0-1.0-329.0-0.0","0","0","46576","","53","","","75","36","","","1","36","training","adjacent","BA","2","1","Q.jpg","O.jpg","0","0","1","",""
"","feedback","","html-keyboard-response","234","432567","0.0-1.0-330.0-0.0","0","0","46576","","null","","","null","36","","","","","","","","","","","","","","","",""
"","ITI","","html-keyboard-response","235","433570","0.0-1.0-333.0","0","0","46576","","null","","","null","36","","","","","","","","","","","","","","","NaN",""
"","S1","","html-keyboard-response","236","433723","0.0-1.0-335.0","0","0","46576","","null","","","null","37","","","","","","","","","","","","","","","",""
"","ISI","","html-keyboard-response","237","435726","0.0-1.0-336.0","0","0","46576","","null","","","null","37","NaN","","","","","","","","","","","","","","",""
"","S2","","html-keyboard-response","238","435881","0.0-1.0-337.0","0","0","46576","","null","","","null","37","","NaN","","","","","","","","","","","","","",""
"","response","","html-keyboard-response","239","436409","0.0-1.0-338.0-0.0","0","0","46576","","525","","","68","37","","","1","37","training","adjacent","AB","1","2","O.jpg","Q.jpg","1","1","1","",""
"","feedback","","html-keyboard-response","240","437412","0.0-1.0-339.0-0.0","0","0","46576","","null","","","null","37","","","","","","","","","","","","","","","",""
"","ITI","","html-keyboard-response","241","438416","0.0-1.0-342.0","0","0","46576","","null","","","null","37","","","","","","","","","","","","","","","NaN",""
"","S1","","html-keyboard-response","242","438576","0.0-1.0-344.0","0","0","46576","","null","","","null","38","","","","","","","","","","","","","","","",""
"","ISI","","html-keyboard-response","243","440578","0.0-1.0-345.0","0","0","46576","","null","","","null","38","NaN","","","","","","","","","","","","","","",""
"","S2","","html-keyboard-response","244","440731","0.0-1.0-346.0","0","0","46576","","null","","","null","38","","NaN","","","","","","","","","","","","","",""
"","response","","html-keyboard-response","245","441018","0.0-1.0-347.0-0.0","0","0","46576","","284","","","75","38","","","1","38","training","adjacent","EF","5","6","M.jpg","R.jpg","0","1","0","",""
"","feedback","","html-keyboard-response","246","442021","0.0-1.0-348.0-0.0","0","0","46576","","null","","","null","38","","","","","","","","","","","","","","","",""
"","time_out","","html-keyboard-response","247","444024","0.0-1.0-350.0-0.0","0","0","46576","","null","","","null","38","","","","","","","","","","","","","","","",""
"","ITI","","html-keyboard-response","248","445027","0.0-1.0-351.0","0","0","46576","","null","","","null","38","","","","","","","","","","","","","","","NaN",""
"","S1","","html-keyboard-response","249","445180","0.0-1.0-353.0","0","0","46576","","null","","","null","39","","","","","","","","","","","","","","","",""
"","ISI","","html-keyboard-response","250","447183","0.0-1.0-354.0","0","0","46576","","1780","","","68","39","d","","","","","","","","","","","","","","",""
"","S2","","html-keyboard-response","251","447241","0.0-1.0-355.0","0","0","46576","","56","","","68","39","","d","1","39","training","adjacent","CB","3","2","L.jpg","Q.jpg","1","0","0","",""
"","feedback","","html-keyboard-response","252","448244","0.0-1.0-357.0-0.0","0","0","46576","","null","","","null","39","","","","","","","","","","","","","","","",""
"","time_out","","html-keyboard-response","253","450247","0.0-1.0-359.0-0.0","0","0","46576","","null","","","null","39","","","","","","","","","","","","","","","",""
"","ITI","","html-keyboard-response","254","451251","0.0-1.0-360.0","0","0","46576","","null","","","null","39","","","","","","","","","","","","","","","NaN",""
"","S1","","html-keyboard-response","255","451404","0.0-1.0-362.0","0","0","46576","","null","","","null","40","","","","","","","","","","","","","","","",""
"","ISI","","html-keyboard-response","256","453407","0.0-1.0-363.0","0","0","46576","","1683","","","75","40","k","","","","","","","","","","","","","","",""
"","S2","","html-keyboard-response","257","453529","0.0-1.0-364.0","0","0","46576","","119","","","75","40","","k","1","40","training","adjacent","CB","3","2","L.jpg","Q.jpg","0","0","1","",""
"","feedback","","html-keyboard-response","258","454532","0.0-1.0-366.0-0.0","0","0","46576","","null","","","null","40","","","","","","","","","","","","","","","",""
"","ITI","","html-keyboard-response","259","455536","0.0-1.0-369.0","0","0","46576","","null","","","null","40","","","","","","","","","","","","","","","NaN",""
"","S1","","html-keyboard-response","260","455694","0.0-1.0-371.0","0","0","46576","","null","","","null","41","","","","","","","","","","","","","","","",""
"","ISI","","html-keyboard-response","261","457697","0.0-1.0-372.0","0","0","46576","","1937","","","75","41","k","","","","","","","","","","","","","","",""
"","S2","","html-keyboard-response","262","457850","0.0-1.0-373.0","0","0","46576","","null","","","null","41","","NaN","","","","","","","","","","","","","",""
"","response","","html-keyboard-response","263","457857","0.0-1.0-374.0-0.0","0","0","46576","","5","","","75","41","","","1","41","training","adjacent","AB","1","2","O.jpg","Q.jpg","0","1","0","",""
"","feedback","","html-keyboard-response","264","458861","0.0-1.0-375.0-0.0","0","0","46576","","null","","","null","41","","","","","","","","","","","","","","","",""
"","time_out","","html-keyboard-response","265","460864","0.0-1.0-377.0-0.0","0","0","46576","","null","","","null","41","","","","","","","","","","","","","","","",""
"","ITI","","html-keyboard-response","266","461868","0.0-1.0-378.0","0","0","46576","","null","","","null","41","","","","","","","","","","","","","","","NaN",""
"","S1","","html-keyboard-response","267","462020","0.0-1.0-380.0","0","0","46576","","null","","","null","42","","","","","","","","","","","","","","","",""
"","ISI","","html-keyboard-response","268","464023","0.0-1.0-381.0","0","0","46576","","99","","","68","42","d","","","","","","","","","","","","","","",""
"","S2","","html-keyboard-response","269","464176","0.0-1.0-382.0","0","0","46576","","null","","","null","42","","NaN","","","","","","","","","","","","","",""
"","response","","html-keyboard-response","270","464201","0.0-1.0-383.0-0.0","0","0","46576","","22","","","68","42","","","1","42","training","adjacent","FE","6","5","R.jpg","M.jpg","1","0","0","",""
"","feedback","","html-keyboard-response","271","465205","0.0-1.0-384.0-0.0","0","0","46576","","null","","","null","42","","","","","","","","","","","","","","","",""
"","time_out","","html-keyboard-response","272","467209","0.0-1.0-386.0-0.0","0","0","46576","","null","","","null","42","","","","","","","","","","","","","","","",""
"","ITI","","html-keyboard-response","273","468211","0.0-1.0-387.0","0","0","46576","","null","","","null","42","","","","","","","","","","","","","","","NaN",""
"","S1","","html-keyboard-response","274","468365","0.0-1.0-389.0","0","0","46576","","null","","","null","43","","","","","","","","","","","","","","","",""
"","ISI","","html-keyboard-response","275","470368","0.0-1.0-390.0","0","0","46576","","null","","","null","43","NaN","","","","","","","","","","","","","","",""
"","S2","","html-keyboard-response","276","470521","0.0-1.0-391.0","0","0","46576","","null","","","null","43","","NaN","","","","","","","","","","","","","",""
"","response","","html-keyboard-response","277","470977","0.0-1.0-392.0-0.0","0","0","46576","","454","","","75","43","","","1","43","training","adjacent","BC","2","3","Q.jpg","L.jpg","0","1","0","",""
"","feedback","","html-keyboard-response","278","471981","0.0-1.0-393.0-0.0","0","0","46576","","null","","","null","43","","","","","","","","","","","","","","","",""
"","time_out","","html-keyboard-response","279","473983","0.0-1.0-395.0-0.0","0","0","46576","","null","","","null","43","","","","","","","","","","","","","","","",""
"","ITI","","html-keyboard-response","280","474986","0.0-1.0-396.0","0","0","46576","","null","","","null","43","","","","","","","","","","","","","","","NaN",""
"","S1","","html-keyboard-response","281","475141","0.0-1.0-398.0","0","0","46576","","null","","","null","44","","","","","","","","","","","","","","","",""
"","ISI","","html-keyboard-response","282","477145","0.0-1.0-399.0","0","0","46576","","1946","","","75","44","k","","","","","","","","","","","","","","",""
"","S2","","html-keyboard-response","283","477298","0.0-1.0-400.0","0","0","46576","","null","","","null","44","","NaN","","","","","","","","","","","","","",""
"","response","","html-keyboard-response","284","477337","0.0-1.0-401.0-0.0","0","0","46576","","37","","","75","44","","","1","44","training","adjacent","CD","3","4","L.jpg","N.jpg","0","1","0","",""
"","feedback","","html-keyboard-response","285","478340","0.0-1.0-402.0-0.0","0","0","46576","","null","","","null","44","","","","","","","","","","","","","","","",""
"","time_out","","html-keyboard-response","286","480343","0.0-1.0-404.0-0.0","0","0","46576","","null","","","null","44","","","","","","","","","","","","","","","",""
"","ITI","","html-keyboard-response","287","481347","0.0-1.0-405.0","0","0","46576","","null","","","null","44","","","","","","","","","","","","","","","NaN",""
"","S1","","html-keyboard-response","288","481500","0.0-1.0-407.0","0","0","46576","","null","","","null","45","","","","","","","","","","","","","","","",""
"","ISI","","html-keyboard-response","289","483503","0.0-1.0-408.0","0","0","46576","","null","","","null","45","NaN","","","","","","","","","","","","","","",""
"","S2","","html-keyboard-response","290","483656","0.0-1.0-409.0","0","0","46576","","null","","","null","45","","NaN","","","","","","","","","","","","","",""
"","response","","html-keyboard-response","291","484097","0.0-1.0-410.0-0.0","0","0","46576","","439","","","75","45","","","1","45","training","adjacent","DE","4","5","N.jpg","M.jpg","0","1","0","",""
"","feedback","","html-keyboard-response","292","485101","0.0-1.0-411.0-0.0","0","0","46576","","null","","","null","45","","","","","","","","","","","","","","","",""
"","time_out","","html-keyboard-response","293","487104","0.0-1.0-413.0-0.0","0","0","46576","","null","","","null","45","","","","","","","","","","","","","","","",""
"","ITI","","html-keyboard-response","294","488107","0.0-1.0-414.0","0","0","46576","","null","","","null","45","","","","","","","","","","","","","","","NaN",""
"","S1","","html-keyboard-response","295","488261","0.0-1.0-416.0","0","0","46576","","null","","","null","46","","","","","","","","","","","","","","","",""
"","ISI","","html-keyboard-response","296","490263","0.0-1.0-417.0","0","0","46576","","null","","","null","46","NaN","","","","","","","","","","","","","","",""
"","S2","","html-keyboard-response","297","490417","0.0-1.0-418.0","0","0","46576","","null","","","null","46","","NaN","","","","","","","","","","","","","",""
"","response","","html-keyboard-response","298","491145","0.0-1.0-419.0-0.0","0","0","46576","","726","","","75","46","","","1","46","training","adjacent","DE","4","5","N.jpg","M.jpg","0","1","0","",""
"","feedback","","html-keyboard-response","299","492149","0.0-1.0-420.0-0.0","0","0","46576","","null","","","null","46","","","","","","","","","","","","","","","",""
"","time_out","","html-keyboard-response","300","494153","0.0-1.0-422.0-0.0","0","0","46576","","null","","","null","46","","","","","","","","","","","","","","","",""
"","ITI","","html-keyboard-response","301","495155","0.0-1.0-423.0","0","0","46576","","null","","","null","46","","","","","","","","","","","","","","","NaN",""
"","S1","","html-keyboard-response","302","495311","0.0-1.0-425.0","0","0","46576","","null","","","null","47","","","","","","","","","","","","","","","",""
"","ISI","","html-keyboard-response","303","497313","0.0-1.0-426.0","0","0","46576","","null","","","null","47","NaN","","","","","","","","","","","","","","",""
"","S2","","html-keyboard-response","304","497466","0.0-1.0-427.0","0","0","46576","","null","","","null","47","","NaN","","","","","","","","","","","","","",""
"","response","","html-keyboard-response","305","497929","0.0-1.0-428.0-0.0","0","0","46576","","461","","","68","47","","","1","47","training","adjacent","CD","3","4","L.jpg","N.jpg","1","1","1","",""
"","feedback","","html-keyboard-response","306","498933","0.0-1.0-429.0-0.0","0","0","46576","","null","","","null","47","","","","","","","","","","","","","","","",""
"","ITI","","html-keyboard-response","307","499951","0.0-1.0-432.0","0","0","46576","","null","","","null","47","","","","","","","","","","","","","","","NaN",""
"","block_over","","html-keyboard-response","308","939632","0.0-1.0-433.0-0.0","0","0","46576","","439679","","","32","47","","","","","","","","","","","","","","","",""
"","S1","","html-keyboard-response","309","939785","0.0-1.0-434.0","0","0","46576","","null","","","null","48","","","","","","","","","","","","","","","",""
"","ISI","","html-keyboard-response","310","941787","0.0-1.0-435.0","0","0","46576","","null","","","null","48","NaN","","","","","","","","","","","","","","",""
"","S2","","html-keyboard-response","311","941941","0.0-1.0-436.0","0","0","46576","","null","","","null","48","","NaN","","","","","","","","","","","","","",""
"","response","","html-keyboard-response","312","942721","0.0-1.0-437.0-0.0","0","0","46576","","778","","","68","48","","","2","48","training","adjacent","EF","5","6","M.jpg","R.jpg","1","1","1","",""
"","feedback","","html-keyboard-response","313","943724","0.0-1.0-438.0-0.0","0","0","46576","","null","","","null","48","","","","","","","","","","","","","","","",""
"","ITI","","html-keyboard-response","314","944727","0.0-1.0-441.0","0","0","46576","","null","","","null","48","","","","","","","","","","","","","","","NaN",""
"","S1","","html-keyboard-response","315","944880","0.0-1.0-443.0","0","0","46576","","null","","","null","49","","","","","","","","","","","","","","","",""
"","ISI","","html-keyboard-response","316","946882","0.0-1.0-444.0","0","0","46576","","null","","","null","49","NaN","","","","","","","","","","","","","","",""
"","S2","","html-keyboard-response","317","947036","0.0-1.0-445.0","0","0","46576","","null","","","null","49","","NaN","","","","","","","","","","","","","",""
"","response","","html-keyboard-response","318","947681","0.0-1.0-446.0-0.0","0","0","46576","","643","","","68","49","","","2","49","training","adjacent","FE","6","5","R.jpg","M.jpg","1","0","0","",""
"","feedback","","html-keyboard-response","319","948685","0.0-1.0-447.0-0.0","0","0","46576","","null","","","null","49","","","","","","","","","","","","","","","",""
"","time_out","","html-keyboard-response","320","950688","0.0-1.0-449.0-0.0","0","0","46576","","null","","","null","49","","","","","","","","","","","","","","","",""
"","ITI","","html-keyboard-response","321","951692","0.0-1.0-450.0","0","0","46576","","null","","","null","49","","","","","","","","","","","","","","","NaN",""
"","S1","","html-keyboard-response","322","951844","0.0-1.0-452.0","0","0","46576","","null","","","null","50","","","","","","","","","","","","","","","",""
"","ISI","","html-keyboard-response","323","953847","0.0-1.0-453.0","0","0","46576","","483","","","75","50","k","","","","","","","","","","","","","","",""
"","S2","","html-keyboard-response","324","954001","0.0-1.0-454.0","0","0","46576","","null","","","null","50","","NaN","","","","","","","","","","","","","",""
"","response","","html-keyboard-response","325","954258","0.0-1.0-455.0-0.0","0","0","46576","","255","","","75","50","","","2","50","training","adjacent","DE","4","5","N.jpg","M.jpg","0","1","0","",""
"","feedback","","html-keyboard-response","326","955261","0.0-1.0-456.0-0.0","0","0","46576","","null","","","null","50","","","","","","","","","","","","","","","",""
"","time_out","","html-keyboard-response","327","957264","0.0-1.0-458.0-0.0","0","0","46576","","null","","","null","50","","","","","","","","","","","","","","","",""
"","ITI","","html-keyboard-response","328","958269","0.0-1.0-459.0","0","0","46576","","null","","","null","50","","","","","","","","","","","","","","","NaN",""
"","S1","","html-keyboard-response","329","958423","0.0-1.0-461.0","0","0","46576","","null","","","null","51","","","","","","","","","","","","","","","",""
"","ISI","","html-keyboard-response","330","960425","0.0-1.0-462.0","0","0","46576","","null","","","null","51","NaN","","","","","","","","","","","","","","",""
"","S2","","html-keyboard-response","331","960579","0.0-1.0-463.0","0","0","46576","","null","","","null","51","","NaN","","","","","","","","","","","","","",""
"","response","","html-keyboard-response","332","960681","0.0-1.0-464.0-0.0","0","0","46576","","101","","","68","51","","","2","51","training","adjacent","FG","6","7","R.jpg","P.jpg","1","1","1","",""
"","feedback","","html-keyboard-response","333","961685","0.0-1.0-465.0-0.0","0","0","46576","","null","","","null","51","","","","","","","","","","","","","","","",""
"","ITI","","html-keyboard-response","334","962689","0.0-1.0-468.0","0","0","46576","","null","","","null","51","","","","","","","","","","","","","","","NaN",""
"","S1","","html-keyboard-response","335","962841","0.0-1.0-470.0","0","0","46576","","null","","","null","52","","","","","","","","","","","","","","","",""
"","ISI","","html-keyboard-response","336","964845","0.0-1.0-471.0","0","0","46576","","null","","","null","52","NaN","","","","","","","","","","","","","","",""
"","S2","","html-keyboard-response","337","964999","0.0-1.0-472.0","0","0","46576","","null","","","null","52","","NaN","","","","","","","","","","","","","",""
"","response","","html-keyboard-response","338","965417","0.0-1.0-473.0-0.0","0","0","46576","","416","","","75","52","","","2","52","training","adjacent","ED","5","4","M.jpg","N.jpg","0","0","1","",""
"","feedback","","html-keyboard-response","339","966421","0.0-1.0-474.0-0.0","0","0","46576","","null","","","null","52","","","","","","","","","","","","","","","",""
"","ITI","","html-keyboard-response","340","967424","0.0-1.0-477.0","0","0","46576","","null","","","null","52","","","","","","","","","","","","","","","NaN",""
"","S1","","html-keyboard-response","341","967577","0.0-1.0-479.0","0","0","46576","","null","","","null","53","","","","","","","","","","","","","","","",""
"","ISI","","html-keyboard-response","342","969580","0.0-1.0-480.0","0","0","46576","","null","","","null","53","NaN","","","","","","","","","","","","","","",""
"","S2","","html-keyboard-response","343","969733","0.0-1.0-481.0","0","0","46576","","null","","","null","53","","NaN","","","","","","","","","","","","","",""
"","response","","html-keyboard-response","344","970353","0.0-1.0-482.0-0.0","0","0","46576","","619","","","68","53","","","2","53","training","adjacent","BC","2","3","Q.jpg","L.jpg","1","1","1","",""
"","feedback","","html-keyboard-response","345","971357","0.0-1.0-483.0-0.0","0","0","46576","","null","","","null","53","","","","","","","","","","","","","","","",""
"","ITI","","html-keyboard-response","346","972360","0.0-1.0-486.0","0","0","46576","","null","","","null","53","","","","","","","","","","","","","","","NaN",""
"","S1","","html-keyboard-response","347","972513","0.0-1.0-488.0","0","0","46576","","null","","","null","54","","","","","","","","","","","","","","","",""
"","ISI","","html-keyboard-response","348","974516","0.0-1.0-489.0","0","0","46576","","null","","","null","54","NaN","","","","","","","","","","","","","","",""
"","S2","","html-keyboard-response","349","974669","0.0-1.0-490.0","0","0","46576","","null","","","null","54","","NaN","","","","","","","","","","","","","",""
"","response","","html-keyboard-response","350","974993","0.0-1.0-491.0-0.0","0","0","46576","","321","","","75","54","","","2","54","training","adjacent","FG","6","7","R.jpg","P.jpg","0","1","0","",""
"","feedback","","html-keyboard-response","351","975996","0.0-1.0-492.0-0.0","0","0","46576","","null","","","null","54","","","","","","","","","","","","","","","",""
"","time_out","","html-keyboard-response","352","977999","0.0-1.0-494.0-0.0","0","0","46576","","null","","","null","54","","","","","","","","","","","","","","","",""
"","ITI","","html-keyboard-response","353","979002","0.0-1.0-495.0","0","0","46576","","null","","","null","54","","","","","","","","","","","","","","","NaN",""
"","S1","","html-keyboard-response","354","979155","0.0-1.0-497.0","0","0","46576","","null","","","null","55","","","","","","","","","","","","","","","",""
"","ISI","","html-keyboard-response","355","981159","0.0-1.0-498.0","0","0","46576","","null","","","null","55","NaN","","","","","","","","","","","","","","",""
"","S2","","html-keyboard-response","356","981312","0.0-1.0-499.0","0","0","46576","","null","","","null","55","","NaN","","","","","","","","","","","","","",""
"","response","","html-keyboard-response","357","981593","0.0-1.0-500.0-0.0","0","0","46576","","279","","","68","55","","","2","55","training","adjacent","DE","4","5","N.jpg","M.jpg","1","1","1","",""
"","feedback","","html-keyboard-response","358","982597","0.0-1.0-501.0-0.0","0","0","46576","","null","","","null","55","","","","","","","","","","","","","","","",""
"","ITI","","html-keyboard-response","359","983601","0.0-1.0-504.0","0","0","46576","","null","","","null","55","","","","","","","","","","","","","","","NaN",""
"","S1","","html-keyboard-response","360","983754","0.0-1.0-506.0","0","0","46576","","null","","","null","56","","","","","","","","","","","","","","","",""
"","ISI","","html-keyboard-response","361","985757","0.0-1.0-507.0","0","0","46576","","null","","","null","56","NaN","","","","","","","","","","","","","","",""
"","S2","","html-keyboard-response","362","985911","0.0-1.0-508.0","0","0","46576","","null","","","null","56","","NaN","","","","","","","","","","","","","",""
"","response","","html-keyboard-response","363","986450","0.0-1.0-509.0-0.0","0","0","46576","","536","","","75","56","","","2","56","training","adjacent","BC","2","3","Q.jpg","L.jpg","0","1","0","",""
"","feedback","","html-keyboard-response","364","987453","0.0-1.0-510.0-0.0","0","0","46576","","null","","","null","56","","","","","","","","","","","","","","","",""
"","time_out","","html-keyboard-response","365","989456","0.0-1.0-512.0-0.0","0","0","46576","","null","","","null","56","","","","","","","","","","","","","","","",""
"","ITI","","html-keyboard-response","366","990460","0.0-1.0-513.0","0","0","46576","","null","","","null","56","","","","","","","","","","","","","","","NaN",""
"","S1","","html-keyboard-response","367","990613","0.0-1.0-515.0","0","0","46576","","null","","","null","57","","","","","","","","","","","","","","","",""
"","ISI","","html-keyboard-response","368","992617","0.0-1.0-516.0","0","0","46576","","null","","","null","57","NaN","","","","","","","","","","","","","","",""
"","S2","","html-keyboard-response","369","992770","0.0-1.0-517.0","0","0","46576","","null","","","null","57","","NaN","","","","","","","","","","","","","",""
"","response","","html-keyboard-response","370","992930","0.0-1.0-518.0-0.0","0","0","46576","","158","","","68","57","","","2","57","training","adjacent","BA","2","1","Q.jpg","O.jpg","1","0","0","",""
"","feedback","","html-keyboard-response","371","993934","0.0-1.0-519.0-0.0","0","0","46576","","null","","","null","57","","","","","","","","","","","","","","","",""
"","time_out","","html-keyboard-response","372","995938","0.0-1.0-521.0-0.0","0","0","46576","","null","","","null","57","","","","","","","","","","","","","","","",""
"","ITI","","html-keyboard-response","373","996940","0.0-1.0-522.0","0","0","46576","","null","","","null","57","","","","","","","","","","","","","","","NaN",""
"","S1","","html-keyboard-response","374","997094","0.0-1.0-524.0","0","0","46576","","null","","","null","58","","","","","","","","","","","","","","","",""
"","ISI","","html-keyboard-response","375","999096","0.0-1.0-525.0","0","0","46576","","null","","","null","58","NaN","","","","","","","","","","","","","","",""
"","S2","","html-keyboard-response","376","999153","0.0-1.0-526.0","0","0","46576","","54","","","75","58","","k","2","58","training","adjacent","DE","4","5","N.jpg","M.jpg","0","1","0","",""
"","feedback","","html-keyboard-response","377","1000156","0.0-1.0-528.0-0.0","0","0","46576","","null","","","null","58","","","","","","","","","","","","","","","",""
"","time_out","","html-keyboard-response","378","1002159","0.0-1.0-530.0-0.0","0","0","46576","","null","","","null","58","","","","","","","","","","","","","","","",""
"","ITI","","html-keyboard-response","379","1003162","0.0-1.0-531.0","0","0","46576","","null","","","null","58","","","","","","","","","","","","","","","NaN",""
"","S1","","html-keyboard-response","380","1003315","0.0-1.0-533.0","0","0","46576","","null","","","null","59","","","","","","","","","","","","","","","",""
"","ISI","","html-keyboard-response","381","1005318","0.0-1.0-534.0","0","0","46576","","null","","","null","59","NaN","","","","","","","","","","","","","","",""
"","S2","","html-keyboard-response","382","1005471","0.0-1.0-535.0","0","0","46576","","null","","","null","59","","NaN","","","","","","","","","","","","","",""
"","response","","html-keyboard-response","383","1006193","0.0-1.0-536.0-0.0","0","0","46576","","720","","","68","59","","","2","59","training","adjacent","CD","3","4","L.jpg","N.jpg","1","1","1","",""
"","feedback","","html-keyboard-response","384","1007197","0.0-1.0-537.0-0.0","0","0","46576","","null","","","null","59","","","","","","","","","","","","","","","",""
"","ITI","","html-keyboard-response","385","1008200","0.0-1.0-540.0","0","0","46576","","null","","","null","59","","","","","","","","","","","","","","","NaN",""
"","S1","","html-keyboard-response","386","1008353","0.0-1.0-542.0","0","0","46576","","null","","","null","60","","","","","","","","","","","","","","","",""
"","ISI","","html-keyboard-response","387","1010356","0.0-1.0-543.0","0","0","46576","","null","","","null","60","NaN","","","","","","","","","","","","","","",""
"","S2","","html-keyboard-response","388","1010510","0.0-1.0-544.0","0","0","46576","","null","","","null","60","","NaN","","","","","","","","","","","","","",""
"","response","","html-keyboard-response","389","1011937","0.0-1.0-545.0-0.0","0","0","46576","","1425","","","75","60","","","2","60","training","adjacent","FG","6","7","R.jpg","P.jpg","0","1","0","",""
"","feedback","","html-keyboard-response","390","1012941","0.0-1.0-546.0-0.0","0","0","46576","","null","","","null","60","","","","","","","","","","","","","","","",""
"","time_out","","html-keyboard-response","391","1014944","0.0-1.0-548.0-0.0","0","0","46576","","null","","","null","60","","","","","","","","","","","","","","","",""
"","ITI","","html-keyboard-response","392","1015947","0.0-1.0-549.0","0","0","46576","","null","","","null","60","","","","","","","","","","","","","","","NaN",""
"","S1","","html-keyboard-response","393","1016101","0.0-1.0-551.0","0","0","46576","","null","","","null","61","","","","","","","","","","","","","","","",""
"","ISI","","html-keyboard-response","394","1018104","0.0-1.0-552.0","0","0","46576","","130","","","68","61","d","","","","","","","","","","","","","","",""
"","S2","","html-keyboard-response","395","1018258","0.0-1.0-553.0","0","0","46576","","null","","","null","61","","NaN","","","","","","","","","","","","","",""
"","response","","html-keyboard-response","396","1018386","0.0-1.0-554.0-0.0","0","0","46576","","125","","","68","61","","","2","61","training","adjacent","AB","1","2","O.jpg","Q.jpg","1","1","1","",""
"","feedback","","html-keyboard-response","397","1019390","0.0-1.0-555.0-0.0","0","0","46576","","null","","","null","61","","","","","","","","","","","","","","","",""
"","ITI","","html-keyboard-response","398","1020393","0.0-1.0-558.0","0","0","46576","","null","","","null","61","","","","","","","","","","","","","","","NaN",""
"","S1","","html-keyboard-response","399","1020545","0.0-1.0-560.0","0","0","46576","","null","","","null","62","","","","","","","","","","","","","","","",""
"","ISI","","html-keyboard-response","400","1022548","0.0-1.0-561.0","0","0","46576","","null","","","null","62","NaN","","","","","","","","","","","","","","",""
"","S2","","html-keyboard-response","401","1022702","0.0-1.0-562.0","0","0","46576","","null","","","null","62","","NaN","","","","","","","","","","","","","",""
"","response","","html-keyboard-response","402","1024554","0.0-1.0-563.0-0.0","0","0","46576","","null","","","null","62","","","2","62","training","adjacent","BC","2","3","Q.jpg","L.jpg","NaN","1","0","",""
"","too_slow_prompt","","html-keyboard-response","403","1025558","0.0-1.0-565.0-0.0","1","0","46576","","null","","","null","","","","","","","","","","","","","","","","",""
"","time_out","","html-keyboard-response","404","1027561","0.0-1.0-566.0-0.0","0","0","46576","","null","","","null","62","","","","","","","","","","","","","","","",""
"","ITI","","html-keyboard-response","405","1028564","0.0-1.0-567.0","0","0","46576","","null","","","null","62","","","","","","","","","","","","","","","NaN",""
"","S1","","html-keyboard-response","406","1028717","0.0-1.0-569.0","0","0","46576","","null","","","null","63","","","","","","","","","","","","","","","",""
"","ISI","","html-keyboard-response","407","1030721","0.0-1.0-570.0","0","0","46576","","314","","","75","63","k","","","","","","","","","","","","","","",""
"","S2","","html-keyboard-response","408","1030875","0.0-1.0-571.0","0","0","46576","","null","","","null","63","","NaN","","","","","","","","","","","","","",""
"","response","","html-keyboard-response","409","1030969","0.0-1.0-572.0-0.0","0","0","46576","","93","","","75","63","","","2","63","training","adjacent","DE","4","5","N.jpg","M.jpg","0","1","0","",""
"","feedback","","html-keyboard-response","410","1031973","0.0-1.0-573.0-0.0","0","0","46576","","null","","","null","63","","","","","","","","","","","","","","","",""
"","time_out","","html-keyboard-response","411","1033976","0.0-1.0-575.0-0.0","0","0","46576","","null","","","null","63","","","","","","","","","","","","","","","",""
"","ITI","","html-keyboard-response","412","1034979","0.0-1.0-576.0","0","0","46576","","431","","","68","63","","","","","","","","","","","","","","","d",""
"","S1","","html-keyboard-response","413","1035132","0.0-1.0-578.0","0","0","46576","","null","","","null","64","","","","","","","","","","","","","","","",""
"","ISI","","html-keyboard-response","414","1037135","0.0-1.0-579.0","0","0","46576","","1228","","","68","64","d","","","","","","","","","","","","","","",""
"","S2","","html-keyboard-response","415","1037289","0.0-1.0-580.0","0","0","46576","","null","","","null","64","","NaN","","","","","","","","","","","","","",""
"","response","","html-keyboard-response","416","1037402","0.0-1.0-581.0-0.0","0","0","46576","","111","","","68","64","","","2","64","training","adjacent","BA","2","1","Q.jpg","O.jpg","1","0","0","",""
"","feedback","","html-keyboard-response","417","1038421","0.0-1.0-582.0-0.0","0","0","46576","","null","","","null","64","","","","","","","","","","","","","","","",""
"","time_out","","html-keyboard-response","418","1040425","0.0-1.0-584.0-0.0","0","0","46576","","null","","","null","64","","","","","","","","","","","","","","","",""
"","ITI","","html-keyboard-response","419","1041428","0.0-1.0-585.0","0","0","46576","","null","","","null","64","","","","","","","","","","","","","","","NaN",""
"","S1","","html-keyboard-response","420","1041581","0.0-1.0-587.0","0","0","46576","","null","","","null","65","","","","","","","","","","","","","","","",""
"","ISI","","html-keyboard-response","421","1043584","0.0-1.0-588.0","0","0","46576","","289","","","75","65","k","","","","","","","","","","","","","","",""
"","S2","","html-keyboard-response","422","1043738","0.0-1.0-589.0","0","0","46576","","null","","","null","65","","NaN","","","","","","","","","","","","","",""
"","response","","html-keyboard-response","423","1043889","0.0-1.0-590.0-0.0","0","0","46576","","149","","","75","65","","","2","65","training","adjacent","CB","3","2","L.jpg","Q.jpg","0","0","1","",""
"","feedback","","html-keyboard-response","424","1044893","0.0-1.0-591.0-0.0","0","0","46576","","null","","","null","65","","","","","","","","","","","","","","","",""
"","ITI","","html-keyboard-response","425","1045898","0.0-1.0-594.0","0","0","46576","","null","","","null","65","","","","","","","","","","","","","","","NaN",""
"","S1","","html-keyboard-response","426","1046052","0.0-1.0-596.0","0","0","46576","","null","","","null","66","","","","","","","","","","","","","","","",""
"","ISI","","html-keyboard-response","427","1048065","0.0-1.0-597.0","0","0","46576","","null","","","null","66","NaN","","","","","","","","","","","","","","",""
"","S2","","html-keyboard-response","428","1048220","0.0-1.0-598.0","0","0","46576","","null","","","null","66","","NaN","","","","","","","","","","","","","",""
"","response","","html-keyboard-response","429","1048505","0.0-1.0-599.0-0.0","0","0","46576","","283","","","68","66","","","2","66","training","adjacent","BA","2","1","Q.jpg","O.jpg","1","0","0","",""
"","feedback","","html-keyboard-response","430","1049508","0.0-1.0-600.0-0.0","0","0","46576","","null","","","null","66","","","","","","","","","","","","","","","",""
"","time_out","","html-keyboard-response","431","1051512","0.0-1.0-602.0-0.0","0","0","46576","","null","","","null","66","","","","","","","","","","","","","","","",""
"","ITI","","html-keyboard-response","432","1052516","0.0-1.0-603.0","0","0","46576","","null","","","null","66","","","","","","","","","","","","","","","NaN",""
"","S1","","html-keyboard-response","433","1052674","0.0-1.0-605.0","0","0","46576","","null","","","null","67","","","","","","","","","","","","","","","",""
"","ISI","","html-keyboard-response","434","1054677","0.0-1.0-606.0","0","0","46576","","1029","","","68","67","d","","","","","","","","","","","","","","",""
"","S2","","html-keyboard-response","435","1054830","0.0-1.0-607.0","0","0","46576","","null","","","null","67","","NaN","","","","","","","","","","","","","",""
"","response","","html-keyboard-response","436","1055193","0.0-1.0-608.0-0.0","0","0","46576","","360","","","68","67","","","2","67","training","adjacent","CB","3","2","L.jpg","Q.jpg","1","0","0","",""
"","feedback","","html-keyboard-response","437","1056197","0.0-1.0-609.0-0.0","0","0","46576","","null","","","null","67","","","","","","","","","","","","","","","",""
"","time_out","","html-keyboard-response","438","1058201","0.0-1.0-611.0-0.0","0","0","46576","","null","","","null","67","","","","","","","","","","","","","","","",""
"","ITI","","html-keyboard-response","439","1059204","0.0-1.0-612.0","0","0","46576","","null","","","null","67","","","","","","","","","","","","","","","NaN",""
"","S1","","html-keyboard-response","440","1059358","0.0-1.0-614.0","0","0","46576","","null","","","null","68","","","","","","","","","","","","","","","",""
"","ISI","","html-keyboard-response","441","1061361","0.0-1.0-615.0","0","0","46576","","null","","","null","68","NaN","","","","","","","","","","","","","","",""
"","S2","","html-keyboard-response","442","1061514","0.0-1.0-616.0","0","0","46576","","null","","","null","68","","NaN","","","","","","","","","","","","","",""
"","response","","html-keyboard-response","443","1062001","0.0-1.0-617.0-0.0","0","0","46576","","484","","","75","68","","","2","68","training","adjacent","GF","7","6","P.jpg","R.jpg","0","0","1","",""
"","feedback","","html-keyboard-response","444","1063005","0.0-1.0-618.0-0.0","0","0","46576","","null","","","null","68","","","","","","","","","","","","","","","",""
"","ITI","","html-keyboard-response","445","1064008","0.0-1.0-621.0","0","0","46576","","null","","","null","68","","","","","","","","","","","","","","","NaN",""
"","S1","","html-keyboard-response","446","1064162","0.0-1.0-623.0","0","0","46576","","null","","","null","69","","","","","","","","","","","","","","","",""
"","ISI","","html-keyboard-response","447","1066165","0.0-1.0-624.0","0","0","46576","","null","","","null","69","NaN","","","","","","","","","","","","","","",""
"","S2","","html-keyboard-response","448","1066319","0.0-1.0-625.0","0","0","46576","","null","","","null","69","","NaN","","","","","","","","","","","","","",""
"","response","","html-keyboard-response","449","1067137","0.0-1.0-626.0-0.0","0","0","46576","","815","","","68","69","","","2","69","training","adjacent","FE","6","5","R.jpg","M.jpg","1","0","0","",""
"","feedback","","html-keyboard-response","450","1068141","0.0-1.0-627.0-0.0","0","0","46576","","null","","","null","69","","","","","","","","","","","","","","","",""
"","time_out","","html-keyboard-response","451","1070144","0.0-1.0-629.0-0.0","0","0","46576","","null","","","null","69","","","","","","","","","","","","","","","",""
"","ITI","","html-keyboard-response","452","1071147","0.0-1.0-630.0","0","0","46576","","null","","","null","69","","","","","","","","","","","","","","","NaN",""
"","S1","","html-keyboard-response","453","1071301","0.0-1.0-632.0","0","0","46576","","null","","","null","70","","","","","","","","","","","","","","","",""
"","ISI","","html-keyboard-response","454","1073304","0.0-1.0-633.0","0","0","46576","","null","","","null","70","NaN","","","","","","","","","","","","","","",""
"","S2","","html-keyboard-response","455","1073457","0.0-1.0-634.0","0","0","46576","","null","","","null","70","","NaN","","","","","","","","","","","","","",""
"","response","","html-keyboard-response","456","1073809","0.0-1.0-635.0-0.0","0","0","46576","","350","","","75","70","","","2","70","training","adjacent","EF","5","6","M.jpg","R.jpg","0","1","0","",""
"","feedback","","html-keyboard-response","457","1074820","0.0-1.0-636.0-0.0","0","0","46576","","null","","","null","70","","","","","","","","","","","","","","","",""
"","time_out","","html-keyboard-response","458","1076823","0.0-1.0-638.0-0.0","0","0","46576","","null","","","null","70","","","","","","","","","","","","","","","",""
"","ITI","","html-keyboard-response","459","1077825","0.0-1.0-639.0","0","0","46576","","null","","","null","70","","","","","","","","","","","","","","","NaN",""
"","S1","","html-keyboard-response","460","1077978","0.0-1.0-641.0","0","0","46576","","null","","","null","71","","","","","","","","","","","","","","","",""
"","ISI","","html-keyboard-response","461","1079981","0.0-1.0-642.0","0","0","46576","","null","","","null","71","NaN","","","","","","","","","","","","","","",""
"","S2","","html-keyboard-response","462","1080135","0.0-1.0-643.0","0","0","46576","","null","","","null","71","","NaN","","","","","","","","","","","","","",""
"","response","","html-keyboard-response","463","1080241","0.0-1.0-644.0-0.0","0","0","46576","","104","","","68","71","","","2","71","training","adjacent","DC","4","3","N.jpg","L.jpg","1","0","0","",""
"","feedback","","html-keyboard-response","464","1081244","0.0-1.0-645.0-0.0","0","0","46576","","null","","","null","71","","","","","","","","","","","","","","","",""
"","time_out","","html-keyboard-response","465","1083247","0.0-1.0-647.0-0.0","0","0","46576","","null","","","null","71","","","","","","","","","","","","","","","",""
"","ITI","","html-keyboard-response","466","1084251","0.0-1.0-648.0","0","0","46576","","null","","","null","71","","","","","","","","","","","","","","","NaN",""
"","S1","","html-keyboard-response","467","1084405","0.0-1.0-650.0","0","0","46576","","null","","","null","72","","","","","","","","","","","","","","","",""
"","ISI","","html-keyboard-response","468","1086407","0.0-1.0-651.0","0","0","46576","","null","","","null","72","NaN","","","","","","","","","","","","","","",""
"","S2","","html-keyboard-response","469","1086561","0.0-1.0-652.0","0","0","46576","","null","","","null","72","","NaN","","","","","","","","","","","","","",""
"","response","","html-keyboard-response","470","1086625","0.0-1.0-653.0-0.0","0","0","46576","","61","","","75","72","","","2","72","training","adjacent","DC","4","3","N.jpg","L.jpg","0","0","1","",""
"","feedback","","html-keyboard-response","471","1087628","0.0-1.0-654.0-0.0","0","0","46576","","null","","","null","72","","","","","","","","","","","","","","","",""
"","ITI","","html-keyboard-response","472","1088632","0.0-1.0-657.0","0","0","46576","","null","","","null","72","","","","","","","","","","","","","","","NaN",""
"","S1","","html-keyboard-response","473","1088785","0.0-1.0-659.0","0","0","46576","","null","","","null","73","","","","","","","","","","","","","","","",""
"","ISI","","html-keyboard-response","474","1090788","0.0-1.0-660.0","0","0","46576","","null","","","null","73","NaN","","","","","","","","","","","","","","",""
"","S2","","html-keyboard-response","475","1090941","0.0-1.0-661.0","0","0","46576","","null","","","null","73","","NaN","","","","","","","","","","","","","",""
"","response","","html-keyboard-response","476","1092026","0.0-1.0-662.0-0.0","0","0","46576","","1082","","","68","73","","","2","73","training","adjacent","EF","5","6","M.jpg","R.jpg","1","1","1","",""
"","feedback","","html-keyboard-response","477","1093029","0.0-1.0-663.0-0.0","0","0","46576","","null","","","null","73","","","","","","","","","","","","","","","",""
"","ITI","","html-keyboard-response","478","1094032","0.0-1.0-666.0","0","0","46576","","null","","","null","73","","","","","","","","","","","","","","","NaN",""
"","S1","","html-keyboard-response","479","1094186","0.0-1.0-668.0","0","0","46576","","null","","","null","74","","","","","","","","","","","","","","","",""
"","ISI","","html-keyboard-response","480","1096189","0.0-1.0-669.0","0","0","46576","","null","","","null","74","NaN","","","","","","","","","","","","","","",""
"","S2","","html-keyboard-response","481","1096342","0.0-1.0-670.0","0","0","46576","","null","","","null","74","","NaN","","","","","","","","","","","","","",""
"","response","","html-keyboard-response","482","1096721","0.0-1.0-671.0-0.0","0","0","46576","","377","","","75","74","","","2","74","training","adjacent","GF","7","6","P.jpg","R.jpg","0","0","1","",""
"","feedback","","html-keyboard-response","483","1097725","0.0-1.0-672.0-0.0","0","0","46576","","null","","","null","74","","","","","","","","","","","","","","","",""
"","ITI","","html-keyboard-response","484","1098729","0.0-1.0-675.0","0","0","46576","","null","","","null","74","","","","","","","","","","","","","","","NaN",""
"","S1","","html-keyboard-response","485","1098882","0.0-1.0-677.0","0","0","46576","","null","","","null","75","","","","","","","","","","","","","","","",""
"","ISI","","html-keyboard-response","486","1100885","0.0-1.0-678.0","0","0","46576","","null","","","null","75","NaN","","","","","","","","","","","","","","",""
"","S2","","html-keyboard-response","487","1101039","0.0-1.0-679.0","0","0","46576","","null","","","null","75","","NaN","","","","","","","","","","","","","",""
"","response","","html-keyboard-response","488","1101305","0.0-1.0-680.0-0.0","0","0","46576","","263","","","68","75","","","2","75","training","adjacent","BC","2","3","Q.jpg","L.jpg","1","1","1","",""
"","feedback","","html-keyboard-response","489","1102308","0.0-1.0-681.0-0.0","0","0","46576","","null","","","null","75","","","","","","","","","","","","","","","",""
"","ITI","","html-keyboard-response","490","1103312","0.0-1.0-684.0","0","0","46576","","null","","","null","75","","","","","","","","","","","","","","","NaN",""
"","S1","","html-keyboard-response","491","1103465","0.0-1.0-686.0","0","0","46576","","null","","","null","76","","","","","","","","","","","","","","","",""
"","ISI","","html-keyboard-response","492","1105468","0.0-1.0-687.0","0","0","46576","","null","","","null","76","NaN","","","","","","","","","","","","","","",""
"","S2","","html-keyboard-response","493","1105622","0.0-1.0-688.0","0","0","46576","","null","","","null","76","","NaN","","","","","","","","","","","","","",""
"","response","","html-keyboard-response","494","1106481","0.0-1.0-689.0-0.0","0","0","46576","","857","","","75","76","","","2","76","training","adjacent","DC","4","3","N.jpg","L.jpg","0","0","1","",""
"","feedback","","html-keyboard-response","495","1107485","0.0-1.0-690.0-0.0","0","0","46576","","null","","","null","76","","","","","","","","","","","","","","","",""
"","ITI","","html-keyboard-response","496","1108488","0.0-1.0-693.0","0","0","46576","","null","","","null","76","","","","","","","","","","","","","","","NaN",""
"","S1","","html-keyboard-response","497","1108641","0.0-1.0-695.0","0","0","46576","","null","","","null","77","","","","","","","","","","","","","","","",""
"","ISI","","html-keyboard-response","498","1110645","0.0-1.0-696.0","0","0","46576","","null","","","null","77","NaN","","","","","","","","","","","","","","",""
"","S2","","html-keyboard-response","499","1110798","0.0-1.0-697.0","0","0","46576","","null","","","null","77","","NaN","","","","","","","","","","","","","",""
"","response","","html-keyboard-response","500","1111121","0.0-1.0-698.0-0.0","0","0","46576","","320","","","68","77","","","2","77","training","adjacent","EF","5","6","M.jpg","R.jpg","1","1","1","",""
"","feedback","","html-keyboard-response","501","1112124","0.0-1.0-699.0-0.0","0","0","46576","","null","","","null","77","","","","","","","","","","","","","","","",""
"","ITI","","html-keyboard-response","502","1113127","0.0-1.0-702.0","0","0","46576","","null","","","null","77","","","","","","","","","","","","","","","NaN",""
"","S1","","html-keyboard-response","503","1113281","0.0-1.0-704.0","0","0","46576","","null","","","null","78","","","","","","","","","","","","","","","",""
"","ISI","","html-keyboard-response","504","1115284","0.0-1.0-705.0","0","0","46576","","null","","","null","78","NaN","","","","","","","","","","","","","","",""
"","S2","","html-keyboard-response","505","1115438","0.0-1.0-706.0","0","0","46576","","null","","","null","78","","NaN","","","","","","","","","","","","","",""
"","response","","html-keyboard-response","506","1115905","0.0-1.0-707.0-0.0","0","0","46576","","464","","","68","78","","","2","78","training","adjacent","CB","3","2","L.jpg","Q.jpg","1","0","0","",""
"","feedback","","html-keyboard-response","507","1116908","0.0-1.0-708.0-0.0","0","0","46576","","null","","","null","78","","","","","","","","","","","","","","","",""
"","time_out","","html-keyboard-response","508","1118912","0.0-1.0-710.0-0.0","0","0","46576","","null","","","null","78","","","","","","","","","","","","","","","",""
"","ITI","","html-keyboard-response","509","1119914","0.0-1.0-711.0","0","0","46576","","null","","","null","78","","","","","","","","","","","","","","","NaN",""
"","S1","","html-keyboard-response","510","1120067","0.0-1.0-713.0","0","0","46576","","null","","","null","79","","","","","","","","","","","","","","","",""
"","ISI","","html-keyboard-response","511","1122070","0.0-1.0-714.0","0","0","46576","","null","","","null","79","NaN","","","","","","","","","","","","","","",""
"","S2","","html-keyboard-response","512","1122223","0.0-1.0-715.0","0","0","46576","","null","","","null","79","","NaN","","","","","","","","","","","","","",""
"","response","","html-keyboard-response","513","1122657","0.0-1.0-716.0-0.0","0","0","46576","","431","","","75","79","","","2","79","training","adjacent","AB","1","2","O.jpg","Q.jpg","0","1","0","",""
"","feedback","","html-keyboard-response","514","1123661","0.0-1.0-717.0-0.0","0","0","46576","","null","","","null","79","","","","","","","","","","","","","","","",""
"","time_out","","html-keyboard-response","515","1125664","0.0-1.0-719.0-0.0","0","0","46576","","null","","","null","79","","","","","","","","","","","","","","","",""
"","ITI","","html-keyboard-response","516","1126668","0.0-1.0-720.0","0","0","46576","","null","","","null","79","","","","","","","","","","","","","","","NaN",""
"","S1","","html-keyboard-response","517","1126821","0.0-1.0-722.0","0","0","46576","","null","","","null","80","","","","","","","","","","","","","","","",""
"","ISI","","html-keyboard-response","518","1128824","0.0-1.0-723.0","0","0","46576","","null","","","null","80","NaN","","","","","","","","","","","","","","",""
"","S2","","html-keyboard-response","519","1128978","0.0-1.0-724.0","0","0","46576","","null","","","null","80","","NaN","","","","","","","","","","","","","",""
"","response","","html-keyboard-response","520","1129273","0.0-1.0-725.0-0.0","0","0","46576","","292","","","68","80","","","2","80","training","adjacent","CD","3","4","L.jpg","N.jpg","1","1","1","",""
"","feedback","","html-keyboard-response","521","1130281","0.0-1.0-726.0-0.0","0","0","46576","","null","","","null","80","","","","","","","","","","","","","","","",""
"","ITI","","html-keyboard-response","522","1131300","0.0-1.0-729.0","0","0","46576","","null","","","null","80","","","","","","","","","","","","","","","NaN",""
"","S1","","html-keyboard-response","523","1131454","0.0-1.0-731.0","0","0","46576","","null","","","null","81","","","","","","","","","","","","","","","",""
"","ISI","","html-keyboard-response","524","1133457","0.0-1.0-732.0","0","0","46576","","null","","","null","81","NaN","","","","","","","","","","","","","","",""
"","S2","","html-keyboard-response","525","1133621","0.0-1.0-733.0","0","0","46576","","null","","","null","81","","NaN","","","","","","","","","","","","","",""
"","response","","html-keyboard-response","526","1134273","0.0-1.0-734.0-0.0","0","0","46576","","649","","","75","81","","","2","81","training","adjacent","FE","6","5","R.jpg","M.jpg","0","0","1","",""
"","feedback","","html-keyboard-response","527","1135276","0.0-1.0-735.0-0.0","0","0","46576","","null","","","null","81","","","","","","","","","","","","","","","",""
"","ITI","","html-keyboard-response","528","1136280","0.0-1.0-738.0","0","0","46576","","null","","","null","81","","","","","","","","","","","","","","","NaN",""
"","S1","","html-keyboard-response","529","1136433","0.0-1.0-740.0","0","0","46576","","null","","","null","82","","","","","","","","","","","","","","","",""
"","ISI","","html-keyboard-response","530","1138437","0.0-1.0-741.0","0","0","46576","","null","","","null","82","NaN","","","","","","","","","","","","","","",""
"","S2","","html-keyboard-response","531","1138591","0.0-1.0-742.0","0","0","46576","","null","","","null","82","","NaN","","","","","","","","","","","","","",""
"","response","","html-keyboard-response","532","1139312","0.0-1.0-743.0-0.0","0","0","46576","","719","","","75","82","","","2","82","training","adjacent","GF","7","6","P.jpg","R.jpg","0","0","1","",""
"","feedback","","html-keyboard-response","533","1140317","0.0-1.0-744.0-0.0","0","0","46576","","null","","","null","82","","","","","","","","","","","","","","","",""
"","ITI","","html-keyboard-response","534","1141321","0.0-1.0-747.0","0","0","46576","","null","","","null","82","","","","","","","","","","","","","","","NaN",""
"","S1","","html-keyboard-response","535","1141474","0.0-1.0-749.0","0","0","46576","","null","","","null","83","","","","","","","","","","","","","","","",""
"","ISI","","html-keyboard-response","536","1143477","0.0-1.0-750.0","0","0","46576","","null","","","null","83","NaN","","","","","","","","","","","","","","",""
"","S2","","html-keyboard-response","537","1143632","0.0-1.0-751.0","0","0","46576","","null","","","null","83","","NaN","","","","","","","","","","","","","",""
"","response","","html-keyboard-response","538","1143737","0.0-1.0-752.0-0.0","0","0","46576","","103","","","68","83","","","2","83","training","adjacent","ED","5","4","M.jpg","N.jpg","1","0","0","",""
"","feedback","","html-keyboard-response","539","1144741","0.0-1.0-753.0-0.0","0","0","46576","","null","","","null","83","","","","","","","","","","","","","","","",""
"","time_out","","html-keyboard-response","540","1146744","0.0-1.0-755.0-0.0","0","0","46576","","null","","","null","83","","","","","","","","","","","","","","","",""
"","ITI","","html-keyboard-response","541","1147748","0.0-1.0-756.0","0","0","46576","","null","","","null","83","","","","","","","","","","","","","","","NaN",""
"","S1","","html-keyboard-response","542","1147902","0.0-1.0-758.0","0","0","46576","","null","","","null","84","","","","","","","","","","","","","","","",""
"","ISI","","html-keyboard-response","543","1149905","0.0-1.0-759.0","0","0","46576","","null","","","null","84","NaN","","","","","","","","","","","","","","",""
"","S2","","html-keyboard-response","544","1150059","0.0-1.0-760.0","0","0","46576","","null","","","null","84","","NaN","","","","","","","","","","","","","",""
"","response","","html-keyboard-response","545","1150201","0.0-1.0-761.0-0.0","0","0","46576","","140","","","68","84","","","2","84","training","adjacent","CD","3","4","L.jpg","N.jpg","1","1","1","",""
"","feedback","","html-keyboard-response","546","1151205","0.0-1.0-762.0-0.0","0","0","46576","","null","","","null","84","","","","","","","","","","","","","","","",""
"","ITI","","html-keyboard-response","547","1152208","0.0-1.0-765.0","0","0","46576","","null","","","null","84","","","","","","","","","","","","","","","NaN",""
"","S1","","html-keyboard-response","548","1152361","0.0-1.0-767.0","0","0","46576","","null","","","null","85","","","","","","","","","","","","","","","",""
"","ISI","","html-keyboard-response","549","1154365","0.0-1.0-768.0","0","0","46576","","null","","","null","85","NaN","","","","","","","","","","","","","","",""
"","S2","","html-keyboard-response","550","1154518","0.0-1.0-769.0","0","0","46576","","null","","","null","85","","NaN","","","","","","","","","","","","","",""
"","response","","html-keyboard-response","551","1154624","0.0-1.0-770.0-0.0","0","0","46576","","104","","","68","85","","","2","85","training","adjacent","CB","3","2","L.jpg","Q.jpg","1","0","0","",""
"","feedback","","html-keyboard-response","552","1155629","0.0-1.0-771.0-0.0","0","0","46576","","null","","","null","85","","","","","","","","","","","","","","","",""
"","time_out","","html-keyboard-response","553","1157633","0.0-1.0-773.0-0.0","0","0","46576","","null","","","null","85","","","","","","","","","","","","","","","",""
"","ITI","","html-keyboard-response","554","1158636","0.0-1.0-774.0","0","0","46576","","null","","","null","85","","","","","","","","","","","","","","","NaN",""
"","S1","","html-keyboard-response","555","1158790","0.0-1.0-776.0","0","0","46576","","null","","","null","86","","","","","","","","","","","","","","","",""
"","ISI","","html-keyboard-response","556","1160792","0.0-1.0-777.0","0","0","46576","","null","","","null","86","NaN","","","","","","","","","","","","","","",""
"","S2","","html-keyboard-response","557","1160946","0.0-1.0-778.0","0","0","46576","","null","","","null","86","","NaN","","","","","","","","","","","","","",""
"","response","","html-keyboard-response","558","1161017","0.0-1.0-779.0-0.0","0","0","46576","","70","","","75","86","","","2","86","training","adjacent","GF","7","6","P.jpg","R.jpg","0","0","1","",""
"","feedback","","html-keyboard-response","559","1162021","0.0-1.0-780.0-0.0","0","0","46576","","null","","","null","86","","","","","","","","","","","","","","","",""
"","ITI","","html-keyboard-response","560","1163025","0.0-1.0-783.0","0","0","46576","","null","","","null","86","","","","","","","","","","","","","","","NaN",""
"","S1","","html-keyboard-response","561","1163178","0.0-1.0-785.0","0","0","46576","","null","","","null","87","","","","","","","","","","","","","","","",""
"","ISI","","html-keyboard-response","562","1165181","0.0-1.0-786.0","0","0","46576","","1989","","","75","87","k","","","","","","","","","","","","","","",""
"","S2","","html-keyboard-response","563","1165334","0.0-1.0-787.0","0","0","46576","","null","","","null","87","","NaN","","","","","","","","","","","","","",""
"","response","","html-keyboard-response","564","1165481","0.0-1.0-788.0-0.0","0","0","46576","","144","","","75","87","","","2","87","training","adjacent","AB","1","2","O.jpg","Q.jpg","0","1","0","",""
"","feedback","","html-keyboard-response","565","1166484","0.0-1.0-789.0-0.0","0","0","46576","","null","","","null","87","","","","","","","","","","","","","","","",""
"","time_out","","html-keyboard-response","566","1168487","0.0-1.0-791.0-0.0","0","0","46576","","null","","","null","87","","","","","","","","","","","","","","","",""
"","ITI","","html-keyboard-response","567","1169490","0.0-1.0-792.0","0","0","46576","","null","","","null","87","","","","","","","","","","","","","","","NaN",""
"","S1","","html-keyboard-response","568","1169644","0.0-1.0-794.0","0","0","46576","","null","","","null","88","","","","","","","","","","","","","","","",""
"","ISI","","html-keyboard-response","569","1171647","0.0-1.0-795.0","0","0","46576","","282","","","68","88","d","","","","","","","","","","","","","","",""
"","S2","","html-keyboard-response","570","1171800","0.0-1.0-796.0","0","0","46576","","null","","","null","88","","NaN","","","","","","","","","","","","","",""
"","response","","html-keyboard-response","571","1171945","0.0-1.0-797.0-0.0","0","0","46576","","143","","","68","88","","","2","88","training","adjacent","DC","4","3","N.jpg","L.jpg","1","0","0","",""
"","feedback","","html-keyboard-response","572","1172949","0.0-1.0-798.0-0.0","0","0","46576","","null","","","null","88","","","","","","","","","","","","","","","",""
"","time_out","","html-keyboard-response","573","1174952","0.0-1.0-800.0-0.0","0","0","46576","","null","","","null","88","","","","","","","","","","","","","","","",""
"","ITI","","html-keyboard-response","574","1175955","0.0-1.0-801.0","0","0","46576","","null","","","null","88","","","","","","","","","","","","","","","NaN",""
"","S1","","html-keyboard-response","575","1176108","0.0-1.0-803.0","0","0","46576","","null","","","null","89","","","","","","","","","","","","","","","",""
"","ISI","","html-keyboard-response","576","1178112","0.0-1.0-804.0","0","0","46576","","null","","","null","89","NaN","","","","","","","","","","","","","","",""
"","S2","","html-keyboard-response","577","1178265","0.0-1.0-805.0","0","0","46576","","null","","","null","89","","NaN","","","","","","","","","","","","","",""
"","response","","html-keyboard-response","578","1178352","0.0-1.0-806.0-0.0","0","0","46576","","86","","","68","89","","","2","89","training","adjacent","BA","2","1","Q.jpg","O.jpg","1","0","0","",""
"","feedback","","html-keyboard-response","579","1179356","0.0-1.0-807.0-0.0","0","0","46576","","null","","","null","89","","","","","","","","","","","","","","","",""
"","time_out","","html-keyboard-response","580","1181360","0.0-1.0-809.0-0.0","0","0","46576","","null","","","null","89","","","","","","","","","","","","","","","",""
"","ITI","","html-keyboard-response","581","1182363","0.0-1.0-810.0","0","0","46576","","null","","","null","89","","","","","","","","","","","","","","","NaN",""
"","S1","","html-keyboard-response","582","1182516","0.0-1.0-812.0","0","0","46576","","null","","","null","90","","","","","","","","","","","","","","","",""
