"success","ttype","start_time","trial_type","trial_index","time_elapsed","internal_node_id","warning","missed_checkup","PID","view_history","rt","responses","repeat_instructions","key_press","index","keypress_isi","keypress_S2","block","trial_num","phase","group_type","pair_type","S1_stim","S2_stim","S1_img","S2_img","S1_chosen","S1_higher","accuracy","keypress_iti","total_bonus_tally"
"true","full_screen","d03072023hr1744","fullscreen","0","9451","0.0-0.0","0","0","63347","","","","","","","","","","","","","","","","","","","","","",""
"","instructions","","instructions","1","63135","0.0-1.0-0.0-0.0","0","0","63347","[{""page_index"":0,""viewing_time"":3944},{""page_index"":1,""viewing_time"":27848},{""page_index"":2,""viewing_time"":18712},{""page_index"":3,""viewing_time"":3176}]","53681","","","","","","","","","","","","","","","","","","","",""
"","comprehension_check","","survey-multi-choice","2","101624","0.0-1.0-0.0-1.0","0","0","63347","","38478","{""Q0"":""True"",""Q1"":""K"",""Q2"":""Once the second image appears and while the screen 'MAKE A CHOICE' is shown"",""Q3"":""Green mark"",""Q4"":""either D or K""}","0","","","","","","","","","","","","","","","","","",""
"","start_exp","","html-keyboard-response","3","104676","0.0-1.0-1.0","0","0","63347","","3046","","","32","","","","","","","","","","","","","","","","",""
"","S1","","html-keyboard-response","4","104935","0.0-1.0-2.0","0","0","63347","","null","","","null","0","","","","","","","","","","","","","","","",""
"","ISI","","html-keyboard-response","5","105942","0.0-1.0-3.0","0","0","63347","","null","","","null","0","NaN","","","","","","","","","","","","","","",""
"","S2","","html-keyboard-response","6","106200","0.0-1.0-4.0","0","0","63347","","null","","","null","0","","NaN","","","","","","","","","","","","","",""
"","response","","html-keyboard-response","7","107906","0.0-1.0-5.0-0.0","0","0","63347","","1699","","","75","0","","","1","0","training","adjacent","CD","3","4","L.jpg","R.jpg","1","1","1","",""
"","feedback","","html-keyboard-response","8","108913","0.0-1.0-6.0-0.0","0","0","63347","","null","","","null","0","","","","","","","","","","","","","","","",""
"","ITI","","html-keyboard-response","9","109918","0.0-1.0-9.0","0","0","63347","","null","","","null","0","","","","","","","","","","","","","","","NaN",""
"","S1","","html-keyboard-response","10","110172","0.0-1.0-11.0","0","0","63347","","null","","","null","1","","","","","","","","","","","","","","","",""
"","ISI","","html-keyboard-response","11","111176","0.0-1.0-12.0","0","0","63347","","null","","","null","1","NaN","","","","","","","","","","","","","","",""
"","S2","","html-keyboard-response","12","111435","0.0-1.0-13.0","0","0","63347","","null","","","null","1","","NaN","","","","","","","","","","","","","",""
"","response","","html-keyboard-response","13","113192","0.0-1.0-14.0-0.0","0","0","63347","","null","","","null","1","","","1","1","training","adjacent","ED","5","4","Q.jpg","R.jpg","NaN","0","0","",""
"","too_slow_prompt","","html-keyboard-response","14","114198","0.0-1.0-16.0-0.0","1","0","63347","","null","","","null","","","","","","","","","","","","","","","","",""
"","time_out","","html-keyboard-response","15","116204","0.0-1.0-17.0-0.0","0","0","63347","","null","","","null","1","","","","","","","","","","","","","","","",""
"","ITI","","html-keyboard-response","16","117210","0.0-1.0-18.0","0","0","63347","","null","","","null","1","","","","","","","","","","","","","","","NaN",""
"","S1","","html-keyboard-response","17","117468","0.0-1.0-20.0","0","0","63347","","null","","","null","2","","","","","","","","","","","","","","","",""
"","ISI","","html-keyboard-response","18","118474","0.0-1.0-21.0","0","0","63347","","null","","","null","2","NaN","","","","","","","","","","","","","","",""
"","S2","","html-keyboard-response","19","118731","0.0-1.0-22.0","0","0","63347","","null","","","null","2","","NaN","","","","","","","","","","","","","",""
"","response","","html-keyboard-response","20","120487","0.0-1.0-23.0-0.0","0","0","63347","","null","","","null","2","","","1","2","training","adjacent","EF","5","6","Q.jpg","O.jpg","NaN","1","0","",""
"","too_slow_prompt","","html-keyboard-response","21","121494","0.0-1.0-25.0-0.0","1","0","63347","","null","","","null","","","","","","","","","","","","","","","","",""
"","time_out","","html-keyboard-response","22","123497","0.0-1.0-26.0-0.0","0","0","63347","","null","","","null","2","","","","","","","","","","","","","","","",""
"","ITI","","html-keyboard-response","23","124501","0.0-1.0-27.0","0","0","63347","","null","","","null","2","","","","","","","","","","","","","","","NaN",""
"","S1","","html-keyboard-response","24","124757","0.0-1.0-29.0","0","0","63347","","null","","","null","3","","","","","","","","","","","","","","","",""
"","ISI","","html-keyboard-response","25","125764","0.0-1.0-30.0","0","0","63347","","561","","","75","3","k","","","","","","","","","","","","","","",""
"","S2","","html-keyboard-response","26","126024","0.0-1.0-31.0","0","0","63347","","null","","","null","3","","NaN","","","","","","","","","","","","","",""
"","response","","html-keyboard-response","27","126540","0.0-1.0-32.0-0.0","0","0","63347","","508","","","75","3","","","1","3","training","adjacent","FG","6","7","O.jpg","N.jpg","1","1","1","",""
"","feedback","","html-keyboard-response","28","127545","0.0-1.0-33.0-0.0","0","0","63347","","null","","","null","3","","","","","","","","","","","","","","","",""
"","ITI","","html-keyboard-response","29","128551","0.0-1.0-36.0","0","0","63347","","null","","","null","3","","","","","","","","","","","","","","","NaN",""
"","S1","","html-keyboard-response","30","128807","0.0-1.0-38.0","0","0","63347","","null","","","null","4","","","","","","","","","","","","","","","",""
"","ISI","","html-keyboard-response","31","129812","0.0-1.0-39.0","0","0","63347","","null","","","null","4","NaN","","","","","","","","","","","","","","",""
"","S2","","html-keyboard-response","32","130065","0.0-1.0-40.0","0","0","63347","","null","","","null","4","","NaN","","","","","","","","","","","","","",""
"","response","","html-keyboard-response","33","130722","0.0-1.0-41.0-0.0","0","0","63347","","652","","","68","4","","","1","4","training","adjacent","DE","4","5","R.jpg","Q.jpg","0","1","0","",""
"","feedback","","html-keyboard-response","34","131728","0.0-1.0-42.0-0.0","0","0","63347","","null","","","null","4","","","","","","","","","","","","","","","",""
"","time_out","","html-keyboard-response","35","133734","0.0-1.0-44.0-0.0","0","0","63347","","null","","","null","4","","","","","","","","","","","","","","","",""
"","ITI","","html-keyboard-response","36","134737","0.0-1.0-45.0","0","0","63347","","null","","","null","4","","","","","","","","","","","","","","","NaN",""
"","S1","","html-keyboard-response","37","134992","0.0-1.0-47.0","0","0","63347","","null","","","null","5","","","","","","","","","","","","","","","",""
"","ISI","","html-keyboard-response","38","135997","0.0-1.0-48.0","0","0","63347","","null","","","null","5","NaN","","","","","","","","","","","","","","",""
"","S2","","html-keyboard-response","39","136257","0.0-1.0-49.0","0","0","63347","","null","","","null","5","","NaN","","","","","","","","","","","","","",""
"","response","","html-keyboard-response","40","136435","0.0-1.0-50.0-0.0","0","0","63347","","172","","","68","5","","","1","5","training","adjacent","ED","5","4","Q.jpg","R.jpg","0","0","1","",""
"","feedback","","html-keyboard-response","41","137441","0.0-1.0-51.0-0.0","0","0","63347","","null","","","null","5","","","","","","","","","","","","","","","",""
"","ITI","","html-keyboard-response","42","138446","0.0-1.0-54.0","0","0","63347","","null","","","null","5","","","","","","","","","","","","","","","NaN",""
"","S1","","html-keyboard-response","43","138702","0.0-1.0-56.0","0","0","63347","","null","","","null","6","","","","","","","","","","","","","","","",""
"","ISI","","html-keyboard-response","44","139705","0.0-1.0-57.0","0","0","63347","","null","","","null","6","NaN","","","","","","","","","","","","","","",""
"","S2","","html-keyboard-response","45","139959","0.0-1.0-58.0","0","0","63347","","null","","","null","6","","NaN","","","","","","","","","","","","","",""
"","response","","html-keyboard-response","46","140675","0.0-1.0-59.0-0.0","0","0","63347","","711","","","75","6","","","1","6","training","adjacent","CB","3","2","L.jpg","M.jpg","1","0","0","",""
"","feedback","","html-keyboard-response","47","141683","0.0-1.0-60.0-0.0","0","0","63347","","null","","","null","6","","","","","","","","","","","","","","","",""
"","time_out","","html-keyboard-response","48","143689","0.0-1.0-62.0-0.0","0","0","63347","","null","","","null","6","","","","","","","","","","","","","","","",""
"","ITI","","html-keyboard-response","49","144694","0.0-1.0-63.0","0","0","63347","","null","","","null","6","","","","","","","","","","","","","","","NaN",""
"","S1","","html-keyboard-response","50","144955","0.0-1.0-65.0","0","0","63347","","null","","","null","7","","","","","","","","","","","","","","","",""
"","ISI","","html-keyboard-response","51","145958","0.0-1.0-66.0","0","0","63347","","null","","","null","7","NaN","","","","","","","","","","","","","","",""
"","S2","","html-keyboard-response","52","146213","0.0-1.0-67.0","0","0","63347","","null","","","null","7","","NaN","","","","","","","","","","","","","",""
"","response","","html-keyboard-response","53","146694","0.0-1.0-68.0-0.0","0","0","63347","","477","","","75","7","","","1","7","training","adjacent","DC","4","3","R.jpg","L.jpg","1","0","0","",""
"","feedback","","html-keyboard-response","54","147699","0.0-1.0-69.0-0.0","0","0","63347","","null","","","null","7","","","","","","","","","","","","","","","",""
"","time_out","","html-keyboard-response","55","149706","0.0-1.0-71.0-0.0","0","0","63347","","null","","","null","7","","","","","","","","","","","","","","","",""
"","ITI","","html-keyboard-response","56","150711","0.0-1.0-72.0","0","0","63347","","null","","","null","7","","","","","","","","","","","","","","","NaN",""
"","S1","","html-keyboard-response","57","150967","0.0-1.0-74.0","0","0","63347","","null","","","null","8","","","","","","","","","","","","","","","",""
"","ISI","","html-keyboard-response","58","151972","0.0-1.0-75.0","0","0","63347","","null","","","null","8","NaN","","","","","","","","","","","","","","",""
"","S2","","html-keyboard-response","59","152228","0.0-1.0-76.0","0","0","63347","","null","","","null","8","","NaN","","","","","","","","","","","","","",""
"","response","","html-keyboard-response","60","152992","0.0-1.0-77.0-0.0","0","0","63347","","761","","","75","8","","","1","8","training","adjacent","FE","6","5","O.jpg","Q.jpg","1","0","0","",""
"","feedback","","html-keyboard-response","61","153997","0.0-1.0-78.0-0.0","0","0","63347","","null","","","null","8","","","","","","","","","","","","","","","",""
"","time_out","","html-keyboard-response","62","156002","0.0-1.0-80.0-0.0","0","0","63347","","null","","","null","8","","","","","","","","","","","","","","","",""
"","ITI","","html-keyboard-response","63","157007","0.0-1.0-81.0","0","0","63347","","null","","","null","8","","","","","","","","","","","","","","","NaN",""
"","S1","","html-keyboard-response","64","157265","0.0-1.0-83.0","0","0","63347","","null","","","null","9","","","","","","","","","","","","","","","",""
"","ISI","","html-keyboard-response","65","158271","0.0-1.0-84.0","0","0","63347","","null","","","null","9","NaN","","","","","","","","","","","","","","",""
"","S2","","html-keyboard-response","66","158529","0.0-1.0-85.0","0","0","63347","","null","","","null","9","","NaN","","","","","","","","","","","","","",""
"","response","","html-keyboard-response","67","158763","0.0-1.0-86.0-0.0","0","0","63347","","228","","","68","9","","","1","9","training","adjacent","EF","5","6","Q.jpg","O.jpg","0","1","0","",""
"","feedback","","html-keyboard-response","68","159770","0.0-1.0-87.0-0.0","0","0","63347","","null","","","null","9","","","","","","","","","","","","","","","",""
"","time_out","","html-keyboard-response","69","161778","0.0-1.0-89.0-0.0","0","0","63347","","null","","","null","9","","","","","","","","","","","","","","","",""
"","ITI","","html-keyboard-response","70","162784","0.0-1.0-90.0","0","0","63347","","null","","","null","9","","","","","","","","","","","","","","","NaN",""
"","S1","","html-keyboard-response","71","163038","0.0-1.0-92.0","0","0","63347","","null","","","null","10","","","","","","","","","","","","","","","",""
"","ISI","","html-keyboard-response","72","164043","0.0-1.0-93.0","0","0","63347","","null","","","null","10","NaN","","","","","","","","","","","","","","",""
"","S2","","html-keyboard-response","73","164300","0.0-1.0-94.0","0","0","63347","","null","","","null","10","","NaN","","","","","","","","","","","","","",""
"","response","","html-keyboard-response","74","164547","0.0-1.0-95.0-0.0","0","0","63347","","241","","","68","10","","","1","10","training","adjacent","FG","6","7","O.jpg","N.jpg","0","1","0","",""
"","feedback","","html-keyboard-response","75","165554","0.0-1.0-96.0-0.0","0","0","63347","","null","","","null","10","","","","","","","","","","","","","","","",""
"","time_out","","html-keyboard-response","76","167560","0.0-1.0-98.0-0.0","0","0","63347","","null","","","null","10","","","","","","","","","","","","","","","",""
"","ITI","","html-keyboard-response","77","168566","0.0-1.0-99.0","0","0","63347","","null","","","null","10","","","","","","","","","","","","","","","NaN",""
"","S1","","html-keyboard-response","78","168824","0.0-1.0-101.0","0","0","63347","","null","","","null","11","","","","","","","","","","","","","","","",""
"","ISI","","html-keyboard-response","79","169827","0.0-1.0-102.0","0","0","63347","","null","","","null","11","NaN","","","","","","","","","","","","","","",""
"","S2","","html-keyboard-response","80","170081","0.0-1.0-103.0","0","0","63347","","null","","","null","11","","NaN","","","","","","","","","","","","","",""
"","response","","html-keyboard-response","81","170291","0.0-1.0-104.0-0.0","0","0","63347","","204","","","68","11","","","1","11","training","adjacent","GF","7","6","N.jpg","O.jpg","0","0","1","",""
"","feedback","","html-keyboard-response","82","171297","0.0-1.0-105.0-0.0","0","0","63347","","null","","","null","11","","","","","","","","","","","","","","","",""
"","ITI","","html-keyboard-response","83","172305","0.0-1.0-108.0","0","0","63347","","null","","","null","11","","","","","","","","","","","","","","","NaN",""
"","S1","","html-keyboard-response","84","172558","0.0-1.0-110.0","0","0","63347","","null","","","null","12","","","","","","","","","","","","","","","",""
"","ISI","","html-keyboard-response","85","173563","0.0-1.0-111.0","0","0","63347","","null","","","null","12","NaN","","","","","","","","","","","","","","",""
"","S2","","html-keyboard-response","86","173821","0.0-1.0-112.0","0","0","63347","","null","","","null","12","","NaN","","","","","","","","","","","","","",""
"","response","","html-keyboard-response","87","174162","0.0-1.0-113.0-0.0","0","0","63347","","335","","","75","12","","","1","12","training","adjacent","CB","3","2","L.jpg","M.jpg","1","0","0","",""
"","feedback","","html-keyboard-response","88","175170","0.0-1.0-114.0-0.0","0","0","63347","","null","","","null","12","","","","","","","","","","","","","","","",""
"","time_out","","html-keyboard-response","89","177176","0.0-1.0-116.0-0.0","0","0","63347","","null","","","null","12","","","","","","","","","","","","","","","",""
"","ITI","","html-keyboard-response","90","178182","0.0-1.0-117.0","0","0","63347","","null","","","null","12","","","","","","","","","","","","","","","NaN",""
"","S1","","html-keyboard-response","91","178438","0.0-1.0-119.0","0","0","63347","","null","","","null","13","","","","","","","","","","","","","","","",""
"","ISI","","html-keyboard-response","92","179443","0.0-1.0-120.0","0","0","63347","","null","","","null","13","NaN","","","","","","","","","","","","","","",""
"","S2","","html-keyboard-response","93","179700","0.0-1.0-121.0","0","0","63347","","null","","","null","13","","NaN","","","","","","","","","","","","","",""
"","response","","html-keyboard-response","94","180514","0.0-1.0-122.0-0.0","0","0","63347","","809","","","68","13","","","1","13","training","adjacent","FG","6","7","O.jpg","N.jpg","0","1","0","",""
"","feedback","","html-keyboard-response","95","181522","0.0-1.0-123.0-0.0","0","0","63347","","null","","","null","13","","","","","","","","","","","","","","","",""
"","time_out","","html-keyboard-response","96","183526","0.0-1.0-125.0-0.0","0","0","63347","","null","","","null","13","","","","","","","","","","","","","","","",""
"","ITI","","html-keyboard-response","97","184530","0.0-1.0-126.0","0","0","63347","","null","","","null","13","","","","","","","","","","","","","","","NaN",""
"","S1","","html-keyboard-response","98","184785","0.0-1.0-128.0","0","0","63347","","null","","","null","14","","","","","","","","","","","","","","","",""
"","ISI","","html-keyboard-response","99","185790","0.0-1.0-129.0","0","0","63347","","null","","","null","14","NaN","","","","","","","","","","","","","","",""
"","S2","","html-keyboard-response","100","186047","0.0-1.0-130.0","0","0","63347","","null","","","null","14","","NaN","","","","","","","","","","","","","",""
"","response","","html-keyboard-response","101","186362","0.0-1.0-131.0-0.0","0","0","63347","","310","","","68","14","","","1","14","training","adjacent","DE","4","5","R.jpg","Q.jpg","0","1","0","",""
"","feedback","","html-keyboard-response","102","187368","0.0-1.0-132.0-0.0","0","0","63347","","null","","","null","14","","","","","","","","","","","","","","","",""
"","time_out","","html-keyboard-response","103","189374","0.0-1.0-134.0-0.0","0","0","63347","","null","","","null","14","","","","","","","","","","","","","","","",""
"","ITI","","html-keyboard-response","104","190376","0.0-1.0-135.0","0","0","63347","","null","","","null","14","","","","","","","","","","","","","","","NaN",""
"","S1","","html-keyboard-response","105","190633","0.0-1.0-137.0","0","0","63347","","null","","","null","15","","","","","","","","","","","","","","","",""
"","ISI","","html-keyboard-response","106","191636","0.0-1.0-138.0","0","0","63347","","null","","","null","15","NaN","","","","","","","","","","","","","","",""
"","S2","","html-keyboard-response","107","191901","0.0-1.0-139.0","0","0","63347","","null","","","null","15","","NaN","","","","","","","","","","","","","",""
"","response","","html-keyboard-response","108","192090","0.0-1.0-140.0-0.0","0","0","63347","","184","","","75","15","","","1","15","training","adjacent","FE","6","5","O.jpg","Q.jpg","1","0","0","",""
"","feedback","","html-keyboard-response","109","193096","0.0-1.0-141.0-0.0","0","0","63347","","null","","","null","15","","","","","","","","","","","","","","","",""
"","time_out","","html-keyboard-response","110","195102","0.0-1.0-143.0-0.0","0","0","63347","","null","","","null","15","","","","","","","","","","","","","","","",""
"","ITI","","html-keyboard-response","111","196106","0.0-1.0-144.0","0","0","63347","","null","","","null","15","","","","","","","","","","","","","","","NaN",""
"","S1","","html-keyboard-response","112","196362","0.0-1.0-146.0","0","0","63347","","null","","","null","16","","","","","","","","","","","","","","","",""
"","ISI","","html-keyboard-response","113","197368","0.0-1.0-147.0","0","0","63347","","null","","","null","16","NaN","","","","","","","","","","","","","","",""
"","S2","","html-keyboard-response","114","197623","0.0-1.0-148.0","0","0","63347","","null","","","null","16","","NaN","","","","","","","","","","","","","",""
"","response","","html-keyboard-response","115","198141","0.0-1.0-149.0-0.0","0","0","63347","","516","","","68","16","","","1","16","training","adjacent","AB","1","2","P.jpg","M.jpg","0","1","0","",""
"","feedback","","html-keyboard-response","116","199147","0.0-1.0-150.0-0.0","0","0","63347","","null","","","null","16","","","","","","","","","","","","","","","",""
"","time_out","","html-keyboard-response","117","201151","0.0-1.0-152.0-0.0","0","0","63347","","null","","","null","16","","","","","","","","","","","","","","","",""
"","ITI","","html-keyboard-response","118","202156","0.0-1.0-153.0","0","0","63347","","null","","","null","16","","","","","","","","","","","","","","","NaN",""
"","S1","","html-keyboard-response","119","202412","0.0-1.0-155.0","0","0","63347","","null","","","null","17","","","","","","","","","","","","","","","",""
"","ISI","","html-keyboard-response","120","203418","0.0-1.0-156.0","0","0","63347","","null","","","null","17","NaN","","","","","","","","","","","","","","",""
"","S2","","html-keyboard-response","121","203675","0.0-1.0-157.0","0","0","63347","","null","","","null","17","","NaN","","","","","","","","","","","","","",""
"","response","","html-keyboard-response","122","203738","0.0-1.0-158.0-0.0","0","0","63347","","56","","","68","17","","","1","17","training","adjacent","BA","2","1","M.jpg","P.jpg","0","0","1","",""
"","feedback","","html-keyboard-response","123","204743","0.0-1.0-159.0-0.0","0","0","63347","","null","","","null","17","","","","","","","","","","","","","","","",""
"","ITI","","html-keyboard-response","124","205749","0.0-1.0-162.0","0","0","63347","","null","","","null","17","","","","","","","","","","","","","","","NaN",""
"","S1","","html-keyboard-response","125","206006","0.0-1.0-164.0","0","0","63347","","null","","","null","18","","","","","","","","","","","","","","","",""
"","ISI","","html-keyboard-response","126","207012","0.0-1.0-165.0","0","0","63347","","null","","","null","18","NaN","","","","","","","","","","","","","","",""
"","S2","","html-keyboard-response","127","207283","0.0-1.0-166.0","0","0","63347","","null","","","null","18","","NaN","","","","","","","","","","","","","",""
"","response","","html-keyboard-response","128","207922","0.0-1.0-167.0-0.0","0","0","63347","","633","","","68","18","","","1","18","training","adjacent","FE","6","5","O.jpg","Q.jpg","0","0","1","",""
"","feedback","","html-keyboard-response","129","208930","0.0-1.0-168.0-0.0","0","0","63347","","null","","","null","18","","","","","","","","","","","","","","","",""
"","ITI","","html-keyboard-response","130","209936","0.0-1.0-171.0","0","0","63347","","null","","","null","18","","","","","","","","","","","","","","","NaN",""
"","S1","","html-keyboard-response","131","210191","0.0-1.0-173.0","0","0","63347","","null","","","null","19","","","","","","","","","","","","","","","",""
"","ISI","","html-keyboard-response","132","211196","0.0-1.0-174.0","0","0","63347","","null","","","null","19","NaN","","","","","","","","","","","","","","",""
"","S2","","html-keyboard-response","133","211454","0.0-1.0-175.0","0","0","63347","","null","","","null","19","","NaN","","","","","","","","","","","","","",""
"","response","","html-keyboard-response","134","211722","0.0-1.0-176.0-0.0","0","0","63347","","263","","","75","19","","","1","19","training","adjacent","EF","5","6","Q.jpg","O.jpg","1","1","1","",""
"","feedback","","html-keyboard-response","135","212729","0.0-1.0-177.0-0.0","0","0","63347","","null","","","null","19","","","","","","","","","","","","","","","",""
"","ITI","","html-keyboard-response","136","213735","0.0-1.0-180.0","0","0","63347","","null","","","null","19","","","","","","","","","","","","","","","NaN",""
"","S1","","html-keyboard-response","137","213989","0.0-1.0-182.0","0","0","63347","","null","","","null","20","","","","","","","","","","","","","","","",""
"","ISI","","html-keyboard-response","138","214994","0.0-1.0-183.0","0","0","63347","","null","","","null","20","NaN","","","","","","","","","","","","","","",""
"","S2","","html-keyboard-response","139","215253","0.0-1.0-184.0","0","0","63347","","null","","","null","20","","NaN","","","","","","","","","","","","","",""
"","response","","html-keyboard-response","140","215398","0.0-1.0-185.0-0.0","0","0","63347","","142","","","75","20","","","1","20","training","adjacent","DE","4","5","R.jpg","Q.jpg","1","1","1","",""
"","feedback","","html-keyboard-response","141","216404","0.0-1.0-186.0-0.0","0","0","63347","","null","","","null","20","","","","","","","","","","","","","","","",""
"","ITI","","html-keyboard-response","142","217410","0.0-1.0-189.0","0","0","63347","","null","","","null","20","","","","","","","","","","","","","","","NaN",""
"","S1","","html-keyboard-response","143","217664","0.0-1.0-191.0","0","0","63347","","null","","","null","21","","","","","","","","","","","","","","","",""
"","ISI","","html-keyboard-response","144","218666","0.0-1.0-192.0","0","0","63347","","null","","","null","21","NaN","","","","","","","","","","","","","","",""
"","S2","","html-keyboard-response","145","218878","0.0-1.0-193.0","0","0","63347","","209","","","68","21","","d","1","21","training","adjacent","GF","7","6","N.jpg","O.jpg","0","0","1","",""
"","feedback","","html-keyboard-response","146","219883","0.0-1.0-195.0-0.0","0","0","63347","","null","","","null","21","","","","","","","","","","","","","","","",""
"","ITI","","html-keyboard-response","147","220888","0.0-1.0-198.0","0","0","63347","","null","","","null","21","","","","","","","","","","","","","","","NaN",""
"","S1","","html-keyboard-response","148","221143","0.0-1.0-200.0","0","0","63347","","null","","","null","22","","","","","","","","","","","","","","","",""
"","ISI","","html-keyboard-response","149","222150","0.0-1.0-201.0","0","0","63347","","null","","","null","22","NaN","","","","","","","","","","","","","","",""
"","S2","","html-keyboard-response","150","222408","0.0-1.0-202.0","0","0","63347","","null","","","null","22","","NaN","","","","","","","","","","","","","",""
"","response","","html-keyboard-response","151","222730","0.0-1.0-203.0-0.0","0","0","63347","","316","","","68","22","","","1","22","training","adjacent","BA","2","1","M.jpg","P.jpg","0","0","1","",""
"","feedback","","html-keyboard-response","152","223737","0.0-1.0-204.0-0.0","0","0","63347","","null","","","null","22","","","","","","","","","","","","","","","",""
"","ITI","","html-keyboard-response","153","224743","0.0-1.0-207.0","0","0","63347","","null","","","null","22","","","","","","","","","","","","","","","NaN",""
"","S1","","html-keyboard-response","154","224997","0.0-1.0-209.0","0","0","63347","","null","","","null","23","","","","","","","","","","","","","","","",""
"","ISI","","html-keyboard-response","155","226002","0.0-1.0-210.0","0","0","63347","","null","","","null","23","NaN","","","","","","","","","","","","","","",""
"","S2","","html-keyboard-response","156","226260","0.0-1.0-211.0","0","0","63347","","null","","","null","23","","NaN","","","","","","","","","","","","","",""
"","response","","html-keyboard-response","157","226514","0.0-1.0-212.0-0.0","0","0","63347","","249","","","68","23","","","1","23","training","adjacent","GF","7","6","N.jpg","O.jpg","0","0","1","",""
"","feedback","","html-keyboard-response","158","227521","0.0-1.0-213.0-0.0","0","0","63347","","null","","","null","23","","","","","","","","","","","","","","","",""
"","ITI","","html-keyboard-response","159","228526","0.0-1.0-216.0","0","0","63347","","null","","","null","23","","","","","","","","","","","","","","","NaN",""
"","S1","","html-keyboard-response","160","228781","0.0-1.0-218.0","0","0","63347","","null","","","null","24","","","","","","","","","","","","","","","",""
"","ISI","","html-keyboard-response","161","229786","0.0-1.0-219.0","0","0","63347","","null","","","null","24","NaN","","","","","","","","","","","","","","",""
"","S2","","html-keyboard-response","162","230044","0.0-1.0-220.0","0","0","63347","","null","","","null","24","","NaN","","","","","","","","","","","","","",""
"","response","","html-keyboard-response","163","230617","0.0-1.0-221.0-0.0","0","0","63347","","568","","","75","24","","","1","24","training","adjacent","AB","1","2","P.jpg","M.jpg","1","1","1","",""
"","feedback","","html-keyboard-response","164","231623","0.0-1.0-222.0-0.0","0","0","63347","","null","","","null","24","","","","","","","","","","","","","","","",""
"","ITI","","html-keyboard-response","165","232626","0.0-1.0-225.0","0","0","63347","","null","","","null","24","","","","","","","","","","","","","","","NaN",""
"","S1","","html-keyboard-response","166","232880","0.0-1.0-227.0","0","0","63347","","null","","","null","25","","","","","","","","","","","","","","","",""
"","ISI","","html-keyboard-response","167","233885","0.0-1.0-228.0","0","0","63347","","null","","","null","25","NaN","","","","","","","","","","","","","","",""
"","S2","","html-keyboard-response","168","234140","0.0-1.0-229.0","0","0","63347","","null","","","null","25","","NaN","","","","","","","","","","","","","",""
"","response","","html-keyboard-response","169","234265","0.0-1.0-230.0-0.0","0","0","63347","","122","","","68","25","","","1","25","training","adjacent","CD","3","4","L.jpg","R.jpg","0","1","0","",""
"","feedback","","html-keyboard-response","170","235270","0.0-1.0-231.0-0.0","0","0","63347","","null","","","null","25","","","","","","","","","","","","","","","",""
"","time_out","","html-keyboard-response","171","237274","0.0-1.0-233.0-0.0","0","0","63347","","null","","","null","25","","","","","","","","","","","","","","","",""
"","ITI","","html-keyboard-response","172","238281","0.0-1.0-234.0","0","0","63347","","null","","","null","25","","","","","","","","","","","","","","","NaN",""
"","S1","","html-keyboard-response","173","238537","0.0-1.0-236.0","0","0","63347","","null","","","null","26","","","","","","","","","","","","","","","",""
"","ISI","","html-keyboard-response","174","239555","0.0-1.0-237.0","0","0","63347","","null","","","null","26","NaN","","","","","","","","","","","","","","",""
"","S2","","html-keyboard-response","175","239810","0.0-1.0-238.0","0","0","63347","","null","","","null","26","","NaN","","","","","","","","","","","","","",""
"","response","","html-keyboard-response","176","239978","0.0-1.0-239.0-0.0","0","0","63347","","163","","","68","26","","","1","26","training","adjacent","AB","1","2","P.jpg","M.jpg","0","1","0","",""
"","feedback","","html-keyboard-response","177","240985","0.0-1.0-240.0-0.0","0","0","63347","","null","","","null","26","","","","","","","","","","","","","","","",""
"","time_out","","html-keyboard-response","178","242990","0.0-1.0-242.0-0.0","0","0","63347","","null","","","null","26","","","","","","","","","","","","","","","",""
"","ITI","","html-keyboard-response","179","243997","0.0-1.0-243.0","0","0","63347","","null","","","null","26","","","","","","","","","","","","","","","NaN",""
"","S1","","html-keyboard-response","180","244254","0.0-1.0-245.0","0","0","63347","","null","","","null","27","","","","","","","","","","","","","","","",""
"","ISI","","html-keyboard-response","181","245257","0.0-1.0-246.0","0","0","63347","","767","","","68","27","d","","","","","","","","","","","","","","",""
"","S2","","html-keyboard-response","182","245510","0.0-1.0-247.0","0","0","63347","","null","","","null","27","","NaN","","","","","","","","","","","","","",""
"","response","","html-keyboard-response","183","245746","0.0-1.0-248.0-0.0","0","0","63347","","231","","","68","27","","","1","27","training","adjacent","DE","4","5","R.jpg","Q.jpg","0","1","0","",""
"","feedback","","html-keyboard-response","184","246753","0.0-1.0-249.0-0.0","0","0","63347","","null","","","null","27","","","","","","","","","","","","","","","",""
"","time_out","","html-keyboard-response","185","248760","0.0-1.0-251.0-0.0","0","0","63347","","null","","","null","27","","","","","","","","","","","","","","","",""
"","ITI","","html-keyboard-response","186","249766","0.0-1.0-252.0","0","0","63347","","null","","","null","27","","","","","","","","","","","","","","","NaN",""
"","S1","","html-keyboard-response","187","250021","0.0-1.0-254.0","0","0","63347","","null","","","null","28","","","","","","","","","","","","","","","",""
"","ISI","","html-keyboard-response","188","251027","0.0-1.0-255.0","0","0","63347","","null","","","null","28","NaN","","","","","","","","","","","","","","",""
"","S2","","html-keyboard-response","189","251282","0.0-1.0-256.0","0","0","63347","","null","","","null","28","","NaN","","","","","","","","","","","","","",""
"","response","","html-keyboard-response","190","251443","0.0-1.0-257.0-0.0","0","0","63347","","156","","","75","28","","","1","28","training","adjacent","ED","5","4","Q.jpg","R.jpg","1","0","0","",""
"","feedback","","html-keyboard-response","191","252451","0.0-1.0-258.0-0.0","0","0","63347","","null","","","null","28","","","","","","","","","","","","","","","",""
"","time_out","","html-keyboard-response","192","254454","0.0-1.0-260.0-0.0","0","0","63347","","null","","","null","28","","","","","","","","","","","","","","","",""
"","ITI","","html-keyboard-response","193","255461","0.0-1.0-261.0","0","0","63347","","null","","","null","28","","","","","","","","","","","","","","","NaN",""
"","S1","","html-keyboard-response","194","255715","0.0-1.0-263.0","0","0","63347","","null","","","null","29","","","","","","","","","","","","","","","",""
"","ISI","","html-keyboard-response","195","256717","0.0-1.0-264.0","0","0","63347","","332","","","68","29","d","","","","","","","","","","","","","","",""
"","S2","","html-keyboard-response","196","256973","0.0-1.0-265.0","0","0","63347","","null","","","null","29","","NaN","","","","","","","","","","","","","",""
"","response","","html-keyboard-response","197","257338","0.0-1.0-266.0-0.0","0","0","63347","","360","","","68","29","","","1","29","training","adjacent","CD","3","4","L.jpg","R.jpg","0","1","0","",""
"","feedback","","html-keyboard-response","198","258346","0.0-1.0-267.0-0.0","0","0","63347","","null","","","null","29","","","","","","","","","","","","","","","",""
"","time_out","","html-keyboard-response","199","260353","0.0-1.0-269.0-0.0","0","0","63347","","null","","","null","29","","","","","","","","","","","","","","","",""
"","ITI","","html-keyboard-response","200","261359","0.0-1.0-270.0","0","0","63347","","356","","","75","29","","","","","","","","","","","","","","","k",""
"","S1","","html-keyboard-response","201","261616","0.0-1.0-272.0","0","0","63347","","null","","","null","30","","","","","","","","","","","","","","","",""
"","ISI","","html-keyboard-response","202","262622","0.0-1.0-273.0","0","0","63347","","126","","","75","30","k","","","","","","","","","","","","","","",""
"","S2","","html-keyboard-response","203","262880","0.0-1.0-274.0","0","0","63347","","null","","","null","30","","NaN","","","","","","","","","","","","","",""
"","response","","html-keyboard-response","204","262896","0.0-1.0-275.0-0.0","0","0","63347","","11","","","75","30","","","1","30","training","adjacent","BC","2","3","M.jpg","L.jpg","1","1","1","",""
"","feedback","","html-keyboard-response","205","263900","0.0-1.0-276.0-0.0","0","0","63347","","null","","","null","30","","","","","","","","","","","","","","","",""
"","ITI","","html-keyboard-response","206","264905","0.0-1.0-279.0","0","0","63347","","null","","","null","30","","","","","","","","","","","","","","","NaN",""
"","S1","","html-keyboard-response","207","265161","0.0-1.0-281.0","0","0","63347","","null","","","null","31","","","","","","","","","","","","","","","",""
"","ISI","","html-keyboard-response","208","266164","0.0-1.0-282.0","0","0","63347","","null","","","null","31","NaN","","","","","","","","","","","","","","",""
"","S2","","html-keyboard-response","209","266425","0.0-1.0-283.0","0","0","63347","","null","","","null","31","","NaN","","","","","","","","","","","","","",""
"","response","","html-keyboard-response","210","266531","0.0-1.0-284.0-0.0","0","0","63347","","100","","","68","31","","","1","31","training","adjacent","BA","2","1","M.jpg","P.jpg","0","0","1","",""
"","feedback","","html-keyboard-response","211","267538","0.0-1.0-285.0-0.0","0","0","63347","","null","","","null","31","","","","","","","","","","","","","","","",""
"","ITI","","html-keyboard-response","212","268544","0.0-1.0-288.0","0","0","63347","","null","","","null","31","","","","","","","","","","","","","","","NaN",""
"","S1","","html-keyboard-response","213","268801","0.0-1.0-290.0","0","0","63347","","null","","","null","32","","","","","","","","","","","","","","","",""
"","ISI","","html-keyboard-response","214","269807","0.0-1.0-291.0","0","0","63347","","null","","","null","32","NaN","","","","","","","","","","","","","","",""
"","S2","","html-keyboard-response","215","270035","0.0-1.0-292.0","0","0","63347","","220","","","68","32","","d","1","32","training","adjacent","CB","3","2","L.jpg","M.jpg","0","0","1","",""
"","feedback","","html-keyboard-response","216","271042","0.0-1.0-294.0-0.0","0","0","63347","","null","","","null","32","","","","","","","","","","","","","","","",""
"","ITI","","html-keyboard-response","217","272048","0.0-1.0-297.0","0","0","63347","","null","","","null","32","","","","","","","","","","","","","","","NaN",""
"","S1","","html-keyboard-response","218","272304","0.0-1.0-299.0","0","0","63347","","null","","","null","33","","","","","","","","","","","","","","","",""
"","ISI","","html-keyboard-response","219","273311","0.0-1.0-300.0","0","0","63347","","null","","","null","33","NaN","","","","","","","","","","","","","","",""
"","S2","","html-keyboard-response","220","273568","0.0-1.0-301.0","0","0","63347","","null","","","null","33","","NaN","","","","","","","","","","","","","",""
"","response","","html-keyboard-response","221","274107","0.0-1.0-302.0-0.0","0","0","63347","","532","","","68","33","","","1","33","training","adjacent","FG","6","7","O.jpg","N.jpg","0","1","0","",""
"","feedback","","html-keyboard-response","222","275114","0.0-1.0-303.0-0.0","0","0","63347","","null","","","null","33","","","","","","","","","","","","","","","",""
"","time_out","","html-keyboard-response","223","277120","0.0-1.0-305.0-0.0","0","0","63347","","null","","","null","33","","","","","","","","","","","","","","","",""
"","ITI","","html-keyboard-response","224","278123","0.0-1.0-306.0","0","0","63347","","null","","","null","33","","","","","","","","","","","","","","","NaN",""
"","S1","","html-keyboard-response","225","278378","0.0-1.0-308.0","0","0","63347","","null","","","null","34","","","","","","","","","","","","","","","",""
"","ISI","","html-keyboard-response","226","279384","0.0-1.0-309.0","0","0","63347","","null","","","null","34","NaN","","","","","","","","","","","","","","",""
"","S2","","html-keyboard-response","227","279642","0.0-1.0-310.0","0","0","63347","","null","","","null","34","","NaN","","","","","","","","","","","","","",""
"","response","","html-keyboard-response","228","279975","0.0-1.0-311.0-0.0","0","0","63347","","329","","","75","34","","","1","34","training","adjacent","GF","7","6","N.jpg","O.jpg","1","0","0","",""
"","feedback","","html-keyboard-response","229","280981","0.0-1.0-312.0-0.0","0","0","63347","","null","","","null","34","","","","","","","","","","","","","","","",""
"","time_out","","html-keyboard-response","230","282984","0.0-1.0-314.0-0.0","0","0","63347","","null","","","null","34","","","","","","","","","","","","","","","",""
"","ITI","","html-keyboard-response","231","283989","0.0-1.0-315.0","0","0","63347","","null","","","null","34","","","","","","","","","","","","","","","NaN",""
"","S1","","html-keyboard-response","232","284245","0.0-1.0-317.0","0","0","63347","","null","","","null","35","","","","","","","","","","","","","","","",""
"","ISI","","html-keyboard-response","233","285251","0.0-1.0-318.0","0","0","63347","","129","","","68","35","d","","","","","","","","","","","","","","",""
"","S2","","html-keyboard-response","234","285509","0.0-1.0-319.0","0","0","63347","","null","","","null","35","","NaN","","","","","","","","","","","","","",""
"","response","","html-keyboard-response","235","285556","0.0-1.0-320.0-0.0","0","0","63347","","40","","","68","35","","","1","35","training","adjacent","DC","4","3","R.jpg","L.jpg","0","0","1","",""
"","feedback","","html-keyboard-response","236","286563","0.0-1.0-321.0-0.0","0","0","63347","","null","","","null","35","","","","","","","","","","","","","","","",""
"","ITI","","html-keyboard-response","237","287568","0.0-1.0-324.0","0","0","63347","","null","","","null","35","","","","","","","","","","","","","","","NaN",""
"","S1","","html-keyboard-response","238","287825","0.0-1.0-326.0","0","0","63347","","null","","","null","36","","","","","","","","","","","","","","","",""
"","ISI","","html-keyboard-response","239","288830","0.0-1.0-327.0","0","0","63347","","null","","","null","36","NaN","","","","","","","","","","","","","","",""
"","S2","","html-keyboard-response","240","289088","0.0-1.0-328.0","0","0","63347","","null","","","null","36","","NaN","","","","","","","","","","","","","",""
"","response","","html-keyboard-response","241","289218","0.0-1.0-329.0-0.0","0","0","63347","","124","","","68","36","","","1","36","training","adjacent","DC","4","3","R.jpg","L.jpg","0","0","1","",""
"","feedback","","html-keyboard-response","242","290225","0.0-1.0-330.0-0.0","0","0","63347","","null","","","null","36","","","","","","","","","","","","","","","",""
"","ITI","","html-keyboard-response","243","291231","0.0-1.0-333.0","0","0","63347","","null","","","null","36","","","","","","","","","","","","","","","NaN",""
"","S1","","html-keyboard-response","244","291486","0.0-1.0-335.0","0","0","63347","","null","","","null","37","","","","","","","","","","","","","","","",""
"","ISI","","html-keyboard-response","245","292491","0.0-1.0-336.0","0","0","63347","","null","","","null","37","NaN","","","","","","","","","","","","","","",""
"","S2","","html-keyboard-response","246","292748","0.0-1.0-337.0","0","0","63347","","null","","","null","37","","NaN","","","","","","","","","","","","","",""
"","response","","html-keyboard-response","247","292946","0.0-1.0-338.0-0.0","0","0","63347","","192","","","68","37","","","1","37","training","adjacent","ED","5","4","Q.jpg","R.jpg","0","0","1","",""
"","feedback","","html-keyboard-response","248","293953","0.0-1.0-339.0-0.0","0","0","63347","","null","","","null","37","","","","","","","","","","","","","","","",""
"","ITI","","html-keyboard-response","249","294959","0.0-1.0-342.0","0","0","63347","","null","","","null","37","","","","","","","","","","","","","","","NaN",""
"","S1","","html-keyboard-response","250","295214","0.0-1.0-344.0","0","0","63347","","null","","","null","38","","","","","","","","","","","","","","","",""
"","ISI","","html-keyboard-response","251","296218","0.0-1.0-345.0","0","0","63347","","null","","","null","38","NaN","","","","","","","","","","","","","","",""
"","S2","","html-keyboard-response","252","296473","0.0-1.0-346.0","0","0","63347","","null","","","null","38","","NaN","","","","","","","","","","","","","",""
"","response","","html-keyboard-response","253","296649","0.0-1.0-347.0-0.0","0","0","63347","","171","","","68","38","","","1","38","training","adjacent","CD","3","4","L.jpg","R.jpg","0","1","0","",""
"","feedback","","html-keyboard-response","254","297655","0.0-1.0-348.0-0.0","0","0","63347","","null","","","null","38","","","","","","","","","","","","","","","",""
"","time_out","","html-keyboard-response","255","299661","0.0-1.0-350.0-0.0","0","0","63347","","null","","","null","38","","","","","","","","","","","","","","","",""
"","ITI","","html-keyboard-response","256","300666","0.0-1.0-351.0","0","0","63347","","null","","","null","38","","","","","","","","","","","","","","","NaN",""
"","S1","","html-keyboard-response","257","300923","0.0-1.0-353.0","0","0","63347","","null","","","null","39","","","","","","","","","","","","","","","",""
"","ISI","","html-keyboard-response","258","301929","0.0-1.0-354.0","0","0","63347","","203","","","75","39","k","","","","","","","","","","","","","","",""
"","S2","","html-keyboard-response","259","302186","0.0-1.0-355.0","0","0","63347","","null","","","null","39","","NaN","","","","","","","","","","","","","",""
"","response","","html-keyboard-response","260","302620","0.0-1.0-356.0-0.0","0","0","63347","","427","","","75","39","","","1","39","training","adjacent","DC","4","3","R.jpg","L.jpg","1","0","0","",""
"","feedback","","html-keyboard-response","261","303626","0.0-1.0-357.0-0.0","0","0","63347","","null","","","null","39","","","","","","","","","","","","","","","",""
"","time_out","","html-keyboard-response","262","305631","0.0-1.0-359.0-0.0","0","0","63347","","null","","","null","39","","","","","","","","","","","","","","","",""
"","ITI","","html-keyboard-response","263","306636","0.0-1.0-360.0","0","0","63347","","null","","","null","39","","","","","","","","","","","","","","","NaN",""
"","S1","","html-keyboard-response","264","306892","0.0-1.0-362.0","0","0","63347","","null","","","null","40","","","","","","","","","","","","","","","",""
"","ISI","","html-keyboard-response","265","307897","0.0-1.0-363.0","0","0","63347","","null","","","null","40","NaN","","","","","","","","","","","","","","",""
"","S2","","html-keyboard-response","266","308155","0.0-1.0-364.0","0","0","63347","","null","","","null","40","","NaN","","","","","","","","","","","","","",""
"","response","","html-keyboard-response","267","309763","0.0-1.0-365.0-0.0","0","0","63347","","1601","","","68","40","","","1","40","training","adjacent","FE","6","5","O.jpg","Q.jpg","0","0","1","",""
"","feedback","","html-keyboard-response","268","310770","0.0-1.0-366.0-0.0","0","0","63347","","null","","","null","40","","","","","","","","","","","","","","","",""
"","ITI","","html-keyboard-response","269","311776","0.0-1.0-369.0","0","0","63347","","null","","","null","40","","","","","","","","","","","","","","","NaN",""
"","S1","","html-keyboard-response","270","312031","0.0-1.0-371.0","0","0","63347","","null","","","null","41","","","","","","","","","","","","","","","",""
"","ISI","","html-keyboard-response","271","313036","0.0-1.0-372.0","0","0","63347","","null","","","null","41","NaN","","","","","","","","","","","","","","",""
"","S2","","html-keyboard-response","272","313293","0.0-1.0-373.0","0","0","63347","","null","","","null","41","","NaN","","","","","","","","","","","","","",""
"","response","","html-keyboard-response","273","315050","0.0-1.0-374.0-0.0","0","0","63347","","null","","","null","41","","","1","41","training","adjacent","BA","2","1","M.jpg","P.jpg","NaN","0","0","",""
"","too_slow_prompt","","html-keyboard-response","274","316056","0.0-1.0-376.0-0.0","1","0","63347","","null","","","null","","","","","","","","","","","","","","","","",""
"","time_out","","html-keyboard-response","275","318062","0.0-1.0-377.0-0.0","0","0","63347","","null","","","null","41","","","","","","","","","","","","","","","",""
"","ITI","","html-keyboard-response","276","319068","0.0-1.0-378.0","0","0","63347","","null","","","null","41","","","","","","","","","","","","","","","NaN",""
"","S1","","html-keyboard-response","277","319325","0.0-1.0-380.0","0","0","63347","","null","","","null","42","","","","","","","","","","","","","","","",""
"","ISI","","html-keyboard-response","278","320330","0.0-1.0-381.0","0","0","63347","","361","","","68","42","d","","","","","","","","","","","","","","",""
"","S2","","html-keyboard-response","279","320587","0.0-1.0-382.0","0","0","63347","","null","","","null","42","","NaN","","","","","","","","","","","","","",""
"","response","","html-keyboard-response","280","320882","0.0-1.0-383.0-0.0","0","0","63347","","290","","","68","42","","","1","42","training","adjacent","AB","1","2","P.jpg","M.jpg","0","1","0","",""
"","feedback","","html-keyboard-response","281","321887","0.0-1.0-384.0-0.0","0","0","63347","","null","","","null","42","","","","","","","","","","","","","","","",""
"","time_out","","html-keyboard-response","282","323890","0.0-1.0-386.0-0.0","0","0","63347","","null","","","null","42","","","","","","","","","","","","","","","",""
"","ITI","","html-keyboard-response","283","324895","0.0-1.0-387.0","0","0","63347","","null","","","null","42","","","","","","","","","","","","","","","NaN",""
"","S1","","html-keyboard-response","284","325152","0.0-1.0-389.0","0","0","63347","","null","","","null","43","","","","","","","","","","","","","","","",""
"","ISI","","html-keyboard-response","285","326157","0.0-1.0-390.0","0","0","63347","","null","","","null","43","NaN","","","","","","","","","","","","","","",""
"","S2","","html-keyboard-response","286","326415","0.0-1.0-391.0","0","0","63347","","null","","","null","43","","NaN","","","","","","","","","","","","","",""
"","response","","html-keyboard-response","287","326523","0.0-1.0-392.0-0.0","0","0","63347","","101","","","75","43","","","1","43","training","adjacent","BC","2","3","M.jpg","L.jpg","1","1","1","",""
"","feedback","","html-keyboard-response","288","327530","0.0-1.0-393.0-0.0","0","0","63347","","null","","","null","43","","","","","","","","","","","","","","","",""
"","ITI","","html-keyboard-response","289","328537","0.0-1.0-396.0","0","0","63347","","null","","","null","43","","","","","","","","","","","","","","","NaN",""
"","S1","","html-keyboard-response","290","328793","0.0-1.0-398.0","0","0","63347","","null","","","null","44","","","","","","","","","","","","","","","",""
"","ISI","","html-keyboard-response","291","329799","0.0-1.0-399.0","0","0","63347","","null","","","null","44","NaN","","","","","","","","","","","","","","",""
"","S2","","html-keyboard-response","292","330057","0.0-1.0-400.0","0","0","63347","","null","","","null","44","","NaN","","","","","","","","","","","","","",""
"","response","","html-keyboard-response","293","331815","0.0-1.0-401.0-0.0","0","0","63347","","null","","","null","44","","","1","44","training","adjacent","BC","2","3","M.jpg","L.jpg","NaN","1","0","",""
"","too_slow_prompt","","html-keyboard-response","294","332822","0.0-1.0-403.0-0.0","1","0","63347","","null","","","null","","","","","","","","","","","","","","","","",""
"","time_out","","html-keyboard-response","295","334825","0.0-1.0-404.0-0.0","0","0","63347","","null","","","null","44","","","","","","","","","","","","","","","",""
"","ITI","","html-keyboard-response","296","335831","0.0-1.0-405.0","0","0","63347","","null","","","null","44","","","","","","","","","","","","","","","NaN",""
"","S1","","html-keyboard-response","297","336088","0.0-1.0-407.0","0","0","63347","","null","","","null","45","","","","","","","","","","","","","","","",""
"","ISI","","html-keyboard-response","298","337094","0.0-1.0-408.0","0","0","63347","","null","","","null","45","NaN","","","","","","","","","","","","","","",""
"","S2","","html-keyboard-response","299","337351","0.0-1.0-409.0","0","0","63347","","null","","","null","45","","NaN","","","","","","","","","","","","","",""
"","response","","html-keyboard-response","300","337518","0.0-1.0-410.0-0.0","0","0","63347","","164","","","75","45","","","1","45","training","adjacent","CB","3","2","L.jpg","M.jpg","1","0","0","",""
"","feedback","","html-keyboard-response","301","338523","0.0-1.0-411.0-0.0","0","0","63347","","null","","","null","45","","","","","","","","","","","","","","","",""
"","time_out","","html-keyboard-response","302","340527","0.0-1.0-413.0-0.0","0","0","63347","","null","","","null","45","","","","","","","","","","","","","","","",""
"","ITI","","html-keyboard-response","303","341533","0.0-1.0-414.0","0","0","63347","","null","","","null","45","","","","","","","","","","","","","","","NaN",""
"","S1","","html-keyboard-response","304","341788","0.0-1.0-416.0","0","0","63347","","null","","","null","46","","","","","","","","","","","","","","","",""
"","ISI","","html-keyboard-response","305","342794","0.0-1.0-417.0","0","0","63347","","null","","","null","46","NaN","","","","","","","","","","","","","","",""
"","S2","","html-keyboard-response","306","343050","0.0-1.0-418.0","0","0","63347","","null","","","null","46","","NaN","","","","","","","","","","","","","",""
"","response","","html-keyboard-response","307","343401","0.0-1.0-419.0-0.0","0","0","63347","","346","","","68","46","","","1","46","training","adjacent","EF","5","6","Q.jpg","O.jpg","0","1","0","",""
"","feedback","","html-keyboard-response","308","344406","0.0-1.0-420.0-0.0","0","0","63347","","null","","","null","46","","","","","","","","","","","","","","","",""
"","time_out","","html-keyboard-response","309","346410","0.0-1.0-422.0-0.0","0","0","63347","","null","","","null","46","","","","","","","","","","","","","","","",""
"","ITI","","html-keyboard-response","310","347415","0.0-1.0-423.0","0","0","63347","","null","","","null","46","","","","","","","","","","","","","","","NaN",""
"","S1","","html-keyboard-response","311","347671","0.0-1.0-425.0","0","0","63347","","null","","","null","47","","","","","","","","","","","","","","","",""
"","ISI","","html-keyboard-response","312","348676","0.0-1.0-426.0","0","0","63347","","null","","","null","47","NaN","","","","","","","","","","","","","","",""
"","S2","","html-keyboard-response","313","348934","0.0-1.0-427.0","0","0","63347","","null","","","null","47","","NaN","","","","","","","","","","","","","",""
"","response","","html-keyboard-response","314","348978","0.0-1.0-428.0-0.0","0","0","63347","","38","","","75","47","","","1","47","training","adjacent","BC","2","3","M.jpg","L.jpg","1","1","1","",""
"","feedback","","html-keyboard-response","315","349987","0.0-1.0-429.0-0.0","0","0","63347","","null","","","null","47","","","","","","","","","","","","","","","",""
"","ITI","","html-keyboard-response","316","350994","0.0-1.0-432.0","0","0","63347","","null","","","null","47","","","","","","","","","","","","","","","NaN",""
"","block_over","","html-keyboard-response","317","365579","0.0-1.0-433.0-0.0","0","0","63347","","14576","","","32","47","","","","","","","","","","","","","","","",""
"","S1","","html-keyboard-response","318","365836","0.0-1.0-434.0","0","0","63347","","null","","","null","48","","","","","","","","","","","","","","","",""
"","ISI","","html-keyboard-response","319","366842","0.0-1.0-435.0","0","0","63347","","null","","","null","48","NaN","","","","","","","","","","","","","","",""
"","S2","","html-keyboard-response","320","367099","0.0-1.0-436.0","0","0","63347","","null","","","null","48","","NaN","","","","","","","","","","","","","",""
"","response","","html-keyboard-response","321","367466","0.0-1.0-437.0-0.0","0","0","63347","","361","","","68","48","","","2","48","training","adjacent","FE","6","5","O.jpg","Q.jpg","0","0","1","",""
"","feedback","","html-keyboard-response","322","368471","0.0-1.0-438.0-0.0","0","0","63347","","null","","","null","48","","","","","","","","","","","","","","","",""
"","ITI","","html-keyboard-response","323","369475","0.0-1.0-441.0","0","0","63347","","null","","","null","48","","","","","","","","","","","","","","","NaN",""
"","S1","","html-keyboard-response","324","369729","0.0-1.0-443.0","0","0","63347","","null","","","null","49","","","","","","","","","","","","","","","",""
"","ISI","","html-keyboard-response","325","370734","0.0-1.0-444.0","0","0","63347","","null","","","null","49","NaN","","","","","","","","","","","","","","",""
"","S2","","html-keyboard-response","326","370992","0.0-1.0-445.0","0","0","63347","","null","","","null","49","","NaN","","","","","","","","","","","","","",""
"","response","","html-keyboard-response","327","371402","0.0-1.0-446.0-0.0","0","0","63347","","404","","","75","49","","","2","49","training","adjacent","CD","3","4","L.jpg","R.jpg","1","1","1","",""
"","feedback","","html-keyboard-response","328","372409","0.0-1.0-447.0-0.0","0","0","63347","","null","","","null","49","","","","","","","","","","","","","","","",""
"","ITI","","html-keyboard-response","329","373416","0.0-1.0-450.0","0","0","63347","","null","","","null","49","","","","","","","","","","","","","","","NaN",""
"","S1","","html-keyboard-response","330","373672","0.0-1.0-452.0","0","0","63347","","null","","","null","50","","","","","","","","","","","","","","","",""
"","ISI","","html-keyboard-response","331","374676","0.0-1.0-453.0","0","0","63347","","null","","","null","50","NaN","","","","","","","","","","","","","","",""
"","S2","","html-keyboard-response","332","374933","0.0-1.0-454.0","0","0","63347","","null","","","null","50","","NaN","","","","","","","","","","","","","",""
"","response","","html-keyboard-response","333","375419","0.0-1.0-455.0-0.0","0","0","63347","","479","","","75","50","","","2","50","training","adjacent","ED","5","4","Q.jpg","R.jpg","1","0","0","",""
"","feedback","","html-keyboard-response","334","376426","0.0-1.0-456.0-0.0","0","0","63347","","null","","","null","50","","","","","","","","","","","","","","","",""
"","time_out","","html-keyboard-response","335","378429","0.0-1.0-458.0-0.0","0","0","63347","","null","","","null","50","","","","","","","","","","","","","","","",""
"","ITI","","html-keyboard-response","336","379435","0.0-1.0-459.0","0","0","63347","","null","","","null","50","","","","","","","","","","","","","","","NaN",""
"","S1","","html-keyboard-response","337","379691","0.0-1.0-461.0","0","0","63347","","null","","","null","51","","","","","","","","","","","","","","","",""
"","ISI","","html-keyboard-response","338","380698","0.0-1.0-462.0","0","0","63347","","null","","","null","51","NaN","","","","","","","","","","","","","","",""
"","S2","","html-keyboard-response","339","380955","0.0-1.0-463.0","0","0","63347","","null","","","null","51","","NaN","","","","","","","","","","","","","",""
"","response","","html-keyboard-response","340","381527","0.0-1.0-464.0-0.0","0","0","63347","","567","","","68","51","","","2","51","training","adjacent","DE","4","5","R.jpg","Q.jpg","0","1","0","",""
"","feedback","","html-keyboard-response","341","382531","0.0-1.0-465.0-0.0","0","0","63347","","null","","","null","51","","","","","","","","","","","","","","","",""
"","time_out","","html-keyboard-response","342","384537","0.0-1.0-467.0-0.0","0","0","63347","","null","","","null","51","","","","","","","","","","","","","","","",""
"","ITI","","html-keyboard-response","343","385542","0.0-1.0-468.0","0","0","63347","","null","","","null","51","","","","","","","","","","","","","","","NaN",""
"","S1","","html-keyboard-response","344","385798","0.0-1.0-470.0","0","0","63347","","null","","","null","52","","","","","","","","","","","","","","","",""
"","ISI","","html-keyboard-response","345","386804","0.0-1.0-471.0","0","0","63347","","null","","","null","52","NaN","","","","","","","","","","","","","","",""
"","S2","","html-keyboard-response","346","387061","0.0-1.0-472.0","0","0","63347","","null","","","null","52","","NaN","","","","","","","","","","","","","",""
"","response","","html-keyboard-response","347","387450","0.0-1.0-473.0-0.0","0","0","63347","","382","","","75","52","","","2","52","training","adjacent","FE","6","5","O.jpg","Q.jpg","1","0","0","",""
"","feedback","","html-keyboard-response","348","388459","0.0-1.0-474.0-0.0","0","0","63347","","null","","","null","52","","","","","","","","","","","","","","","",""
"","time_out","","html-keyboard-response","349","390464","0.0-1.0-476.0-0.0","0","0","63347","","null","","","null","52","","","","","","","","","","","","","","","",""
"","ITI","","html-keyboard-response","350","391471","0.0-1.0-477.0","0","0","63347","","null","","","null","52","","","","","","","","","","","","","","","NaN",""
"","S1","","html-keyboard-response","351","391727","0.0-1.0-479.0","0","0","63347","","null","","","null","53","","","","","","","","","","","","","","","",""
"","ISI","","html-keyboard-response","352","392733","0.0-1.0-480.0","0","0","63347","","null","","","null","53","NaN","","","","","","","","","","","","","","",""
"","S2","","html-keyboard-response","353","392990","0.0-1.0-481.0","0","0","63347","","null","","","null","53","","NaN","","","","","","","","","","","","","",""
"","response","","html-keyboard-response","354","393131","0.0-1.0-482.0-0.0","0","0","63347","","133","","","68","53","","","2","53","training","adjacent","BA","2","1","M.jpg","P.jpg","0","0","1","",""
"","feedback","","html-keyboard-response","355","394138","0.0-1.0-483.0-0.0","0","0","63347","","null","","","null","53","","","","","","","","","","","","","","","",""
"","ITI","","html-keyboard-response","356","395144","0.0-1.0-486.0","0","0","63347","","null","","","null","53","","","","","","","","","","","","","","","NaN",""
"","S1","","html-keyboard-response","357","395400","0.0-1.0-488.0","0","0","63347","","null","","","null","54","","","","","","","","","","","","","","","",""
"","ISI","","html-keyboard-response","358","396407","0.0-1.0-489.0","0","0","63347","","null","","","null","54","NaN","","","","","","","","","","","","","","",""
"","S2","","html-keyboard-response","359","396666","0.0-1.0-490.0","0","0","63347","","null","","","null","54","","NaN","","","","","","","","","","","","","",""
"","response","","html-keyboard-response","360","397274","0.0-1.0-491.0-0.0","0","0","63347","","602","","","68","54","","","2","54","training","adjacent","BC","2","3","M.jpg","L.jpg","0","1","0","",""
"","feedback","","html-keyboard-response","361","398281","0.0-1.0-492.0-0.0","0","0","63347","","null","","","null","54","","","","","","","","","","","","","","","",""
"","time_out","","html-keyboard-response","362","400287","0.0-1.0-494.0-0.0","0","0","63347","","null","","","null","54","","","","","","","","","","","","","","","",""
"","ITI","","html-keyboard-response","363","401294","0.0-1.0-495.0","0","0","63347","","null","","","null","54","","","","","","","","","","","","","","","NaN",""
"","S1","","html-keyboard-response","364","401548","0.0-1.0-497.0","0","0","63347","","null","","","null","55","","","","","","","","","","","","","","","",""
"","ISI","","html-keyboard-response","365","402553","0.0-1.0-498.0","0","0","63347","","null","","","null","55","NaN","","","","","","","","","","","","","","",""
"","S2","","html-keyboard-response","366","402810","0.0-1.0-499.0","0","0","63347","","null","","","null","55","","NaN","","","","","","","","","","","","","",""
"","response","","html-keyboard-response","367","403690","0.0-1.0-500.0-0.0","0","0","63347","","873","","","75","55","","","2","55","training","adjacent","BC","2","3","M.jpg","L.jpg","1","1","1","",""
"","feedback","","html-keyboard-response","368","404696","0.0-1.0-501.0-0.0","0","0","63347","","null","","","null","55","","","","","","","","","","","","","","","",""
"","ITI","","html-keyboard-response","369","405700","0.0-1.0-504.0","0","0","63347","","null","","","null","55","","","","","","","","","","","","","","","NaN",""
"","S1","","html-keyboard-response","370","405955","0.0-1.0-506.0","0","0","63347","","null","","","null","56","","","","","","","","","","","","","","","",""
"","ISI","","html-keyboard-response","371","406961","0.0-1.0-507.0","0","0","63347","","null","","","null","56","NaN","","","","","","","","","","","","","","",""
"","S2","","html-keyboard-response","372","407219","0.0-1.0-508.0","0","0","63347","","null","","","null","56","","NaN","","","","","","","","","","","","","",""
"","response","","html-keyboard-response","373","408098","0.0-1.0-509.0-0.0","0","0","63347","","873","","","68","56","","","2","56","training","adjacent","FG","6","7","O.jpg","N.jpg","0","1","0","",""
"","feedback","","html-keyboard-response","374","409105","0.0-1.0-510.0-0.0","0","0","63347","","null","","","null","56","","","","","","","","","","","","","","","",""
"","time_out","","html-keyboard-response","375","411109","0.0-1.0-512.0-0.0","0","0","63347","","null","","","null","56","","","","","","","","","","","","","","","",""
"","ITI","","html-keyboard-response","376","412115","0.0-1.0-513.0","0","0","63347","","null","","","null","56","","","","","","","","","","","","","","","NaN",""
"","S1","","html-keyboard-response","377","412372","0.0-1.0-515.0","0","0","63347","","null","","","null","57","","","","","","","","","","","","","","","",""
"","ISI","","html-keyboard-response","378","413378","0.0-1.0-516.0","0","0","63347","","null","","","null","57","NaN","","","","","","","","","","","","","","",""
"","S2","","html-keyboard-response","379","413637","0.0-1.0-517.0","0","0","63347","","null","","","null","57","","NaN","","","","","","","","","","","","","",""
"","response","","html-keyboard-response","380","415274","0.0-1.0-518.0-0.0","0","0","63347","","1631","","","68","57","","","2","57","training","adjacent","AB","1","2","P.jpg","M.jpg","0","1","0","",""
"","feedback","","html-keyboard-response","381","416282","0.0-1.0-519.0-0.0","0","0","63347","","null","","","null","57","","","","","","","","","","","","","","","",""
"","time_out","","html-keyboard-response","382","418289","0.0-1.0-521.0-0.0","0","0","63347","","null","","","null","57","","","","","","","","","","","","","","","",""
"","ITI","","html-keyboard-response","383","419293","0.0-1.0-522.0","0","0","63347","","null","","","null","57","","","","","","","","","","","","","","","NaN",""
"","S1","","html-keyboard-response","384","419549","0.0-1.0-524.0","0","0","63347","","null","","","null","58","","","","","","","","","","","","","","","",""
"","ISI","","html-keyboard-response","385","420555","0.0-1.0-525.0","0","0","63347","","null","","","null","58","NaN","","","","","","","","","","","","","","",""
"","S2","","html-keyboard-response","386","420812","0.0-1.0-526.0","0","0","63347","","null","","","null","58","","NaN","","","","","","","","","","","","","",""
"","response","","html-keyboard-response","387","421339","0.0-1.0-527.0-0.0","0","0","63347","","519","","","75","58","","","2","58","training","adjacent","FG","6","7","O.jpg","N.jpg","1","1","1","",""
"","feedback","","html-keyboard-response","388","422347","0.0-1.0-528.0-0.0","0","0","63347","","null","","","null","58","","","","","","","","","","","","","","","",""
"","ITI","","html-keyboard-response","389","423351","0.0-1.0-531.0","0","0","63347","","null","","","null","58","","","","","","","","","","","","","","","NaN",""
"","S1","","html-keyboard-response","390","423606","0.0-1.0-533.0","0","0","63347","","null","","","null","59","","","","","","","","","","","","","","","",""
"","ISI","","html-keyboard-response","391","424611","0.0-1.0-534.0","0","0","63347","","null","","","null","59","NaN","","","","","","","","","","","","","","",""
"","S2","","html-keyboard-response","392","424869","0.0-1.0-535.0","0","0","63347","","null","","","null","59","","NaN","","","","","","","","","","","","","",""
"","response","","html-keyboard-response","393","424993","0.0-1.0-536.0-0.0","0","0","63347","","118","","","68","59","","","2","59","training","adjacent","DE","4","5","R.jpg","Q.jpg","0","1","0","",""
"","feedback","","html-keyboard-response","394","426001","0.0-1.0-537.0-0.0","0","0","63347","","null","","","null","59","","","","","","","","","","","","","","","",""
"","time_out","","html-keyboard-response","395","428008","0.0-1.0-539.0-0.0","0","0","63347","","null","","","null","59","","","","","","","","","","","","","","","",""
"","ITI","","html-keyboard-response","396","429015","0.0-1.0-540.0","0","0","63347","","null","","","null","59","","","","","","","","","","","","","","","NaN",""
"","S1","","html-keyboard-response","397","429272","0.0-1.0-542.0","0","0","63347","","null","","","null","60","","","","","","","","","","","","","","","",""
"","ISI","","html-keyboard-response","398","430276","0.0-1.0-543.0","0","0","63347","","null","","","null","60","NaN","","","","","","","","","","","","","","",""
"","S2","","html-keyboard-response","399","430533","0.0-1.0-544.0","0","0","63347","","null","","","null","60","","NaN","","","","","","","","","","","","","",""
"","response","","html-keyboard-response","400","430690","0.0-1.0-545.0-0.0","0","0","63347","","152","","","75","60","","","2","60","training","adjacent","BC","2","3","M.jpg","L.jpg","1","1","1","",""
"","feedback","","html-keyboard-response","401","431697","0.0-1.0-546.0-0.0","0","0","63347","","null","","","null","60","","","","","","","","","","","","","","","",""
"","ITI","","html-keyboard-response","402","432703","0.0-1.0-549.0","0","0","63347","","null","","","null","60","","","","","","","","","","","","","","","NaN",""
"","S1","","html-keyboard-response","403","432957","0.0-1.0-551.0","0","0","63347","","null","","","null","61","","","","","","","","","","","","","","","",""
"","ISI","","html-keyboard-response","404","433959","0.0-1.0-552.0","0","0","63347","","null","","","null","61","NaN","","","","","","","","","","","","","","",""
"","S2","","html-keyboard-response","405","434215","0.0-1.0-553.0","0","0","63347","","null","","","null","61","","NaN","","","","","","","","","","","","","",""
"","response","","html-keyboard-response","406","434321","0.0-1.0-554.0-0.0","0","0","63347","","101","","","68","61","","","2","61","training","adjacent","DC","4","3","R.jpg","L.jpg","0","0","1","",""
"","feedback","","html-keyboard-response","407","435328","0.0-1.0-555.0-0.0","0","0","63347","","null","","","null","61","","","","","","","","","","","","","","","",""
"","ITI","","html-keyboard-response","408","436335","0.0-1.0-558.0","0","0","63347","","null","","","null","61","","","","","","","","","","","","","","","NaN",""
"","S1","","html-keyboard-response","409","436591","0.0-1.0-560.0","0","0","63347","","null","","","null","62","","","","","","","","","","","","","","","",""
"","ISI","","html-keyboard-response","410","437596","0.0-1.0-561.0","0","0","63347","","null","","","null","62","NaN","","","","","","","","","","","","","","",""
"","S2","","html-keyboard-response","411","437853","0.0-1.0-562.0","0","0","63347","","null","","","null","62","","NaN","","","","","","","","","","","","","",""
"","response","","html-keyboard-response","412","438003","0.0-1.0-563.0-0.0","0","0","63347","","144","","","68","62","","","2","62","training","adjacent","BA","2","1","M.jpg","P.jpg","0","0","1","",""
"","feedback","","html-keyboard-response","413","439010","0.0-1.0-564.0-0.0","0","0","63347","","null","","","null","62","","","","","","","","","","","","","","","",""
"","ITI","","html-keyboard-response","414","440016","0.0-1.0-567.0","0","0","63347","","null","","","null","62","","","","","","","","","","","","","","","NaN",""
"","S1","","html-keyboard-response","415","440273","0.0-1.0-569.0","0","0","63347","","null","","","null","63","","","","","","","","","","","","","","","",""
"","ISI","","html-keyboard-response","416","441279","0.0-1.0-570.0","0","0","63347","","null","","","null","63","NaN","","","","","","","","","","","","","","",""
"","S2","","html-keyboard-response","417","441538","0.0-1.0-571.0","0","0","63347","","null","","","null","63","","NaN","","","","","","","","","","","","","",""
"","response","","html-keyboard-response","418","441874","0.0-1.0-572.0-0.0","0","0","63347","","331","","","68","63","","","2","63","training","adjacent","AB","1","2","P.jpg","M.jpg","0","1","0","",""
"","feedback","","html-keyboard-response","419","442883","0.0-1.0-573.0-0.0","0","0","63347","","null","","","null","63","","","","","","","","","","","","","","","",""
"","time_out","","html-keyboard-response","420","444890","0.0-1.0-575.0-0.0","0","0","63347","","null","","","null","63","","","","","","","","","","","","","","","",""
"","ITI","","html-keyboard-response","421","445896","0.0-1.0-576.0","0","0","63347","","null","","","null","63","","","","","","","","","","","","","","","NaN",""
"","S1","","html-keyboard-response","422","446153","0.0-1.0-578.0","0","0","63347","","null","","","null","64","","","","","","","","","","","","","","","",""
"","ISI","","html-keyboard-response","423","447159","0.0-1.0-579.0","0","0","63347","","null","","","null","64","NaN","","","","","","","","","","","","","","",""
"","S2","","html-keyboard-response","424","447417","0.0-1.0-580.0","0","0","63347","","null","","","null","64","","NaN","","","","","","","","","","","","","",""
"","response","","html-keyboard-response","425","447851","0.0-1.0-581.0-0.0","0","0","63347","","426","","","75","64","","","2","64","training","adjacent","ED","5","4","Q.jpg","R.jpg","1","0","0","",""
"","feedback","","html-keyboard-response","426","448858","0.0-1.0-582.0-0.0","0","0","63347","","null","","","null","64","","","","","","","","","","","","","","","",""
"","time_out","","html-keyboard-response","427","450865","0.0-1.0-584.0-0.0","0","0","63347","","null","","","null","64","","","","","","","","","","","","","","","",""
"","ITI","","html-keyboard-response","428","451870","0.0-1.0-585.0","0","0","63347","","null","","","null","64","","","","","","","","","","","","","","","NaN",""
"","S1","","html-keyboard-response","429","452126","0.0-1.0-587.0","0","0","63347","","null","","","null","65","","","","","","","","","","","","","","","",""
"","ISI","","html-keyboard-response","430","453134","0.0-1.0-588.0","0","0","63347","","null","","","null","65","NaN","","","","","","","","","","","","","","",""
"","S2","","html-keyboard-response","431","453390","0.0-1.0-589.0","0","0","63347","","null","","","null","65","","NaN","","","","","","","","","","","","","",""
"","response","","html-keyboard-response","432","453947","0.0-1.0-590.0-0.0","0","0","63347","","551","","","68","65","","","2","65","training","adjacent","CD","3","4","L.jpg","R.jpg","0","1","0","",""
"","feedback","","html-keyboard-response","433","454957","0.0-1.0-591.0-0.0","0","0","63347","","null","","","null","65","","","","","","","","","","","","","","","",""
"","time_out","","html-keyboard-response","434","456964","0.0-1.0-593.0-0.0","0","0","63347","","null","","","null","65","","","","","","","","","","","","","","","",""
"","ITI","","html-keyboard-response","435","457968","0.0-1.0-594.0","0","0","63347","","null","","","null","65","","","","","","","","","","","","","","","NaN",""
"","S1","","html-keyboard-response","436","458222","0.0-1.0-596.0","0","0","63347","","null","","","null","66","","","","","","","","","","","","","","","",""
"","ISI","","html-keyboard-response","437","459224","0.0-1.0-597.0","0","0","63347","","null","","","null","66","NaN","","","","","","","","","","","","","","",""
"","S2","","html-keyboard-response","438","459479","0.0-1.0-598.0","0","0","63347","","null","","","null","66","","NaN","","","","","","","","","","","","","",""
"","response","","html-keyboard-response","439","459633","0.0-1.0-599.0-0.0","0","0","63347","","149","","","68","66","","","2","66","training","adjacent","EF","5","6","Q.jpg","O.jpg","0","1","0","",""
"","feedback","","html-keyboard-response","440","460639","0.0-1.0-600.0-0.0","0","0","63347","","null","","","null","66","","","","","","","","","","","","","","","",""
"","time_out","","html-keyboard-response","441","462646","0.0-1.0-602.0-0.0","0","0","63347","","null","","","null","66","","","","","","","","","","","","","","","",""
"","ITI","","html-keyboard-response","442","463651","0.0-1.0-603.0","0","0","63347","","null","","","null","66","","","","","","","","","","","","","","","NaN",""
"","S1","","html-keyboard-response","443","463908","0.0-1.0-605.0","0","0","63347","","null","","","null","67","","","","","","","","","","","","","","","",""
"","ISI","","html-keyboard-response","444","464914","0.0-1.0-606.0","0","0","63347","","null","","","null","67","NaN","","","","","","","","","","","","","","",""
"","S2","","html-keyboard-response","445","465171","0.0-1.0-607.0","0","0","63347","","null","","","null","67","","NaN","","","","","","","","","","","","","",""
"","response","","html-keyboard-response","446","465258","0.0-1.0-608.0-0.0","0","0","63347","","81","","","68","67","","","2","67","training","adjacent","ED","5","4","Q.jpg","R.jpg","0","0","1","",""
"","feedback","","html-keyboard-response","447","466264","0.0-1.0-609.0-0.0","0","0","63347","","null","","","null","67","","","","","","","","","","","","","","","",""
"","ITI","","html-keyboard-response","448","467270","0.0-1.0-612.0","0","0","63347","","null","","","null","67","","","","","","","","","","","","","","","NaN",""
"","S1","","html-keyboard-response","449","467524","0.0-1.0-614.0","0","0","63347","","null","","","null","68","","","","","","","","","","","","","","","",""
"","ISI","","html-keyboard-response","450","468530","0.0-1.0-615.0","0","0","63347","","null","","","null","68","NaN","","","","","","","","","","","","","","",""
"","S2","","html-keyboard-response","451","468788","0.0-1.0-616.0","0","0","63347","","null","","","null","68","","NaN","","","","","","","","","","","","","",""
"","response","","html-keyboard-response","452","469130","0.0-1.0-617.0-0.0","0","0","63347","","335","","","68","68","","","2","68","training","adjacent","GF","7","6","N.jpg","O.jpg","0","0","1","",""
"","feedback","","html-keyboard-response","453","470137","0.0-1.0-618.0-0.0","0","0","63347","","null","","","null","68","","","","","","","","","","","","","","","",""
"","ITI","","html-keyboard-response","454","471144","0.0-1.0-621.0","0","0","63347","","null","","","null","68","","","","","","","","","","","","","","","NaN",""
"","S1","","html-keyboard-response","455","471400","0.0-1.0-623.0","0","0","63347","","null","","","null","69","","","","","","","","","","","","","","","",""
"","ISI","","html-keyboard-response","456","472405","0.0-1.0-624.0","0","0","63347","","null","","","null","69","NaN","","","","","","","","","","","","","","",""
"","S2","","html-keyboard-response","457","472663","0.0-1.0-625.0","0","0","63347","","null","","","null","69","","NaN","","","","","","","","","","","","","",""
"","response","","html-keyboard-response","458","473186","0.0-1.0-626.0-0.0","0","0","63347","","516","","","68","69","","","2","69","training","adjacent","FG","6","7","O.jpg","N.jpg","0","1","0","",""
"","feedback","","html-keyboard-response","459","474194","0.0-1.0-627.0-0.0","0","0","63347","","null","","","null","69","","","","","","","","","","","","","","","",""
"","time_out","","html-keyboard-response","460","476202","0.0-1.0-629.0-0.0","0","0","63347","","null","","","null","69","","","","","","","","","","","","","","","",""
"","ITI","","html-keyboard-response","461","477208","0.0-1.0-630.0","0","0","63347","","null","","","null","69","","","","","","","","","","","","","","","NaN",""
"","S1","","html-keyboard-response","462","477464","0.0-1.0-632.0","0","0","63347","","null","","","null","70","","","","","","","","","","","","","","","",""
"","ISI","","html-keyboard-response","463","478470","0.0-1.0-633.0","0","0","63347","","412","","","68","70","d","","","","","","","","","","","","","","",""
"","S2","","html-keyboard-response","464","478728","0.0-1.0-634.0","0","0","63347","","null","","","null","70","","NaN","","","","","","","","","","","","","",""
"","response","","html-keyboard-response","465","478777","0.0-1.0-635.0-0.0","0","0","63347","","44","","","68","70","","","2","70","training","adjacent","BA","2","1","M.jpg","P.jpg","0","0","1","",""
"","feedback","","html-keyboard-response","466","479785","0.0-1.0-636.0-0.0","0","0","63347","","null","","","null","70","","","","","","","","","","","","","","","",""
"","ITI","","html-keyboard-response","467","480789","0.0-1.0-639.0","0","0","63347","","null","","","null","70","","","","","","","","","","","","","","","NaN",""
"","S1","","html-keyboard-response","468","481045","0.0-1.0-641.0","0","0","63347","","null","","","null","71","","","","","","","","","","","","","","","",""
"","ISI","","html-keyboard-response","469","482050","0.0-1.0-642.0","0","0","63347","","528","","","68","71","d","","","","","","","","","","","","","","",""
"","S2","","html-keyboard-response","470","482308","0.0-1.0-643.0","0","0","63347","","null","","","null","71","","NaN","","","","","","","","","","","","","",""
"","response","","html-keyboard-response","471","482530","0.0-1.0-644.0-0.0","0","0","63347","","216","","","68","71","","","2","71","training","adjacent","EF","5","6","Q.jpg","O.jpg","0","1","0","",""
"","feedback","","html-keyboard-response","472","483537","0.0-1.0-645.0-0.0","0","0","63347","","null","","","null","71","","","","","","","","","","","","","","","",""
"","time_out","","html-keyboard-response","473","485544","0.0-1.0-647.0-0.0","0","0","63347","","null","","","null","71","","","","","","","","","","","","","","","",""
"","ITI","","html-keyboard-response","474","486550","0.0-1.0-648.0","0","0","63347","","null","","","null","71","","","","","","","","","","","","","","","NaN",""
"","S1","","html-keyboard-response","475","486804","0.0-1.0-650.0","0","0","63347","","null","","","null","72","","","","","","","","","","","","","","","",""
"","ISI","","html-keyboard-response","476","487807","0.0-1.0-651.0","0","0","63347","","313","","","75","72","k","","","","","","","","","","","","","","",""
"","S2","","html-keyboard-response","477","488063","0.0-1.0-652.0","0","0","63347","","null","","","null","72","","NaN","","","","","","","","","","","","","",""
"","response","","html-keyboard-response","478","488090","0.0-1.0-653.0-0.0","0","0","63347","","20","","","75","72","","","2","72","training","adjacent","CB","3","2","L.jpg","M.jpg","1","0","0","",""
"","feedback","","html-keyboard-response","479","489096","0.0-1.0-654.0-0.0","0","0","63347","","null","","","null","72","","","","","","","","","","","","","","","",""
"","time_out","","html-keyboard-response","480","491101","0.0-1.0-656.0-0.0","0","0","63347","","null","","","null","72","","","","","","","","","","","","","","","",""
"","ITI","","html-keyboard-response","481","492107","0.0-1.0-657.0","0","0","63347","","null","","","null","72","","","","","","","","","","","","","","","NaN",""
"","S1","","html-keyboard-response","482","492363","0.0-1.0-659.0","0","0","63347","","null","","","null","73","","","","","","","","","","","","","","","",""
"","ISI","","html-keyboard-response","483","493369","0.0-1.0-660.0","0","0","63347","","82","","","68","73","d","","","","","","","","","","","","","","",""
"","S2","","html-keyboard-response","484","493628","0.0-1.0-661.0","0","0","63347","","null","","","null","73","","NaN","","","","","","","","","","","","","",""
"","response","","html-keyboard-response","485","493673","0.0-1.0-662.0-0.0","0","0","63347","","40","","","68","73","","","2","73","training","adjacent","BC","2","3","M.jpg","L.jpg","0","1","0","",""
"","feedback","","html-keyboard-response","486","494682","0.0-1.0-663.0-0.0","0","0","63347","","null","","","null","73","","","","","","","","","","","","","","","",""
"","time_out","","html-keyboard-response","487","496689","0.0-1.0-665.0-0.0","0","0","63347","","null","","","null","73","","","","","","","","","","","","","","","",""
"","ITI","","html-keyboard-response","488","497693","0.0-1.0-666.0","0","0","63347","","null","","","null","73","","","","","","","","","","","","","","","NaN",""
"","S1","","html-keyboard-response","489","497949","0.0-1.0-668.0","0","0","63347","","null","","","null","74","","","","","","","","","","","","","","","",""
"","ISI","","html-keyboard-response","490","498955","0.0-1.0-669.0","0","0","63347","","128","","","68","74","d","","","","","","","","","","","","","","",""
"","S2","","html-keyboard-response","491","499212","0.0-1.0-670.0","0","0","63347","","null","","","null","74","","NaN","","","","","","","","","","","","","",""
"","response","","html-keyboard-response","492","499554","0.0-1.0-671.0-0.0","0","0","63347","","335","","","75","74","","","2","74","training","adjacent","EF","5","6","Q.jpg","O.jpg","1","1","1","",""
"","feedback","","html-keyboard-response","493","500562","0.0-1.0-672.0-0.0","0","0","63347","","null","","","null","74","","","","","","","","","","","","","","","",""
"","ITI","","html-keyboard-response","494","501569","0.0-1.0-675.0","0","0","63347","","null","","","null","74","","","","","","","","","","","","","","","NaN",""
"","S1","","html-keyboard-response","495","501824","0.0-1.0-677.0","0","0","63347","","null","","","null","75","","","","","","","","","","","","","","","",""
"","ISI","","html-keyboard-response","496","502829","0.0-1.0-678.0","0","0","63347","","null","","","null","75","NaN","","","","","","","","","","","","","","",""
"","S2","","html-keyboard-response","497","503086","0.0-1.0-679.0","0","0","63347","","null","","","null","75","","NaN","","","","","","","","","","","","","",""
"","response","","html-keyboard-response","498","503969","0.0-1.0-680.0-0.0","0","0","63347","","877","","","68","75","","","2","75","training","adjacent","ED","5","4","Q.jpg","R.jpg","0","0","1","",""
"","feedback","","html-keyboard-response","499","504977","0.0-1.0-681.0-0.0","0","0","63347","","null","","","null","75","","","","","","","","","","","","","","","",""
"","ITI","","html-keyboard-response","500","505984","0.0-1.0-684.0","0","0","63347","","null","","","null","75","","","","","","","","","","","","","","","NaN",""
"","S1","","html-keyboard-response","501","506240","0.0-1.0-686.0","0","0","63347","","null","","","null","76","","","","","","","","","","","","","","","",""
"","ISI","","html-keyboard-response","502","507246","0.0-1.0-687.0","0","0","63347","","null","","","null","76","NaN","","","","","","","","","","","","","","",""
"","S2","","html-keyboard-response","503","507503","0.0-1.0-688.0","0","0","63347","","null","","","null","76","","NaN","","","","","","","","","","","","","",""
"","response","","html-keyboard-response","504","507913","0.0-1.0-689.0-0.0","0","0","63347","","403","","","75","76","","","2","76","training","adjacent","EF","5","6","Q.jpg","O.jpg","1","1","1","",""
"","feedback","","html-keyboard-response","505","508920","0.0-1.0-690.0-0.0","0","0","63347","","null","","","null","76","","","","","","","","","","","","","","","",""
"","ITI","","html-keyboard-response","506","509928","0.0-1.0-693.0","0","0","63347","","null","","","null","76","","","","","","","","","","","","","","","NaN",""
"","S1","","html-keyboard-response","507","510186","0.0-1.0-695.0","0","0","63347","","null","","","null","77","","","","","","","","","","","","","","","",""
"","ISI","","html-keyboard-response","508","511191","0.0-1.0-696.0","0","0","63347","","null","","","null","77","NaN","","","","","","","","","","","","","","",""
"","S2","","html-keyboard-response","509","511449","0.0-1.0-697.0","0","0","63347","","null","","","null","77","","NaN","","","","","","","","","","","","","",""
"","response","","html-keyboard-response","510","511962","0.0-1.0-698.0-0.0","0","0","63347","","507","","","68","77","","","2","77","training","adjacent","DC","4","3","R.jpg","L.jpg","0","0","1","",""
"","feedback","","html-keyboard-response","511","512970","0.0-1.0-699.0-0.0","0","0","63347","","null","","","null","77","","","","","","","","","","","","","","","",""
"","ITI","","html-keyboard-response","512","513975","0.0-1.0-702.0","0","0","63347","","null","","","null","77","","","","","","","","","","","","","","","NaN",""
"","S1","","html-keyboard-response","513","514228","0.0-1.0-704.0","0","0","63347","","null","","","null","78","","","","","","","","","","","","","","","",""
"","ISI","","html-keyboard-response","514","515233","0.0-1.0-705.0","0","0","63347","","null","","","null","78","NaN","","","","","","","","","","","","","","",""
"","S2","","html-keyboard-response","515","515488","0.0-1.0-706.0","0","0","63347","","null","","","null","78","","NaN","","","","","","","","","","","","","",""
"","response","","html-keyboard-response","516","516514","0.0-1.0-707.0-0.0","0","0","63347","","1023","","","75","78","","","2","78","training","adjacent","FE","6","5","O.jpg","Q.jpg","1","0","0","",""
"","feedback","","html-keyboard-response","517","517523","0.0-1.0-708.0-0.0","0","0","63347","","null","","","null","78","","","","","","","","","","","","","","","",""
"","time_out","","html-keyboard-response","518","519529","0.0-1.0-710.0-0.0","0","0","63347","","null","","","null","78","","","","","","","","","","","","","","","",""
"","ITI","","html-keyboard-response","519","520535","0.0-1.0-711.0","0","0","63347","","null","","","null","78","","","","","","","","","","","","","","","NaN",""
"","S1","","html-keyboard-response","520","520791","0.0-1.0-713.0","0","0","63347","","null","","","null","79","","","","","","","","","","","","","","","",""
"","ISI","","html-keyboard-response","521","521797","0.0-1.0-714.0","0","0","63347","","null","","","null","79","NaN","","","","","","","","","","","","","","",""
"","S2","","html-keyboard-response","522","522054","0.0-1.0-715.0","0","0","63347","","null","","","null","79","","NaN","","","","","","","","","","","","","",""
"","response","","html-keyboard-response","523","522242","0.0-1.0-716.0-0.0","0","0","63347","","182","","","68","79","","","2","79","training","adjacent","DE","4","5","R.jpg","Q.jpg","0","1","0","",""
"","feedback","","html-keyboard-response","524","523249","0.0-1.0-717.0-0.0","0","0","63347","","null","","","null","79","","","","","","","","","","","","","","","",""
"","time_out","","html-keyboard-response","525","525256","0.0-1.0-719.0-0.0","0","0","63347","","null","","","null","79","","","","","","","","","","","","","","","",""
"","ITI","","html-keyboard-response","526","526261","0.0-1.0-720.0","0","0","63347","","null","","","null","79","","","","","","","","","","","","","","","NaN",""
"","S1","","html-keyboard-response","527","526517","0.0-1.0-722.0","0","0","63347","","null","","","null","80","","","","","","","","","","","","","","","",""
"","ISI","","html-keyboard-response","528","527522","0.0-1.0-723.0","0","0","63347","","null","","","null","80","NaN","","","","","","","","","","","","","","",""
"","S2","","html-keyboard-response","529","527781","0.0-1.0-724.0","0","0","63347","","null","","","null","80","","NaN","","","","","","","","","","","","","",""
"","response","","html-keyboard-response","530","528657","0.0-1.0-725.0-0.0","0","0","63347","","871","","","75","80","","","2","80","training","adjacent","GF","7","6","N.jpg","O.jpg","1","0","0","",""
"","feedback","","html-keyboard-response","531","529664","0.0-1.0-726.0-0.0","0","0","63347","","null","","","null","80","","","","","","","","","","","","","","","",""
"","time_out","","html-keyboard-response","532","531667","0.0-1.0-728.0-0.0","0","0","63347","","null","","","null","80","","","","","","","","","","","","","","","",""
"","ITI","","html-keyboard-response","533","532672","0.0-1.0-729.0","0","0","63347","","null","","","null","80","","","","","","","","","","","","","","","NaN",""
"","S1","","html-keyboard-response","534","532929","0.0-1.0-731.0","0","0","63347","","null","","","null","81","","","","","","","","","","","","","","","",""
"","ISI","","html-keyboard-response","535","533935","0.0-1.0-732.0","0","0","63347","","null","","","null","81","NaN","","","","","","","","","","","","","","",""
"","S2","","html-keyboard-response","536","534193","0.0-1.0-733.0","0","0","63347","","null","","","null","81","","NaN","","","","","","","","","","","","","",""
"","response","","html-keyboard-response","537","534370","0.0-1.0-734.0-0.0","0","0","63347","","170","","","68","81","","","2","81","training","adjacent","CB","3","2","L.jpg","M.jpg","0","0","1","",""
"","feedback","","html-keyboard-response","538","535376","0.0-1.0-735.0-0.0","0","0","63347","","null","","","null","81","","","","","","","","","","","","","","","",""
"","ITI","","html-keyboard-response","539","536381","0.0-1.0-738.0","0","0","63347","","null","","","null","81","","","","","","","","","","","","","","","NaN",""
"","S1","","html-keyboard-response","540","536638","0.0-1.0-740.0","0","0","63347","","null","","","null","82","","","","","","","","","","","","","","","",""
"","ISI","","html-keyboard-response","541","537644","0.0-1.0-741.0","0","0","63347","","null","","","null","82","NaN","","","","","","","","","","","","","","",""
"","S2","","html-keyboard-response","542","537899","0.0-1.0-742.0","0","0","63347","","null","","","null","82","","NaN","","","","","","","","","","","","","",""
"","response","","html-keyboard-response","543","538762","0.0-1.0-743.0-0.0","0","0","63347","","857","","","68","82","","","2","82","training","adjacent","DC","4","3","R.jpg","L.jpg","0","0","1","",""
"","feedback","","html-keyboard-response","544","539770","0.0-1.0-744.0-0.0","0","0","63347","","null","","","null","82","","","","","","","","","","","","","","","",""
"","ITI","","html-keyboard-response","545","540778","0.0-1.0-747.0","0","0","63347","","null","","","null","82","","","","","","","","","","","","","","","NaN",""
"","S1","","html-keyboard-response","546","541035","0.0-1.0-749.0","0","0","63347","","null","","","null","83","","","","","","","","","","","","","","","",""
"","ISI","","html-keyboard-response","547","542039","0.0-1.0-750.0","0","0","63347","","null","","","null","83","NaN","","","","","","","","","","","","","","",""
"","S2","","html-keyboard-response","548","542295","0.0-1.0-751.0","0","0","63347","","null","","","null","83","","NaN","","","","","","","","","","","","","",""
"","response","","html-keyboard-response","549","543312","0.0-1.0-752.0-0.0","0","0","63347","","1013","","","68","83","","","2","83","training","adjacent","FE","6","5","O.jpg","Q.jpg","0","0","1","",""
"","feedback","","html-keyboard-response","550","544319","0.0-1.0-753.0-0.0","0","0","63347","","null","","","null","83","","","","","","","","","","","","","","","",""
"","ITI","","html-keyboard-response","551","545325","0.0-1.0-756.0","0","0","63347","","null","","","null","83","","","","","","","","","","","","","","","NaN",""
"","S1","","html-keyboard-response","552","545581","0.0-1.0-758.0","0","0","63347","","null","","","null","84","","","","","","","","","","","","","","","",""
"","ISI","","html-keyboard-response","553","546587","0.0-1.0-759.0","0","0","63347","","null","","","null","84","NaN","","","","","","","","","","","","","","",""
"","S2","","html-keyboard-response","554","546844","0.0-1.0-760.0","0","0","63347","","null","","","null","84","","NaN","","","","","","","","","","","","","",""
"","response","","html-keyboard-response","555","547371","0.0-1.0-761.0-0.0","0","0","63347","","520","","","75","84","","","2","84","training","adjacent","CB","3","2","L.jpg","M.jpg","1","0","0","",""
"","feedback","","html-keyboard-response","556","548378","0.0-1.0-762.0-0.0","0","0","63347","","null","","","null","84","","","","","","","","","","","","","","","",""
"","time_out","","html-keyboard-response","557","550385","0.0-1.0-764.0-0.0","0","0","63347","","null","","","null","84","","","","","","","","","","","","","","","",""
"","ITI","","html-keyboard-response","558","551392","0.0-1.0-765.0","0","0","63347","","null","","","null","84","","","","","","","","","","","","","","","NaN",""
"","S1","","html-keyboard-response","559","551649","0.0-1.0-767.0","0","0","63347","","null","","","null","85","","","","","","","","","","","","","","","",""
"","ISI","","html-keyboard-response","560","552656","0.0-1.0-768.0","0","0","63347","","null","","","null","85","NaN","","","","","","","","","","","","","","",""
"","S2","","html-keyboard-response","561","552912","0.0-1.0-769.0","0","0","63347","","null","","","null","85","","NaN","","","","","","","","","","","","","",""
"","response","","html-keyboard-response","562","553347","0.0-1.0-770.0-0.0","0","0","63347","","430","","","68","85","","","2","85","training","adjacent","GF","7","6","N.jpg","O.jpg","0","0","1","",""
"","feedback","","html-keyboard-response","563","554355","0.0-1.0-771.0-0.0","0","0","63347","","null","","","null","85","","","","","","","","","","","","","","","",""
"","ITI","","html-keyboard-response","564","555363","0.0-1.0-774.0","0","0","63347","","null","","","null","85","","","","","","","","","","","","","","","NaN",""
"","S1","","html-keyboard-response","565","555618","0.0-1.0-776.0","0","0","63347","","null","","","null","86","","","","","","","","","","","","","","","",""
"","ISI","","html-keyboard-response","566","556624","0.0-1.0-777.0","0","0","63347","","null","","","null","86","NaN","","","","","","","","","","","","","","",""
"","S2","","html-keyboard-response","567","556882","0.0-1.0-778.0","0","0","63347","","null","","","null","86","","NaN","","","","","","","","","","","","","",""
"","response","","html-keyboard-response","568","557227","0.0-1.0-779.0-0.0","0","0","63347","","339","","","75","86","","","2","86","training","adjacent","CD","3","4","L.jpg","R.jpg","1","1","1","",""
"","feedback","","html-keyboard-response","569","558234","0.0-1.0-780.0-0.0","0","0","63347","","null","","","null","86","","","","","","","","","","","","","","","",""
"","ITI","","html-keyboard-response","570","559241","0.0-1.0-783.0","0","0","63347","","null","","","null","86","","","","","","","","","","","","","","","NaN",""
"","S1","","html-keyboard-response","571","559507","0.0-1.0-785.0","0","0","63347","","null","","","null","87","","","","","","","","","","","","","","","",""
"","ISI","","html-keyboard-response","572","560514","0.0-1.0-786.0","0","0","63347","","null","","","null","87","NaN","","","","","","","","","","","","","","",""
"","S2","","html-keyboard-response","573","560772","0.0-1.0-787.0","0","0","63347","","null","","","null","87","","NaN","","","","","","","","","","","","","",""
"","response","","html-keyboard-response","574","561523","0.0-1.0-788.0-0.0","0","0","63347","","745","","","68","87","","","2","87","training","adjacent","GF","7","6","N.jpg","O.jpg","0","0","1","",""
"","feedback","","html-keyboard-response","575","562531","0.0-1.0-789.0-0.0","0","0","63347","","null","","","null","87","","","","","","","","","","","","","","","",""
"","ITI","","html-keyboard-response","576","563537","0.0-1.0-792.0","0","0","63347","","null","","","null","87","","","","","","","","","","","","","","","NaN",""
"","S1","","html-keyboard-response","577","563790","0.0-1.0-794.0","0","0","63347","","null","","","null","88","","","","","","","","","","","","","","","",""
"","ISI","","html-keyboard-response","578","564795","0.0-1.0-795.0","0","0","63347","","null","","","null","88","NaN","","","","","","","","","","","","","","",""
"","S2","","html-keyboard-response","579","565053","0.0-1.0-796.0","0","0","63347","","null","","","null","88","","NaN","","","","","","","","","","","","","",""
"","response","","html-keyboard-response","580","565770","0.0-1.0-797.0-0.0","0","0","63347","","711","","","75","88","","","2","88","training","adjacent","CD","3","4","L.jpg","R.jpg","1","1","1","",""
"","feedback","","html-keyboard-response","581","566779","0.0-1.0-798.0-0.0","0","0","63347","","null","","","null","88","","","","","","","","","","","","","","","",""
"","ITI","","html-keyboard-response","582","567785","0.0-1.0-801.0","0","0","63347","","null","","","null","88","","","","","","","","","","","","","","","NaN",""
