"success","ttype","start_time","trial_type","trial_index","time_elapsed","internal_node_id","warning","missed_checkup","PID","view_history","rt","responses","repeat_instructions","key_press","index","keypress_isi","keypress_S2","block","trial_num","phase","group_type","pair_type","S1_stim","S2_stim","S1_img","S2_img","S1_chosen","S1_higher","accuracy","keypress_iti","total_bonus_tally"
"true","full_screen","d04072023hr0008","fullscreen","0","18836","0.0-0.0","0","0","28000","","","","","","","","","","","","","","","","","","","","","",""
"","instructions","","instructions","1","83955","0.0-1.0-0.0-0.0","0","0","28000","[{""page_index"":0,""viewing_time"":10840},{""page_index"":1,""viewing_time"":30383},{""page_index"":2,""viewing_time"":20767},{""page_index"":3,""viewing_time"":3123}]","65114","","","","","","","","","","","","","","","","","","","",""
"","comprehension_check","","survey-multi-choice","2","116097","0.0-1.0-0.0-1.0","0","0","28000","","32131","{""Q0"":""True"",""Q1"":""D"",""Q2"":""Once the second image appears and while the screen 'MAKE A CHOICE' is shown"",""Q3"":""Green mark"",""Q4"":""either D or K""}","0","","","","","","","","","","","","","","","","","",""
"","start_exp","","html-keyboard-response","3","118602","0.0-1.0-1.0","0","0","28000","","2497","","","32","","","","","","","","","","","","","","","","",""
"","S1","","html-keyboard-response","4","118759","0.0-1.0-2.0","0","0","28000","","null","","","null","0","","","","","","","","","","","","","","","",""
"","ISI","","html-keyboard-response","5","120763","0.0-1.0-3.0","0","0","28000","","null","","","null","0","NaN","","","","","","","","","","","","","","",""
"","S2","","html-keyboard-response","6","120918","0.0-1.0-4.0","0","0","28000","","null","","","null","0","","NaN","","","","","","","","","","","","","",""
"","response","","html-keyboard-response","7","122773","0.0-1.0-5.0-0.0","0","0","28000","","null","","","null","0","","","1","0","training","adjacent","BA","2","1","N.jpg","R.jpg","NaN","0","0","",""
"","too_slow_prompt","","html-keyboard-response","8","123777","0.0-1.0-7.0-0.0","1","0","28000","","null","","","null","","","","","","","","","","","","","","","","",""
"","time_out","","html-keyboard-response","9","125782","0.0-1.0-8.0-0.0","0","0","28000","","null","","","null","0","","","","","","","","","","","","","","","",""
"","ITI","","html-keyboard-response","10","126787","0.0-1.0-9.0","0","0","28000","","null","","","null","0","","","","","","","","","","","","","","","NaN",""
"","S1","","html-keyboard-response","11","126943","0.0-1.0-11.0","0","0","28000","","null","","","null","1","","","","","","","","","","","","","","","",""
"","ISI","","html-keyboard-response","12","128948","0.0-1.0-12.0","0","0","28000","","null","","","null","1","NaN","","","","","","","","","","","","","","",""
"","S2","","html-keyboard-response","13","129103","0.0-1.0-13.0","0","0","28000","","null","","","null","1","","NaN","","","","","","","","","","","","","",""
"","response","","html-keyboard-response","14","129282","0.0-1.0-14.0-0.0","0","0","28000","","175","","","68","1","","","1","1","training","adjacent","DE","4","5","M.jpg","Q.jpg","1","1","1","",""
"","feedback","","html-keyboard-response","15","130287","0.0-1.0-15.0-0.0","0","0","28000","","null","","","null","1","","","","","","","","","","","","","","","",""
"","ITI","","html-keyboard-response","16","131293","0.0-1.0-18.0","0","0","28000","","null","","","null","1","","","","","","","","","","","","","","","NaN",""
"","S1","","html-keyboard-response","17","131448","0.0-1.0-20.0","0","0","28000","","null","","","null","2","","","","","","","","","","","","","","","",""
"","ISI","","html-keyboard-response","18","133453","0.0-1.0-21.0","0","0","28000","","1140","","","75","2","k","","","","","","","","","","","","","","",""
"","S2","","html-keyboard-response","19","133610","0.0-1.0-22.0","0","0","28000","","null","","","null","2","","NaN","","","","","","","","","","","","","",""
"","response","","html-keyboard-response","20","134461","0.0-1.0-23.0-0.0","0","0","28000","","847","","","75","2","","","1","2","training","adjacent","ED","5","4","Q.jpg","M.jpg","0","0","1","",""
"","feedback","","html-keyboard-response","21","135466","0.0-1.0-24.0-0.0","0","0","28000","","null","","","null","2","","","","","","","","","","","","","","","",""
"","ITI","","html-keyboard-response","22","136471","0.0-1.0-27.0","0","0","28000","","null","","","null","2","","","","","","","","","","","","","","","NaN",""
"","S1","","html-keyboard-response","23","136626","0.0-1.0-29.0","0","0","28000","","null","","","null","3","","","","","","","","","","","","","","","",""
"","ISI","","html-keyboard-response","24","138632","0.0-1.0-30.0","0","0","28000","","null","","","null","3","NaN","","","","","","","","","","","","","","",""
"","S2","","html-keyboard-response","25","138786","0.0-1.0-31.0","0","0","28000","","null","","","null","3","","NaN","","","","","","","","","","","","","",""
"","response","","html-keyboard-response","26","139243","0.0-1.0-32.0-0.0","0","0","28000","","453","","","68","3","","","1","3","training","adjacent","GF","7","6","L.jpg","P.jpg","1","0","0","",""
"","feedback","","html-keyboard-response","27","140249","0.0-1.0-33.0-0.0","0","0","28000","","null","","","null","3","","","","","","","","","","","","","","","",""
"","time_out","","html-keyboard-response","28","142254","0.0-1.0-35.0-0.0","0","0","28000","","null","","","null","3","","","","","","","","","","","","","","","",""
"","ITI","","html-keyboard-response","29","143259","0.0-1.0-36.0","0","0","28000","","null","","","null","3","","","","","","","","","","","","","","","NaN",""
"","S1","","html-keyboard-response","30","143413","0.0-1.0-38.0","0","0","28000","","null","","","null","4","","","","","","","","","","","","","","","",""
"","ISI","","html-keyboard-response","31","145418","0.0-1.0-39.0","0","0","28000","","null","","","null","4","NaN","","","","","","","","","","","","","","",""
"","S2","","html-keyboard-response","32","145573","0.0-1.0-40.0","0","0","28000","","null","","","null","4","","NaN","","","","","","","","","","","","","",""
"","response","","html-keyboard-response","33","145863","0.0-1.0-41.0-0.0","0","0","28000","","287","","","68","4","","","1","4","training","adjacent","CD","3","4","O.jpg","M.jpg","1","1","1","",""
"","feedback","","html-keyboard-response","34","146869","0.0-1.0-42.0-0.0","0","0","28000","","null","","","null","4","","","","","","","","","","","","","","","",""
"","ITI","","html-keyboard-response","35","147874","0.0-1.0-45.0","0","0","28000","","null","","","null","4","","","","","","","","","","","","","","","NaN",""
"","S1","","html-keyboard-response","36","148029","0.0-1.0-47.0","0","0","28000","","null","","","null","5","","","","","","","","","","","","","","","",""
"","ISI","","html-keyboard-response","37","150033","0.0-1.0-48.0","0","0","28000","","2000","","","75","5","k","","","","","","","","","","","","","","",""
"","S2","","html-keyboard-response","38","150188","0.0-1.0-49.0","0","0","28000","","null","","","null","5","","NaN","","","","","","","","","","","","","",""
"","response","","html-keyboard-response","39","151002","0.0-1.0-50.0-0.0","0","0","28000","","811","","","75","5","","","1","5","training","adjacent","CB","3","2","O.jpg","N.jpg","0","0","1","",""
"","feedback","","html-keyboard-response","40","152007","0.0-1.0-51.0-0.0","0","0","28000","","null","","","null","5","","","","","","","","","","","","","","","",""
"","ITI","","html-keyboard-response","41","153012","0.0-1.0-54.0","0","0","28000","","null","","","null","5","","","","","","","","","","","","","","","NaN",""
"","S1","","html-keyboard-response","42","153167","0.0-1.0-56.0","0","0","28000","","null","","","null","6","","","","","","","","","","","","","","","",""
"","ISI","","html-keyboard-response","43","155172","0.0-1.0-57.0","0","0","28000","","null","","","null","6","NaN","","","","","","","","","","","","","","",""
"","S2","","html-keyboard-response","44","155328","0.0-1.0-58.0","0","0","28000","","null","","","null","6","","NaN","","","","","","","","","","","","","",""
"","response","","html-keyboard-response","45","155723","0.0-1.0-59.0-0.0","0","0","28000","","391","","","75","6","","","1","6","training","adjacent","ED","5","4","Q.jpg","M.jpg","0","0","1","",""
"","feedback","","html-keyboard-response","46","156728","0.0-1.0-60.0-0.0","0","0","28000","","null","","","null","6","","","","","","","","","","","","","","","",""
"","ITI","","html-keyboard-response","47","157733","0.0-1.0-63.0","0","0","28000","","null","","","null","6","","","","","","","","","","","","","","","NaN",""
"","S1","","html-keyboard-response","48","157888","0.0-1.0-65.0","0","0","28000","","null","","","null","7","","","","","","","","","","","","","","","",""
"","ISI","","html-keyboard-response","49","159892","0.0-1.0-66.0","0","0","28000","","null","","","null","7","NaN","","","","","","","","","","","","","","",""
"","S2","","html-keyboard-response","50","160048","0.0-1.0-67.0","0","0","28000","","null","","","null","7","","NaN","","","","","","","","","","","","","",""
"","response","","html-keyboard-response","51","160503","0.0-1.0-68.0-0.0","0","0","28000","","452","","","75","7","","","1","7","training","adjacent","ED","5","4","Q.jpg","M.jpg","0","0","1","",""
"","feedback","","html-keyboard-response","52","161508","0.0-1.0-69.0-0.0","0","0","28000","","null","","","null","7","","","","","","","","","","","","","","","",""
"","ITI","","html-keyboard-response","53","162513","0.0-1.0-72.0","0","0","28000","","null","","","null","7","","","","","","","","","","","","","","","NaN",""
"","S1","","html-keyboard-response","54","162667","0.0-1.0-74.0","0","0","28000","","null","","","null","8","","","","","","","","","","","","","","","",""
"","ISI","","html-keyboard-response","55","164672","0.0-1.0-75.0","0","0","28000","","null","","","null","8","NaN","","","","","","","","","","","","","","",""
"","S2","","html-keyboard-response","56","164827","0.0-1.0-76.0","0","0","28000","","null","","","null","8","","NaN","","","","","","","","","","","","","",""
"","response","","html-keyboard-response","57","165123","0.0-1.0-77.0-0.0","0","0","28000","","292","","","75","8","","","1","8","training","adjacent","FE","6","5","P.jpg","Q.jpg","0","0","1","",""
"","feedback","","html-keyboard-response","58","166129","0.0-1.0-78.0-0.0","0","0","28000","","null","","","null","8","","","","","","","","","","","","","","","",""
"","ITI","","html-keyboard-response","59","167134","0.0-1.0-81.0","0","0","28000","","null","","","null","8","","","","","","","","","","","","","","","NaN",""
"","S1","","html-keyboard-response","60","167290","0.0-1.0-83.0","0","0","28000","","null","","","null","9","","","","","","","","","","","","","","","",""
"","ISI","","html-keyboard-response","61","169294","0.0-1.0-84.0","0","0","28000","","null","","","null","9","NaN","","","","","","","","","","","","","","",""
"","S2","","html-keyboard-response","62","169449","0.0-1.0-85.0","0","0","28000","","null","","","null","9","","NaN","","","","","","","","","","","","","",""
"","response","","html-keyboard-response","63","169673","0.0-1.0-86.0-0.0","0","0","28000","","221","","","68","9","","","1","9","training","adjacent","DC","4","3","M.jpg","O.jpg","1","0","0","",""
"","feedback","","html-keyboard-response","64","170678","0.0-1.0-87.0-0.0","0","0","28000","","null","","","null","9","","","","","","","","","","","","","","","",""
"","time_out","","html-keyboard-response","65","172683","0.0-1.0-89.0-0.0","0","0","28000","","null","","","null","9","","","","","","","","","","","","","","","",""
"","ITI","","html-keyboard-response","66","173688","0.0-1.0-90.0","0","0","28000","","null","","","null","9","","","","","","","","","","","","","","","NaN",""
"","S1","","html-keyboard-response","67","173843","0.0-1.0-92.0","0","0","28000","","null","","","null","10","","","","","","","","","","","","","","","",""
"","ISI","","html-keyboard-response","68","175848","0.0-1.0-93.0","0","0","28000","","null","","","null","10","NaN","","","","","","","","","","","","","","",""
"","S2","","html-keyboard-response","69","176002","0.0-1.0-94.0","0","0","28000","","null","","","null","10","","NaN","","","","","","","","","","","","","",""
"","response","","html-keyboard-response","70","176274","0.0-1.0-95.0-0.0","0","0","28000","","270","","","75","10","","","1","10","training","adjacent","AB","1","2","R.jpg","N.jpg","0","1","0","",""
"","feedback","","html-keyboard-response","71","177280","0.0-1.0-96.0-0.0","0","0","28000","","null","","","null","10","","","","","","","","","","","","","","","",""
"","time_out","","html-keyboard-response","72","179286","0.0-1.0-98.0-0.0","0","0","28000","","null","","","null","10","","","","","","","","","","","","","","","",""
"","ITI","","html-keyboard-response","73","180291","0.0-1.0-99.0","0","0","28000","","null","","","null","10","","","","","","","","","","","","","","","NaN",""
"","S1","","html-keyboard-response","74","180446","0.0-1.0-101.0","0","0","28000","","null","","","null","11","","","","","","","","","","","","","","","",""
"","ISI","","html-keyboard-response","75","182450","0.0-1.0-102.0","0","0","28000","","463","","","75","11","k","","","","","","","","","","","","","","",""
"","S2","","html-keyboard-response","76","182606","0.0-1.0-103.0","0","0","28000","","null","","","null","11","","NaN","","","","","","","","","","","","","",""
"","response","","html-keyboard-response","77","183074","0.0-1.0-104.0-0.0","0","0","28000","","465","","","75","11","","","1","11","training","adjacent","GF","7","6","L.jpg","P.jpg","0","0","1","",""
"","feedback","","html-keyboard-response","78","184080","0.0-1.0-105.0-0.0","0","0","28000","","null","","","null","11","","","","","","","","","","","","","","","",""
"","ITI","","html-keyboard-response","79","185084","0.0-1.0-108.0","0","0","28000","","null","","","null","11","","","","","","","","","","","","","","","NaN",""
"","S1","","html-keyboard-response","80","185239","0.0-1.0-110.0","0","0","28000","","null","","","null","12","","","","","","","","","","","","","","","",""
"","ISI","","html-keyboard-response","81","187244","0.0-1.0-111.0","0","0","28000","","451","","","75","12","k","","","","","","","","","","","","","","",""
"","S2","","html-keyboard-response","82","187399","0.0-1.0-112.0","0","0","28000","","null","","","null","12","","NaN","","","","","","","","","","","","","",""
"","response","","html-keyboard-response","83","187572","0.0-1.0-113.0-0.0","0","0","28000","","170","","","68","12","","","1","12","training","adjacent","FG","6","7","P.jpg","L.jpg","1","1","1","",""
"","feedback","","html-keyboard-response","84","188578","0.0-1.0-114.0-0.0","0","0","28000","","null","","","null","12","","","","","","","","","","","","","","","",""
"","ITI","","html-keyboard-response","85","189582","0.0-1.0-117.0","0","0","28000","","null","","","null","12","","","","","","","","","","","","","","","NaN",""
"","S1","","html-keyboard-response","86","189737","0.0-1.0-119.0","0","0","28000","","null","","","null","13","","","","","","","","","","","","","","","",""
"","ISI","","html-keyboard-response","87","191742","0.0-1.0-120.0","0","0","28000","","null","","","null","13","NaN","","","","","","","","","","","","","","",""
"","S2","","html-keyboard-response","88","191897","0.0-1.0-121.0","0","0","28000","","null","","","null","13","","NaN","","","","","","","","","","","","","",""
"","response","","html-keyboard-response","89","192153","0.0-1.0-122.0-0.0","0","0","28000","","252","","","68","13","","","1","13","training","adjacent","GF","7","6","L.jpg","P.jpg","1","0","0","",""
"","feedback","","html-keyboard-response","90","193158","0.0-1.0-123.0-0.0","0","0","28000","","null","","","null","13","","","","","","","","","","","","","","","",""
"","time_out","","html-keyboard-response","91","195163","0.0-1.0-125.0-0.0","0","0","28000","","null","","","null","13","","","","","","","","","","","","","","","",""
"","ITI","","html-keyboard-response","92","196167","0.0-1.0-126.0","0","0","28000","","null","","","null","13","","","","","","","","","","","","","","","NaN",""
"","S1","","html-keyboard-response","93","196324","0.0-1.0-128.0","0","0","28000","","null","","","null","14","","","","","","","","","","","","","","","",""
"","ISI","","html-keyboard-response","94","198328","0.0-1.0-129.0","0","0","28000","","null","","","null","14","NaN","","","","","","","","","","","","","","",""
"","S2","","html-keyboard-response","95","198482","0.0-1.0-130.0","0","0","28000","","null","","","null","14","","NaN","","","","","","","","","","","","","",""
"","response","","html-keyboard-response","96","198754","0.0-1.0-131.0-0.0","0","0","28000","","269","","","75","14","","","1","14","training","adjacent","AB","1","2","R.jpg","N.jpg","0","1","0","",""
"","feedback","","html-keyboard-response","97","199760","0.0-1.0-132.0-0.0","0","0","28000","","null","","","null","14","","","","","","","","","","","","","","","",""
"","time_out","","html-keyboard-response","98","201764","0.0-1.0-134.0-0.0","0","0","28000","","null","","","null","14","","","","","","","","","","","","","","","",""
"","ITI","","html-keyboard-response","99","202768","0.0-1.0-135.0","0","0","28000","","null","","","null","14","","","","","","","","","","","","","","","NaN",""
"","S1","","html-keyboard-response","100","202924","0.0-1.0-137.0","0","0","28000","","null","","","null","15","","","","","","","","","","","","","","","",""
"","ISI","","html-keyboard-response","101","204929","0.0-1.0-138.0","0","0","28000","","null","","","null","15","NaN","","","","","","","","","","","","","","",""
"","S2","","html-keyboard-response","102","205083","0.0-1.0-139.0","0","0","28000","","null","","","null","15","","NaN","","","","","","","","","","","","","",""
"","response","","html-keyboard-response","103","205592","0.0-1.0-140.0-0.0","0","0","28000","","506","","","75","15","","","1","15","training","adjacent","CD","3","4","O.jpg","M.jpg","0","1","0","",""
"","feedback","","html-keyboard-response","104","206597","0.0-1.0-141.0-0.0","0","0","28000","","null","","","null","15","","","","","","","","","","","","","","","",""
"","time_out","","html-keyboard-response","105","208601","0.0-1.0-143.0-0.0","0","0","28000","","null","","","null","15","","","","","","","","","","","","","","","",""
"","ITI","","html-keyboard-response","106","209607","0.0-1.0-144.0","0","0","28000","","null","","","null","15","","","","","","","","","","","","","","","NaN",""
"","S1","","html-keyboard-response","107","209762","0.0-1.0-146.0","0","0","28000","","null","","","null","16","","","","","","","","","","","","","","","",""
"","ISI","","html-keyboard-response","108","211766","0.0-1.0-147.0","0","0","28000","","null","","","null","16","NaN","","","","","","","","","","","","","","",""
"","S2","","html-keyboard-response","109","211921","0.0-1.0-148.0","0","0","28000","","null","","","null","16","","NaN","","","","","","","","","","","","","",""
"","response","","html-keyboard-response","110","212553","0.0-1.0-149.0-0.0","0","0","28000","","629","","","68","16","","","1","16","training","adjacent","BA","2","1","N.jpg","R.jpg","1","0","0","",""
"","feedback","","html-keyboard-response","111","213559","0.0-1.0-150.0-0.0","0","0","28000","","null","","","null","16","","","","","","","","","","","","","","","",""
"","time_out","","html-keyboard-response","112","215563","0.0-1.0-152.0-0.0","0","0","28000","","null","","","null","16","","","","","","","","","","","","","","","",""
"","ITI","","html-keyboard-response","113","216568","0.0-1.0-153.0","0","0","28000","","null","","","null","16","","","","","","","","","","","","","","","NaN",""
"","S1","","html-keyboard-response","114","216723","0.0-1.0-155.0","0","0","28000","","null","","","null","17","","","","","","","","","","","","","","","",""
"","ISI","","html-keyboard-response","115","218727","0.0-1.0-156.0","0","0","28000","","null","","","null","17","NaN","","","","","","","","","","","","","","",""
"","S2","","html-keyboard-response","116","218883","0.0-1.0-157.0","0","0","28000","","null","","","null","17","","NaN","","","","","","","","","","","","","",""
"","response","","html-keyboard-response","117","219184","0.0-1.0-158.0-0.0","0","0","28000","","297","","","68","17","","","1","17","training","adjacent","FG","6","7","P.jpg","L.jpg","1","1","1","",""
"","feedback","","html-keyboard-response","118","220189","0.0-1.0-159.0-0.0","0","0","28000","","null","","","null","17","","","","","","","","","","","","","","","",""
"","ITI","","html-keyboard-response","119","221193","0.0-1.0-162.0","0","0","28000","","null","","","null","17","","","","","","","","","","","","","","","NaN",""
"","S1","","html-keyboard-response","120","221348","0.0-1.0-164.0","0","0","28000","","null","","","null","18","","","","","","","","","","","","","","","",""
"","ISI","","html-keyboard-response","121","223354","0.0-1.0-165.0","0","0","28000","","null","","","null","18","NaN","","","","","","","","","","","","","","",""
"","S2","","html-keyboard-response","122","223509","0.0-1.0-166.0","0","0","28000","","null","","","null","18","","NaN","","","","","","","","","","","","","",""
"","response","","html-keyboard-response","123","223973","0.0-1.0-167.0-0.0","0","0","28000","","461","","","68","18","","","1","18","training","adjacent","DC","4","3","M.jpg","O.jpg","1","0","0","",""
"","feedback","","html-keyboard-response","124","224978","0.0-1.0-168.0-0.0","0","0","28000","","null","","","null","18","","","","","","","","","","","","","","","",""
"","time_out","","html-keyboard-response","125","226982","0.0-1.0-170.0-0.0","0","0","28000","","null","","","null","18","","","","","","","","","","","","","","","",""
"","ITI","","html-keyboard-response","126","227988","0.0-1.0-171.0","0","0","28000","","null","","","null","18","","","","","","","","","","","","","","","NaN",""
"","S1","","html-keyboard-response","127","228143","0.0-1.0-173.0","0","0","28000","","null","","","null","19","","","","","","","","","","","","","","","",""
"","ISI","","html-keyboard-response","128","230146","0.0-1.0-174.0","0","0","28000","","null","","","null","19","NaN","","","","","","","","","","","","","","",""
"","S2","","html-keyboard-response","129","230301","0.0-1.0-175.0","0","0","28000","","null","","","null","19","","NaN","","","","","","","","","","","","","",""
"","response","","html-keyboard-response","130","230552","0.0-1.0-176.0-0.0","0","0","28000","","248","","","75","19","","","1","19","training","adjacent","CB","3","2","O.jpg","N.jpg","0","0","1","",""
"","feedback","","html-keyboard-response","131","231557","0.0-1.0-177.0-0.0","0","0","28000","","null","","","null","19","","","","","","","","","","","","","","","",""
"","ITI","","html-keyboard-response","132","232562","0.0-1.0-180.0","0","0","28000","","null","","","null","19","","","","","","","","","","","","","","","NaN",""
"","S1","","html-keyboard-response","133","232718","0.0-1.0-182.0","0","0","28000","","null","","","null","20","","","","","","","","","","","","","","","",""
"","ISI","","html-keyboard-response","134","234722","0.0-1.0-183.0","0","0","28000","","null","","","null","20","NaN","","","","","","","","","","","","","","",""
"","S2","","html-keyboard-response","135","234877","0.0-1.0-184.0","0","0","28000","","null","","","null","20","","NaN","","","","","","","","","","","","","",""
"","response","","html-keyboard-response","136","235083","0.0-1.0-185.0-0.0","0","0","28000","","202","","","68","20","","","1","20","training","adjacent","BA","2","1","N.jpg","R.jpg","1","0","0","",""
"","feedback","","html-keyboard-response","137","236087","0.0-1.0-186.0-0.0","0","0","28000","","null","","","null","20","","","","","","","","","","","","","","","",""
"","time_out","","html-keyboard-response","138","238091","0.0-1.0-188.0-0.0","0","0","28000","","null","","","null","20","","","","","","","","","","","","","","","",""
"","ITI","","html-keyboard-response","139","239096","0.0-1.0-189.0","0","0","28000","","null","","","null","20","","","","","","","","","","","","","","","NaN",""
"","S1","","html-keyboard-response","140","239251","0.0-1.0-191.0","0","0","28000","","null","","","null","21","","","","","","","","","","","","","","","",""
"","ISI","","html-keyboard-response","141","241256","0.0-1.0-192.0","0","0","28000","","null","","","null","21","NaN","","","","","","","","","","","","","","",""
"","S2","","html-keyboard-response","142","241411","0.0-1.0-193.0","0","0","28000","","null","","","null","21","","NaN","","","","","","","","","","","","","",""
"","response","","html-keyboard-response","143","241863","0.0-1.0-194.0-0.0","0","0","28000","","449","","","68","21","","","1","21","training","adjacent","CB","3","2","O.jpg","N.jpg","1","0","0","",""
"","feedback","","html-keyboard-response","144","242869","0.0-1.0-195.0-0.0","0","0","28000","","null","","","null","21","","","","","","","","","","","","","","","",""
"","time_out","","html-keyboard-response","145","244873","0.0-1.0-197.0-0.0","0","0","28000","","null","","","null","21","","","","","","","","","","","","","","","",""
"","ITI","","html-keyboard-response","146","245878","0.0-1.0-198.0","0","0","28000","","null","","","null","21","","","","","","","","","","","","","","","NaN",""
"","S1","","html-keyboard-response","147","246032","0.0-1.0-200.0","0","0","28000","","null","","","null","22","","","","","","","","","","","","","","","",""
"","ISI","","html-keyboard-response","148","248037","0.0-1.0-201.0","0","0","28000","","558","","","75","22","k","","","","","","","","","","","","","","",""
"","S2","","html-keyboard-response","149","248193","0.0-1.0-202.0","0","0","28000","","null","","","null","22","","NaN","","","","","","","","","","","","","",""
"","response","","html-keyboard-response","150","248442","0.0-1.0-203.0-0.0","0","0","28000","","245","","","75","22","","","1","22","training","adjacent","AB","1","2","R.jpg","N.jpg","0","1","0","",""
"","feedback","","html-keyboard-response","151","249448","0.0-1.0-204.0-0.0","0","0","28000","","null","","","null","22","","","","","","","","","","","","","","","",""
"","time_out","","html-keyboard-response","152","251452","0.0-1.0-206.0-0.0","0","0","28000","","null","","","null","22","","","","","","","","","","","","","","","",""
"","ITI","","html-keyboard-response","153","252456","0.0-1.0-207.0","0","0","28000","","null","","","null","22","","","","","","","","","","","","","","","NaN",""
"","S1","","html-keyboard-response","154","252610","0.0-1.0-209.0","0","0","28000","","null","","","null","23","","","","","","","","","","","","","","","",""
"","ISI","","html-keyboard-response","155","254617","0.0-1.0-210.0","0","0","28000","","null","","","null","23","NaN","","","","","","","","","","","","","","",""
"","S2","","html-keyboard-response","156","254771","0.0-1.0-211.0","0","0","28000","","null","","","null","23","","NaN","","","","","","","","","","","","","",""
"","response","","html-keyboard-response","157","255024","0.0-1.0-212.0-0.0","0","0","28000","","250","","","75","23","","","1","23","training","adjacent","BC","2","3","N.jpg","O.jpg","0","1","0","",""
"","feedback","","html-keyboard-response","158","256029","0.0-1.0-213.0-0.0","0","0","28000","","null","","","null","23","","","","","","","","","","","","","","","",""
"","time_out","","html-keyboard-response","159","258034","0.0-1.0-215.0-0.0","0","0","28000","","null","","","null","23","","","","","","","","","","","","","","","",""
"","ITI","","html-keyboard-response","160","259040","0.0-1.0-216.0","0","0","28000","","null","","","null","23","","","","","","","","","","","","","","","NaN",""
"","S1","","html-keyboard-response","161","259193","0.0-1.0-218.0","0","0","28000","","null","","","null","24","","","","","","","","","","","","","","","",""
"","ISI","","html-keyboard-response","162","261197","0.0-1.0-219.0","0","0","28000","","null","","","null","24","NaN","","","","","","","","","","","","","","",""
"","S2","","html-keyboard-response","163","261353","0.0-1.0-220.0","0","0","28000","","null","","","null","24","","NaN","","","","","","","","","","","","","",""
"","response","","html-keyboard-response","164","261614","0.0-1.0-221.0-0.0","0","0","28000","","257","","","75","24","","","1","24","training","adjacent","GF","7","6","L.jpg","P.jpg","0","0","1","",""
"","feedback","","html-keyboard-response","165","262620","0.0-1.0-222.0-0.0","0","0","28000","","null","","","null","24","","","","","","","","","","","","","","","",""
"","ITI","","html-keyboard-response","166","263624","0.0-1.0-225.0","0","0","28000","","null","","","null","24","","","","","","","","","","","","","","","NaN",""
"","S1","","html-keyboard-response","167","263780","0.0-1.0-227.0","0","0","28000","","null","","","null","25","","","","","","","","","","","","","","","",""
"","ISI","","html-keyboard-response","168","265784","0.0-1.0-228.0","0","0","28000","","null","","","null","25","NaN","","","","","","","","","","","","","","",""
"","S2","","html-keyboard-response","169","265939","0.0-1.0-229.0","0","0","28000","","null","","","null","25","","NaN","","","","","","","","","","","","","",""
"","response","","html-keyboard-response","170","266233","0.0-1.0-230.0-0.0","0","0","28000","","290","","","68","25","","","1","25","training","adjacent","AB","1","2","R.jpg","N.jpg","1","1","1","",""
"","feedback","","html-keyboard-response","171","267237","0.0-1.0-231.0-0.0","0","0","28000","","null","","","null","25","","","","","","","","","","","","","","","",""
"","ITI","","html-keyboard-response","172","268242","0.0-1.0-234.0","0","0","28000","","null","","","null","25","","","","","","","","","","","","","","","NaN",""
"","S1","","html-keyboard-response","173","268398","0.0-1.0-236.0","0","0","28000","","null","","","null","26","","","","","","","","","","","","","","","",""
"","ISI","","html-keyboard-response","174","270403","0.0-1.0-237.0","0","0","28000","","null","","","null","26","NaN","","","","","","","","","","","","","","",""
"","S2","","html-keyboard-response","175","270558","0.0-1.0-238.0","0","0","28000","","null","","","null","26","","NaN","","","","","","","","","","","","","",""
"","response","","html-keyboard-response","176","270974","0.0-1.0-239.0-0.0","0","0","28000","","412","","","68","26","","","1","26","training","adjacent","BA","2","1","N.jpg","R.jpg","1","0","0","",""
"","feedback","","html-keyboard-response","177","271979","0.0-1.0-240.0-0.0","0","0","28000","","null","","","null","26","","","","","","","","","","","","","","","",""
"","time_out","","html-keyboard-response","178","273984","0.0-1.0-242.0-0.0","0","0","28000","","null","","","null","26","","","","","","","","","","","","","","","",""
"","ITI","","html-keyboard-response","179","274987","0.0-1.0-243.0","0","0","28000","","46","","","68","26","","","","","","","","","","","","","","","d",""
"","S1","","html-keyboard-response","180","275143","0.0-1.0-245.0","0","0","28000","","null","","","null","27","","","","","","","","","","","","","","","",""
"","ISI","","html-keyboard-response","181","277147","0.0-1.0-246.0","0","0","28000","","null","","","null","27","NaN","","","","","","","","","","","","","","",""
"","S2","","html-keyboard-response","182","277303","0.0-1.0-247.0","0","0","28000","","null","","","null","27","","NaN","","","","","","","","","","","","","",""
"","response","","html-keyboard-response","183","277592","0.0-1.0-248.0-0.0","0","0","28000","","286","","","75","27","","","1","27","training","adjacent","FE","6","5","P.jpg","Q.jpg","0","0","1","",""
"","feedback","","html-keyboard-response","184","278597","0.0-1.0-249.0-0.0","0","0","28000","","null","","","null","27","","","","","","","","","","","","","","","",""
"","ITI","","html-keyboard-response","185","279602","0.0-1.0-252.0","0","0","28000","","null","","","null","27","","","","","","","","","","","","","","","NaN",""
"","S1","","html-keyboard-response","186","279758","0.0-1.0-254.0","0","0","28000","","null","","","null","28","","","","","","","","","","","","","","","",""
"","ISI","","html-keyboard-response","187","281763","0.0-1.0-255.0","0","0","28000","","null","","","null","28","NaN","","","","","","","","","","","","","","",""
"","S2","","html-keyboard-response","188","281919","0.0-1.0-256.0","0","0","28000","","null","","","null","28","","NaN","","","","","","","","","","","","","",""
"","response","","html-keyboard-response","189","282225","0.0-1.0-257.0-0.0","0","0","28000","","302","","","68","28","","","1","28","training","adjacent","DE","4","5","M.jpg","Q.jpg","1","1","1","",""
"","feedback","","html-keyboard-response","190","283230","0.0-1.0-258.0-0.0","0","0","28000","","null","","","null","28","","","","","","","","","","","","","","","",""
"","ITI","","html-keyboard-response","191","284235","0.0-1.0-261.0","0","0","28000","","null","","","null","28","","","","","","","","","","","","","","","NaN",""
"","S1","","html-keyboard-response","192","284390","0.0-1.0-263.0","0","0","28000","","null","","","null","29","","","","","","","","","","","","","","","",""
"","ISI","","html-keyboard-response","193","286395","0.0-1.0-264.0","0","0","28000","","null","","","null","29","NaN","","","","","","","","","","","","","","",""
"","S2","","html-keyboard-response","194","286549","0.0-1.0-265.0","0","0","28000","","null","","","null","29","","NaN","","","","","","","","","","","","","",""
"","response","","html-keyboard-response","195","286784","0.0-1.0-266.0-0.0","0","0","28000","","230","","","68","29","","","1","29","training","adjacent","DC","4","3","M.jpg","O.jpg","1","0","0","",""
"","feedback","","html-keyboard-response","196","287789","0.0-1.0-267.0-0.0","0","0","28000","","null","","","null","29","","","","","","","","","","","","","","","",""
"","time_out","","html-keyboard-response","197","289794","0.0-1.0-269.0-0.0","0","0","28000","","null","","","null","29","","","","","","","","","","","","","","","",""
"","ITI","","html-keyboard-response","198","290799","0.0-1.0-270.0","0","0","28000","","null","","","null","29","","","","","","","","","","","","","","","NaN",""
"","S1","","html-keyboard-response","199","290955","0.0-1.0-272.0","0","0","28000","","null","","","null","30","","","","","","","","","","","","","","","",""
"","ISI","","html-keyboard-response","200","292959","0.0-1.0-273.0","0","0","28000","","null","","","null","30","NaN","","","","","","","","","","","","","","",""
"","S2","","html-keyboard-response","201","293115","0.0-1.0-274.0","0","0","28000","","null","","","null","30","","NaN","","","","","","","","","","","","","",""
"","response","","html-keyboard-response","202","293393","0.0-1.0-275.0-0.0","0","0","28000","","274","","","75","30","","","1","30","training","adjacent","FG","6","7","P.jpg","L.jpg","0","1","0","",""
"","feedback","","html-keyboard-response","203","294398","0.0-1.0-276.0-0.0","0","0","28000","","null","","","null","30","","","","","","","","","","","","","","","",""
"","time_out","","html-keyboard-response","204","296404","0.0-1.0-278.0-0.0","0","0","28000","","null","","","null","30","","","","","","","","","","","","","","","",""
"","ITI","","html-keyboard-response","205","297408","0.0-1.0-279.0","0","0","28000","","null","","","null","30","","","","","","","","","","","","","","","NaN",""
"","S1","","html-keyboard-response","206","297563","0.0-1.0-281.0","0","0","28000","","null","","","null","31","","","","","","","","","","","","","","","",""
"","ISI","","html-keyboard-response","207","299568","0.0-1.0-282.0","0","0","28000","","648","","","68","31","d","","","","","","","","","","","","","","",""
"","S2","","html-keyboard-response","208","299723","0.0-1.0-283.0","0","0","28000","","null","","","null","31","","NaN","","","","","","","","","","","","","",""
"","response","","html-keyboard-response","209","299983","0.0-1.0-284.0-0.0","0","0","28000","","257","","","75","31","","","1","31","training","adjacent","CB","3","2","O.jpg","N.jpg","0","0","1","",""
"","feedback","","html-keyboard-response","210","300990","0.0-1.0-285.0-0.0","0","0","28000","","null","","","null","31","","","","","","","","","","","","","","","",""
"","ITI","","html-keyboard-response","211","301995","0.0-1.0-288.0","0","0","28000","","null","","","null","31","","","","","","","","","","","","","","","NaN",""
"","S1","","html-keyboard-response","212","302149","0.0-1.0-290.0","0","0","28000","","null","","","null","32","","","","","","","","","","","","","","","",""
"","ISI","","html-keyboard-response","213","304152","0.0-1.0-291.0","0","0","28000","","null","","","null","32","NaN","","","","","","","","","","","","","","",""
"","S2","","html-keyboard-response","214","304308","0.0-1.0-292.0","0","0","28000","","null","","","null","32","","NaN","","","","","","","","","","","","","",""
"","response","","html-keyboard-response","215","304774","0.0-1.0-293.0-0.0","0","0","28000","","463","","","68","32","","","1","32","training","adjacent","EF","5","6","Q.jpg","P.jpg","1","1","1","",""
"","feedback","","html-keyboard-response","216","305779","0.0-1.0-294.0-0.0","0","0","28000","","null","","","null","32","","","","","","","","","","","","","","","",""
"","ITI","","html-keyboard-response","217","306785","0.0-1.0-297.0","0","0","28000","","null","","","null","32","","","","","","","","","","","","","","","NaN",""
"","S1","","html-keyboard-response","218","306941","0.0-1.0-299.0","0","0","28000","","null","","","null","33","","","","","","","","","","","","","","","",""
"","ISI","","html-keyboard-response","219","308946","0.0-1.0-300.0","0","0","28000","","null","","","null","33","NaN","","","","","","","","","","","","","","",""
"","S2","","html-keyboard-response","220","309100","0.0-1.0-301.0","0","0","28000","","null","","","null","33","","NaN","","","","","","","","","","","","","",""
"","response","","html-keyboard-response","221","309515","0.0-1.0-302.0-0.0","0","0","28000","","411","","","75","33","","","1","33","training","adjacent","CD","3","4","O.jpg","M.jpg","0","1","0","",""
"","feedback","","html-keyboard-response","222","310520","0.0-1.0-303.0-0.0","0","0","28000","","null","","","null","33","","","","","","","","","","","","","","","",""
"","time_out","","html-keyboard-response","223","312525","0.0-1.0-305.0-0.0","0","0","28000","","null","","","null","33","","","","","","","","","","","","","","","",""
"","ITI","","html-keyboard-response","224","313531","0.0-1.0-306.0","0","0","28000","","null","","","null","33","","","","","","","","","","","","","","","NaN",""
"","S1","","html-keyboard-response","225","313686","0.0-1.0-308.0","0","0","28000","","null","","","null","34","","","","","","","","","","","","","","","",""
"","ISI","","html-keyboard-response","226","315691","0.0-1.0-309.0","0","0","28000","","null","","","null","34","NaN","","","","","","","","","","","","","","",""
"","S2","","html-keyboard-response","227","315847","0.0-1.0-310.0","0","0","28000","","null","","","null","34","","NaN","","","","","","","","","","","","","",""
"","response","","html-keyboard-response","228","316167","0.0-1.0-311.0-0.0","0","0","28000","","317","","","75","34","","","1","34","training","adjacent","EF","5","6","Q.jpg","P.jpg","0","1","0","",""
"","feedback","","html-keyboard-response","229","317173","0.0-1.0-312.0-0.0","0","0","28000","","null","","","null","34","","","","","","","","","","","","","","","",""
"","time_out","","html-keyboard-response","230","319177","0.0-1.0-314.0-0.0","0","0","28000","","null","","","null","34","","","","","","","","","","","","","","","",""
"","ITI","","html-keyboard-response","231","320182","0.0-1.0-315.0","0","0","28000","","null","","","null","34","","","","","","","","","","","","","","","NaN",""
"","S1","","html-keyboard-response","232","320336","0.0-1.0-317.0","0","0","28000","","null","","","null","35","","","","","","","","","","","","","","","",""
"","ISI","","html-keyboard-response","233","322342","0.0-1.0-318.0","0","0","28000","","null","","","null","35","NaN","","","","","","","","","","","","","","",""
"","S2","","html-keyboard-response","234","322496","0.0-1.0-319.0","0","0","28000","","null","","","null","35","","NaN","","","","","","","","","","","","","",""
"","response","","html-keyboard-response","235","322815","0.0-1.0-320.0-0.0","0","0","28000","","316","","","68","35","","","1","35","training","adjacent","BC","2","3","N.jpg","O.jpg","1","1","1","",""
"","feedback","","html-keyboard-response","236","323821","0.0-1.0-321.0-0.0","0","0","28000","","null","","","null","35","","","","","","","","","","","","","","","",""
"","ITI","","html-keyboard-response","237","324826","0.0-1.0-324.0","0","0","28000","","null","","","null","35","","","","","","","","","","","","","","","NaN",""
"","S1","","html-keyboard-response","238","324980","0.0-1.0-326.0","0","0","28000","","null","","","null","36","","","","","","","","","","","","","","","",""
"","ISI","","html-keyboard-response","239","326984","0.0-1.0-327.0","0","0","28000","","null","","","null","36","NaN","","","","","","","","","","","","","","",""
"","S2","","html-keyboard-response","240","327140","0.0-1.0-328.0","0","0","28000","","null","","","null","36","","NaN","","","","","","","","","","","","","",""
"","response","","html-keyboard-response","241","327435","0.0-1.0-329.0-0.0","0","0","28000","","292","","","75","36","","","1","36","training","adjacent","EF","5","6","Q.jpg","P.jpg","0","1","0","",""
"","feedback","","html-keyboard-response","242","328441","0.0-1.0-330.0-0.0","0","0","28000","","null","","","null","36","","","","","","","","","","","","","","","",""
"","time_out","","html-keyboard-response","243","330446","0.0-1.0-332.0-0.0","0","0","28000","","null","","","null","36","","","","","","","","","","","","","","","",""
"","ITI","","html-keyboard-response","244","331451","0.0-1.0-333.0","0","0","28000","","null","","","null","36","","","","","","","","","","","","","","","NaN",""
"","S1","","html-keyboard-response","245","331606","0.0-1.0-335.0","0","0","28000","","null","","","null","37","","","","","","","","","","","","","","","",""
"","ISI","","html-keyboard-response","246","333611","0.0-1.0-336.0","0","0","28000","","null","","","null","37","NaN","","","","","","","","","","","","","","",""
"","S2","","html-keyboard-response","247","333766","0.0-1.0-337.0","0","0","28000","","null","","","null","37","","NaN","","","","","","","","","","","","","",""
"","response","","html-keyboard-response","248","334045","0.0-1.0-338.0-0.0","0","0","28000","","276","","","68","37","","","1","37","training","adjacent","FG","6","7","P.jpg","L.jpg","1","1","1","",""
"","feedback","","html-keyboard-response","249","335051","0.0-1.0-339.0-0.0","0","0","28000","","null","","","null","37","","","","","","","","","","","","","","","",""
"","ITI","","html-keyboard-response","250","336057","0.0-1.0-342.0","0","0","28000","","null","","","null","37","","","","","","","","","","","","","","","NaN",""
"","S1","","html-keyboard-response","251","336211","0.0-1.0-344.0","0","0","28000","","null","","","null","38","","","","","","","","","","","","","","","",""
"","ISI","","html-keyboard-response","252","338216","0.0-1.0-345.0","0","0","28000","","null","","","null","38","NaN","","","","","","","","","","","","","","",""
"","S2","","html-keyboard-response","253","338371","0.0-1.0-346.0","0","0","28000","","null","","","null","38","","NaN","","","","","","","","","","","","","",""
"","response","","html-keyboard-response","254","338796","0.0-1.0-347.0-0.0","0","0","28000","","420","","","68","38","","","1","38","training","adjacent","FE","6","5","P.jpg","Q.jpg","1","0","0","",""
"","feedback","","html-keyboard-response","255","339801","0.0-1.0-348.0-0.0","0","0","28000","","null","","","null","38","","","","","","","","","","","","","","","",""
"","time_out","","html-keyboard-response","256","341806","0.0-1.0-350.0-0.0","0","0","28000","","null","","","null","38","","","","","","","","","","","","","","","",""
"","ITI","","html-keyboard-response","257","342809","0.0-1.0-351.0","0","0","28000","","null","","","null","38","","","","","","","","","","","","","","","NaN",""
"","S1","","html-keyboard-response","258","342964","0.0-1.0-353.0","0","0","28000","","null","","","null","39","","","","","","","","","","","","","","","",""
"","ISI","","html-keyboard-response","259","344969","0.0-1.0-354.0","0","0","28000","","null","","","null","39","NaN","","","","","","","","","","","","","","",""
"","S2","","html-keyboard-response","260","345125","0.0-1.0-355.0","0","0","28000","","null","","","null","39","","NaN","","","","","","","","","","","","","",""
"","response","","html-keyboard-response","261","345415","0.0-1.0-356.0-0.0","0","0","28000","","286","","","68","39","","","1","39","training","adjacent","DE","4","5","M.jpg","Q.jpg","1","1","1","",""
"","feedback","","html-keyboard-response","262","346418","0.0-1.0-357.0-0.0","0","0","28000","","null","","","null","39","","","","","","","","","","","","","","","",""
"","ITI","","html-keyboard-response","263","347422","0.0-1.0-360.0","0","0","28000","","null","","","null","39","","","","","","","","","","","","","","","NaN",""
"","S1","","html-keyboard-response","264","347577","0.0-1.0-362.0","0","0","28000","","null","","","null","40","","","","","","","","","","","","","","","",""
"","ISI","","html-keyboard-response","265","349581","0.0-1.0-363.0","0","0","28000","","null","","","null","40","NaN","","","","","","","","","","","","","","",""
"","S2","","html-keyboard-response","266","349736","0.0-1.0-364.0","0","0","28000","","null","","","null","40","","NaN","","","","","","","","","","","","","",""
"","response","","html-keyboard-response","267","350145","0.0-1.0-365.0-0.0","0","0","28000","","405","","","75","40","","","1","40","training","adjacent","DE","4","5","M.jpg","Q.jpg","0","1","0","",""
"","feedback","","html-keyboard-response","268","351151","0.0-1.0-366.0-0.0","0","0","28000","","null","","","null","40","","","","","","","","","","","","","","","",""
"","time_out","","html-keyboard-response","269","353158","0.0-1.0-368.0-0.0","0","0","28000","","null","","","null","40","","","","","","","","","","","","","","","",""
"","ITI","","html-keyboard-response","270","354163","0.0-1.0-369.0","0","0","28000","","null","","","null","40","","","","","","","","","","","","","","","NaN",""
"","S1","","html-keyboard-response","271","354317","0.0-1.0-371.0","0","0","28000","","null","","","null","41","","","","","","","","","","","","","","","",""
"","ISI","","html-keyboard-response","272","356321","0.0-1.0-372.0","0","0","28000","","null","","","null","41","NaN","","","","","","","","","","","","","","",""
"","S2","","html-keyboard-response","273","356475","0.0-1.0-373.0","0","0","28000","","null","","","null","41","","NaN","","","","","","","","","","","","","",""
"","response","","html-keyboard-response","274","356827","0.0-1.0-374.0-0.0","0","0","28000","","348","","","75","41","","","1","41","training","adjacent","BC","2","3","N.jpg","O.jpg","0","1","0","",""
"","feedback","","html-keyboard-response","275","357832","0.0-1.0-375.0-0.0","0","0","28000","","null","","","null","41","","","","","","","","","","","","","","","",""
"","time_out","","html-keyboard-response","276","359837","0.0-1.0-377.0-0.0","0","0","28000","","null","","","null","41","","","","","","","","","","","","","","","",""
"","ITI","","html-keyboard-response","277","360842","0.0-1.0-378.0","0","0","28000","","null","","","null","41","","","","","","","","","","","","","","","NaN",""
"","S1","","html-keyboard-response","278","360998","0.0-1.0-380.0","0","0","28000","","null","","","null","42","","","","","","","","","","","","","","","",""
"","ISI","","html-keyboard-response","279","363003","0.0-1.0-381.0","0","0","28000","","844","","","68","42","d","","","","","","","","","","","","","","",""
"","S2","","html-keyboard-response","280","363158","0.0-1.0-382.0","0","0","28000","","null","","","null","42","","NaN","","","","","","","","","","","","","",""
"","response","","html-keyboard-response","281","363464","0.0-1.0-383.0-0.0","0","0","28000","","302","","","75","42","","","1","42","training","adjacent","CD","3","4","O.jpg","M.jpg","0","1","0","",""
"","feedback","","html-keyboard-response","282","364470","0.0-1.0-384.0-0.0","0","0","28000","","null","","","null","42","","","","","","","","","","","","","","","",""
"","time_out","","html-keyboard-response","283","366474","0.0-1.0-386.0-0.0","0","0","28000","","null","","","null","42","","","","","","","","","","","","","","","",""
"","ITI","","html-keyboard-response","284","367479","0.0-1.0-387.0","0","0","28000","","null","","","null","42","","","","","","","","","","","","","","","NaN",""
"","S1","","html-keyboard-response","285","367634","0.0-1.0-389.0","0","0","28000","","null","","","null","43","","","","","","","","","","","","","","","",""
"","ISI","","html-keyboard-response","286","369638","0.0-1.0-390.0","0","0","28000","","408","","","68","43","d","","","","","","","","","","","","","","",""
"","S2","","html-keyboard-response","287","369793","0.0-1.0-391.0","0","0","28000","","null","","","null","43","","NaN","","","","","","","","","","","","","",""
"","response","","html-keyboard-response","288","369935","0.0-1.0-392.0-0.0","0","0","28000","","138","","","68","43","","","1","43","training","adjacent","FE","6","5","P.jpg","Q.jpg","1","0","0","",""
"","feedback","","html-keyboard-response","289","370940","0.0-1.0-393.0-0.0","0","0","28000","","null","","","null","43","","","","","","","","","","","","","","","",""
"","time_out","","html-keyboard-response","290","372945","0.0-1.0-395.0-0.0","0","0","28000","","null","","","null","43","","","","","","","","","","","","","","","",""
"","ITI","","html-keyboard-response","291","373950","0.0-1.0-396.0","0","0","28000","","null","","","null","43","","","","","","","","","","","","","","","NaN",""
"","S1","","html-keyboard-response","292","374106","0.0-1.0-398.0","0","0","28000","","null","","","null","44","","","","","","","","","","","","","","","",""
"","ISI","","html-keyboard-response","293","376111","0.0-1.0-399.0","0","0","28000","","null","","","null","44","NaN","","","","","","","","","","","","","","",""
"","S2","","html-keyboard-response","294","376267","0.0-1.0-400.0","0","0","28000","","null","","","null","44","","NaN","","","","","","","","","","","","","",""
"","response","","html-keyboard-response","295","376534","0.0-1.0-401.0-0.0","0","0","28000","","264","","","68","44","","","1","44","training","adjacent","BC","2","3","N.jpg","O.jpg","1","1","1","",""
"","feedback","","html-keyboard-response","296","377539","0.0-1.0-402.0-0.0","0","0","28000","","null","","","null","44","","","","","","","","","","","","","","","",""
"","ITI","","html-keyboard-response","297","378544","0.0-1.0-405.0","0","0","28000","","null","","","null","44","","","","","","","","","","","","","","","NaN",""
"","S1","","html-keyboard-response","298","378698","0.0-1.0-407.0","0","0","28000","","null","","","null","45","","","","","","","","","","","","","","","",""
"","ISI","","html-keyboard-response","299","380704","0.0-1.0-408.0","0","0","28000","","null","","","null","45","NaN","","","","","","","","","","","","","","",""
"","S2","","html-keyboard-response","300","380859","0.0-1.0-409.0","0","0","28000","","null","","","null","45","","NaN","","","","","","","","","","","","","",""
"","response","","html-keyboard-response","301","381176","0.0-1.0-410.0-0.0","0","0","28000","","313","","","75","45","","","1","45","training","adjacent","DC","4","3","M.jpg","O.jpg","0","0","1","",""
"","feedback","","html-keyboard-response","302","382182","0.0-1.0-411.0-0.0","0","0","28000","","null","","","null","45","","","","","","","","","","","","","","","",""
"","ITI","","html-keyboard-response","303","383187","0.0-1.0-414.0","0","0","28000","","null","","","null","45","","","","","","","","","","","","","","","NaN",""
"","S1","","html-keyboard-response","304","383341","0.0-1.0-416.0","0","0","28000","","null","","","null","46","","","","","","","","","","","","","","","",""
"","ISI","","html-keyboard-response","305","385346","0.0-1.0-417.0","0","0","28000","","null","","","null","46","NaN","","","","","","","","","","","","","","",""
"","S2","","html-keyboard-response","306","385502","0.0-1.0-418.0","0","0","28000","","null","","","null","46","","NaN","","","","","","","","","","","","","",""
"","response","","html-keyboard-response","307","385876","0.0-1.0-419.0-0.0","0","0","28000","","371","","","75","46","","","1","46","training","adjacent","EF","5","6","Q.jpg","P.jpg","0","1","0","",""
"","feedback","","html-keyboard-response","308","386882","0.0-1.0-420.0-0.0","0","0","28000","","null","","","null","46","","","","","","","","","","","","","","","",""
"","time_out","","html-keyboard-response","309","388888","0.0-1.0-422.0-0.0","0","0","28000","","null","","","null","46","","","","","","","","","","","","","","","",""
"","ITI","","html-keyboard-response","310","389894","0.0-1.0-423.0","0","0","28000","","null","","","null","46","","","","","","","","","","","","","","","NaN",""
"","S1","","html-keyboard-response","311","390050","0.0-1.0-425.0","0","0","28000","","null","","","null","47","","","","","","","","","","","","","","","",""
"","ISI","","html-keyboard-response","312","392054","0.0-1.0-426.0","0","0","28000","","null","","","null","47","NaN","","","","","","","","","","","","","","",""
"","S2","","html-keyboard-response","313","392208","0.0-1.0-427.0","0","0","28000","","null","","","null","47","","NaN","","","","","","","","","","","","","",""
"","response","","html-keyboard-response","314","392458","0.0-1.0-428.0-0.0","0","0","28000","","246","","","68","47","","","1","47","training","adjacent","ED","5","4","Q.jpg","M.jpg","1","0","0","",""
"","feedback","","html-keyboard-response","315","393464","0.0-1.0-429.0-0.0","0","0","28000","","null","","","null","47","","","","","","","","","","","","","","","",""
"","time_out","","html-keyboard-response","316","395470","0.0-1.0-431.0-0.0","0","0","28000","","null","","","null","47","","","","","","","","","","","","","","","",""
"","ITI","","html-keyboard-response","317","396473","0.0-1.0-432.0","0","0","28000","","null","","","null","47","","","","","","","","","","","","","","","NaN",""
"","block_over","","html-keyboard-response","318","401635","0.0-1.0-433.0-0.0","0","0","28000","","5157","","","32","47","","","","","","","","","","","","","","","",""
"","S1","","html-keyboard-response","319","401791","0.0-1.0-434.0","0","0","28000","","null","","","null","48","","","","","","","","","","","","","","","",""
"","ISI","","html-keyboard-response","320","403796","0.0-1.0-435.0","0","0","28000","","null","","","null","48","NaN","","","","","","","","","","","","","","",""
"","S2","","html-keyboard-response","321","403951","0.0-1.0-436.0","0","0","28000","","null","","","null","48","","NaN","","","","","","","","","","","","","",""
"","response","","html-keyboard-response","322","404557","0.0-1.0-437.0-0.0","0","0","28000","","602","","","68","48","","","2","48","training","adjacent","FG","6","7","P.jpg","L.jpg","1","1","1","",""
"","feedback","","html-keyboard-response","323","405564","0.0-1.0-438.0-0.0","0","0","28000","","null","","","null","48","","","","","","","","","","","","","","","",""
"","ITI","","html-keyboard-response","324","406569","0.0-1.0-441.0","0","0","28000","","null","","","null","48","","","","","","","","","","","","","","","NaN",""
"","S1","","html-keyboard-response","325","406724","0.0-1.0-443.0","0","0","28000","","null","","","null","49","","","","","","","","","","","","","","","",""
"","ISI","","html-keyboard-response","326","408729","0.0-1.0-444.0","0","0","28000","","null","","","null","49","NaN","","","","","","","","","","","","","","",""
"","S2","","html-keyboard-response","327","408884","0.0-1.0-445.0","0","0","28000","","null","","","null","49","","NaN","","","","","","","","","","","","","",""
"","response","","html-keyboard-response","328","409215","0.0-1.0-446.0-0.0","0","0","28000","","328","","","75","49","","","2","49","training","adjacent","FE","6","5","P.jpg","Q.jpg","0","0","1","",""
"","feedback","","html-keyboard-response","329","410221","0.0-1.0-447.0-0.0","0","0","28000","","null","","","null","49","","","","","","","","","","","","","","","",""
"","ITI","","html-keyboard-response","330","411227","0.0-1.0-450.0","0","0","28000","","null","","","null","49","","","","","","","","","","","","","","","NaN",""
"","S1","","html-keyboard-response","331","411382","0.0-1.0-452.0","0","0","28000","","null","","","null","50","","","","","","","","","","","","","","","",""
"","ISI","","html-keyboard-response","332","413387","0.0-1.0-453.0","0","0","28000","","1191","","","68","50","d","","","","","","","","","","","","","","",""
"","S2","","html-keyboard-response","333","413543","0.0-1.0-454.0","0","0","28000","","null","","","null","50","","NaN","","","","","","","","","","","","","",""
"","response","","html-keyboard-response","334","413965","0.0-1.0-455.0-0.0","0","0","28000","","417","","","68","50","","","2","50","training","adjacent","BA","2","1","N.jpg","R.jpg","1","0","0","",""
"","feedback","","html-keyboard-response","335","414969","0.0-1.0-456.0-0.0","0","0","28000","","null","","","null","50","","","","","","","","","","","","","","","",""
"","time_out","","html-keyboard-response","336","416973","0.0-1.0-458.0-0.0","0","0","28000","","null","","","null","50","","","","","","","","","","","","","","","",""
"","ITI","","html-keyboard-response","337","417978","0.0-1.0-459.0","0","0","28000","","null","","","null","50","","","","","","","","","","","","","","","NaN",""
"","S1","","html-keyboard-response","338","418133","0.0-1.0-461.0","0","0","28000","","null","","","null","51","","","","","","","","","","","","","","","",""
"","ISI","","html-keyboard-response","339","420138","0.0-1.0-462.0","0","0","28000","","441","","","75","51","k","","","","","","","","","","","","","","",""
"","S2","","html-keyboard-response","340","420294","0.0-1.0-463.0","0","0","28000","","null","","","null","51","","NaN","","","","","","","","","","","","","",""
"","response","","html-keyboard-response","341","420699","0.0-1.0-464.0-0.0","0","0","28000","","401","","","75","51","","","2","51","training","adjacent","DE","4","5","M.jpg","Q.jpg","0","1","0","",""
"","feedback","","html-keyboard-response","342","421705","0.0-1.0-465.0-0.0","0","0","28000","","null","","","null","51","","","","","","","","","","","","","","","",""
"","time_out","","html-keyboard-response","343","423710","0.0-1.0-467.0-0.0","0","0","28000","","null","","","null","51","","","","","","","","","","","","","","","",""
"","ITI","","html-keyboard-response","344","424716","0.0-1.0-468.0","0","0","28000","","null","","","null","51","","","","","","","","","","","","","","","NaN",""
"","S1","","html-keyboard-response","345","424871","0.0-1.0-470.0","0","0","28000","","null","","","null","52","","","","","","","","","","","","","","","",""
"","ISI","","html-keyboard-response","346","426876","0.0-1.0-471.0","0","0","28000","","null","","","null","52","NaN","","","","","","","","","","","","","","",""
"","S2","","html-keyboard-response","347","427032","0.0-1.0-472.0","0","0","28000","","null","","","null","52","","NaN","","","","","","","","","","","","","",""
"","response","","html-keyboard-response","348","427306","0.0-1.0-473.0-0.0","0","0","28000","","271","","","68","52","","","2","52","training","adjacent","ED","5","4","Q.jpg","M.jpg","1","0","0","",""
"","feedback","","html-keyboard-response","349","428312","0.0-1.0-474.0-0.0","0","0","28000","","null","","","null","52","","","","","","","","","","","","","","","",""
"","time_out","","html-keyboard-response","350","430316","0.0-1.0-476.0-0.0","0","0","28000","","null","","","null","52","","","","","","","","","","","","","","","",""
"","ITI","","html-keyboard-response","351","431321","0.0-1.0-477.0","0","0","28000","","null","","","null","52","","","","","","","","","","","","","","","NaN",""
"","S1","","html-keyboard-response","352","431477","0.0-1.0-479.0","0","0","28000","","null","","","null","53","","","","","","","","","","","","","","","",""
"","ISI","","html-keyboard-response","353","433482","0.0-1.0-480.0","0","0","28000","","null","","","null","53","NaN","","","","","","","","","","","","","","",""
"","S2","","html-keyboard-response","354","433637","0.0-1.0-481.0","0","0","28000","","null","","","null","53","","NaN","","","","","","","","","","","","","",""
"","response","","html-keyboard-response","355","433897","0.0-1.0-482.0-0.0","0","0","28000","","255","","","75","53","","","2","53","training","adjacent","FE","6","5","P.jpg","Q.jpg","0","0","1","",""
"","feedback","","html-keyboard-response","356","434903","0.0-1.0-483.0-0.0","0","0","28000","","null","","","null","53","","","","","","","","","","","","","","","",""
"","ITI","","html-keyboard-response","357","435908","0.0-1.0-486.0","0","0","28000","","null","","","null","53","","","","","","","","","","","","","","","NaN",""
"","S1","","html-keyboard-response","358","436064","0.0-1.0-488.0","0","0","28000","","null","","","null","54","","","","","","","","","","","","","","","",""
"","ISI","","html-keyboard-response","359","438070","0.0-1.0-489.0","0","0","28000","","null","","","null","54","NaN","","","","","","","","","","","","","","",""
"","S2","","html-keyboard-response","360","438226","0.0-1.0-490.0","0","0","28000","","null","","","null","54","","NaN","","","","","","","","","","","","","",""
"","response","","html-keyboard-response","361","438586","0.0-1.0-491.0-0.0","0","0","28000","","357","","","68","54","","","2","54","training","adjacent","FG","6","7","P.jpg","L.jpg","1","1","1","",""
"","feedback","","html-keyboard-response","362","439593","0.0-1.0-492.0-0.0","0","0","28000","","null","","","null","54","","","","","","","","","","","","","","","",""
"","ITI","","html-keyboard-response","363","440598","0.0-1.0-495.0","0","0","28000","","null","","","null","54","","","","","","","","","","","","","","","NaN",""
"","S1","","html-keyboard-response","364","440753","0.0-1.0-497.0","0","0","28000","","null","","","null","55","","","","","","","","","","","","","","","",""
"","ISI","","html-keyboard-response","365","442758","0.0-1.0-498.0","0","0","28000","","null","","","null","55","NaN","","","","","","","","","","","","","","",""
"","S2","","html-keyboard-response","366","442913","0.0-1.0-499.0","0","0","28000","","null","","","null","55","","NaN","","","","","","","","","","","","","",""
"","response","","html-keyboard-response","367","443157","0.0-1.0-500.0-0.0","0","0","28000","","239","","","68","55","","","2","55","training","adjacent","GF","7","6","L.jpg","P.jpg","1","0","0","",""
"","feedback","","html-keyboard-response","368","444163","0.0-1.0-501.0-0.0","0","0","28000","","null","","","null","55","","","","","","","","","","","","","","","",""
"","time_out","","html-keyboard-response","369","446169","0.0-1.0-503.0-0.0","0","0","28000","","null","","","null","55","","","","","","","","","","","","","","","",""
"","ITI","","html-keyboard-response","370","447173","0.0-1.0-504.0","0","0","28000","","null","","","null","55","","","","","","","","","","","","","","","NaN",""
"","S1","","html-keyboard-response","371","447327","0.0-1.0-506.0","0","0","28000","","null","","","null","56","","","","","","","","","","","","","","","",""
"","ISI","","html-keyboard-response","372","449331","0.0-1.0-507.0","0","0","28000","","587","","","75","56","k","","","","","","","","","","","","","","",""
"","S2","","html-keyboard-response","373","449486","0.0-1.0-508.0","0","0","28000","","null","","","null","56","","NaN","","","","","","","","","","","","","",""
"","response","","html-keyboard-response","374","449605","0.0-1.0-509.0-0.0","0","0","28000","","115","","","75","56","","","2","56","training","adjacent","CD","3","4","O.jpg","M.jpg","0","1","0","",""
"","feedback","","html-keyboard-response","375","450610","0.0-1.0-510.0-0.0","0","0","28000","","null","","","null","56","","","","","","","","","","","","","","","",""
"","time_out","","html-keyboard-response","376","452615","0.0-1.0-512.0-0.0","0","0","28000","","null","","","null","56","","","","","","","","","","","","","","","",""
"","ITI","","html-keyboard-response","377","453620","0.0-1.0-513.0","0","0","28000","","null","","","null","56","","","","","","","","","","","","","","","NaN",""
"","S1","","html-keyboard-response","378","453775","0.0-1.0-515.0","0","0","28000","","null","","","null","57","","","","","","","","","","","","","","","",""
"","ISI","","html-keyboard-response","379","455779","0.0-1.0-516.0","0","0","28000","","328","","","68","57","d","","","","","","","","","","","","","","",""
"","S2","","html-keyboard-response","380","455935","0.0-1.0-517.0","0","0","28000","","null","","","null","57","","NaN","","","","","","","","","","","","","",""
"","response","","html-keyboard-response","381","456105","0.0-1.0-518.0-0.0","0","0","28000","","167","","","68","57","","","2","57","training","adjacent","CB","3","2","O.jpg","N.jpg","1","0","0","",""
"","feedback","","html-keyboard-response","382","457110","0.0-1.0-519.0-0.0","0","0","28000","","null","","","null","57","","","","","","","","","","","","","","","",""
"","time_out","","html-keyboard-response","383","459113","0.0-1.0-521.0-0.0","0","0","28000","","null","","","null","57","","","","","","","","","","","","","","","",""
"","ITI","","html-keyboard-response","384","460117","0.0-1.0-522.0","0","0","28000","","null","","","null","57","","","","","","","","","","","","","","","NaN",""
"","S1","","html-keyboard-response","385","460273","0.0-1.0-524.0","0","0","28000","","null","","","null","58","","","","","","","","","","","","","","","",""
"","ISI","","html-keyboard-response","386","462278","0.0-1.0-525.0","0","0","28000","","521","","","75","58","k","","","","","","","","","","","","","","",""
"","S2","","html-keyboard-response","387","462433","0.0-1.0-526.0","0","0","28000","","null","","","null","58","","NaN","","","","","","","","","","","","","",""
"","response","","html-keyboard-response","388","462585","0.0-1.0-527.0-0.0","0","0","28000","","149","","","68","58","","","2","58","training","adjacent","ED","5","4","Q.jpg","M.jpg","1","0","0","",""
"","feedback","","html-keyboard-response","389","463591","0.0-1.0-528.0-0.0","0","0","28000","","null","","","null","58","","","","","","","","","","","","","","","",""
"","time_out","","html-keyboard-response","390","465595","0.0-1.0-530.0-0.0","0","0","28000","","null","","","null","58","","","","","","","","","","","","","","","",""
"","ITI","","html-keyboard-response","391","466600","0.0-1.0-531.0","0","0","28000","","null","","","null","58","","","","","","","","","","","","","","","NaN",""
"","S1","","html-keyboard-response","392","466753","0.0-1.0-533.0","0","0","28000","","null","","","null","59","","","","","","","","","","","","","","","",""
"","ISI","","html-keyboard-response","393","468758","0.0-1.0-534.0","0","0","28000","","null","","","null","59","NaN","","","","","","","","","","","","","","",""
"","S2","","html-keyboard-response","394","468912","0.0-1.0-535.0","0","0","28000","","null","","","null","59","","NaN","","","","","","","","","","","","","",""
"","response","","html-keyboard-response","395","469148","0.0-1.0-536.0-0.0","0","0","28000","","232","","","75","59","","","2","59","training","adjacent","BA","2","1","N.jpg","R.jpg","0","0","1","",""
"","feedback","","html-keyboard-response","396","470154","0.0-1.0-537.0-0.0","0","0","28000","","null","","","null","59","","","","","","","","","","","","","","","",""
"","ITI","","html-keyboard-response","397","471160","0.0-1.0-540.0","0","0","28000","","null","","","null","59","","","","","","","","","","","","","","","NaN",""
"","S1","","html-keyboard-response","398","471315","0.0-1.0-542.0","0","0","28000","","null","","","null","60","","","","","","","","","","","","","","","",""
"","ISI","","html-keyboard-response","399","473320","0.0-1.0-543.0","0","0","28000","","null","","","null","60","NaN","","","","","","","","","","","","","","",""
"","S2","","html-keyboard-response","400","473475","0.0-1.0-544.0","0","0","28000","","null","","","null","60","","NaN","","","","","","","","","","","","","",""
"","response","","html-keyboard-response","401","473755","0.0-1.0-545.0-0.0","0","0","28000","","278","","","68","60","","","2","60","training","adjacent","AB","1","2","R.jpg","N.jpg","1","1","1","",""
"","feedback","","html-keyboard-response","402","474760","0.0-1.0-546.0-0.0","0","0","28000","","null","","","null","60","","","","","","","","","","","","","","","",""
"","ITI","","html-keyboard-response","403","475766","0.0-1.0-549.0","0","0","28000","","null","","","null","60","","","","","","","","","","","","","","","NaN",""
"","S1","","html-keyboard-response","404","475921","0.0-1.0-551.0","0","0","28000","","null","","","null","61","","","","","","","","","","","","","","","",""
"","ISI","","html-keyboard-response","405","477925","0.0-1.0-552.0","0","0","28000","","null","","","null","61","NaN","","","","","","","","","","","","","","",""
"","S2","","html-keyboard-response","406","478082","0.0-1.0-553.0","0","0","28000","","null","","","null","61","","NaN","","","","","","","","","","","","","",""
"","response","","html-keyboard-response","407","478337","0.0-1.0-554.0-0.0","0","0","28000","","252","","","75","61","","","2","61","training","adjacent","DE","4","5","M.jpg","Q.jpg","0","1","0","",""
"","feedback","","html-keyboard-response","408","479343","0.0-1.0-555.0-0.0","0","0","28000","","null","","","null","61","","","","","","","","","","","","","","","",""
"","time_out","","html-keyboard-response","409","481349","0.0-1.0-557.0-0.0","0","0","28000","","null","","","null","61","","","","","","","","","","","","","","","",""
"","ITI","","html-keyboard-response","410","482354","0.0-1.0-558.0","0","0","28000","","null","","","null","61","","","","","","","","","","","","","","","NaN",""
"","S1","","html-keyboard-response","411","482509","0.0-1.0-560.0","0","0","28000","","null","","","null","62","","","","","","","","","","","","","","","",""
"","ISI","","html-keyboard-response","412","484514","0.0-1.0-561.0","0","0","28000","","264","","","75","62","k","","","","","","","","","","","","","","",""
"","S2","","html-keyboard-response","413","484670","0.0-1.0-562.0","0","0","28000","","null","","","null","62","","NaN","","","","","","","","","","","","","",""
"","response","","html-keyboard-response","414","485080","0.0-1.0-563.0-0.0","0","0","28000","","408","","","75","62","","","2","62","training","adjacent","DE","4","5","M.jpg","Q.jpg","0","1","0","",""
"","feedback","","html-keyboard-response","415","486085","0.0-1.0-564.0-0.0","0","0","28000","","null","","","null","62","","","","","","","","","","","","","","","",""
"","time_out","","html-keyboard-response","416","488090","0.0-1.0-566.0-0.0","0","0","28000","","null","","","null","62","","","","","","","","","","","","","","","",""
"","ITI","","html-keyboard-response","417","489094","0.0-1.0-567.0","0","0","28000","","null","","","null","62","","","","","","","","","","","","","","","NaN",""
"","S1","","html-keyboard-response","418","489248","0.0-1.0-569.0","0","0","28000","","null","","","null","63","","","","","","","","","","","","","","","",""
"","ISI","","html-keyboard-response","419","491253","0.0-1.0-570.0","0","0","28000","","664","","","68","63","d","","","","","","","","","","","","","","",""
"","S2","","html-keyboard-response","420","491408","0.0-1.0-571.0","0","0","28000","","null","","","null","63","","NaN","","","","","","","","","","","","","",""
"","response","","html-keyboard-response","421","491536","0.0-1.0-572.0-0.0","0","0","28000","","124","","","75","63","","","2","63","training","adjacent","BC","2","3","N.jpg","O.jpg","0","1","0","",""
"","feedback","","html-keyboard-response","422","492542","0.0-1.0-573.0-0.0","0","0","28000","","null","","","null","63","","","","","","","","","","","","","","","",""
"","time_out","","html-keyboard-response","423","494546","0.0-1.0-575.0-0.0","0","0","28000","","null","","","null","63","","","","","","","","","","","","","","","",""
"","ITI","","html-keyboard-response","424","495552","0.0-1.0-576.0","0","0","28000","","null","","","null","63","","","","","","","","","","","","","","","NaN",""
"","S1","","html-keyboard-response","425","495707","0.0-1.0-578.0","0","0","28000","","null","","","null","64","","","","","","","","","","","","","","","",""
"","ISI","","html-keyboard-response","426","497712","0.0-1.0-579.0","0","0","28000","","null","","","null","64","NaN","","","","","","","","","","","","","","",""
"","S2","","html-keyboard-response","427","497867","0.0-1.0-580.0","0","0","28000","","null","","","null","64","","NaN","","","","","","","","","","","","","",""
"","response","","html-keyboard-response","428","498211","0.0-1.0-581.0-0.0","0","0","28000","","340","","","68","64","","","2","64","training","adjacent","GF","7","6","L.jpg","P.jpg","1","0","0","",""
"","feedback","","html-keyboard-response","429","499217","0.0-1.0-582.0-0.0","0","0","28000","","null","","","null","64","","","","","","","","","","","","","","","",""
"","time_out","","html-keyboard-response","430","501223","0.0-1.0-584.0-0.0","0","0","28000","","null","","","null","64","","","","","","","","","","","","","","","",""
"","ITI","","html-keyboard-response","431","502228","0.0-1.0-585.0","0","0","28000","","null","","","null","64","","","","","","","","","","","","","","","NaN",""
"","S1","","html-keyboard-response","432","502384","0.0-1.0-587.0","0","0","28000","","null","","","null","65","","","","","","","","","","","","","","","",""
"","ISI","","html-keyboard-response","433","504388","0.0-1.0-588.0","0","0","28000","","250","","","75","65","k","","","","","","","","","","","","","","",""
"","S2","","html-keyboard-response","434","504544","0.0-1.0-589.0","0","0","28000","","null","","","null","65","","NaN","","","","","","","","","","","","","",""
"","response","","html-keyboard-response","435","504768","0.0-1.0-590.0-0.0","0","0","28000","","220","","","68","65","","","2","65","training","adjacent","CD","3","4","O.jpg","M.jpg","1","1","1","",""
"","feedback","","html-keyboard-response","436","505773","0.0-1.0-591.0-0.0","0","0","28000","","null","","","null","65","","","","","","","","","","","","","","","",""
"","ITI","","html-keyboard-response","437","506778","0.0-1.0-594.0","0","0","28000","","null","","","null","65","","","","","","","","","","","","","","","NaN",""
"","S1","","html-keyboard-response","438","506933","0.0-1.0-596.0","0","0","28000","","null","","","null","66","","","","","","","","","","","","","","","",""
"","ISI","","html-keyboard-response","439","508938","0.0-1.0-597.0","0","0","28000","","null","","","null","66","NaN","","","","","","","","","","","","","","",""
"","S2","","html-keyboard-response","440","509094","0.0-1.0-598.0","0","0","28000","","null","","","null","66","","NaN","","","","","","","","","","","","","",""
"","response","","html-keyboard-response","441","509397","0.0-1.0-599.0-0.0","0","0","28000","","300","","","68","66","","","2","66","training","adjacent","FG","6","7","P.jpg","L.jpg","1","1","1","",""
"","feedback","","html-keyboard-response","442","510404","0.0-1.0-600.0-0.0","0","0","28000","","null","","","null","66","","","","","","","","","","","","","","","",""
"","ITI","","html-keyboard-response","443","511408","0.0-1.0-603.0","0","0","28000","","null","","","null","66","","","","","","","","","","","","","","","NaN",""
"","S1","","html-keyboard-response","444","511563","0.0-1.0-605.0","0","0","28000","","null","","","null","67","","","","","","","","","","","","","","","",""
"","ISI","","html-keyboard-response","445","513568","0.0-1.0-606.0","0","0","28000","","null","","","null","67","NaN","","","","","","","","","","","","","","",""
"","S2","","html-keyboard-response","446","513724","0.0-1.0-607.0","0","0","28000","","null","","","null","67","","NaN","","","","","","","","","","","","","",""
"","response","","html-keyboard-response","447","513997","0.0-1.0-608.0-0.0","0","0","28000","","270","","","75","67","","","2","67","training","adjacent","CB","3","2","O.jpg","N.jpg","0","0","1","",""
"","feedback","","html-keyboard-response","448","515003","0.0-1.0-609.0-0.0","0","0","28000","","null","","","null","67","","","","","","","","","","","","","","","",""
"","ITI","","html-keyboard-response","449","516009","0.0-1.0-612.0","0","0","28000","","null","","","null","67","","","","","","","","","","","","","","","NaN",""
"","S1","","html-keyboard-response","450","516165","0.0-1.0-614.0","0","0","28000","","null","","","null","68","","","","","","","","","","","","","","","",""
"","ISI","","html-keyboard-response","451","518170","0.0-1.0-615.0","0","0","28000","","null","","","null","68","NaN","","","","","","","","","","","","","","",""
"","S2","","html-keyboard-response","452","518324","0.0-1.0-616.0","0","0","28000","","null","","","null","68","","NaN","","","","","","","","","","","","","",""
"","response","","html-keyboard-response","453","518587","0.0-1.0-617.0-0.0","0","0","28000","","259","","","75","68","","","2","68","training","adjacent","ED","5","4","Q.jpg","M.jpg","0","0","1","",""
"","feedback","","html-keyboard-response","454","519593","0.0-1.0-618.0-0.0","0","0","28000","","null","","","null","68","","","","","","","","","","","","","","","",""
"","ITI","","html-keyboard-response","455","520598","0.0-1.0-621.0","0","0","28000","","null","","","null","68","","","","","","","","","","","","","","","NaN",""
"","S1","","html-keyboard-response","456","520753","0.0-1.0-623.0","0","0","28000","","null","","","null","69","","","","","","","","","","","","","","","",""
"","ISI","","html-keyboard-response","457","522758","0.0-1.0-624.0","0","0","28000","","null","","","null","69","NaN","","","","","","","","","","","","","","",""
"","S2","","html-keyboard-response","458","522913","0.0-1.0-625.0","0","0","28000","","null","","","null","69","","NaN","","","","","","","","","","","","","",""
"","response","","html-keyboard-response","459","523178","0.0-1.0-626.0-0.0","0","0","28000","","260","","","68","69","","","2","69","training","adjacent","BA","2","1","N.jpg","R.jpg","1","0","0","",""
"","feedback","","html-keyboard-response","460","524184","0.0-1.0-627.0-0.0","0","0","28000","","null","","","null","69","","","","","","","","","","","","","","","",""
"","time_out","","html-keyboard-response","461","526188","0.0-1.0-629.0-0.0","0","0","28000","","null","","","null","69","","","","","","","","","","","","","","","",""
"","ITI","","html-keyboard-response","462","527193","0.0-1.0-630.0","0","0","28000","","null","","","null","69","","","","","","","","","","","","","","","NaN",""
"","S1","","html-keyboard-response","463","527348","0.0-1.0-632.0","0","0","28000","","null","","","null","70","","","","","","","","","","","","","","","",""
"","ISI","","html-keyboard-response","464","529354","0.0-1.0-633.0","0","0","28000","","null","","","null","70","NaN","","","","","","","","","","","","","","",""
"","S2","","html-keyboard-response","465","529508","0.0-1.0-634.0","0","0","28000","","null","","","null","70","","NaN","","","","","","","","","","","","","",""
"","response","","html-keyboard-response","466","529807","0.0-1.0-635.0-0.0","0","0","28000","","296","","","68","70","","","2","70","training","adjacent","DC","4","3","M.jpg","O.jpg","1","0","0","",""
"","feedback","","html-keyboard-response","467","530813","0.0-1.0-636.0-0.0","0","0","28000","","null","","","null","70","","","","","","","","","","","","","","","",""
"","time_out","","html-keyboard-response","468","532819","0.0-1.0-638.0-0.0","0","0","28000","","null","","","null","70","","","","","","","","","","","","","","","",""
"","ITI","","html-keyboard-response","469","533824","0.0-1.0-639.0","0","0","28000","","null","","","null","70","","","","","","","","","","","","","","","NaN",""
"","S1","","html-keyboard-response","470","533980","0.0-1.0-641.0","0","0","28000","","null","","","null","71","","","","","","","","","","","","","","","",""
"","ISI","","html-keyboard-response","471","535985","0.0-1.0-642.0","0","0","28000","","683","","","75","71","k","","","","","","","","","","","","","","",""
"","S2","","html-keyboard-response","472","536141","0.0-1.0-643.0","0","0","28000","","null","","","null","71","","NaN","","","","","","","","","","","","","",""
"","response","","html-keyboard-response","473","536288","0.0-1.0-644.0-0.0","0","0","28000","","144","","","75","71","","","2","71","training","adjacent","AB","1","2","R.jpg","N.jpg","0","1","0","",""
"","feedback","","html-keyboard-response","474","537293","0.0-1.0-645.0-0.0","0","0","28000","","null","","","null","71","","","","","","","","","","","","","","","",""
"","time_out","","html-keyboard-response","475","539299","0.0-1.0-647.0-0.0","0","0","28000","","null","","","null","71","","","","","","","","","","","","","","","",""
"","ITI","","html-keyboard-response","476","540302","0.0-1.0-648.0","0","0","28000","","null","","","null","71","","","","","","","","","","","","","","","NaN",""
"","S1","","html-keyboard-response","477","540457","0.0-1.0-650.0","0","0","28000","","null","","","null","72","","","","","","","","","","","","","","","",""
"","ISI","","html-keyboard-response","478","542462","0.0-1.0-651.0","0","0","28000","","407","","","68","72","d","","","","","","","","","","","","","","",""
"","S2","","html-keyboard-response","479","542617","0.0-1.0-652.0","0","0","28000","","null","","","null","72","","NaN","","","","","","","","","","","","","",""
"","response","","html-keyboard-response","480","542716","0.0-1.0-653.0-0.0","0","0","28000","","96","","","68","72","","","2","72","training","adjacent","CB","3","2","O.jpg","N.jpg","1","0","0","",""
"","feedback","","html-keyboard-response","481","543723","0.0-1.0-654.0-0.0","0","0","28000","","null","","","null","72","","","","","","","","","","","","","","","",""
"","time_out","","html-keyboard-response","482","545727","0.0-1.0-656.0-0.0","0","0","28000","","null","","","null","72","","","","","","","","","","","","","","","",""
"","ITI","","html-keyboard-response","483","546732","0.0-1.0-657.0","0","0","28000","","null","","","null","72","","","","","","","","","","","","","","","NaN",""
"","S1","","html-keyboard-response","484","546887","0.0-1.0-659.0","0","0","28000","","null","","","null","73","","","","","","","","","","","","","","","",""
"","ISI","","html-keyboard-response","485","548891","0.0-1.0-660.0","0","0","28000","","828","","","68","73","d","","","","","","","","","","","","","","",""
"","S2","","html-keyboard-response","486","549045","0.0-1.0-661.0","0","0","28000","","null","","","null","73","","NaN","","","","","","","","","","","","","",""
"","response","","html-keyboard-response","487","549267","0.0-1.0-662.0-0.0","0","0","28000","","217","","","68","73","","","2","73","training","adjacent","AB","1","2","R.jpg","N.jpg","1","1","1","",""
"","feedback","","html-keyboard-response","488","550273","0.0-1.0-663.0-0.0","0","0","28000","","null","","","null","73","","","","","","","","","","","","","","","",""
"","ITI","","html-keyboard-response","489","551279","0.0-1.0-666.0","0","0","28000","","null","","","null","73","","","","","","","","","","","","","","","NaN",""
"","S1","","html-keyboard-response","490","551433","0.0-1.0-668.0","0","0","28000","","null","","","null","74","","","","","","","","","","","","","","","",""
"","ISI","","html-keyboard-response","491","553439","0.0-1.0-669.0","0","0","28000","","null","","","null","74","NaN","","","","","","","","","","","","","","",""
"","S2","","html-keyboard-response","492","553593","0.0-1.0-670.0","0","0","28000","","null","","","null","74","","NaN","","","","","","","","","","","","","",""
"","response","","html-keyboard-response","493","553839","0.0-1.0-671.0-0.0","0","0","28000","","242","","","68","74","","","2","74","training","adjacent","FG","6","7","P.jpg","L.jpg","1","1","1","",""
"","feedback","","html-keyboard-response","494","554845","0.0-1.0-672.0-0.0","0","0","28000","","null","","","null","74","","","","","","","","","","","","","","","",""
"","ITI","","html-keyboard-response","495","555850","0.0-1.0-675.0","0","0","28000","","null","","","null","74","","","","","","","","","","","","","","","NaN",""
"","S1","","html-keyboard-response","496","556006","0.0-1.0-677.0","0","0","28000","","null","","","null","75","","","","","","","","","","","","","","","",""
"","ISI","","html-keyboard-response","497","558012","0.0-1.0-678.0","0","0","28000","","null","","","null","75","NaN","","","","","","","","","","","","","","",""
"","S2","","html-keyboard-response","498","558167","0.0-1.0-679.0","0","0","28000","","null","","","null","75","","NaN","","","","","","","","","","","","","",""
"","response","","html-keyboard-response","499","558400","0.0-1.0-680.0-0.0","0","0","28000","","228","","","68","75","","","2","75","training","adjacent","GF","7","6","L.jpg","P.jpg","1","0","0","",""
"","feedback","","html-keyboard-response","500","559405","0.0-1.0-681.0-0.0","0","0","28000","","null","","","null","75","","","","","","","","","","","","","","","",""
"","time_out","","html-keyboard-response","501","561412","0.0-1.0-683.0-0.0","0","0","28000","","null","","","null","75","","","","","","","","","","","","","","","",""
"","ITI","","html-keyboard-response","502","562416","0.0-1.0-684.0","0","0","28000","","null","","","null","75","","","","","","","","","","","","","","","NaN",""
"","S1","","html-keyboard-response","503","562572","0.0-1.0-686.0","0","0","28000","","null","","","null","76","","","","","","","","","","","","","","","",""
"","ISI","","html-keyboard-response","504","564578","0.0-1.0-687.0","0","0","28000","","null","","","null","76","NaN","","","","","","","","","","","","","","",""
"","S2","","html-keyboard-response","505","564733","0.0-1.0-688.0","0","0","28000","","null","","","null","76","","NaN","","","","","","","","","","","","","",""
"","response","","html-keyboard-response","506","564999","0.0-1.0-689.0-0.0","0","0","28000","","262","","","68","76","","","2","76","training","adjacent","GF","7","6","L.jpg","P.jpg","1","0","0","",""
"","feedback","","html-keyboard-response","507","566005","0.0-1.0-690.0-0.0","0","0","28000","","null","","","null","76","","","","","","","","","","","","","","","",""
"","time_out","","html-keyboard-response","508","568010","0.0-1.0-692.0-0.0","0","0","28000","","null","","","null","76","","","","","","","","","","","","","","","",""
"","ITI","","html-keyboard-response","509","569016","0.0-1.0-693.0","0","0","28000","","null","","","null","76","","","","","","","","","","","","","","","NaN",""
"","S1","","html-keyboard-response","510","569172","0.0-1.0-695.0","0","0","28000","","null","","","null","77","","","","","","","","","","","","","","","",""
"","ISI","","html-keyboard-response","511","571177","0.0-1.0-696.0","0","0","28000","","475","","","75","77","k","","","","","","","","","","","","","","",""
"","S2","","html-keyboard-response","512","571332","0.0-1.0-697.0","0","0","28000","","null","","","null","77","","NaN","","","","","","","","","","","","","",""
"","response","","html-keyboard-response","513","571497","0.0-1.0-698.0-0.0","0","0","28000","","160","","","75","77","","","2","77","training","adjacent","BA","2","1","N.jpg","R.jpg","0","0","1","",""
"","feedback","","html-keyboard-response","514","572503","0.0-1.0-699.0-0.0","0","0","28000","","null","","","null","77","","","","","","","","","","","","","","","",""
"","ITI","","html-keyboard-response","515","573508","0.0-1.0-702.0","0","0","28000","","null","","","null","77","","","","","","","","","","","","","","","NaN",""
"","S1","","html-keyboard-response","516","573664","0.0-1.0-704.0","0","0","28000","","null","","","null","78","","","","","","","","","","","","","","","",""
"","ISI","","html-keyboard-response","517","575669","0.0-1.0-705.0","0","0","28000","","null","","","null","78","NaN","","","","","","","","","","","","","","",""
"","S2","","html-keyboard-response","518","575825","0.0-1.0-706.0","0","0","28000","","null","","","null","78","","NaN","","","","","","","","","","","","","",""
"","response","","html-keyboard-response","519","576769","0.0-1.0-707.0-0.0","0","0","28000","","940","","","75","78","","","2","78","training","adjacent","DC","4","3","M.jpg","O.jpg","0","0","1","",""
"","feedback","","html-keyboard-response","520","577775","0.0-1.0-708.0-0.0","0","0","28000","","null","","","null","78","","","","","","","","","","","","","","","",""
"","ITI","","html-keyboard-response","521","578780","0.0-1.0-711.0","0","0","28000","","null","","","null","78","","","","","","","","","","","","","","","NaN",""
"","S1","","html-keyboard-response","522","578936","0.0-1.0-713.0","0","0","28000","","null","","","null","79","","","","","","","","","","","","","","","",""
"","ISI","","html-keyboard-response","523","580941","0.0-1.0-714.0","0","0","28000","","null","","","null","79","NaN","","","","","","","","","","","","","","",""
"","S2","","html-keyboard-response","524","581097","0.0-1.0-715.0","0","0","28000","","null","","","null","79","","NaN","","","","","","","","","","","","","",""
"","response","","html-keyboard-response","525","581458","0.0-1.0-716.0-0.0","0","0","28000","","357","","","68","79","","","2","79","training","adjacent","ED","5","4","Q.jpg","M.jpg","1","0","0","",""
"","feedback","","html-keyboard-response","526","582463","0.0-1.0-717.0-0.0","0","0","28000","","null","","","null","79","","","","","","","","","","","","","","","",""
"","time_out","","html-keyboard-response","527","584469","0.0-1.0-719.0-0.0","0","0","28000","","null","","","null","79","","","","","","","","","","","","","","","",""
"","ITI","","html-keyboard-response","528","585473","0.0-1.0-720.0","0","0","28000","","null","","","null","79","","","","","","","","","","","","","","","NaN",""
"","S1","","html-keyboard-response","529","585629","0.0-1.0-722.0","0","0","28000","","null","","","null","80","","","","","","","","","","","","","","","",""
"","ISI","","html-keyboard-response","530","587635","0.0-1.0-723.0","0","0","28000","","435","","","75","80","k","","","","","","","","","","","","","","",""
"","S2","","html-keyboard-response","531","587790","0.0-1.0-724.0","0","0","28000","","null","","","null","80","","NaN","","","","","","","","","","","","","",""
"","response","","html-keyboard-response","532","587927","0.0-1.0-725.0-0.0","0","0","28000","","133","","","68","80","","","2","80","training","adjacent","DC","4","3","M.jpg","O.jpg","1","0","0","",""
"","feedback","","html-keyboard-response","533","588933","0.0-1.0-726.0-0.0","0","0","28000","","null","","","null","80","","","","","","","","","","","","","","","",""
"","time_out","","html-keyboard-response","534","590939","0.0-1.0-728.0-0.0","0","0","28000","","null","","","null","80","","","","","","","","","","","","","","","",""
"","ITI","","html-keyboard-response","535","591943","0.0-1.0-729.0","0","0","28000","","null","","","null","80","","","","","","","","","","","","","","","NaN",""
"","S1","","html-keyboard-response","536","592098","0.0-1.0-731.0","0","0","28000","","null","","","null","81","","","","","","","","","","","","","","","",""
"","ISI","","html-keyboard-response","537","594103","0.0-1.0-732.0","0","0","28000","","308","","","75","81","k","","","","","","","","","","","","","","",""
"","S2","","html-keyboard-response","538","594259","0.0-1.0-733.0","0","0","28000","","null","","","null","81","","NaN","","","","","","","","","","","","","",""
"","response","","html-keyboard-response","539","594398","0.0-1.0-734.0-0.0","0","0","28000","","134","","","75","81","","","2","81","training","adjacent","FE","6","5","P.jpg","Q.jpg","0","0","1","",""
"","feedback","","html-keyboard-response","540","595404","0.0-1.0-735.0-0.0","0","0","28000","","null","","","null","81","","","","","","","","","","","","","","","",""
"","ITI","","html-keyboard-response","541","596409","0.0-1.0-738.0","0","0","28000","","null","","","null","81","","","","","","","","","","","","","","","NaN",""
"","S1","","html-keyboard-response","542","596564","0.0-1.0-740.0","0","0","28000","","null","","","null","82","","","","","","","","","","","","","","","",""
"","ISI","","html-keyboard-response","543","598569","0.0-1.0-741.0","0","0","28000","","560","","","75","82","k","","","","","","","","","","","","","","",""
"","S2","","html-keyboard-response","544","598724","0.0-1.0-742.0","0","0","28000","","null","","","null","82","","NaN","","","","","","","","","","","","","",""
"","response","","html-keyboard-response","545","598887","0.0-1.0-743.0-0.0","0","0","28000","","159","","","68","82","","","2","82","training","adjacent","FE","6","5","P.jpg","Q.jpg","1","0","0","",""
"","feedback","","html-keyboard-response","546","599893","0.0-1.0-744.0-0.0","0","0","28000","","null","","","null","82","","","","","","","","","","","","","","","",""
"","time_out","","html-keyboard-response","547","601898","0.0-1.0-746.0-0.0","0","0","28000","","null","","","null","82","","","","","","","","","","","","","","","",""
"","ITI","","html-keyboard-response","548","602904","0.0-1.0-747.0","0","0","28000","","866","","","75","82","","","","","","","","","","","","","","","k",""
"","S1","","html-keyboard-response","549","603059","0.0-1.0-749.0","0","0","28000","","null","","","null","83","","","","","","","","","","","","","","","",""
"","ISI","","html-keyboard-response","550","605065","0.0-1.0-750.0","0","0","28000","","544","","","75","83","k","","","","","","","","","","","","","","",""
"","S2","","html-keyboard-response","551","605220","0.0-1.0-751.0","0","0","28000","","null","","","null","83","","NaN","","","","","","","","","","","","","",""
"","response","","html-keyboard-response","552","605468","0.0-1.0-752.0-0.0","0","0","28000","","243","","","75","83","","","2","83","training","adjacent","CD","3","4","O.jpg","M.jpg","0","1","0","",""
"","feedback","","html-keyboard-response","553","606474","0.0-1.0-753.0-0.0","0","0","28000","","null","","","null","83","","","","","","","","","","","","","","","",""
"","time_out","","html-keyboard-response","554","608478","0.0-1.0-755.0-0.0","0","0","28000","","null","","","null","83","","","","","","","","","","","","","","","",""
"","ITI","","html-keyboard-response","555","609483","0.0-1.0-756.0","0","0","28000","","null","","","null","83","","","","","","","","","","","","","","","NaN",""
"","S1","","html-keyboard-response","556","609638","0.0-1.0-758.0","0","0","28000","","null","","","null","84","","","","","","","","","","","","","","","",""
"","ISI","","html-keyboard-response","557","611642","0.0-1.0-759.0","0","0","28000","","null","","","null","84","NaN","","","","","","","","","","","","","","",""
"","S2","","html-keyboard-response","558","611797","0.0-1.0-760.0","0","0","28000","","null","","","null","84","","NaN","","","","","","","","","","","","","",""
"","response","","html-keyboard-response","559","612028","0.0-1.0-761.0-0.0","0","0","28000","","227","","","68","84","","","2","84","training","adjacent","EF","5","6","Q.jpg","P.jpg","1","1","1","",""
"","feedback","","html-keyboard-response","560","613035","0.0-1.0-762.0-0.0","0","0","28000","","null","","","null","84","","","","","","","","","","","","","","","",""
"","ITI","","html-keyboard-response","561","614039","0.0-1.0-765.0","0","0","28000","","null","","","null","84","","","","","","","","","","","","","","","NaN",""
"","S1","","html-keyboard-response","562","614195","0.0-1.0-767.0","0","0","28000","","null","","","null","85","","","","","","","","","","","","","","","",""
"","ISI","","html-keyboard-response","563","616200","0.0-1.0-768.0","0","0","28000","","null","","","null","85","NaN","","","","","","","","","","","","","","",""
"","S2","","html-keyboard-response","564","616356","0.0-1.0-769.0","0","0","28000","","null","","","null","85","","NaN","","","","","","","","","","","","","",""
"","response","","html-keyboard-response","565","616630","0.0-1.0-770.0-0.0","0","0","28000","","269","","","75","85","","","2","85","training","adjacent","CD","3","4","O.jpg","M.jpg","0","1","0","",""
"","feedback","","html-keyboard-response","566","617637","0.0-1.0-771.0-0.0","0","0","28000","","null","","","null","85","","","","","","","","","","","","","","","",""
"","time_out","","html-keyboard-response","567","619642","0.0-1.0-773.0-0.0","0","0","28000","","null","","","null","85","","","","","","","","","","","","","","","",""
"","ITI","","html-keyboard-response","568","620647","0.0-1.0-774.0","0","0","28000","","null","","","null","85","","","","","","","","","","","","","","","NaN",""
"","S1","","html-keyboard-response","569","620803","0.0-1.0-776.0","0","0","28000","","null","","","null","86","","","","","","","","","","","","","","","",""
"","ISI","","html-keyboard-response","570","622807","0.0-1.0-777.0","0","0","28000","","313","","","68","86","d","","","","","","","","","","","","","","",""
"","S2","","html-keyboard-response","571","622963","0.0-1.0-778.0","0","0","28000","","null","","","null","86","","NaN","","","","","","","","","","","","","",""
"","response","","html-keyboard-response","572","623086","0.0-1.0-779.0-0.0","0","0","28000","","120","","","68","86","","","2","86","training","adjacent","BC","2","3","N.jpg","O.jpg","1","1","1","",""
"","feedback","","html-keyboard-response","573","624093","0.0-1.0-780.0-0.0","0","0","28000","","null","","","null","86","","","","","","","","","","","","","","","",""
"","ITI","","html-keyboard-response","574","625099","0.0-1.0-783.0","0","0","28000","","null","","","null","86","","","","","","","","","","","","","","","NaN",""
"","S1","","html-keyboard-response","575","625254","0.0-1.0-785.0","0","0","28000","","null","","","null","87","","","","","","","","","","","","","","","",""
"","ISI","","html-keyboard-response","576","627258","0.0-1.0-786.0","0","0","28000","","null","","","null","87","NaN","","","","","","","","","","","","","","",""
"","S2","","html-keyboard-response","577","627413","0.0-1.0-787.0","0","0","28000","","null","","","null","87","","NaN","","","","","","","","","","","","","",""
"","response","","html-keyboard-response","578","627649","0.0-1.0-788.0-0.0","0","0","28000","","232","","","75","87","","","2","87","training","adjacent","CB","3","2","O.jpg","N.jpg","0","0","1","",""
"","feedback","","html-keyboard-response","579","628654","0.0-1.0-789.0-0.0","0","0","28000","","null","","","null","87","","","","","","","","","","","","","","","",""
"","ITI","","html-keyboard-response","580","629659","0.0-1.0-792.0","0","0","28000","","null","","","null","87","","","","","","","","","","","","","","","NaN",""
"","S1","","html-keyboard-response","581","629814","0.0-1.0-794.0","0","0","28000","","null","","","null","88","","","","","","","","","","","","","","","",""
"","ISI","","html-keyboard-response","582","631818","0.0-1.0-795.0","0","0","28000","","null","","","null","88","NaN","","","","","","","","","","","","","","",""
"","S2","","html-keyboard-response","583","631973","0.0-1.0-796.0","0","0","28000","","null","","","null","88","","NaN","","","","","","","","","","","","","",""
