"success","ttype","start_time","trial_type","trial_index","time_elapsed","internal_node_id","warning","missed_checkup","PID","view_history","rt","responses","repeat_instructions","key_press","index","keypress_isi","keypress_S2","block","trial_num","phase","group_type","pair_type","S1_stim","S2_stim","S1_img","S2_img","S1_chosen","S1_higher","accuracy","keypress_iti","total_bonus_tally"
"true","full_screen","d08052022hr1240","fullscreen","0","8374","0.0-0.0","0","0","90626","","","","","","","","","","","","","","","","","","","","","",""
"","instructions","","instructions","1","31719","0.0-1.0-0.0-0.0","0","0","90626","[{""page_index"":0,""viewing_time"":4314},{""page_index"":1,""viewing_time"":10161},{""page_index"":2,""viewing_time"":6730},{""page_index"":3,""viewing_time"":2137}]","23343","","","","","","","","","","","","","","","","","","","",""
"","comprehension_check","","survey-multi-choice","2","49061","0.0-1.0-0.0-1.0","0","0","90626","","17332","{""Q0"":""True"",""Q1"":""D"",""Q2"":""Once the second image appears and while the screen 'MAKE A CHOICE' is shown"",""Q3"":""Green mark"",""Q4"":""either D or K""}","0","","","","","","","","","","","","","","","","","",""
"","start_exp","","html-keyboard-response","3","50823","0.0-1.0-1.0","0","0","90626","","1750","","","32","","","","","","","","","","","","","","","","",""
"","S1","","html-keyboard-response","4","51080","0.0-1.0-2.0","0","0","90626","","null","","","null","0","","","","","","","","","","","","","","","",""
"","ISI","","html-keyboard-response","5","53085","0.0-1.0-3.0","0","0","90626","","null","","","null","0","NaN","","","","","","","","","","","","","","",""
"","S2","","html-keyboard-response","6","53341","0.0-1.0-4.0","0","0","90626","","null","","","null","0","","NaN","","","","","","","","","","","","","",""
"","response","","html-keyboard-response","7","54053","0.0-1.0-5.0-0.0","0","0","90626","","708","","","68","0","","","1","0","training","adjacent","EF","5","6","M.jpg","R.jpg","1","1","1","",""
"","feedback","","html-keyboard-response","8","55059","0.0-1.0-6.0-0.0","0","0","90626","","null","","","null","0","","","","","","","","","","","","","","","",""
"","ITI","","html-keyboard-response","9","56067","0.0-1.0-9.0","0","0","90626","","null","","","null","0","","","","","","","","","","","","","","","NaN",""
"","S1","","html-keyboard-response","10","56323","0.0-1.0-11.0","0","0","90626","","null","","","null","1","","","","","","","","","","","","","","","",""
"","ISI","","html-keyboard-response","11","58328","0.0-1.0-12.0","0","0","90626","","null","","","null","1","NaN","","","","","","","","","","","","","","",""
"","S2","","html-keyboard-response","12","58584","0.0-1.0-13.0","0","0","90626","","null","","","null","1","","NaN","","","","","","","","","","","","","",""
"","response","","html-keyboard-response","13","58978","0.0-1.0-14.0-0.0","0","0","90626","","391","","","68","1","","","1","1","training","adjacent","GF","7","6","Q.jpg","R.jpg","1","0","0","",""
"","feedback","","html-keyboard-response","14","59981","0.0-1.0-15.0-0.0","0","0","90626","","null","","","null","1","","","","","","","","","","","","","","","",""
"","time_out","","html-keyboard-response","15","61987","0.0-1.0-17.0-0.0","0","0","90626","","null","","","null","1","","","","","","","","","","","","","","","",""
"","ITI","","html-keyboard-response","16","62995","0.0-1.0-18.0","0","0","90626","","null","","","null","1","","","","","","","","","","","","","","","NaN",""
"","S1","","html-keyboard-response","17","63251","0.0-1.0-20.0","0","0","90626","","null","","","null","2","","","","","","","","","","","","","","","",""
"","ISI","","html-keyboard-response","18","65256","0.0-1.0-21.0","0","0","90626","","null","","","null","2","NaN","","","","","","","","","","","","","","",""
"","S2","","html-keyboard-response","19","65512","0.0-1.0-22.0","0","0","90626","","null","","","null","2","","NaN","","","","","","","","","","","","","",""
"","response","","html-keyboard-response","20","66195","0.0-1.0-23.0-0.0","0","0","90626","","681","","","75","2","","","1","2","training","adjacent","BA","2","1","O.jpg","L.jpg","0","0","1","",""
"","feedback","","html-keyboard-response","21","67203","0.0-1.0-24.0-0.0","0","0","90626","","null","","","null","2","","","","","","","","","","","","","","","",""
"","ITI","","html-keyboard-response","22","68206","0.0-1.0-27.0","0","0","90626","","null","","","null","2","","","","","","","","","","","","","","","NaN",""
"","S1","","html-keyboard-response","23","68462","0.0-1.0-29.0","0","0","90626","","null","","","null","3","","","","","","","","","","","","","","","",""
"","ISI","","html-keyboard-response","24","70467","0.0-1.0-30.0","0","0","90626","","null","","","null","3","NaN","","","","","","","","","","","","","","",""
"","S2","","html-keyboard-response","25","70720","0.0-1.0-31.0","0","0","90626","","null","","","null","3","","NaN","","","","","","","","","","","","","",""
"","response","","html-keyboard-response","26","71400","0.0-1.0-32.0-0.0","0","0","90626","","677","","","68","3","","","1","3","training","adjacent","BC","2","3","O.jpg","P.jpg","1","1","1","",""
"","feedback","","html-keyboard-response","27","72403","0.0-1.0-33.0-0.0","0","0","90626","","null","","","null","3","","","","","","","","","","","","","","","",""
"","ITI","","html-keyboard-response","28","73411","0.0-1.0-36.0","0","0","90626","","null","","","null","3","","","","","","","","","","","","","","","NaN",""
"","S1","","html-keyboard-response","29","73667","0.0-1.0-38.0","0","0","90626","","null","","","null","4","","","","","","","","","","","","","","","",""
"","ISI","","html-keyboard-response","30","75672","0.0-1.0-39.0","0","0","90626","","null","","","null","4","NaN","","","","","","","","","","","","","","",""
"","S2","","html-keyboard-response","31","75928","0.0-1.0-40.0","0","0","90626","","null","","","null","4","","NaN","","","","","","","","","","","","","",""
"","response","","html-keyboard-response","32","76455","0.0-1.0-41.0-0.0","0","0","90626","","523","","","68","4","","","1","4","training","adjacent","EF","5","6","M.jpg","R.jpg","1","1","1","",""
"","feedback","","html-keyboard-response","33","77459","0.0-1.0-42.0-0.0","0","0","90626","","null","","","null","4","","","","","","","","","","","","","","","",""
"","ITI","","html-keyboard-response","34","78466","0.0-1.0-45.0","0","0","90626","","null","","","null","4","","","","","","","","","","","","","","","NaN",""
"","S1","","html-keyboard-response","35","78723","0.0-1.0-47.0","0","0","90626","","null","","","null","5","","","","","","","","","","","","","","","",""
"","ISI","","html-keyboard-response","36","80729","0.0-1.0-48.0","0","0","90626","","null","","","null","5","NaN","","","","","","","","","","","","","","",""
"","S2","","html-keyboard-response","37","80985","0.0-1.0-49.0","0","0","90626","","null","","","null","5","","NaN","","","","","","","","","","","","","",""
"","response","","html-keyboard-response","38","81420","0.0-1.0-50.0-0.0","0","0","90626","","433","","","75","5","","","1","5","training","adjacent","DC","4","3","N.jpg","P.jpg","0","0","1","",""
"","feedback","","html-keyboard-response","39","82425","0.0-1.0-51.0-0.0","0","0","90626","","null","","","null","5","","","","","","","","","","","","","","","",""
"","ITI","","html-keyboard-response","40","83430","0.0-1.0-54.0","0","0","90626","","null","","","null","5","","","","","","","","","","","","","","","NaN",""
"","S1","","html-keyboard-response","41","83683","0.0-1.0-56.0","0","0","90626","","null","","","null","6","","","","","","","","","","","","","","","",""
"","ISI","","html-keyboard-response","42","85689","0.0-1.0-57.0","0","0","90626","","null","","","null","6","NaN","","","","","","","","","","","","","","",""
"","S2","","html-keyboard-response","43","85946","0.0-1.0-58.0","0","0","90626","","null","","","null","6","","NaN","","","","","","","","","","","","","",""
"","response","","html-keyboard-response","44","87039","0.0-1.0-59.0-0.0","0","0","90626","","1090","","","68","6","","","1","6","training","adjacent","BC","2","3","O.jpg","P.jpg","1","1","1","",""
"","feedback","","html-keyboard-response","45","88046","0.0-1.0-60.0-0.0","0","0","90626","","null","","","null","6","","","","","","","","","","","","","","","",""
"","ITI","","html-keyboard-response","46","89052","0.0-1.0-63.0","0","0","90626","","null","","","null","6","","","","","","","","","","","","","","","NaN",""
"","S1","","html-keyboard-response","47","89310","0.0-1.0-65.0","0","0","90626","","null","","","null","7","","","","","","","","","","","","","","","",""
"","ISI","","html-keyboard-response","48","91315","0.0-1.0-66.0","0","0","90626","","null","","","null","7","NaN","","","","","","","","","","","","","","",""
"","S2","","html-keyboard-response","49","91571","0.0-1.0-67.0","0","0","90626","","null","","","null","7","","NaN","","","","","","","","","","","","","",""
"","response","","html-keyboard-response","50","92121","0.0-1.0-68.0-0.0","0","0","90626","","546","","","75","7","","","1","7","training","adjacent","CB","3","2","P.jpg","O.jpg","0","0","1","",""
"","feedback","","html-keyboard-response","51","93124","0.0-1.0-69.0-0.0","0","0","90626","","null","","","null","7","","","","","","","","","","","","","","","",""
"","ITI","","html-keyboard-response","52","94131","0.0-1.0-72.0","0","0","90626","","null","","","null","7","","","","","","","","","","","","","","","NaN",""
"","S1","","html-keyboard-response","53","94389","0.0-1.0-74.0","0","0","90626","","null","","","null","8","","","","","","","","","","","","","","","",""
"","ISI","","html-keyboard-response","54","96393","0.0-1.0-75.0","0","0","90626","","null","","","null","8","NaN","","","","","","","","","","","","","","",""
"","S2","","html-keyboard-response","55","96649","0.0-1.0-76.0","0","0","90626","","null","","","null","8","","NaN","","","","","","","","","","","","","",""
"","response","","html-keyboard-response","56","97251","0.0-1.0-77.0-0.0","0","0","90626","","599","","","75","8","","","1","8","training","adjacent","GF","7","6","Q.jpg","R.jpg","0","0","1","",""
"","feedback","","html-keyboard-response","57","98254","0.0-1.0-78.0-0.0","0","0","90626","","null","","","null","8","","","","","","","","","","","","","","","",""
"","ITI","","html-keyboard-response","58","99262","0.0-1.0-81.0","0","0","90626","","null","","","null","8","","","","","","","","","","","","","","","NaN",""
"","S1","","html-keyboard-response","59","99515","0.0-1.0-83.0","0","0","90626","","null","","","null","9","","","","","","","","","","","","","","","",""
"","ISI","","html-keyboard-response","60","101518","0.0-1.0-84.0","0","0","90626","","null","","","null","9","NaN","","","","","","","","","","","","","","",""
"","S2","","html-keyboard-response","61","101774","0.0-1.0-85.0","0","0","90626","","null","","","null","9","","NaN","","","","","","","","","","","","","",""
"","response","","html-keyboard-response","62","102113","0.0-1.0-86.0-0.0","0","0","90626","","335","","","68","9","","","1","9","training","adjacent","FG","6","7","R.jpg","Q.jpg","1","1","1","",""
"","feedback","","html-keyboard-response","63","103118","0.0-1.0-87.0-0.0","0","0","90626","","null","","","null","9","","","","","","","","","","","","","","","",""
"","ITI","","html-keyboard-response","64","104121","0.0-1.0-90.0","0","0","90626","","null","","","null","9","","","","","","","","","","","","","","","NaN",""
"","S1","","html-keyboard-response","65","104377","0.0-1.0-92.0","0","0","90626","","null","","","null","10","","","","","","","","","","","","","","","",""
"","ISI","","html-keyboard-response","66","106383","0.0-1.0-93.0","0","0","90626","","null","","","null","10","NaN","","","","","","","","","","","","","","",""
"","S2","","html-keyboard-response","67","106639","0.0-1.0-94.0","0","0","90626","","null","","","null","10","","NaN","","","","","","","","","","","","","",""
"","response","","html-keyboard-response","68","107001","0.0-1.0-95.0-0.0","0","0","90626","","359","","","68","10","","","1","10","training","adjacent","DE","4","5","N.jpg","M.jpg","1","1","1","",""
"","feedback","","html-keyboard-response","69","108004","0.0-1.0-96.0-0.0","0","0","90626","","null","","","null","10","","","","","","","","","","","","","","","",""
"","ITI","","html-keyboard-response","70","109012","0.0-1.0-99.0","0","0","90626","","null","","","null","10","","","","","","","","","","","","","","","NaN",""
"","S1","","html-keyboard-response","71","109268","0.0-1.0-101.0","0","0","90626","","null","","","null","11","","","","","","","","","","","","","","","",""
"","ISI","","html-keyboard-response","72","111273","0.0-1.0-102.0","0","0","90626","","null","","","null","11","NaN","","","","","","","","","","","","","","",""
"","S2","","html-keyboard-response","73","111530","0.0-1.0-103.0","0","0","90626","","null","","","null","11","","NaN","","","","","","","","","","","","","",""
"","response","","html-keyboard-response","74","112240","0.0-1.0-104.0-0.0","0","0","90626","","706","","","68","11","","","1","11","training","adjacent","BC","2","3","O.jpg","P.jpg","1","1","1","",""
"","feedback","","html-keyboard-response","75","113247","0.0-1.0-105.0-0.0","0","0","90626","","null","","","null","11","","","","","","","","","","","","","","","",""
"","ITI","","html-keyboard-response","76","114255","0.0-1.0-108.0","0","0","90626","","null","","","null","11","","","","","","","","","","","","","","","NaN",""
"","S1","","html-keyboard-response","77","114511","0.0-1.0-110.0","0","0","90626","","null","","","null","12","","","","","","","","","","","","","","","",""
"","ISI","","html-keyboard-response","78","116516","0.0-1.0-111.0","0","0","90626","","null","","","null","12","NaN","","","","","","","","","","","","","","",""
"","S2","","html-keyboard-response","79","116772","0.0-1.0-112.0","0","0","90626","","null","","","null","12","","NaN","","","","","","","","","","","","","",""
"","response","","html-keyboard-response","80","117304","0.0-1.0-113.0-0.0","0","0","90626","","530","","","75","12","","","1","12","training","adjacent","CB","3","2","P.jpg","O.jpg","0","0","1","",""
"","feedback","","html-keyboard-response","81","118308","0.0-1.0-114.0-0.0","0","0","90626","","null","","","null","12","","","","","","","","","","","","","","","",""
"","ITI","","html-keyboard-response","82","119316","0.0-1.0-117.0","0","0","90626","","null","","","null","12","","","","","","","","","","","","","","","NaN",""
"","S1","","html-keyboard-response","83","119572","0.0-1.0-119.0","0","0","90626","","null","","","null","13","","","","","","","","","","","","","","","",""
"","ISI","","html-keyboard-response","84","121577","0.0-1.0-120.0","0","0","90626","","null","","","null","13","NaN","","","","","","","","","","","","","","",""
"","S2","","html-keyboard-response","85","121833","0.0-1.0-121.0","0","0","90626","","null","","","null","13","","NaN","","","","","","","","","","","","","",""
"","response","","html-keyboard-response","86","122374","0.0-1.0-122.0-0.0","0","0","90626","","537","","","68","13","","","1","13","training","adjacent","FG","6","7","R.jpg","Q.jpg","1","1","1","",""
"","feedback","","html-keyboard-response","87","123380","0.0-1.0-123.0-0.0","0","0","90626","","null","","","null","13","","","","","","","","","","","","","","","",""
"","ITI","","html-keyboard-response","88","124389","0.0-1.0-126.0","0","0","90626","","null","","","null","13","","","","","","","","","","","","","","","NaN",""
"","S1","","html-keyboard-response","89","124644","0.0-1.0-128.0","0","0","90626","","null","","","null","14","","","","","","","","","","","","","","","",""
"","ISI","","html-keyboard-response","90","126650","0.0-1.0-129.0","0","0","90626","","null","","","null","14","NaN","","","","","","","","","","","","","","",""
"","S2","","html-keyboard-response","91","126906","0.0-1.0-130.0","0","0","90626","","null","","","null","14","","NaN","","","","","","","","","","","","","",""
"","response","","html-keyboard-response","92","127940","0.0-1.0-131.0-0.0","0","0","90626","","1031","","","68","14","","","1","14","training","adjacent","DE","4","5","N.jpg","M.jpg","1","1","1","",""
"","feedback","","html-keyboard-response","93","128943","0.0-1.0-132.0-0.0","0","0","90626","","null","","","null","14","","","","","","","","","","","","","","","",""
"","ITI","","html-keyboard-response","94","129949","0.0-1.0-135.0","0","0","90626","","null","","","null","14","","","","","","","","","","","","","","","NaN",""
"","S1","","html-keyboard-response","95","130207","0.0-1.0-137.0","0","0","90626","","null","","","null","15","","","","","","","","","","","","","","","",""
"","ISI","","html-keyboard-response","96","132212","0.0-1.0-138.0","0","0","90626","","null","","","null","15","NaN","","","","","","","","","","","","","","",""
"","S2","","html-keyboard-response","97","132468","0.0-1.0-139.0","0","0","90626","","null","","","null","15","","NaN","","","","","","","","","","","","","",""
"","response","","html-keyboard-response","98","132838","0.0-1.0-140.0-0.0","0","0","90626","","367","","","75","15","","","1","15","training","adjacent","AB","1","2","L.jpg","O.jpg","0","1","0","",""
"","feedback","","html-keyboard-response","99","133844","0.0-1.0-141.0-0.0","0","0","90626","","null","","","null","15","","","","","","","","","","","","","","","",""
"","time_out","","html-keyboard-response","100","135850","0.0-1.0-143.0-0.0","0","0","90626","","null","","","null","15","","","","","","","","","","","","","","","",""
"","ITI","","html-keyboard-response","101","136858","0.0-1.0-144.0","0","0","90626","","null","","","null","15","","","","","","","","","","","","","","","NaN",""
"","S1","","html-keyboard-response","102","137114","0.0-1.0-146.0","0","0","90626","","null","","","null","16","","","","","","","","","","","","","","","",""
"","ISI","","html-keyboard-response","103","139119","0.0-1.0-147.0","0","0","90626","","null","","","null","16","NaN","","","","","","","","","","","","","","",""
"","S2","","html-keyboard-response","104","139375","0.0-1.0-148.0","0","0","90626","","null","","","null","16","","NaN","","","","","","","","","","","","","",""
"","response","","html-keyboard-response","105","139773","0.0-1.0-149.0-0.0","0","0","90626","","395","","","68","16","","","1","16","training","adjacent","FE","6","5","R.jpg","M.jpg","1","0","0","",""
"","feedback","","html-keyboard-response","106","140777","0.0-1.0-150.0-0.0","0","0","90626","","null","","","null","16","","","","","","","","","","","","","","","",""
"","time_out","","html-keyboard-response","107","142784","0.0-1.0-152.0-0.0","0","0","90626","","null","","","null","16","","","","","","","","","","","","","","","",""
"","ITI","","html-keyboard-response","108","143791","0.0-1.0-153.0","0","0","90626","","null","","","null","16","","","","","","","","","","","","","","","NaN",""
"","S1","","html-keyboard-response","109","144047","0.0-1.0-155.0","0","0","90626","","null","","","null","17","","","","","","","","","","","","","","","",""
"","ISI","","html-keyboard-response","110","146053","0.0-1.0-156.0","0","0","90626","","null","","","null","17","NaN","","","","","","","","","","","","","","",""
"","S2","","html-keyboard-response","111","146309","0.0-1.0-157.0","0","0","90626","","null","","","null","17","","NaN","","","","","","","","","","","","","",""
"","response","","html-keyboard-response","112","146722","0.0-1.0-158.0-0.0","0","0","90626","","410","","","68","17","","","1","17","training","adjacent","FG","6","7","R.jpg","Q.jpg","1","1","1","",""
"","feedback","","html-keyboard-response","113","147728","0.0-1.0-159.0-0.0","0","0","90626","","null","","","null","17","","","","","","","","","","","","","","","",""
"","ITI","","html-keyboard-response","114","148736","0.0-1.0-162.0","0","0","90626","","null","","","null","17","","","","","","","","","","","","","","","NaN",""
"","S1","","html-keyboard-response","115","148991","0.0-1.0-164.0","0","0","90626","","null","","","null","18","","","","","","","","","","","","","","","",""
"","ISI","","html-keyboard-response","116","150997","0.0-1.0-165.0","0","0","90626","","null","","","null","18","NaN","","","","","","","","","","","","","","",""
"","S2","","html-keyboard-response","117","151253","0.0-1.0-166.0","0","0","90626","","null","","","null","18","","NaN","","","","","","","","","","","","","",""
"","response","","html-keyboard-response","118","151644","0.0-1.0-167.0-0.0","0","0","90626","","388","","","68","18","","","1","18","training","adjacent","BA","2","1","O.jpg","L.jpg","1","0","0","",""
"","feedback","","html-keyboard-response","119","152650","0.0-1.0-168.0-0.0","0","0","90626","","null","","","null","18","","","","","","","","","","","","","","","",""
"","time_out","","html-keyboard-response","120","154655","0.0-1.0-170.0-0.0","0","0","90626","","null","","","null","18","","","","","","","","","","","","","","","",""
"","ITI","","html-keyboard-response","121","155659","0.0-1.0-171.0","0","0","90626","","null","","","null","18","","","","","","","","","","","","","","","NaN",""
"","S1","","html-keyboard-response","122","155914","0.0-1.0-173.0","0","0","90626","","null","","","null","19","","","","","","","","","","","","","","","",""
"","ISI","","html-keyboard-response","123","157920","0.0-1.0-174.0","0","0","90626","","null","","","null","19","NaN","","","","","","","","","","","","","","",""
"","S2","","html-keyboard-response","124","158176","0.0-1.0-175.0","0","0","90626","","null","","","null","19","","NaN","","","","","","","","","","","","","",""
"","response","","html-keyboard-response","125","159351","0.0-1.0-176.0-0.0","0","0","90626","","1172","","","68","19","","","1","19","training","adjacent","FE","6","5","R.jpg","M.jpg","1","0","0","",""
"","feedback","","html-keyboard-response","126","160357","0.0-1.0-177.0-0.0","0","0","90626","","null","","","null","19","","","","","","","","","","","","","","","",""
"","time_out","","html-keyboard-response","127","162362","0.0-1.0-179.0-0.0","0","0","90626","","null","","","null","19","","","","","","","","","","","","","","","",""
"","ITI","","html-keyboard-response","128","163366","0.0-1.0-180.0","0","0","90626","","null","","","null","19","","","","","","","","","","","","","","","NaN",""
"","S1","","html-keyboard-response","129","163621","0.0-1.0-182.0","0","0","90626","","null","","","null","20","","","","","","","","","","","","","","","",""
"","ISI","","html-keyboard-response","130","165626","0.0-1.0-183.0","0","0","90626","","null","","","null","20","NaN","","","","","","","","","","","","","","",""
"","S2","","html-keyboard-response","131","165883","0.0-1.0-184.0","0","0","90626","","null","","","null","20","","NaN","","","","","","","","","","","","","",""
"","response","","html-keyboard-response","132","166226","0.0-1.0-185.0-0.0","0","0","90626","","341","","","75","20","","","1","20","training","adjacent","CD","3","4","P.jpg","N.jpg","0","1","0","",""
"","feedback","","html-keyboard-response","133","167232","0.0-1.0-186.0-0.0","0","0","90626","","null","","","null","20","","","","","","","","","","","","","","","",""
"","time_out","","html-keyboard-response","134","169237","0.0-1.0-188.0-0.0","0","0","90626","","null","","","null","20","","","","","","","","","","","","","","","",""
"","ITI","","html-keyboard-response","135","170245","0.0-1.0-189.0","0","0","90626","","null","","","null","20","","","","","","","","","","","","","","","NaN",""
"","S1","","html-keyboard-response","136","170501","0.0-1.0-191.0","0","0","90626","","null","","","null","21","","","","","","","","","","","","","","","",""
"","ISI","","html-keyboard-response","137","172507","0.0-1.0-192.0","0","0","90626","","null","","","null","21","NaN","","","","","","","","","","","","","","",""
"","S2","","html-keyboard-response","138","172761","0.0-1.0-193.0","0","0","90626","","null","","","null","21","","NaN","","","","","","","","","","","","","",""
"","response","","html-keyboard-response","139","173126","0.0-1.0-194.0-0.0","0","0","90626","","362","","","75","21","","","1","21","training","adjacent","ED","5","4","M.jpg","N.jpg","0","0","1","",""
"","feedback","","html-keyboard-response","140","174133","0.0-1.0-195.0-0.0","0","0","90626","","null","","","null","21","","","","","","","","","","","","","","","",""
"","ITI","","html-keyboard-response","141","175140","0.0-1.0-198.0","0","0","90626","","null","","","null","21","","","","","","","","","","","","","","","NaN",""
"","S1","","html-keyboard-response","142","175398","0.0-1.0-200.0","0","0","90626","","null","","","null","22","","","","","","","","","","","","","","","",""
"","ISI","","html-keyboard-response","143","177403","0.0-1.0-201.0","0","0","90626","","null","","","null","22","NaN","","","","","","","","","","","","","","",""
"","S2","","html-keyboard-response","144","177659","0.0-1.0-202.0","0","0","90626","","null","","","null","22","","NaN","","","","","","","","","","","","","",""
"","response","","html-keyboard-response","145","178103","0.0-1.0-203.0-0.0","0","0","90626","","441","","","68","22","","","1","22","training","adjacent","BA","2","1","O.jpg","L.jpg","1","0","0","",""
"","feedback","","html-keyboard-response","146","179110","0.0-1.0-204.0-0.0","0","0","90626","","null","","","null","22","","","","","","","","","","","","","","","",""
"","time_out","","html-keyboard-response","147","181115","0.0-1.0-206.0-0.0","0","0","90626","","null","","","null","22","","","","","","","","","","","","","","","",""
"","ITI","","html-keyboard-response","148","182118","0.0-1.0-207.0","0","0","90626","","null","","","null","22","","","","","","","","","","","","","","","NaN",""
"","S1","","html-keyboard-response","149","182373","0.0-1.0-209.0","0","0","90626","","null","","","null","23","","","","","","","","","","","","","","","",""
"","ISI","","html-keyboard-response","150","184379","0.0-1.0-210.0","0","0","90626","","null","","","null","23","NaN","","","","","","","","","","","","","","",""
"","S2","","html-keyboard-response","151","184635","0.0-1.0-211.0","0","0","90626","","null","","","null","23","","NaN","","","","","","","","","","","","","",""
"","response","","html-keyboard-response","152","184885","0.0-1.0-212.0-0.0","0","0","90626","","247","","","68","23","","","1","23","training","adjacent","BA","2","1","O.jpg","L.jpg","1","0","0","",""
"","feedback","","html-keyboard-response","153","185888","0.0-1.0-213.0-0.0","0","0","90626","","null","","","null","23","","","","","","","","","","","","","","","",""
"","time_out","","html-keyboard-response","154","187894","0.0-1.0-215.0-0.0","0","0","90626","","null","","","null","23","","","","","","","","","","","","","","","",""
"","ITI","","html-keyboard-response","155","188901","0.0-1.0-216.0","0","0","90626","","null","","","null","23","","","","","","","","","","","","","","","NaN",""
"","S1","","html-keyboard-response","156","189158","0.0-1.0-218.0","0","0","90626","","null","","","null","24","","","","","","","","","","","","","","","",""
"","ISI","","html-keyboard-response","157","191163","0.0-1.0-219.0","0","0","90626","","null","","","null","24","NaN","","","","","","","","","","","","","","",""
"","S2","","html-keyboard-response","158","191419","0.0-1.0-220.0","0","0","90626","","null","","","null","24","","NaN","","","","","","","","","","","","","",""
"","response","","html-keyboard-response","159","192440","0.0-1.0-221.0-0.0","0","0","90626","","1018","","","68","24","","","1","24","training","adjacent","DC","4","3","N.jpg","P.jpg","1","0","0","",""
"","feedback","","html-keyboard-response","160","193446","0.0-1.0-222.0-0.0","0","0","90626","","null","","","null","24","","","","","","","","","","","","","","","",""
"","time_out","","html-keyboard-response","161","195451","0.0-1.0-224.0-0.0","0","0","90626","","null","","","null","24","","","","","","","","","","","","","","","",""
"","ITI","","html-keyboard-response","162","196459","0.0-1.0-225.0","0","0","90626","","null","","","null","24","","","","","","","","","","","","","","","NaN",""
"","S1","","html-keyboard-response","163","196712","0.0-1.0-227.0","0","0","90626","","null","","","null","25","","","","","","","","","","","","","","","",""
"","ISI","","html-keyboard-response","164","198715","0.0-1.0-228.0","0","0","90626","","null","","","null","25","NaN","","","","","","","","","","","","","","",""
"","S2","","html-keyboard-response","165","198971","0.0-1.0-229.0","0","0","90626","","null","","","null","25","","NaN","","","","","","","","","","","","","",""
"","response","","html-keyboard-response","166","199208","0.0-1.0-230.0-0.0","0","0","90626","","234","","","75","25","","","1","25","training","adjacent","GF","7","6","Q.jpg","R.jpg","0","0","1","",""
"","feedback","","html-keyboard-response","167","200214","0.0-1.0-231.0-0.0","0","0","90626","","null","","","null","25","","","","","","","","","","","","","","","",""
"","ITI","","html-keyboard-response","168","201220","0.0-1.0-234.0","0","0","90626","","null","","","null","25","","","","","","","","","","","","","","","NaN",""
"","S1","","html-keyboard-response","169","201473","0.0-1.0-236.0","0","0","90626","","null","","","null","26","","","","","","","","","","","","","","","",""
"","ISI","","html-keyboard-response","170","203478","0.0-1.0-237.0","0","0","90626","","null","","","null","26","NaN","","","","","","","","","","","","","","",""
"","S2","","html-keyboard-response","171","203734","0.0-1.0-238.0","0","0","90626","","null","","","null","26","","NaN","","","","","","","","","","","","","",""
"","response","","html-keyboard-response","172","204301","0.0-1.0-239.0-0.0","0","0","90626","","563","","","75","26","","","1","26","training","adjacent","CB","3","2","P.jpg","O.jpg","0","0","1","",""
"","feedback","","html-keyboard-response","173","205307","0.0-1.0-240.0-0.0","0","0","90626","","null","","","null","26","","","","","","","","","","","","","","","",""
"","ITI","","html-keyboard-response","174","206315","0.0-1.0-243.0","0","0","90626","","null","","","null","26","","","","","","","","","","","","","","","NaN",""
"","S1","","html-keyboard-response","175","206571","0.0-1.0-245.0","0","0","90626","","null","","","null","27","","","","","","","","","","","","","","","",""
"","ISI","","html-keyboard-response","176","208577","0.0-1.0-246.0","0","0","90626","","null","","","null","27","NaN","","","","","","","","","","","","","","",""
"","S2","","html-keyboard-response","177","208833","0.0-1.0-247.0","0","0","90626","","null","","","null","27","","NaN","","","","","","","","","","","","","",""
"","response","","html-keyboard-response","178","210001","0.0-1.0-248.0-0.0","0","0","90626","","1165","","","75","27","","","1","27","training","adjacent","CD","3","4","P.jpg","N.jpg","0","1","0","",""
"","feedback","","html-keyboard-response","179","211008","0.0-1.0-249.0-0.0","0","0","90626","","null","","","null","27","","","","","","","","","","","","","","","",""
"","time_out","","html-keyboard-response","180","213014","0.0-1.0-251.0-0.0","0","0","90626","","null","","","null","27","","","","","","","","","","","","","","","",""
"","ITI","","html-keyboard-response","181","214020","0.0-1.0-252.0","0","0","90626","","null","","","null","27","","","","","","","","","","","","","","","NaN",""
"","S1","","html-keyboard-response","182","214273","0.0-1.0-254.0","0","0","90626","","null","","","null","28","","","","","","","","","","","","","","","",""
"","ISI","","html-keyboard-response","183","216278","0.0-1.0-255.0","0","0","90626","","null","","","null","28","NaN","","","","","","","","","","","","","","",""
"","S2","","html-keyboard-response","184","216534","0.0-1.0-256.0","0","0","90626","","null","","","null","28","","NaN","","","","","","","","","","","","","",""
"","response","","html-keyboard-response","185","216695","0.0-1.0-257.0-0.0","0","0","90626","","159","","","75","28","","","1","28","training","adjacent","ED","5","4","M.jpg","N.jpg","0","0","1","",""
"","feedback","","html-keyboard-response","186","217702","0.0-1.0-258.0-0.0","0","0","90626","","null","","","null","28","","","","","","","","","","","","","","","",""
"","ITI","","html-keyboard-response","187","218705","0.0-1.0-261.0","0","0","90626","","null","","","null","28","","","","","","","","","","","","","","","NaN",""
"","S1","","html-keyboard-response","188","218961","0.0-1.0-263.0","0","0","90626","","null","","","null","29","","","","","","","","","","","","","","","",""
"","ISI","","html-keyboard-response","189","220966","0.0-1.0-264.0","0","0","90626","","null","","","null","29","NaN","","","","","","","","","","","","","","",""
"","S2","","html-keyboard-response","190","221222","0.0-1.0-265.0","0","0","90626","","null","","","null","29","","NaN","","","","","","","","","","","","","",""
"","response","","html-keyboard-response","191","221275","0.0-1.0-266.0-0.0","0","0","90626","","50","","","75","29","","","1","29","training","adjacent","DC","4","3","N.jpg","P.jpg","0","0","1","",""
"","feedback","","html-keyboard-response","192","222278","0.0-1.0-267.0-0.0","0","0","90626","","null","","","null","29","","","","","","","","","","","","","","","",""
"","ITI","","html-keyboard-response","193","223281","0.0-1.0-270.0","0","0","90626","","null","","","null","29","","","","","","","","","","","","","","","NaN",""
"","S1","","html-keyboard-response","194","223537","0.0-1.0-272.0","0","0","90626","","null","","","null","30","","","","","","","","","","","","","","","",""
"","ISI","","html-keyboard-response","195","225542","0.0-1.0-273.0","0","0","90626","","null","","","null","30","NaN","","","","","","","","","","","","","","",""
"","S2","","html-keyboard-response","196","225798","0.0-1.0-274.0","0","0","90626","","null","","","null","30","","NaN","","","","","","","","","","","","","",""
"","response","","html-keyboard-response","197","226007","0.0-1.0-275.0-0.0","0","0","90626","","205","","","68","30","","","1","30","training","adjacent","AB","1","2","L.jpg","O.jpg","1","1","1","",""
"","feedback","","html-keyboard-response","198","227015","0.0-1.0-276.0-0.0","0","0","90626","","null","","","null","30","","","","","","","","","","","","","","","",""
"","ITI","","html-keyboard-response","199","228022","0.0-1.0-279.0","0","0","90626","","null","","","null","30","","","","","","","","","","","","","","","NaN",""
"","S1","","html-keyboard-response","200","228279","0.0-1.0-281.0","0","0","90626","","null","","","null","31","","","","","","","","","","","","","","","",""
"","ISI","","html-keyboard-response","201","230284","0.0-1.0-282.0","0","0","90626","","null","","","null","31","NaN","","","","","","","","","","","","","","",""
"","S2","","html-keyboard-response","202","230540","0.0-1.0-283.0","0","0","90626","","null","","","null","31","","NaN","","","","","","","","","","","","","",""
"","response","","html-keyboard-response","203","230654","0.0-1.0-284.0-0.0","0","0","90626","","111","","","75","31","","","1","31","training","adjacent","FG","6","7","R.jpg","Q.jpg","0","1","0","",""
"","feedback","","html-keyboard-response","204","231660","0.0-1.0-285.0-0.0","0","0","90626","","null","","","null","31","","","","","","","","","","","","","","","",""
"","time_out","","html-keyboard-response","205","233665","0.0-1.0-287.0-0.0","0","0","90626","","null","","","null","31","","","","","","","","","","","","","","","",""
"","ITI","","html-keyboard-response","206","234668","0.0-1.0-288.0","0","0","90626","","null","","","null","31","","","","","","","","","","","","","","","NaN",""
"","S1","","html-keyboard-response","207","234924","0.0-1.0-290.0","0","0","90626","","null","","","null","32","","","","","","","","","","","","","","","",""
"","ISI","","html-keyboard-response","208","236929","0.0-1.0-291.0","0","0","90626","","null","","","null","32","NaN","","","","","","","","","","","","","","",""
"","S2","","html-keyboard-response","209","237186","0.0-1.0-292.0","0","0","90626","","null","","","null","32","","NaN","","","","","","","","","","","","","",""
"","response","","html-keyboard-response","210","237298","0.0-1.0-293.0-0.0","0","0","90626","","109","","","68","32","","","1","32","training","adjacent","DE","4","5","N.jpg","M.jpg","1","1","1","",""
"","feedback","","html-keyboard-response","211","238305","0.0-1.0-294.0-0.0","0","0","90626","","null","","","null","32","","","","","","","","","","","","","","","",""
"","ITI","","html-keyboard-response","212","239311","0.0-1.0-297.0","0","0","90626","","null","","","null","32","","","","","","","","","","","","","","","NaN",""
"","S1","","html-keyboard-response","213","239570","0.0-1.0-299.0","0","0","90626","","null","","","null","33","","","","","","","","","","","","","","","",""
"","ISI","","html-keyboard-response","214","241575","0.0-1.0-300.0","0","0","90626","","null","","","null","33","NaN","","","","","","","","","","","","","","",""
"","S2","","html-keyboard-response","215","241831","0.0-1.0-301.0","0","0","90626","","null","","","null","33","","NaN","","","","","","","","","","","","","",""
"","response","","html-keyboard-response","216","242025","0.0-1.0-302.0-0.0","0","0","90626","","192","","","75","33","","","1","33","training","adjacent","CB","3","2","P.jpg","O.jpg","0","0","1","",""
"","feedback","","html-keyboard-response","217","243031","0.0-1.0-303.0-0.0","0","0","90626","","null","","","null","33","","","","","","","","","","","","","","","",""
"","ITI","","html-keyboard-response","218","244037","0.0-1.0-306.0","0","0","90626","","null","","","null","33","","","","","","","","","","","","","","","NaN",""
"","S1","","html-keyboard-response","219","244295","0.0-1.0-308.0","0","0","90626","","null","","","null","34","","","","","","","","","","","","","","","",""
"","ISI","","html-keyboard-response","220","246300","0.0-1.0-309.0","0","0","90626","","null","","","null","34","NaN","","","","","","","","","","","","","","",""
"","S2","","html-keyboard-response","221","246556","0.0-1.0-310.0","0","0","90626","","null","","","null","34","","NaN","","","","","","","","","","","","","",""
"","response","","html-keyboard-response","222","246646","0.0-1.0-311.0-0.0","0","0","90626","","86","","","75","34","","","1","34","training","adjacent","ED","5","4","M.jpg","N.jpg","0","0","1","",""
"","feedback","","html-keyboard-response","223","247650","0.0-1.0-312.0-0.0","0","0","90626","","null","","","null","34","","","","","","","","","","","","","","","",""
"","ITI","","html-keyboard-response","224","248658","0.0-1.0-315.0","0","0","90626","","null","","","null","34","","","","","","","","","","","","","","","NaN",""
"","S1","","html-keyboard-response","225","248914","0.0-1.0-317.0","0","0","90626","","null","","","null","35","","","","","","","","","","","","","","","",""
"","ISI","","html-keyboard-response","226","250919","0.0-1.0-318.0","0","0","90626","","null","","","null","35","NaN","","","","","","","","","","","","","","",""
"","S2","","html-keyboard-response","227","251175","0.0-1.0-319.0","0","0","90626","","null","","","null","35","","NaN","","","","","","","","","","","","","",""
"","response","","html-keyboard-response","228","251387","0.0-1.0-320.0-0.0","0","0","90626","","209","","","75","35","","","1","35","training","adjacent","FE","6","5","R.jpg","M.jpg","0","0","1","",""
"","feedback","","html-keyboard-response","229","252391","0.0-1.0-321.0-0.0","0","0","90626","","null","","","null","35","","","","","","","","","","","","","","","",""
"","ITI","","html-keyboard-response","230","253399","0.0-1.0-324.0","0","0","90626","","null","","","null","35","","","","","","","","","","","","","","","NaN",""
"","S1","","html-keyboard-response","231","253655","0.0-1.0-326.0","0","0","90626","","null","","","null","36","","","","","","","","","","","","","","","",""
"","ISI","","html-keyboard-response","232","255660","0.0-1.0-327.0","0","0","90626","","null","","","null","36","NaN","","","","","","","","","","","","","","",""
"","S2","","html-keyboard-response","233","255916","0.0-1.0-328.0","0","0","90626","","null","","","null","36","","NaN","","","","","","","","","","","","","",""
"","response","","html-keyboard-response","234","256179","0.0-1.0-329.0-0.0","0","0","90626","","259","","","75","36","","","1","36","training","adjacent","AB","1","2","L.jpg","O.jpg","0","1","0","",""
"","feedback","","html-keyboard-response","235","257187","0.0-1.0-330.0-0.0","0","0","90626","","null","","","null","36","","","","","","","","","","","","","","","",""
"","time_out","","html-keyboard-response","236","259191","0.0-1.0-332.0-0.0","0","0","90626","","null","","","null","36","","","","","","","","","","","","","","","",""
"","ITI","","html-keyboard-response","237","260199","0.0-1.0-333.0","0","0","90626","","null","","","null","36","","","","","","","","","","","","","","","NaN",""
"","S1","","html-keyboard-response","238","260455","0.0-1.0-335.0","0","0","90626","","null","","","null","37","","","","","","","","","","","","","","","",""
"","ISI","","html-keyboard-response","239","262461","0.0-1.0-336.0","0","0","90626","","null","","","null","37","NaN","","","","","","","","","","","","","","",""
"","S2","","html-keyboard-response","240","262717","0.0-1.0-337.0","0","0","90626","","null","","","null","37","","NaN","","","","","","","","","","","","","",""
"","response","","html-keyboard-response","241","263640","0.0-1.0-338.0-0.0","0","0","90626","","921","","","75","37","","","1","37","training","adjacent","EF","5","6","M.jpg","R.jpg","0","1","0","",""
"","feedback","","html-keyboard-response","242","264647","0.0-1.0-339.0-0.0","0","0","90626","","null","","","null","37","","","","","","","","","","","","","","","",""
"","time_out","","html-keyboard-response","243","266653","0.0-1.0-341.0-0.0","0","0","90626","","null","","","null","37","","","","","","","","","","","","","","","",""
"","ITI","","html-keyboard-response","244","267659","0.0-1.0-342.0","0","0","90626","","null","","","null","37","","","","","","","","","","","","","","","NaN",""
"","S1","","html-keyboard-response","245","267917","0.0-1.0-344.0","0","0","90626","","null","","","null","38","","","","","","","","","","","","","","","",""
"","ISI","","html-keyboard-response","246","269922","0.0-1.0-345.0","0","0","90626","","null","","","null","38","NaN","","","","","","","","","","","","","","",""
"","S2","","html-keyboard-response","247","270178","0.0-1.0-346.0","0","0","90626","","null","","","null","38","","NaN","","","","","","","","","","","","","",""
"","response","","html-keyboard-response","248","271136","0.0-1.0-347.0-0.0","0","0","90626","","955","","","75","38","","","1","38","training","adjacent","BC","2","3","O.jpg","P.jpg","0","1","0","",""
"","feedback","","html-keyboard-response","249","272141","0.0-1.0-348.0-0.0","0","0","90626","","null","","","null","38","","","","","","","","","","","","","","","",""
"","time_out","","html-keyboard-response","250","274146","0.0-1.0-350.0-0.0","0","0","90626","","null","","","null","38","","","","","","","","","","","","","","","",""
"","ITI","","html-keyboard-response","251","275154","0.0-1.0-351.0","0","0","90626","","null","","","null","38","","","","","","","","","","","","","","","NaN",""
"","S1","","html-keyboard-response","252","275410","0.0-1.0-353.0","0","0","90626","","null","","","null","39","","","","","","","","","","","","","","","",""
"","ISI","","html-keyboard-response","253","277416","0.0-1.0-354.0","0","0","90626","","null","","","null","39","NaN","","","","","","","","","","","","","","",""
"","S2","","html-keyboard-response","254","277672","0.0-1.0-355.0","0","0","90626","","null","","","null","39","","NaN","","","","","","","","","","","","","",""
"","response","","html-keyboard-response","255","278210","0.0-1.0-356.0-0.0","0","0","90626","","535","","","68","39","","","1","39","training","adjacent","ED","5","4","M.jpg","N.jpg","1","0","0","",""
"","feedback","","html-keyboard-response","256","279215","0.0-1.0-357.0-0.0","0","0","90626","","null","","","null","39","","","","","","","","","","","","","","","",""
"","time_out","","html-keyboard-response","257","281218","0.0-1.0-359.0-0.0","0","0","90626","","null","","","null","39","","","","","","","","","","","","","","","",""
"","ITI","","html-keyboard-response","258","282225","0.0-1.0-360.0","0","0","90626","","null","","","null","39","","","","","","","","","","","","","","","NaN",""
"","S1","","html-keyboard-response","259","282483","0.0-1.0-362.0","0","0","90626","","null","","","null","40","","","","","","","","","","","","","","","",""
"","ISI","","html-keyboard-response","260","284488","0.0-1.0-363.0","0","0","90626","","null","","","null","40","NaN","","","","","","","","","","","","","","",""
"","S2","","html-keyboard-response","261","284744","0.0-1.0-364.0","0","0","90626","","null","","","null","40","","NaN","","","","","","","","","","","","","",""
"","response","","html-keyboard-response","262","285637","0.0-1.0-365.0-0.0","0","0","90626","","890","","","75","40","","","1","40","training","adjacent","AB","1","2","L.jpg","O.jpg","0","1","0","",""
"","feedback","","html-keyboard-response","263","286642","0.0-1.0-366.0-0.0","0","0","90626","","null","","","null","40","","","","","","","","","","","","","","","",""
"","time_out","","html-keyboard-response","264","288648","0.0-1.0-368.0-0.0","0","0","90626","","null","","","null","40","","","","","","","","","","","","","","","",""
"","ITI","","html-keyboard-response","265","289651","0.0-1.0-369.0","0","0","90626","","null","","","null","40","","","","","","","","","","","","","","","NaN",""
"","S1","","html-keyboard-response","266","289907","0.0-1.0-371.0","0","0","90626","","null","","","null","41","","","","","","","","","","","","","","","",""
"","ISI","","html-keyboard-response","267","291912","0.0-1.0-372.0","0","0","90626","","null","","","null","41","NaN","","","","","","","","","","","","","","",""
"","S2","","html-keyboard-response","268","292168","0.0-1.0-373.0","0","0","90626","","null","","","null","41","","NaN","","","","","","","","","","","","","",""
"","response","","html-keyboard-response","269","292364","0.0-1.0-374.0-0.0","0","0","90626","","194","","","75","41","","","1","41","training","adjacent","GF","7","6","Q.jpg","R.jpg","0","0","1","",""
"","feedback","","html-keyboard-response","270","293368","0.0-1.0-375.0-0.0","0","0","90626","","null","","","null","41","","","","","","","","","","","","","","","",""
"","ITI","","html-keyboard-response","271","294376","0.0-1.0-378.0","0","0","90626","","null","","","null","41","","","","","","","","","","","","","","","NaN",""
"","S1","","html-keyboard-response","272","294632","0.0-1.0-380.0","0","0","90626","","null","","","null","42","","","","","","","","","","","","","","","",""
"","ISI","","html-keyboard-response","273","296638","0.0-1.0-381.0","0","0","90626","","null","","","null","42","NaN","","","","","","","","","","","","","","",""
"","S2","","html-keyboard-response","274","296893","0.0-1.0-382.0","0","0","90626","","null","","","null","42","","NaN","","","","","","","","","","","","","",""
"","response","","html-keyboard-response","275","297224","0.0-1.0-383.0-0.0","0","0","90626","","327","","","75","42","","","1","42","training","adjacent","FE","6","5","R.jpg","M.jpg","0","0","1","",""
"","feedback","","html-keyboard-response","276","298230","0.0-1.0-384.0-0.0","0","0","90626","","null","","","null","42","","","","","","","","","","","","","","","",""
"","ITI","","html-keyboard-response","277","299235","0.0-1.0-387.0","0","0","90626","","null","","","null","42","","","","","","","","","","","","","","","NaN",""
"","S1","","html-keyboard-response","278","299491","0.0-1.0-389.0","0","0","90626","","null","","","null","43","","","","","","","","","","","","","","","",""
"","ISI","","html-keyboard-response","279","301496","0.0-1.0-390.0","0","0","90626","","null","","","null","43","NaN","","","","","","","","","","","","","","",""
"","S2","","html-keyboard-response","280","301752","0.0-1.0-391.0","0","0","90626","","null","","","null","43","","NaN","","","","","","","","","","","","","",""
"","response","","html-keyboard-response","281","302052","0.0-1.0-392.0-0.0","0","0","90626","","296","","","68","43","","","1","43","training","adjacent","DC","4","3","N.jpg","P.jpg","1","0","0","",""
"","feedback","","html-keyboard-response","282","303059","0.0-1.0-393.0-0.0","0","0","90626","","null","","","null","43","","","","","","","","","","","","","","","",""
"","time_out","","html-keyboard-response","283","305064","0.0-1.0-395.0-0.0","0","0","90626","","null","","","null","43","","","","","","","","","","","","","","","",""
"","ITI","","html-keyboard-response","284","306069","0.0-1.0-396.0","0","0","90626","","null","","","null","43","","","","","","","","","","","","","","","NaN",""
"","S1","","html-keyboard-response","285","306323","0.0-1.0-398.0","0","0","90626","","null","","","null","44","","","","","","","","","","","","","","","",""
"","ISI","","html-keyboard-response","286","308328","0.0-1.0-399.0","0","0","90626","","null","","","null","44","NaN","","","","","","","","","","","","","","",""
"","S2","","html-keyboard-response","287","308584","0.0-1.0-400.0","0","0","90626","","null","","","null","44","","NaN","","","","","","","","","","","","","",""
"","response","","html-keyboard-response","288","310269","0.0-1.0-401.0-0.0","0","0","90626","","1680","","","75","44","","","1","44","training","adjacent","CD","3","4","P.jpg","N.jpg","0","1","0","",""
"","feedback","","html-keyboard-response","289","311272","0.0-1.0-402.0-0.0","0","0","90626","","null","","","null","44","","","","","","","","","","","","","","","",""
"","time_out","","html-keyboard-response","290","313278","0.0-1.0-404.0-0.0","0","0","90626","","null","","","null","44","","","","","","","","","","","","","","","",""
"","ITI","","html-keyboard-response","291","314281","0.0-1.0-405.0","0","0","90626","","null","","","null","44","","","","","","","","","","","","","","","NaN",""
"","S1","","html-keyboard-response","292","314536","0.0-1.0-407.0","0","0","90626","","null","","","null","45","","","","","","","","","","","","","","","",""
"","ISI","","html-keyboard-response","293","316542","0.0-1.0-408.0","0","0","90626","","null","","","null","45","NaN","","","","","","","","","","","","","","",""
"","S2","","html-keyboard-response","294","316798","0.0-1.0-409.0","0","0","90626","","null","","","null","45","","NaN","","","","","","","","","","","","","",""
"","response","","html-keyboard-response","295","316905","0.0-1.0-410.0-0.0","0","0","90626","","104","","","68","45","","","1","45","training","adjacent","DE","4","5","N.jpg","M.jpg","1","1","1","",""
"","feedback","","html-keyboard-response","296","317910","0.0-1.0-411.0-0.0","0","0","90626","","null","","","null","45","","","","","","","","","","","","","","","",""
"","ITI","","html-keyboard-response","297","318915","0.0-1.0-414.0","0","0","90626","","null","","","null","45","","","","","","","","","","","","","","","NaN",""
"","S1","","html-keyboard-response","298","319171","0.0-1.0-416.0","0","0","90626","","null","","","null","46","","","","","","","","","","","","","","","",""
"","ISI","","html-keyboard-response","299","321177","0.0-1.0-417.0","0","0","90626","","null","","","null","46","NaN","","","","","","","","","","","","","","",""
"","S2","","html-keyboard-response","300","321435","0.0-1.0-418.0","0","0","90626","","null","","","null","46","","NaN","","","","","","","","","","","","","",""
"","response","","html-keyboard-response","301","321674","0.0-1.0-419.0-0.0","0","0","90626","","236","","","75","46","","","1","46","training","adjacent","CD","3","4","P.jpg","N.jpg","0","1","0","",""
"","feedback","","html-keyboard-response","302","322681","0.0-1.0-420.0-0.0","0","0","90626","","null","","","null","46","","","","","","","","","","","","","","","",""
"","time_out","","html-keyboard-response","303","324686","0.0-1.0-422.0-0.0","0","0","90626","","null","","","null","46","","","","","","","","","","","","","","","",""
"","ITI","","html-keyboard-response","304","325694","0.0-1.0-423.0","0","0","90626","","null","","","null","46","","","","","","","","","","","","","","","NaN",""
"","S1","","html-keyboard-response","305","325950","0.0-1.0-425.0","0","0","90626","","null","","","null","47","","","","","","","","","","","","","","","",""
"","ISI","","html-keyboard-response","306","327955","0.0-1.0-426.0","0","0","90626","","null","","","null","47","NaN","","","","","","","","","","","","","","",""
"","S2","","html-keyboard-response","307","328213","0.0-1.0-427.0","0","0","90626","","null","","","null","47","","NaN","","","","","","","","","","","","","",""
"","response","","html-keyboard-response","308","328740","0.0-1.0-428.0-0.0","0","0","90626","","523","","","75","47","","","1","47","training","adjacent","EF","5","6","M.jpg","R.jpg","0","1","0","",""
"","feedback","","html-keyboard-response","309","329748","0.0-1.0-429.0-0.0","0","0","90626","","null","","","null","47","","","","","","","","","","","","","","","",""
"","time_out","","html-keyboard-response","310","331753","0.0-1.0-431.0-0.0","0","0","90626","","null","","","null","47","","","","","","","","","","","","","","","",""
"","ITI","","html-keyboard-response","311","332761","0.0-1.0-432.0","0","0","90626","","null","","","null","47","","","","","","","","","","","","","","","NaN",""
"","block_over","","html-keyboard-response","312","336727","0.0-1.0-433.0-0.0","0","0","90626","","3962","","","32","47","","","","","","","","","","","","","","","",""
"","S1","","html-keyboard-response","313","336980","0.0-1.0-434.0","0","0","90626","","null","","","null","48","","","","","","","","","","","","","","","",""
"","ISI","","html-keyboard-response","314","338985","0.0-1.0-435.0","0","0","90626","","null","","","null","48","NaN","","","","","","","","","","","","","","",""
"","S2","","html-keyboard-response","315","339241","0.0-1.0-436.0","0","0","90626","","null","","","null","48","","NaN","","","","","","","","","","","","","",""
"","response","","html-keyboard-response","316","340319","0.0-1.0-437.0-0.0","0","0","90626","","1074","","","68","48","","","2","48","training","adjacent","ED","5","4","M.jpg","N.jpg","1","0","0","",""
"","feedback","","html-keyboard-response","317","341326","0.0-1.0-438.0-0.0","0","0","90626","","null","","","null","48","","","","","","","","","","","","","","","",""
"","time_out","","html-keyboard-response","318","343332","0.0-1.0-440.0-0.0","0","0","90626","","null","","","null","48","","","","","","","","","","","","","","","",""
"","ITI","","html-keyboard-response","319","344340","0.0-1.0-441.0","0","0","90626","","null","","","null","48","","","","","","","","","","","","","","","NaN",""
"","S1","","html-keyboard-response","320","344596","0.0-1.0-443.0","0","0","90626","","null","","","null","49","","","","","","","","","","","","","","","",""
"","ISI","","html-keyboard-response","321","346601","0.0-1.0-444.0","0","0","90626","","null","","","null","49","NaN","","","","","","","","","","","","","","",""
"","S2","","html-keyboard-response","322","346858","0.0-1.0-445.0","0","0","90626","","null","","","null","49","","NaN","","","","","","","","","","","","","",""
"","response","","html-keyboard-response","323","347272","0.0-1.0-446.0-0.0","0","0","90626","","411","","","68","49","","","2","49","training","adjacent","BA","2","1","O.jpg","L.jpg","1","0","0","",""
"","feedback","","html-keyboard-response","324","348276","0.0-1.0-447.0-0.0","0","0","90626","","null","","","null","49","","","","","","","","","","","","","","","",""
"","time_out","","html-keyboard-response","325","350282","0.0-1.0-449.0-0.0","0","0","90626","","null","","","null","49","","","","","","","","","","","","","","","",""
"","ITI","","html-keyboard-response","326","351289","0.0-1.0-450.0","0","0","90626","","null","","","null","49","","","","","","","","","","","","","","","NaN",""
"","S1","","html-keyboard-response","327","351545","0.0-1.0-452.0","0","0","90626","","null","","","null","50","","","","","","","","","","","","","","","",""
"","ISI","","html-keyboard-response","328","353553","0.0-1.0-453.0","0","0","90626","","null","","","null","50","NaN","","","","","","","","","","","","","","",""
"","S2","","html-keyboard-response","329","353807","0.0-1.0-454.0","0","0","90626","","null","","","null","50","","NaN","","","","","","","","","","","","","",""
"","response","","html-keyboard-response","330","354000","0.0-1.0-455.0-0.0","0","0","90626","","189","","","75","50","","","2","50","training","adjacent","DE","4","5","N.jpg","M.jpg","0","1","0","",""
"","feedback","","html-keyboard-response","331","355007","0.0-1.0-456.0-0.0","0","0","90626","","null","","","null","50","","","","","","","","","","","","","","","",""
"","time_out","","html-keyboard-response","332","357013","0.0-1.0-458.0-0.0","0","0","90626","","null","","","null","50","","","","","","","","","","","","","","","",""
"","ITI","","html-keyboard-response","333","358016","0.0-1.0-459.0","0","0","90626","","null","","","null","50","","","","","","","","","","","","","","","NaN",""
"","S1","","html-keyboard-response","334","358271","0.0-1.0-461.0","0","0","90626","","null","","","null","51","","","","","","","","","","","","","","","",""
"","ISI","","html-keyboard-response","335","360277","0.0-1.0-462.0","0","0","90626","","null","","","null","51","NaN","","","","","","","","","","","","","","",""
"","S2","","html-keyboard-response","336","360532","0.0-1.0-463.0","0","0","90626","","null","","","null","51","","NaN","","","","","","","","","","","","","",""
"","response","","html-keyboard-response","337","361087","0.0-1.0-464.0-0.0","0","0","90626","","551","","","75","51","","","2","51","training","adjacent","AB","1","2","L.jpg","O.jpg","0","1","0","",""
"","feedback","","html-keyboard-response","338","362095","0.0-1.0-465.0-0.0","0","0","90626","","null","","","null","51","","","","","","","","","","","","","","","",""
"","time_out","","html-keyboard-response","339","364101","0.0-1.0-467.0-0.0","0","0","90626","","null","","","null","51","","","","","","","","","","","","","","","",""
"","ITI","","html-keyboard-response","340","365108","0.0-1.0-468.0","0","0","90626","","null","","","null","51","","","","","","","","","","","","","","","NaN",""
"","S1","","html-keyboard-response","341","365364","0.0-1.0-470.0","0","0","90626","","null","","","null","52","","","","","","","","","","","","","","","",""
"","ISI","","html-keyboard-response","342","367373","0.0-1.0-471.0","0","0","90626","","null","","","null","52","NaN","","","","","","","","","","","","","","",""
"","S2","","html-keyboard-response","343","367631","0.0-1.0-472.0","0","0","90626","","null","","","null","52","","NaN","","","","","","","","","","","","","",""
"","response","","html-keyboard-response","344","368184","0.0-1.0-473.0-0.0","0","0","90626","","550","","","75","52","","","2","52","training","adjacent","FE","6","5","R.jpg","M.jpg","0","0","1","",""
"","feedback","","html-keyboard-response","345","369190","0.0-1.0-474.0-0.0","0","0","90626","","null","","","null","52","","","","","","","","","","","","","","","",""
"","ITI","","html-keyboard-response","346","370196","0.0-1.0-477.0","0","0","90626","","null","","","null","52","","","","","","","","","","","","","","","NaN",""
"","S1","","html-keyboard-response","347","370452","0.0-1.0-479.0","0","0","90626","","null","","","null","53","","","","","","","","","","","","","","","",""
"","ISI","","html-keyboard-response","348","372458","0.0-1.0-480.0","0","0","90626","","null","","","null","53","NaN","","","","","","","","","","","","","","",""
"","S2","","html-keyboard-response","349","372714","0.0-1.0-481.0","0","0","90626","","null","","","null","53","","NaN","","","","","","","","","","","","","",""
"","response","","html-keyboard-response","350","372764","0.0-1.0-482.0-0.0","0","0","90626","","47","","","68","53","","","2","53","training","adjacent","EF","5","6","M.jpg","R.jpg","1","1","1","",""
"","feedback","","html-keyboard-response","351","373768","0.0-1.0-483.0-0.0","0","0","90626","","null","","","null","53","","","","","","","","","","","","","","","",""
"","ITI","","html-keyboard-response","352","374772","0.0-1.0-486.0","0","0","90626","","null","","","null","53","","","","","","","","","","","","","","","NaN",""
"","S1","","html-keyboard-response","353","375028","0.0-1.0-488.0","0","0","90626","","null","","","null","54","","","","","","","","","","","","","","","",""
"","ISI","","html-keyboard-response","354","377034","0.0-1.0-489.0","0","0","90626","","null","","","null","54","NaN","","","","","","","","","","","","","","",""
"","S2","","html-keyboard-response","355","377290","0.0-1.0-490.0","0","0","90626","","null","","","null","54","","NaN","","","","","","","","","","","","","",""
"","response","","html-keyboard-response","356","378893","0.0-1.0-491.0-0.0","0","0","90626","","1600","","","68","54","","","2","54","training","adjacent","AB","1","2","L.jpg","O.jpg","1","1","1","",""
"","feedback","","html-keyboard-response","357","379898","0.0-1.0-492.0-0.0","0","0","90626","","null","","","null","54","","","","","","","","","","","","","","","",""
"","ITI","","html-keyboard-response","358","380906","0.0-1.0-495.0","0","0","90626","","null","","","null","54","","","","","","","","","","","","","","","NaN",""
"","S1","","html-keyboard-response","359","381162","0.0-1.0-497.0","0","0","90626","","null","","","null","55","","","","","","","","","","","","","","","",""
"","ISI","","html-keyboard-response","360","383167","0.0-1.0-498.0","0","0","90626","","null","","","null","55","NaN","","","","","","","","","","","","","","",""
"","S2","","html-keyboard-response","361","383423","0.0-1.0-499.0","0","0","90626","","null","","","null","55","","NaN","","","","","","","","","","","","","",""
"","response","","html-keyboard-response","362","385179","0.0-1.0-500.0-0.0","0","0","90626","","null","","","null","55","","","2","55","training","adjacent","DC","4","3","N.jpg","P.jpg","NaN","0","0","",""
"","too_slow_prompt","","html-keyboard-response","363","386186","0.0-1.0-502.0-0.0","1","0","90626","","null","","","null","","","","","","","","","","","","","","","","",""
"","time_out","","html-keyboard-response","364","388192","0.0-1.0-503.0-0.0","0","0","90626","","null","","","null","55","","","","","","","","","","","","","","","",""
"","ITI","","html-keyboard-response","365","389199","0.0-1.0-504.0","0","0","90626","","null","","","null","55","","","","","","","","","","","","","","","NaN",""
"","S1","","html-keyboard-response","366","389458","0.0-1.0-506.0","0","0","90626","","null","","","null","56","","","","","","","","","","","","","","","",""
"","ISI","","html-keyboard-response","367","391461","0.0-1.0-507.0","0","0","90626","","null","","","null","56","NaN","","","","","","","","","","","","","","",""
"","S2","","html-keyboard-response","368","391717","0.0-1.0-508.0","0","0","90626","","null","","","null","56","","NaN","","","","","","","","","","","","","",""
"","response","","html-keyboard-response","369","391992","0.0-1.0-509.0-0.0","0","0","90626","","271","","","75","56","","","2","56","training","adjacent","BC","2","3","O.jpg","P.jpg","0","1","0","",""
"","feedback","","html-keyboard-response","370","392997","0.0-1.0-510.0-0.0","0","0","90626","","null","","","null","56","","","","","","","","","","","","","","","",""
"","time_out","","html-keyboard-response","371","395002","0.0-1.0-512.0-0.0","0","0","90626","","null","","","null","56","","","","","","","","","","","","","","","",""
"","ITI","","html-keyboard-response","372","396010","0.0-1.0-513.0","0","0","90626","","null","","","null","56","","","","","","","","","","","","","","","NaN",""
"","S1","","html-keyboard-response","373","396266","0.0-1.0-515.0","0","0","90626","","null","","","null","57","","","","","","","","","","","","","","","",""
"","ISI","","html-keyboard-response","374","398272","0.0-1.0-516.0","0","0","90626","","null","","","null","57","NaN","","","","","","","","","","","","","","",""
"","S2","","html-keyboard-response","375","398528","0.0-1.0-517.0","0","0","90626","","null","","","null","57","","NaN","","","","","","","","","","","","","",""
"","response","","html-keyboard-response","376","398981","0.0-1.0-518.0-0.0","0","0","90626","","449","","","68","57","","","2","57","training","adjacent","EF","5","6","M.jpg","R.jpg","1","1","1","",""
"","feedback","","html-keyboard-response","377","399989","0.0-1.0-519.0-0.0","0","0","90626","","null","","","null","57","","","","","","","","","","","","","","","",""
"","ITI","","html-keyboard-response","378","400997","0.0-1.0-522.0","0","0","90626","","null","","","null","57","","","","","","","","","","","","","","","NaN",""
"","S1","","html-keyboard-response","379","401253","0.0-1.0-524.0","0","0","90626","","null","","","null","58","","","","","","","","","","","","","","","",""
"","ISI","","html-keyboard-response","380","403259","0.0-1.0-525.0","0","0","90626","","null","","","null","58","NaN","","","","","","","","","","","","","","",""
"","S2","","html-keyboard-response","381","403515","0.0-1.0-526.0","0","0","90626","","null","","","null","58","","NaN","","","","","","","","","","","","","",""
"","response","","html-keyboard-response","382","403786","0.0-1.0-527.0-0.0","0","0","90626","","268","","","68","58","","","2","58","training","adjacent","CB","3","2","P.jpg","O.jpg","1","0","0","",""
"","feedback","","html-keyboard-response","383","404792","0.0-1.0-528.0-0.0","0","0","90626","","null","","","null","58","","","","","","","","","","","","","","","",""
"","time_out","","html-keyboard-response","384","406800","0.0-1.0-530.0-0.0","0","0","90626","","null","","","null","58","","","","","","","","","","","","","","","",""
"","ITI","","html-keyboard-response","385","407803","0.0-1.0-531.0","0","0","90626","","null","","","null","58","","","","","","","","","","","","","","","NaN",""
"","S1","","html-keyboard-response","386","408059","0.0-1.0-533.0","0","0","90626","","null","","","null","59","","","","","","","","","","","","","","","",""
"","ISI","","html-keyboard-response","387","410064","0.0-1.0-534.0","0","0","90626","","null","","","null","59","NaN","","","","","","","","","","","","","","",""
"","S2","","html-keyboard-response","388","410318","0.0-1.0-535.0","0","0","90626","","null","","","null","59","","NaN","","","","","","","","","","","","","",""
"","response","","html-keyboard-response","389","410488","0.0-1.0-536.0-0.0","0","0","90626","","167","","","75","59","","","2","59","training","adjacent","FE","6","5","R.jpg","M.jpg","0","0","1","",""
"","feedback","","html-keyboard-response","390","411493","0.0-1.0-537.0-0.0","0","0","90626","","null","","","null","59","","","","","","","","","","","","","","","",""
"","ITI","","html-keyboard-response","391","412502","0.0-1.0-540.0","0","0","90626","","null","","","null","59","","","","","","","","","","","","","","","NaN",""
"","S1","","html-keyboard-response","392","412758","0.0-1.0-542.0","0","0","90626","","null","","","null","60","","","","","","","","","","","","","","","",""
"","ISI","","html-keyboard-response","393","414763","0.0-1.0-543.0","0","0","90626","","null","","","null","60","NaN","","","","","","","","","","","","","","",""
"","S2","","html-keyboard-response","394","415019","0.0-1.0-544.0","0","0","90626","","null","","","null","60","","NaN","","","","","","","","","","","","","",""
"","response","","html-keyboard-response","395","415147","0.0-1.0-545.0-0.0","0","0","90626","","124","","","68","60","","","2","60","training","adjacent","GF","7","6","Q.jpg","R.jpg","1","0","0","",""
"","feedback","","html-keyboard-response","396","416155","0.0-1.0-546.0-0.0","0","0","90626","","null","","","null","60","","","","","","","","","","","","","","","",""
"","time_out","","html-keyboard-response","397","418163","0.0-1.0-548.0-0.0","0","0","90626","","null","","","null","60","","","","","","","","","","","","","","","",""
"","ITI","","html-keyboard-response","398","419168","0.0-1.0-549.0","0","0","90626","","null","","","null","60","","","","","","","","","","","","","","","NaN",""
"","S1","","html-keyboard-response","399","419424","0.0-1.0-551.0","0","0","90626","","null","","","null","61","","","","","","","","","","","","","","","",""
"","ISI","","html-keyboard-response","400","421430","0.0-1.0-552.0","0","0","90626","","228","","","75","61","k","","","","","","","","","","","","","","",""
"","S2","","html-keyboard-response","401","421686","0.0-1.0-553.0","0","0","90626","","null","","","null","61","","NaN","","","","","","","","","","","","","",""
"","response","","html-keyboard-response","402","421695","0.0-1.0-554.0-0.0","0","0","90626","","7","","","68","61","","","2","61","training","adjacent","FG","6","7","R.jpg","Q.jpg","1","1","1","",""
"","feedback","","html-keyboard-response","403","422700","0.0-1.0-555.0-0.0","0","0","90626","","null","","","null","61","","","","","","","","","","","","","","","",""
"","ITI","","html-keyboard-response","404","423707","0.0-1.0-558.0","0","0","90626","","null","","","null","61","","","","","","","","","","","","","","","NaN",""
"","S1","","html-keyboard-response","405","423963","0.0-1.0-560.0","0","0","90626","","null","","","null","62","","","","","","","","","","","","","","","",""
"","ISI","","html-keyboard-response","406","425968","0.0-1.0-561.0","0","0","90626","","null","","","null","62","NaN","","","","","","","","","","","","","","",""
"","S2","","html-keyboard-response","407","426224","0.0-1.0-562.0","0","0","90626","","null","","","null","62","","NaN","","","","","","","","","","","","","",""
"","response","","html-keyboard-response","408","426397","0.0-1.0-563.0-0.0","0","0","90626","","170","","","68","62","","","2","62","training","adjacent","EF","5","6","M.jpg","R.jpg","1","1","1","",""
"","feedback","","html-keyboard-response","409","427403","0.0-1.0-564.0-0.0","0","0","90626","","null","","","null","62","","","","","","","","","","","","","","","",""
"","ITI","","html-keyboard-response","410","428411","0.0-1.0-567.0","0","0","90626","","null","","","null","62","","","","","","","","","","","","","","","NaN",""
"","S1","","html-keyboard-response","411","428669","0.0-1.0-569.0","0","0","90626","","null","","","null","63","","","","","","","","","","","","","","","",""
"","ISI","","html-keyboard-response","412","430674","0.0-1.0-570.0","0","0","90626","","null","","","null","63","NaN","","","","","","","","","","","","","","",""
"","S2","","html-keyboard-response","413","430928","0.0-1.0-571.0","0","0","90626","","null","","","null","63","","NaN","","","","","","","","","","","","","",""
"","response","","html-keyboard-response","414","431008","0.0-1.0-572.0-0.0","0","0","90626","","77","","","68","63","","","2","63","training","adjacent","EF","5","6","M.jpg","R.jpg","1","1","1","",""
"","feedback","","html-keyboard-response","415","432016","0.0-1.0-573.0-0.0","0","0","90626","","null","","","null","63","","","","","","","","","","","","","","","",""
"","ITI","","html-keyboard-response","416","433021","0.0-1.0-576.0","0","0","90626","","null","","","null","63","","","","","","","","","","","","","","","NaN",""
"","S1","","html-keyboard-response","417","433275","0.0-1.0-578.0","0","0","90626","","null","","","null","64","","","","","","","","","","","","","","","",""
"","ISI","","html-keyboard-response","418","435281","0.0-1.0-579.0","0","0","90626","","null","","","null","64","NaN","","","","","","","","","","","","","","",""
"","S2","","html-keyboard-response","419","435536","0.0-1.0-580.0","0","0","90626","","null","","","null","64","","NaN","","","","","","","","","","","","","",""
"","response","","html-keyboard-response","420","435756","0.0-1.0-581.0-0.0","0","0","90626","","216","","","75","64","","","2","64","training","adjacent","AB","1","2","L.jpg","O.jpg","0","1","0","",""
"","feedback","","html-keyboard-response","421","436764","0.0-1.0-582.0-0.0","0","0","90626","","null","","","null","64","","","","","","","","","","","","","","","",""
"","time_out","","html-keyboard-response","422","438768","0.0-1.0-584.0-0.0","0","0","90626","","null","","","null","64","","","","","","","","","","","","","","","",""
"","ITI","","html-keyboard-response","423","439771","0.0-1.0-585.0","0","0","90626","","null","","","null","64","","","","","","","","","","","","","","","NaN",""
"","S1","","html-keyboard-response","424","440027","0.0-1.0-587.0","0","0","90626","","null","","","null","65","","","","","","","","","","","","","","","",""
"","ISI","","html-keyboard-response","425","442033","0.0-1.0-588.0","0","0","90626","","null","","","null","65","NaN","","","","","","","","","","","","","","",""
"","S2","","html-keyboard-response","426","442289","0.0-1.0-589.0","0","0","90626","","null","","","null","65","","NaN","","","","","","","","","","","","","",""
"","response","","html-keyboard-response","427","442433","0.0-1.0-590.0-0.0","0","0","90626","","141","","","68","65","","","2","65","training","adjacent","FG","6","7","R.jpg","Q.jpg","1","1","1","",""
"","feedback","","html-keyboard-response","428","443441","0.0-1.0-591.0-0.0","0","0","90626","","null","","","null","65","","","","","","","","","","","","","","","",""
"","ITI","","html-keyboard-response","429","444449","0.0-1.0-594.0","0","0","90626","","null","","","null","65","","","","","","","","","","","","","","","NaN",""
"","S1","","html-keyboard-response","430","444705","0.0-1.0-596.0","0","0","90626","","null","","","null","66","","","","","","","","","","","","","","","",""
"","ISI","","html-keyboard-response","431","446711","0.0-1.0-597.0","0","0","90626","","null","","","null","66","NaN","","","","","","","","","","","","","","",""
"","S2","","html-keyboard-response","432","446966","0.0-1.0-598.0","0","0","90626","","null","","","null","66","","NaN","","","","","","","","","","","","","",""
"","response","","html-keyboard-response","433","447100","0.0-1.0-599.0-0.0","0","0","90626","","131","","","75","66","","","2","66","training","adjacent","CB","3","2","P.jpg","O.jpg","0","0","1","",""
"","feedback","","html-keyboard-response","434","448108","0.0-1.0-600.0-0.0","0","0","90626","","null","","","null","66","","","","","","","","","","","","","","","",""
"","ITI","","html-keyboard-response","435","449115","0.0-1.0-603.0","0","0","90626","","null","","","null","66","","","","","","","","","","","","","","","NaN",""
"","S1","","html-keyboard-response","436","449372","0.0-1.0-605.0","0","0","90626","","null","","","null","67","","","","","","","","","","","","","","","",""
"","ISI","","html-keyboard-response","437","451377","0.0-1.0-606.0","0","0","90626","","null","","","null","67","NaN","","","","","","","","","","","","","","",""
"","S2","","html-keyboard-response","438","451633","0.0-1.0-607.0","0","0","90626","","null","","","null","67","","NaN","","","","","","","","","","","","","",""
"","response","","html-keyboard-response","439","451663","0.0-1.0-608.0-0.0","0","0","90626","","27","","","68","67","","","2","67","training","adjacent","BA","2","1","O.jpg","L.jpg","1","0","0","",""
"","feedback","","html-keyboard-response","440","452668","0.0-1.0-609.0-0.0","0","0","90626","","null","","","null","67","","","","","","","","","","","","","","","",""
"","time_out","","html-keyboard-response","441","454673","0.0-1.0-611.0-0.0","0","0","90626","","null","","","null","67","","","","","","","","","","","","","","","",""
"","ITI","","html-keyboard-response","442","455681","0.0-1.0-612.0","0","0","90626","","null","","","null","67","","","","","","","","","","","","","","","NaN",""
"","S1","","html-keyboard-response","443","455937","0.0-1.0-614.0","0","0","90626","","null","","","null","68","","","","","","","","","","","","","","","",""
"","ISI","","html-keyboard-response","444","457942","0.0-1.0-615.0","0","0","90626","","null","","","null","68","NaN","","","","","","","","","","","","","","",""
"","S2","","html-keyboard-response","445","458198","0.0-1.0-616.0","0","0","90626","","null","","","null","68","","NaN","","","","","","","","","","","","","",""
"","response","","html-keyboard-response","446","458269","0.0-1.0-617.0-0.0","0","0","90626","","67","","","68","68","","","2","68","training","adjacent","BC","2","3","O.jpg","P.jpg","1","1","1","",""
"","feedback","","html-keyboard-response","447","459276","0.0-1.0-618.0-0.0","0","0","90626","","null","","","null","68","","","","","","","","","","","","","","","",""
"","ITI","","html-keyboard-response","448","460284","0.0-1.0-621.0","0","0","90626","","null","","","null","68","","","","","","","","","","","","","","","NaN",""
"","S1","","html-keyboard-response","449","460540","0.0-1.0-623.0","0","0","90626","","null","","","null","69","","","","","","","","","","","","","","","",""
"","ISI","","html-keyboard-response","450","462545","0.0-1.0-624.0","0","0","90626","","null","","","null","69","NaN","","","","","","","","","","","","","","",""
"","S2","","html-keyboard-response","451","462801","0.0-1.0-625.0","0","0","90626","","null","","","null","69","","NaN","","","","","","","","","","","","","",""
"","response","","html-keyboard-response","452","463357","0.0-1.0-626.0-0.0","0","0","90626","","552","","","75","69","","","2","69","training","adjacent","CD","3","4","P.jpg","N.jpg","0","1","0","",""
"","feedback","","html-keyboard-response","453","464364","0.0-1.0-627.0-0.0","0","0","90626","","null","","","null","69","","","","","","","","","","","","","","","",""
"","time_out","","html-keyboard-response","454","466369","0.0-1.0-629.0-0.0","0","0","90626","","null","","","null","69","","","","","","","","","","","","","","","",""
"","ITI","","html-keyboard-response","455","467377","0.0-1.0-630.0","0","0","90626","","null","","","null","69","","","","","","","","","","","","","","","NaN",""
"","S1","","html-keyboard-response","456","467633","0.0-1.0-632.0","0","0","90626","","null","","","null","70","","","","","","","","","","","","","","","",""
"","ISI","","html-keyboard-response","457","469639","0.0-1.0-633.0","0","0","90626","","null","","","null","70","NaN","","","","","","","","","","","","","","",""
"","S2","","html-keyboard-response","458","469895","0.0-1.0-634.0","0","0","90626","","null","","","null","70","","NaN","","","","","","","","","","","","","",""
"","response","","html-keyboard-response","459","469929","0.0-1.0-635.0-0.0","0","0","90626","","31","","","68","70","","","2","70","training","adjacent","DE","4","5","N.jpg","M.jpg","1","1","1","",""
"","feedback","","html-keyboard-response","460","470935","0.0-1.0-636.0-0.0","0","0","90626","","null","","","null","70","","","","","","","","","","","","","","","",""
"","ITI","","html-keyboard-response","461","471943","0.0-1.0-639.0","0","0","90626","","null","","","null","70","","","","","","","","","","","","","","","NaN",""
"","S1","","html-keyboard-response","462","472199","0.0-1.0-641.0","0","0","90626","","null","","","null","71","","","","","","","","","","","","","","","",""
"","ISI","","html-keyboard-response","463","474206","0.0-1.0-642.0","0","0","90626","","null","","","null","71","NaN","","","","","","","","","","","","","","",""
"","S2","","html-keyboard-response","464","474462","0.0-1.0-643.0","0","0","90626","","null","","","null","71","","NaN","","","","","","","","","","","","","",""
"","response","","html-keyboard-response","465","474522","0.0-1.0-644.0-0.0","0","0","90626","","56","","","68","71","","","2","71","training","adjacent","BA","2","1","O.jpg","L.jpg","1","0","0","",""
"","feedback","","html-keyboard-response","466","475527","0.0-1.0-645.0-0.0","0","0","90626","","null","","","null","71","","","","","","","","","","","","","","","",""
"","time_out","","html-keyboard-response","467","477530","0.0-1.0-647.0-0.0","0","0","90626","","null","","","null","71","","","","","","","","","","","","","","","",""
"","ITI","","html-keyboard-response","468","478535","0.0-1.0-648.0","0","0","90626","","null","","","null","71","","","","","","","","","","","","","","","NaN",""
"","S1","","html-keyboard-response","469","478791","0.0-1.0-650.0","0","0","90626","","null","","","null","72","","","","","","","","","","","","","","","",""
"","ISI","","html-keyboard-response","470","480796","0.0-1.0-651.0","0","0","90626","","null","","","null","72","NaN","","","","","","","","","","","","","","",""
"","S2","","html-keyboard-response","471","481052","0.0-1.0-652.0","0","0","90626","","null","","","null","72","","NaN","","","","","","","","","","","","","",""
"","response","","html-keyboard-response","472","481084","0.0-1.0-653.0-0.0","0","0","90626","","28","","","68","72","","","2","72","training","adjacent","DC","4","3","N.jpg","P.jpg","1","0","0","",""
"","feedback","","html-keyboard-response","473","482092","0.0-1.0-654.0-0.0","0","0","90626","","null","","","null","72","","","","","","","","","","","","","","","",""
"","time_out","","html-keyboard-response","474","484098","0.0-1.0-656.0-0.0","0","0","90626","","null","","","null","72","","","","","","","","","","","","","","","",""
"","ITI","","html-keyboard-response","475","485106","0.0-1.0-657.0","0","0","90626","","null","","","null","72","","","","","","","","","","","","","","","NaN",""
"","S1","","html-keyboard-response","476","485362","0.0-1.0-659.0","0","0","90626","","null","","","null","73","","","","","","","","","","","","","","","",""
"","ISI","","html-keyboard-response","477","487367","0.0-1.0-660.0","0","0","90626","","null","","","null","73","NaN","","","","","","","","","","","","","","",""
"","S2","","html-keyboard-response","478","487621","0.0-1.0-661.0","0","0","90626","","null","","","null","73","","NaN","","","","","","","","","","","","","",""
"","response","","html-keyboard-response","479","487627","0.0-1.0-662.0-0.0","0","0","90626","","2","","","75","73","","","2","73","training","adjacent","FG","6","7","R.jpg","Q.jpg","0","1","0","",""
"","feedback","","html-keyboard-response","480","488631","0.0-1.0-663.0-0.0","0","0","90626","","null","","","null","73","","","","","","","","","","","","","","","",""
"","time_out","","html-keyboard-response","481","490636","0.0-1.0-665.0-0.0","0","0","90626","","null","","","null","73","","","","","","","","","","","","","","","",""
"","ITI","","html-keyboard-response","482","491643","0.0-1.0-666.0","0","0","90626","","null","","","null","73","","","","","","","","","","","","","","","NaN",""
"","S1","","html-keyboard-response","483","491900","0.0-1.0-668.0","0","0","90626","","null","","","null","74","","","","","","","","","","","","","","","",""
"","ISI","","html-keyboard-response","484","493906","0.0-1.0-669.0","0","0","90626","","null","","","null","74","NaN","","","","","","","","","","","","","","",""
"","S2","","html-keyboard-response","485","494162","0.0-1.0-670.0","0","0","90626","","null","","","null","74","","NaN","","","","","","","","","","","","","",""
"","response","","html-keyboard-response","486","494316","0.0-1.0-671.0-0.0","0","0","90626","","152","","","75","74","","","2","74","training","adjacent","FE","6","5","R.jpg","M.jpg","0","0","1","",""
"","feedback","","html-keyboard-response","487","495324","0.0-1.0-672.0-0.0","0","0","90626","","null","","","null","74","","","","","","","","","","","","","","","",""
"","ITI","","html-keyboard-response","488","496330","0.0-1.0-675.0","0","0","90626","","null","","","null","74","","","","","","","","","","","","","","","NaN",""
"","S1","","html-keyboard-response","489","496589","0.0-1.0-677.0","0","0","90626","","null","","","null","75","","","","","","","","","","","","","","","",""
"","ISI","","html-keyboard-response","490","498594","0.0-1.0-678.0","0","0","90626","","null","","","null","75","NaN","","","","","","","","","","","","","","",""
"","S2","","html-keyboard-response","491","498850","0.0-1.0-679.0","0","0","90626","","null","","","null","75","","NaN","","","","","","","","","","","","","",""
"","response","","html-keyboard-response","492","499102","0.0-1.0-680.0-0.0","0","0","90626","","248","","","68","75","","","2","75","training","adjacent","CB","3","2","P.jpg","O.jpg","1","0","0","",""
"","feedback","","html-keyboard-response","493","500109","0.0-1.0-681.0-0.0","0","0","90626","","null","","","null","75","","","","","","","","","","","","","","","",""
"","time_out","","html-keyboard-response","494","502114","0.0-1.0-683.0-0.0","0","0","90626","","null","","","null","75","","","","","","","","","","","","","","","",""
"","ITI","","html-keyboard-response","495","503122","0.0-1.0-684.0","0","0","90626","","null","","","null","75","","","","","","","","","","","","","","","NaN",""
"","S1","","html-keyboard-response","496","503378","0.0-1.0-686.0","0","0","90626","","null","","","null","76","","","","","","","","","","","","","","","",""
"","ISI","","html-keyboard-response","497","505384","0.0-1.0-687.0","0","0","90626","","null","","","null","76","NaN","","","","","","","","","","","","","","",""
"","S2","","html-keyboard-response","498","505640","0.0-1.0-688.0","0","0","90626","","null","","","null","76","","NaN","","","","","","","","","","","","","",""
"","response","","html-keyboard-response","499","505680","0.0-1.0-689.0-0.0","0","0","90626","","36","","","68","76","","","2","76","training","adjacent","ED","5","4","M.jpg","N.jpg","1","0","0","",""
"","feedback","","html-keyboard-response","500","506684","0.0-1.0-690.0-0.0","0","0","90626","","null","","","null","76","","","","","","","","","","","","","","","",""
"","time_out","","html-keyboard-response","501","508690","0.0-1.0-692.0-0.0","0","0","90626","","null","","","null","76","","","","","","","","","","","","","","","",""
"","ITI","","html-keyboard-response","502","509693","0.0-1.0-693.0","0","0","90626","","null","","","null","76","","","","","","","","","","","","","","","NaN",""
"","S1","","html-keyboard-response","503","509949","0.0-1.0-695.0","0","0","90626","","null","","","null","77","","","","","","","","","","","","","","","",""
"","ISI","","html-keyboard-response","504","511954","0.0-1.0-696.0","0","0","90626","","null","","","null","77","NaN","","","","","","","","","","","","","","",""
"","S2","","html-keyboard-response","505","512210","0.0-1.0-697.0","0","0","90626","","null","","","null","77","","NaN","","","","","","","","","","","","","",""
"","response","","html-keyboard-response","506","512424","0.0-1.0-698.0-0.0","0","0","90626","","210","","","75","77","","","2","77","training","adjacent","BC","2","3","O.jpg","P.jpg","0","1","0","",""
"","feedback","","html-keyboard-response","507","513431","0.0-1.0-699.0-0.0","0","0","90626","","null","","","null","77","","","","","","","","","","","","","","","",""
"","time_out","","html-keyboard-response","508","515437","0.0-1.0-701.0-0.0","0","0","90626","","null","","","null","77","","","","","","","","","","","","","","","",""
"","ITI","","html-keyboard-response","509","516445","0.0-1.0-702.0","0","0","90626","","null","","","null","77","","","","","","","","","","","","","","","NaN",""
"","S1","","html-keyboard-response","510","516701","0.0-1.0-704.0","0","0","90626","","null","","","null","78","","","","","","","","","","","","","","","",""
"","ISI","","html-keyboard-response","511","518707","0.0-1.0-705.0","0","0","90626","","null","","","null","78","NaN","","","","","","","","","","","","","","",""
"","S2","","html-keyboard-response","512","518963","0.0-1.0-706.0","0","0","90626","","null","","","null","78","","NaN","","","","","","","","","","","","","",""
"","response","","html-keyboard-response","513","519170","0.0-1.0-707.0-0.0","0","0","90626","","204","","","68","78","","","2","78","training","adjacent","DC","4","3","N.jpg","P.jpg","1","0","0","",""
"","feedback","","html-keyboard-response","514","520178","0.0-1.0-708.0-0.0","0","0","90626","","null","","","null","78","","","","","","","","","","","","","","","",""
"","time_out","","html-keyboard-response","515","522187","0.0-1.0-710.0-0.0","0","0","90626","","null","","","null","78","","","","","","","","","","","","","","","",""
"","ITI","","html-keyboard-response","516","523192","0.0-1.0-711.0","0","0","90626","","null","","","null","78","","","","","","","","","","","","","","","NaN",""
"","S1","","html-keyboard-response","517","523448","0.0-1.0-713.0","0","0","90626","","null","","","null","79","","","","","","","","","","","","","","","",""
"","ISI","","html-keyboard-response","518","525453","0.0-1.0-714.0","0","0","90626","","null","","","null","79","NaN","","","","","","","","","","","","","","",""
"","S2","","html-keyboard-response","519","525709","0.0-1.0-715.0","0","0","90626","","null","","","null","79","","NaN","","","","","","","","","","","","","",""
"","response","","html-keyboard-response","520","525973","0.0-1.0-716.0-0.0","0","0","90626","","260","","","68","79","","","2","79","training","adjacent","ED","5","4","M.jpg","N.jpg","1","0","0","",""
"","feedback","","html-keyboard-response","521","526979","0.0-1.0-717.0-0.0","0","0","90626","","null","","","null","79","","","","","","","","","","","","","","","",""
"","time_out","","html-keyboard-response","522","528984","0.0-1.0-719.0-0.0","0","0","90626","","null","","","null","79","","","","","","","","","","","","","","","",""
"","ITI","","html-keyboard-response","523","529991","0.0-1.0-720.0","0","0","90626","","null","","","null","79","","","","","","","","","","","","","","","NaN",""
"","S1","","html-keyboard-response","524","530248","0.0-1.0-722.0","0","0","90626","","null","","","null","80","","","","","","","","","","","","","","","",""
"","ISI","","html-keyboard-response","525","532255","0.0-1.0-723.0","0","0","90626","","null","","","null","80","NaN","","","","","","","","","","","","","","",""
"","S2","","html-keyboard-response","526","532509","0.0-1.0-724.0","0","0","90626","","null","","","null","80","","NaN","","","","","","","","","","","","","",""
"","response","","html-keyboard-response","527","532665","0.0-1.0-725.0-0.0","0","0","90626","","152","","","75","80","","","2","80","training","adjacent","DE","4","5","N.jpg","M.jpg","0","1","0","",""
"","feedback","","html-keyboard-response","528","533672","0.0-1.0-726.0-0.0","0","0","90626","","null","","","null","80","","","","","","","","","","","","","","","",""
"","time_out","","html-keyboard-response","529","535678","0.0-1.0-728.0-0.0","0","0","90626","","null","","","null","80","","","","","","","","","","","","","","","",""
"","ITI","","html-keyboard-response","530","536686","0.0-1.0-729.0","0","0","90626","","null","","","null","80","","","","","","","","","","","","","","","NaN",""
"","S1","","html-keyboard-response","531","536942","0.0-1.0-731.0","0","0","90626","","null","","","null","81","","","","","","","","","","","","","","","",""
"","ISI","","html-keyboard-response","532","538947","0.0-1.0-732.0","0","0","90626","","null","","","null","81","NaN","","","","","","","","","","","","","","",""
"","S2","","html-keyboard-response","533","539203","0.0-1.0-733.0","0","0","90626","","null","","","null","81","","NaN","","","","","","","","","","","","","",""
"","response","","html-keyboard-response","534","539495","0.0-1.0-734.0-0.0","0","0","90626","","289","","","68","81","","","2","81","training","adjacent","CD","3","4","P.jpg","N.jpg","1","1","1","",""
"","feedback","","html-keyboard-response","535","540499","0.0-1.0-735.0-0.0","0","0","90626","","null","","","null","81","","","","","","","","","","","","","","","",""
"","ITI","","html-keyboard-response","536","541507","0.0-1.0-738.0","0","0","90626","","null","","","null","81","","","","","","","","","","","","","","","NaN",""
"","S1","","html-keyboard-response","537","541763","0.0-1.0-740.0","0","0","90626","","null","","","null","82","","","","","","","","","","","","","","","",""
"","ISI","","html-keyboard-response","538","543767","0.0-1.0-741.0","0","0","90626","","null","","","null","82","NaN","","","","","","","","","","","","","","",""
"","S2","","html-keyboard-response","539","544024","0.0-1.0-742.0","0","0","90626","","null","","","null","82","","NaN","","","","","","","","","","","","","",""
"","response","","html-keyboard-response","540","544263","0.0-1.0-743.0-0.0","0","0","90626","","235","","","68","82","","","2","82","training","adjacent","GF","7","6","Q.jpg","R.jpg","1","0","0","",""
"","feedback","","html-keyboard-response","541","545268","0.0-1.0-744.0-0.0","0","0","90626","","null","","","null","82","","","","","","","","","","","","","","","",""
"","time_out","","html-keyboard-response","542","547273","0.0-1.0-746.0-0.0","0","0","90626","","null","","","null","82","","","","","","","","","","","","","","","",""
"","ITI","","html-keyboard-response","543","548280","0.0-1.0-747.0","0","0","90626","","null","","","null","82","","","","","","","","","","","","","","","NaN",""
"","S1","","html-keyboard-response","544","548536","0.0-1.0-749.0","0","0","90626","","null","","","null","83","","","","","","","","","","","","","","","",""
"","ISI","","html-keyboard-response","545","550542","0.0-1.0-750.0","0","0","90626","","null","","","null","83","NaN","","","","","","","","","","","","","","",""
"","S2","","html-keyboard-response","546","550798","0.0-1.0-751.0","0","0","90626","","null","","","null","83","","NaN","","","","","","","","","","","","","",""
"","response","","html-keyboard-response","547","550875","0.0-1.0-752.0-0.0","0","0","90626","","74","","","68","83","","","2","83","training","adjacent","GF","7","6","Q.jpg","R.jpg","1","0","0","",""
"","feedback","","html-keyboard-response","548","551882","0.0-1.0-753.0-0.0","0","0","90626","","null","","","null","83","","","","","","","","","","","","","","","",""
"","time_out","","html-keyboard-response","549","553886","0.0-1.0-755.0-0.0","0","0","90626","","null","","","null","83","","","","","","","","","","","","","","","",""
"","ITI","","html-keyboard-response","550","554889","0.0-1.0-756.0","0","0","90626","","null","","","null","83","","","","","","","","","","","","","","","NaN",""
"","S1","","html-keyboard-response","551","555145","0.0-1.0-758.0","0","0","90626","","null","","","null","84","","","","","","","","","","","","","","","",""
"","ISI","","html-keyboard-response","552","557150","0.0-1.0-759.0","0","0","90626","","null","","","null","84","NaN","","","","","","","","","","","","","","",""
"","S2","","html-keyboard-response","553","557406","0.0-1.0-760.0","0","0","90626","","null","","","null","84","","NaN","","","","","","","","","","","","","",""
"","response","","html-keyboard-response","554","557490","0.0-1.0-761.0-0.0","0","0","90626","","80","","","75","84","","","2","84","training","adjacent","CB","3","2","P.jpg","O.jpg","0","0","1","",""
"","feedback","","html-keyboard-response","555","558494","0.0-1.0-762.0-0.0","0","0","90626","","null","","","null","84","","","","","","","","","","","","","","","",""
"","ITI","","html-keyboard-response","556","559497","0.0-1.0-765.0","0","0","90626","","null","","","null","84","","","","","","","","","","","","","","","NaN",""
"","S1","","html-keyboard-response","557","559753","0.0-1.0-767.0","0","0","90626","","null","","","null","85","","","","","","","","","","","","","","","",""
"","ISI","","html-keyboard-response","558","561758","0.0-1.0-768.0","0","0","90626","","null","","","null","85","NaN","","","","","","","","","","","","","","",""
"","S2","","html-keyboard-response","559","562014","0.0-1.0-769.0","0","0","90626","","null","","","null","85","","NaN","","","","","","","","","","","","","",""
"","response","","html-keyboard-response","560","562215","0.0-1.0-770.0-0.0","0","0","90626","","198","","","68","85","","","2","85","training","adjacent","BA","2","1","O.jpg","L.jpg","1","0","0","",""
"","feedback","","html-keyboard-response","561","563220","0.0-1.0-771.0-0.0","0","0","90626","","null","","","null","85","","","","","","","","","","","","","","","",""
"","time_out","","html-keyboard-response","562","565223","0.0-1.0-773.0-0.0","0","0","90626","","null","","","null","85","","","","","","","","","","","","","","","",""
"","ITI","","html-keyboard-response","563","566227","0.0-1.0-774.0","0","0","90626","","null","","","null","85","","","","","","","","","","","","","","","NaN",""
"","S1","","html-keyboard-response","564","566483","0.0-1.0-776.0","0","0","90626","","null","","","null","86","","","","","","","","","","","","","","","",""
"","ISI","","html-keyboard-response","565","568489","0.0-1.0-777.0","0","0","90626","","null","","","null","86","NaN","","","","","","","","","","","","","","",""
"","S2","","html-keyboard-response","566","568747","0.0-1.0-778.0","0","0","90626","","null","","","null","86","","NaN","","","","","","","","","","","","","",""
"","response","","html-keyboard-response","567","569144","0.0-1.0-779.0-0.0","0","0","90626","","393","","","75","86","","","2","86","training","adjacent","FE","6","5","R.jpg","M.jpg","0","0","1","",""
"","feedback","","html-keyboard-response","568","570148","0.0-1.0-780.0-0.0","0","0","90626","","null","","","null","86","","","","","","","","","","","","","","","",""
"","ITI","","html-keyboard-response","569","571156","0.0-1.0-783.0","0","0","90626","","null","","","null","86","","","","","","","","","","","","","","","NaN",""
"","S1","","html-keyboard-response","570","571412","0.0-1.0-785.0","0","0","90626","","null","","","null","87","","","","","","","","","","","","","","","",""
"","ISI","","html-keyboard-response","571","573417","0.0-1.0-786.0","0","0","90626","","null","","","null","87","NaN","","","","","","","","","","","","","","",""
"","S2","","html-keyboard-response","572","573673","0.0-1.0-787.0","0","0","90626","","null","","","null","87","","NaN","","","","","","","","","","","","","",""
"","response","","html-keyboard-response","573","574509","0.0-1.0-788.0-0.0","0","0","90626","","834","","","68","87","","","2","87","training","adjacent","DC","4","3","N.jpg","P.jpg","1","0","0","",""
"","feedback","","html-keyboard-response","574","575513","0.0-1.0-789.0-0.0","0","0","90626","","null","","","null","87","","","","","","","","","","","","","","","",""
"","time_out","","html-keyboard-response","575","577519","0.0-1.0-791.0-0.0","0","0","90626","","null","","","null","87","","","","","","","","","","","","","","","",""
"","ITI","","html-keyboard-response","576","578526","0.0-1.0-792.0","0","0","90626","","null","","","null","87","","","","","","","","","","","","","","","NaN",""
"","S1","","html-keyboard-response","577","578783","0.0-1.0-794.0","0","0","90626","","null","","","null","88","","","","","","","","","","","","","","","",""
"","ISI","","html-keyboard-response","578","580788","0.0-1.0-795.0","0","0","90626","","null","","","null","88","NaN","","","","","","","","","","","","","","",""
"","S2","","html-keyboard-response","579","581044","0.0-1.0-796.0","0","0","90626","","null","","","null","88","","NaN","","","","","","","","","","","","","",""
"","response","","html-keyboard-response","580","581174","0.0-1.0-797.0-0.0","0","0","90626","","127","","","75","88","","","2","88","training","adjacent","BC","2","3","O.jpg","P.jpg","0","1","0","",""
"","feedback","","html-keyboard-response","581","582180","0.0-1.0-798.0-0.0","0","0","90626","","null","","","null","88","","","","","","","","","","","","","","","",""
"","time_out","","html-keyboard-response","582","584185","0.0-1.0-800.0-0.0","0","0","90626","","null","","","null","88","","","","","","","","","","","","","","","",""
