"success","ttype","start_time","trial_type","trial_index","time_elapsed","internal_node_id","warning","missed_checkup","PID","view_history","rt","responses","repeat_instructions","key_press","index","keypress_isi","keypress_S2","block","trial_num","phase","group_type","pair_type","S1_stim","S2_stim","S1_img","S2_img","S1_chosen","S1_higher","accuracy","keypress_iti","total_bonus_tally"
"true","full_screen","d04152023hr1652","fullscreen","0","6984","0.0-0.0","0","0","76255","","","","","","","","","","","","","","","","","","","","","",""
"","instructions","","instructions","1","71205","0.0-1.0-0.0-0.0","0","0","76255","[{""page_index"":0,""viewing_time"":5870},{""page_index"":1,""viewing_time"":19712},{""page_index"":2,""viewing_time"":5390},{""page_index"":1,""viewing_time"":25268},{""page_index"":2,""viewing_time"":6053},{""page_index"":3,""viewing_time"":1921}]","64215","","","","","","","","","","","","","","","","","","","",""
"","comprehension_check","","survey-multi-choice","2","96396","0.0-1.0-0.0-1.0","0","0","76255","","25184","{""Q0"":""True"",""Q1"":""K"",""Q2"":""Once the second image appears and while the screen 'MAKE A CHOICE' is shown"",""Q3"":""Green mark"",""Q4"":""either D or K""}","0","","","","","","","","","","","","","","","","","",""
"","start_exp","","html-keyboard-response","3","98670","0.0-1.0-1.0","0","0","76255","","2271","","","32","","","","","","","","","","","","","","","","",""
"","S1","","html-keyboard-response","4","98923","0.0-1.0-2.0","0","0","76255","","null","","","null","0","","","","","","","","","","","","","","","",""
"","ISI","","html-keyboard-response","5","99926","0.0-1.0-3.0","0","0","76255","","null","","","null","0","NaN","","","","","","","","","","","","","","",""
"","S2","","html-keyboard-response","6","100179","0.0-1.0-4.0","0","0","76255","","null","","","null","0","","NaN","","","","","","","","","","","","","",""
"","response","","html-keyboard-response","7","101931","0.0-1.0-5.0-0.0","0","0","76255","","null","","","null","0","","","1","0","training","adjacent","DC","4","3","O.jpg","Q.jpg","NaN","0","0","",""
"","too_slow_prompt","","html-keyboard-response","8","102935","0.0-1.0-7.0-0.0","1","0","76255","","null","","","null","","","","","","","","","","","","","","","","",""
"","time_out","","html-keyboard-response","9","104937","0.0-1.0-8.0-0.0","0","0","76255","","null","","","null","0","","","","","","","","","","","","","","","",""
"","ITI","","html-keyboard-response","10","105939","0.0-1.0-9.0","0","0","76255","","685","","","75","0","","","","","","","","","","","","","","","k",""
"","S1","","html-keyboard-response","11","106206","0.0-1.0-11.0","0","0","76255","","null","","","null","1","","","","","","","","","","","","","","","",""
"","ISI","","html-keyboard-response","12","107208","0.0-1.0-12.0","0","0","76255","","null","","","null","1","NaN","","","","","","","","","","","","","","",""
"","S2","","html-keyboard-response","13","107461","0.0-1.0-13.0","0","0","76255","","null","","","null","1","","NaN","","","","","","","","","","","","","",""
"","response","","html-keyboard-response","14","107559","0.0-1.0-14.0-0.0","0","0","76255","","97","","","75","1","","","1","1","training","adjacent","BA","2","1","M.jpg","L.jpg","1","0","0","",""
"","feedback","","html-keyboard-response","15","108562","0.0-1.0-15.0-0.0","0","0","76255","","null","","","null","1","","","","","","","","","","","","","","","",""
"","time_out","","html-keyboard-response","16","110564","0.0-1.0-17.0-0.0","0","0","76255","","null","","","null","1","","","","","","","","","","","","","","","",""
"","ITI","","html-keyboard-response","17","111566","0.0-1.0-18.0","0","0","76255","","null","","","null","1","","","","","","","","","","","","","","","NaN",""
"","S1","","html-keyboard-response","18","111818","0.0-1.0-20.0","0","0","76255","","null","","","null","2","","","","","","","","","","","","","","","",""
"","ISI","","html-keyboard-response","19","112820","0.0-1.0-21.0","0","0","76255","","null","","","null","2","NaN","","","","","","","","","","","","","","",""
"","S2","","html-keyboard-response","20","113073","0.0-1.0-22.0","0","0","76255","","null","","","null","2","","NaN","","","","","","","","","","","","","",""
"","response","","html-keyboard-response","21","113522","0.0-1.0-23.0-0.0","0","0","76255","","447","","","68","2","","","1","2","training","adjacent","FE","6","5","R.jpg","N.jpg","0","0","1","",""
"","feedback","","html-keyboard-response","22","114526","0.0-1.0-24.0-0.0","0","0","76255","","null","","","null","2","","","","","","","","","","","","","","","",""
"","ITI","","html-keyboard-response","23","115527","0.0-1.0-27.0","0","0","76255","","null","","","null","2","","","","","","","","","","","","","","","NaN",""
"","S1","","html-keyboard-response","24","115779","0.0-1.0-29.0","0","0","76255","","null","","","null","3","","","","","","","","","","","","","","","",""
"","ISI","","html-keyboard-response","25","116783","0.0-1.0-30.0","0","0","76255","","null","","","null","3","NaN","","","","","","","","","","","","","","",""
"","S2","","html-keyboard-response","26","117035","0.0-1.0-31.0","0","0","76255","","null","","","null","3","","NaN","","","","","","","","","","","","","",""
"","response","","html-keyboard-response","27","117159","0.0-1.0-32.0-0.0","0","0","76255","","123","","","75","3","","","1","3","training","adjacent","ED","5","4","N.jpg","O.jpg","1","0","0","",""
"","feedback","","html-keyboard-response","28","118161","0.0-1.0-33.0-0.0","0","0","76255","","null","","","null","3","","","","","","","","","","","","","","","",""
"","time_out","","html-keyboard-response","29","120163","0.0-1.0-35.0-0.0","0","0","76255","","null","","","null","3","","","","","","","","","","","","","","","",""
"","ITI","","html-keyboard-response","30","121166","0.0-1.0-36.0","0","0","76255","","null","","","null","3","","","","","","","","","","","","","","","NaN",""
"","S1","","html-keyboard-response","31","121418","0.0-1.0-38.0","0","0","76255","","null","","","null","4","","","","","","","","","","","","","","","",""
"","ISI","","html-keyboard-response","32","122420","0.0-1.0-39.0","0","0","76255","","null","","","null","4","NaN","","","","","","","","","","","","","","",""
"","S2","","html-keyboard-response","33","122681","0.0-1.0-40.0","0","0","76255","","null","","","null","4","","NaN","","","","","","","","","","","","","",""
"","response","","html-keyboard-response","34","122691","0.0-1.0-41.0-0.0","0","0","76255","","8","","","68","4","","","1","4","training","adjacent","DE","4","5","O.jpg","N.jpg","0","1","0","",""
"","feedback","","html-keyboard-response","35","123695","0.0-1.0-42.0-0.0","0","0","76255","","null","","","null","4","","","","","","","","","","","","","","","",""
"","time_out","","html-keyboard-response","36","125696","0.0-1.0-44.0-0.0","0","0","76255","","null","","","null","4","","","","","","","","","","","","","","","",""
"","ITI","","html-keyboard-response","37","126699","0.0-1.0-45.0","0","0","76255","","null","","","null","4","","","","","","","","","","","","","","","NaN",""
"","S1","","html-keyboard-response","38","126951","0.0-1.0-47.0","0","0","76255","","null","","","null","5","","","","","","","","","","","","","","","",""
"","ISI","","html-keyboard-response","39","127954","0.0-1.0-48.0","0","0","76255","","null","","","null","5","NaN","","","","","","","","","","","","","","",""
"","S2","","html-keyboard-response","40","128206","0.0-1.0-49.0","0","0","76255","","null","","","null","5","","NaN","","","","","","","","","","","","","",""
"","response","","html-keyboard-response","41","128228","0.0-1.0-50.0-0.0","0","0","76255","","20","","","75","5","","","1","5","training","adjacent","DE","4","5","O.jpg","N.jpg","1","1","1","",""
"","feedback","","html-keyboard-response","42","129230","0.0-1.0-51.0-0.0","0","0","76255","","null","","","null","5","","","","","","","","","","","","","","","",""
"","ITI","","html-keyboard-response","43","130233","0.0-1.0-54.0","0","0","76255","","null","","","null","5","","","","","","","","","","","","","","","NaN",""
"","S1","","html-keyboard-response","44","130485","0.0-1.0-56.0","0","0","76255","","null","","","null","6","","","","","","","","","","","","","","","",""
"","ISI","","html-keyboard-response","45","131487","0.0-1.0-57.0","0","0","76255","","null","","","null","6","NaN","","","","","","","","","","","","","","",""
"","S2","","html-keyboard-response","46","131739","0.0-1.0-58.0","0","0","76255","","null","","","null","6","","NaN","","","","","","","","","","","","","",""
"","response","","html-keyboard-response","47","131815","0.0-1.0-59.0-0.0","0","0","76255","","75","","","68","6","","","1","6","training","adjacent","GF","7","6","P.jpg","R.jpg","0","0","1","",""
"","feedback","","html-keyboard-response","48","132817","0.0-1.0-60.0-0.0","0","0","76255","","null","","","null","6","","","","","","","","","","","","","","","",""
"","ITI","","html-keyboard-response","49","133819","0.0-1.0-63.0","0","0","76255","","null","","","null","6","","","","","","","","","","","","","","","NaN",""
"","S1","","html-keyboard-response","50","134086","0.0-1.0-65.0","0","0","76255","","null","","","null","7","","","","","","","","","","","","","","","",""
"","ISI","","html-keyboard-response","51","135089","0.0-1.0-66.0","0","0","76255","","null","","","null","7","NaN","","","","","","","","","","","","","","",""
"","S2","","html-keyboard-response","52","135321","0.0-1.0-67.0","0","0","76255","","230","","","75","7","","k","1","7","training","adjacent","CD","3","4","Q.jpg","O.jpg","1","1","1","",""
"","feedback","","html-keyboard-response","53","136324","0.0-1.0-69.0-0.0","0","0","76255","","null","","","null","7","","","","","","","","","","","","","","","",""
"","ITI","","html-keyboard-response","54","137327","0.0-1.0-72.0","0","0","76255","","null","","","null","7","","","","","","","","","","","","","","","NaN",""
"","S1","","html-keyboard-response","55","137579","0.0-1.0-74.0","0","0","76255","","null","","","null","8","","","","","","","","","","","","","","","",""
"","ISI","","html-keyboard-response","56","138581","0.0-1.0-75.0","0","0","76255","","null","","","null","8","NaN","","","","","","","","","","","","","","",""
"","S2","","html-keyboard-response","57","138778","0.0-1.0-76.0","0","0","76255","","195","","","68","8","","d","1","8","training","adjacent","FG","6","7","R.jpg","P.jpg","0","1","0","",""
"","feedback","","html-keyboard-response","58","139782","0.0-1.0-78.0-0.0","0","0","76255","","null","","","null","8","","","","","","","","","","","","","","","",""
"","time_out","","html-keyboard-response","59","141785","0.0-1.0-80.0-0.0","0","0","76255","","null","","","null","8","","","","","","","","","","","","","","","",""
"","ITI","","html-keyboard-response","60","142787","0.0-1.0-81.0","0","0","76255","","null","","","null","8","","","","","","","","","","","","","","","NaN",""
"","S1","","html-keyboard-response","61","143040","0.0-1.0-83.0","0","0","76255","","null","","","null","9","","","","","","","","","","","","","","","",""
"","ISI","","html-keyboard-response","62","144054","0.0-1.0-84.0","0","0","76255","","null","","","null","9","NaN","","","","","","","","","","","","","","",""
"","S2","","html-keyboard-response","63","144262","0.0-1.0-85.0","0","0","76255","","206","","","75","9","","k","1","9","training","adjacent","EF","5","6","N.jpg","R.jpg","1","1","1","",""
"","feedback","","html-keyboard-response","64","145264","0.0-1.0-87.0-0.0","0","0","76255","","null","","","null","9","","","","","","","","","","","","","","","",""
"","ITI","","html-keyboard-response","65","146266","0.0-1.0-90.0","0","0","76255","","null","","","null","9","","","","","","","","","","","","","","","NaN",""
"","S1","","html-keyboard-response","66","146518","0.0-1.0-92.0","0","0","76255","","null","","","null","10","","","","","","","","","","","","","","","",""
"","ISI","","html-keyboard-response","67","147521","0.0-1.0-93.0","0","0","76255","","null","","","null","10","NaN","","","","","","","","","","","","","","",""
"","S2","","html-keyboard-response","68","147774","0.0-1.0-94.0","0","0","76255","","null","","","null","10","","NaN","","","","","","","","","","","","","",""
"","response","","html-keyboard-response","69","147777","0.0-1.0-95.0-0.0","0","0","76255","","1","","","68","10","","","1","10","training","adjacent","FE","6","5","R.jpg","N.jpg","0","0","1","",""
"","feedback","","html-keyboard-response","70","148780","0.0-1.0-96.0-0.0","0","0","76255","","null","","","null","10","","","","","","","","","","","","","","","",""
"","ITI","","html-keyboard-response","71","149781","0.0-1.0-99.0","0","0","76255","","null","","","null","10","","","","","","","","","","","","","","","NaN",""
"","S1","","html-keyboard-response","72","150034","0.0-1.0-101.0","0","0","76255","","null","","","null","11","","","","","","","","","","","","","","","",""
"","ISI","","html-keyboard-response","73","151036","0.0-1.0-102.0","0","0","76255","","null","","","null","11","NaN","","","","","","","","","","","","","","",""
"","S2","","html-keyboard-response","74","151251","0.0-1.0-103.0","0","0","76255","","214","","","75","11","","k","1","11","training","adjacent","GF","7","6","P.jpg","R.jpg","1","0","0","",""
"","feedback","","html-keyboard-response","75","152253","0.0-1.0-105.0-0.0","0","0","76255","","null","","","null","11","","","","","","","","","","","","","","","",""
"","time_out","","html-keyboard-response","76","154255","0.0-1.0-107.0-0.0","0","0","76255","","null","","","null","11","","","","","","","","","","","","","","","",""
"","ITI","","html-keyboard-response","77","155258","0.0-1.0-108.0","0","0","76255","","null","","","null","11","","","","","","","","","","","","","","","NaN",""
"","S1","","html-keyboard-response","78","155510","0.0-1.0-110.0","0","0","76255","","null","","","null","12","","","","","","","","","","","","","","","",""
"","ISI","","html-keyboard-response","79","156514","0.0-1.0-111.0","0","0","76255","","null","","","null","12","NaN","","","","","","","","","","","","","","",""
"","S2","","html-keyboard-response","80","156750","0.0-1.0-112.0","0","0","76255","","235","","","68","12","","d","1","12","training","adjacent","BC","2","3","M.jpg","Q.jpg","0","1","0","",""
"","feedback","","html-keyboard-response","81","157753","0.0-1.0-114.0-0.0","0","0","76255","","null","","","null","12","","","","","","","","","","","","","","","",""
"","time_out","","html-keyboard-response","82","159756","0.0-1.0-116.0-0.0","0","0","76255","","null","","","null","12","","","","","","","","","","","","","","","",""
"","ITI","","html-keyboard-response","83","160758","0.0-1.0-117.0","0","0","76255","","null","","","null","12","","","","","","","","","","","","","","","NaN",""
"","S1","","html-keyboard-response","84","161011","0.0-1.0-119.0","0","0","76255","","null","","","null","13","","","","","","","","","","","","","","","",""
"","ISI","","html-keyboard-response","85","162013","0.0-1.0-120.0","0","0","76255","","null","","","null","13","NaN","","","","","","","","","","","","","","",""
"","S2","","html-keyboard-response","86","162233","0.0-1.0-121.0","0","0","76255","","217","","","75","13","","k","1","13","training","adjacent","BA","2","1","M.jpg","L.jpg","1","0","0","",""
"","feedback","","html-keyboard-response","87","163235","0.0-1.0-123.0-0.0","0","0","76255","","null","","","null","13","","","","","","","","","","","","","","","",""
"","time_out","","html-keyboard-response","88","165237","0.0-1.0-125.0-0.0","0","0","76255","","null","","","null","13","","","","","","","","","","","","","","","",""
"","ITI","","html-keyboard-response","89","166239","0.0-1.0-126.0","0","0","76255","","null","","","null","13","","","","","","","","","","","","","","","NaN",""
"","S1","","html-keyboard-response","90","166491","0.0-1.0-128.0","0","0","76255","","null","","","null","14","","","","","","","","","","","","","","","",""
"","ISI","","html-keyboard-response","91","167493","0.0-1.0-129.0","0","0","76255","","null","","","null","14","NaN","","","","","","","","","","","","","","",""
"","S2","","html-keyboard-response","92","167690","0.0-1.0-130.0","0","0","76255","","195","","","75","14","","k","1","14","training","adjacent","CB","3","2","Q.jpg","M.jpg","1","0","0","",""
"","feedback","","html-keyboard-response","93","168693","0.0-1.0-132.0-0.0","0","0","76255","","null","","","null","14","","","","","","","","","","","","","","","",""
"","time_out","","html-keyboard-response","94","170695","0.0-1.0-134.0-0.0","0","0","76255","","null","","","null","14","","","","","","","","","","","","","","","",""
"","ITI","","html-keyboard-response","95","171697","0.0-1.0-135.0","0","0","76255","","null","","","null","14","","","","","","","","","","","","","","","NaN",""
"","S1","","html-keyboard-response","96","171949","0.0-1.0-137.0","0","0","76255","","null","","","null","15","","","","","","","","","","","","","","","",""
"","ISI","","html-keyboard-response","97","172951","0.0-1.0-138.0","0","0","76255","","null","","","null","15","NaN","","","","","","","","","","","","","","",""
"","S2","","html-keyboard-response","98","173140","0.0-1.0-139.0","0","0","76255","","187","","","68","15","","d","1","15","training","adjacent","AB","1","2","L.jpg","M.jpg","0","1","0","",""
"","feedback","","html-keyboard-response","99","174142","0.0-1.0-141.0-0.0","0","0","76255","","null","","","null","15","","","","","","","","","","","","","","","",""
"","time_out","","html-keyboard-response","100","176144","0.0-1.0-143.0-0.0","0","0","76255","","null","","","null","15","","","","","","","","","","","","","","","",""
"","ITI","","html-keyboard-response","101","177147","0.0-1.0-144.0","0","0","76255","","null","","","null","15","","","","","","","","","","","","","","","NaN",""
"","S1","","html-keyboard-response","102","177399","0.0-1.0-146.0","0","0","76255","","null","","","null","16","","","","","","","","","","","","","","","",""
"","ISI","","html-keyboard-response","103","178401","0.0-1.0-147.0","0","0","76255","","null","","","null","16","NaN","","","","","","","","","","","","","","",""
"","S2","","html-keyboard-response","104","178646","0.0-1.0-148.0","0","0","76255","","243","","","75","16","","k","1","16","training","adjacent","AB","1","2","L.jpg","M.jpg","1","1","1","",""
"","feedback","","html-keyboard-response","105","179648","0.0-1.0-150.0-0.0","0","0","76255","","null","","","null","16","","","","","","","","","","","","","","","",""
"","ITI","","html-keyboard-response","106","180651","0.0-1.0-153.0","0","0","76255","","null","","","null","16","","","","","","","","","","","","","","","NaN",""
"","S1","","html-keyboard-response","107","180903","0.0-1.0-155.0","0","0","76255","","null","","","null","17","","","","","","","","","","","","","","","",""
"","ISI","","html-keyboard-response","108","181905","0.0-1.0-156.0","0","0","76255","","null","","","null","17","NaN","","","","","","","","","","","","","","",""
"","S2","","html-keyboard-response","109","182122","0.0-1.0-157.0","0","0","76255","","215","","","68","17","","d","1","17","training","adjacent","BA","2","1","M.jpg","L.jpg","0","0","1","",""
"","feedback","","html-keyboard-response","110","183125","0.0-1.0-159.0-0.0","0","0","76255","","null","","","null","17","","","","","","","","","","","","","","","",""
"","ITI","","html-keyboard-response","111","184127","0.0-1.0-162.0","0","0","76255","","null","","","null","17","","","","","","","","","","","","","","","NaN",""
"","S1","","html-keyboard-response","112","184379","0.0-1.0-164.0","0","0","76255","","null","","","null","18","","","","","","","","","","","","","","","",""
"","ISI","","html-keyboard-response","113","185381","0.0-1.0-165.0","0","0","76255","","null","","","null","18","NaN","","","","","","","","","","","","","","",""
"","S2","","html-keyboard-response","114","185598","0.0-1.0-166.0","0","0","76255","","214","","","75","18","","k","1","18","training","adjacent","DC","4","3","O.jpg","Q.jpg","1","0","0","",""
"","feedback","","html-keyboard-response","115","186600","0.0-1.0-168.0-0.0","0","0","76255","","null","","","null","18","","","","","","","","","","","","","","","",""
"","time_out","","html-keyboard-response","116","188603","0.0-1.0-170.0-0.0","0","0","76255","","null","","","null","18","","","","","","","","","","","","","","","",""
"","ITI","","html-keyboard-response","117","189605","0.0-1.0-171.0","0","0","76255","","null","","","null","18","","","","","","","","","","","","","","","NaN",""
"","S1","","html-keyboard-response","118","189858","0.0-1.0-173.0","0","0","76255","","null","","","null","19","","","","","","","","","","","","","","","",""
"","ISI","","html-keyboard-response","119","190860","0.0-1.0-174.0","0","0","76255","","null","","","null","19","NaN","","","","","","","","","","","","","","",""
"","S2","","html-keyboard-response","120","191098","0.0-1.0-175.0","0","0","76255","","237","","","68","19","","d","1","19","training","adjacent","ED","5","4","N.jpg","O.jpg","0","0","1","",""
"","feedback","","html-keyboard-response","121","192101","0.0-1.0-177.0-0.0","0","0","76255","","null","","","null","19","","","","","","","","","","","","","","","",""
"","ITI","","html-keyboard-response","122","193104","0.0-1.0-180.0","0","0","76255","","null","","","null","19","","","","","","","","","","","","","","","NaN",""
"","S1","","html-keyboard-response","123","193356","0.0-1.0-182.0","0","0","76255","","null","","","null","20","","","","","","","","","","","","","","","",""
"","ISI","","html-keyboard-response","124","194358","0.0-1.0-183.0","0","0","76255","","null","","","null","20","NaN","","","","","","","","","","","","","","",""
"","S2","","html-keyboard-response","125","194572","0.0-1.0-184.0","0","0","76255","","212","","","75","20","","k","1","20","training","adjacent","CB","3","2","Q.jpg","M.jpg","1","0","0","",""
"","feedback","","html-keyboard-response","126","195575","0.0-1.0-186.0-0.0","0","0","76255","","null","","","null","20","","","","","","","","","","","","","","","",""
"","time_out","","html-keyboard-response","127","197578","0.0-1.0-188.0-0.0","0","0","76255","","null","","","null","20","","","","","","","","","","","","","","","",""
"","ITI","","html-keyboard-response","128","198580","0.0-1.0-189.0","0","0","76255","","null","","","null","20","","","","","","","","","","","","","","","NaN",""
"","S1","","html-keyboard-response","129","198833","0.0-1.0-191.0","0","0","76255","","null","","","null","21","","","","","","","","","","","","","","","",""
"","ISI","","html-keyboard-response","130","199835","0.0-1.0-192.0","0","0","76255","","null","","","null","21","NaN","","","","","","","","","","","","","","",""
"","S2","","html-keyboard-response","131","200058","0.0-1.0-193.0","0","0","76255","","222","","","75","21","","k","1","21","training","adjacent","EF","5","6","N.jpg","R.jpg","1","1","1","",""
"","feedback","","html-keyboard-response","132","201061","0.0-1.0-195.0-0.0","0","0","76255","","null","","","null","21","","","","","","","","","","","","","","","",""
"","ITI","","html-keyboard-response","133","202063","0.0-1.0-198.0","0","0","76255","","null","","","null","21","","","","","","","","","","","","","","","NaN",""
"","S1","","html-keyboard-response","134","202315","0.0-1.0-200.0","0","0","76255","","null","","","null","22","","","","","","","","","","","","","","","",""
"","ISI","","html-keyboard-response","135","203318","0.0-1.0-201.0","0","0","76255","","null","","","null","22","NaN","","","","","","","","","","","","","","",""
"","S2","","html-keyboard-response","136","203570","0.0-1.0-202.0","0","0","76255","","null","","","null","22","","NaN","","","","","","","","","","","","","",""
"","response","","html-keyboard-response","137","203811","0.0-1.0-203.0-0.0","0","0","76255","","240","","","68","22","","","1","22","training","adjacent","CD","3","4","Q.jpg","O.jpg","0","1","0","",""
"","feedback","","html-keyboard-response","138","204813","0.0-1.0-204.0-0.0","0","0","76255","","null","","","null","22","","","","","","","","","","","","","","","",""
"","time_out","","html-keyboard-response","139","206816","0.0-1.0-206.0-0.0","0","0","76255","","null","","","null","22","","","","","","","","","","","","","","","",""
"","ITI","","html-keyboard-response","140","207818","0.0-1.0-207.0","0","0","76255","","null","","","null","22","","","","","","","","","","","","","","","NaN",""
"","S1","","html-keyboard-response","141","208070","0.0-1.0-209.0","0","0","76255","","null","","","null","23","","","","","","","","","","","","","","","",""
"","ISI","","html-keyboard-response","142","209073","0.0-1.0-210.0","0","0","76255","","null","","","null","23","NaN","","","","","","","","","","","","","","",""
"","S2","","html-keyboard-response","143","209326","0.0-1.0-211.0","0","0","76255","","null","","","null","23","","NaN","","","","","","","","","","","","","",""
"","response","","html-keyboard-response","144","209721","0.0-1.0-212.0-0.0","0","0","76255","","394","","","75","23","","","1","23","training","adjacent","FG","6","7","R.jpg","P.jpg","1","1","1","",""
"","feedback","","html-keyboard-response","145","210725","0.0-1.0-213.0-0.0","0","0","76255","","null","","","null","23","","","","","","","","","","","","","","","",""
"","ITI","","html-keyboard-response","146","211727","0.0-1.0-216.0","0","0","76255","","null","","","null","23","","","","","","","","","","","","","","","NaN",""
"","S1","","html-keyboard-response","147","211980","0.0-1.0-218.0","0","0","76255","","null","","","null","24","","","","","","","","","","","","","","","",""
"","ISI","","html-keyboard-response","148","212983","0.0-1.0-219.0","0","0","76255","","null","","","null","24","NaN","","","","","","","","","","","","","","",""
"","S2","","html-keyboard-response","149","213235","0.0-1.0-220.0","0","0","76255","","null","","","null","24","","NaN","","","","","","","","","","","","","",""
"","response","","html-keyboard-response","150","213682","0.0-1.0-221.0-0.0","0","0","76255","","445","","","75","24","","","1","24","training","adjacent","DC","4","3","O.jpg","Q.jpg","1","0","0","",""
"","feedback","","html-keyboard-response","151","214685","0.0-1.0-222.0-0.0","0","0","76255","","null","","","null","24","","","","","","","","","","","","","","","",""
"","time_out","","html-keyboard-response","152","216687","0.0-1.0-224.0-0.0","0","0","76255","","null","","","null","24","","","","","","","","","","","","","","","",""
"","ITI","","html-keyboard-response","153","217690","0.0-1.0-225.0","0","0","76255","","null","","","null","24","","","","","","","","","","","","","","","NaN",""
"","S1","","html-keyboard-response","154","217943","0.0-1.0-227.0","0","0","76255","","null","","","null","25","","","","","","","","","","","","","","","",""
"","ISI","","html-keyboard-response","155","218945","0.0-1.0-228.0","0","0","76255","","null","","","null","25","NaN","","","","","","","","","","","","","","",""
"","S2","","html-keyboard-response","156","219197","0.0-1.0-229.0","0","0","76255","","null","","","null","25","","NaN","","","","","","","","","","","","","",""
"","response","","html-keyboard-response","157","219244","0.0-1.0-230.0-0.0","0","0","76255","","45","","","68","25","","","1","25","training","adjacent","DC","4","3","O.jpg","Q.jpg","0","0","1","",""
"","feedback","","html-keyboard-response","158","220247","0.0-1.0-231.0-0.0","0","0","76255","","null","","","null","25","","","","","","","","","","","","","","","",""
"","ITI","","html-keyboard-response","159","221249","0.0-1.0-234.0","0","0","76255","","null","","","null","25","","","","","","","","","","","","","","","NaN",""
"","S1","","html-keyboard-response","160","221502","0.0-1.0-236.0","0","0","76255","","null","","","null","26","","","","","","","","","","","","","","","",""
"","ISI","","html-keyboard-response","161","222505","0.0-1.0-237.0","0","0","76255","","null","","","null","26","NaN","","","","","","","","","","","","","","",""
"","S2","","html-keyboard-response","162","222757","0.0-1.0-238.0","0","0","76255","","null","","","null","26","","NaN","","","","","","","","","","","","","",""
"","response","","html-keyboard-response","163","222796","0.0-1.0-239.0-0.0","0","0","76255","","38","","","75","26","","","1","26","training","adjacent","AB","1","2","L.jpg","M.jpg","1","1","1","",""
"","feedback","","html-keyboard-response","164","223799","0.0-1.0-240.0-0.0","0","0","76255","","null","","","null","26","","","","","","","","","","","","","","","",""
"","ITI","","html-keyboard-response","165","224801","0.0-1.0-243.0","0","0","76255","","null","","","null","26","","","","","","","","","","","","","","","NaN",""
"","S1","","html-keyboard-response","166","225054","0.0-1.0-245.0","0","0","76255","","null","","","null","27","","","","","","","","","","","","","","","",""
"","ISI","","html-keyboard-response","167","226055","0.0-1.0-246.0","0","0","76255","","null","","","null","27","NaN","","","","","","","","","","","","","","",""
"","S2","","html-keyboard-response","168","226265","0.0-1.0-247.0","0","0","76255","","208","","","68","27","","d","1","27","training","adjacent","DE","4","5","O.jpg","N.jpg","0","1","0","",""
"","feedback","","html-keyboard-response","169","227268","0.0-1.0-249.0-0.0","0","0","76255","","null","","","null","27","","","","","","","","","","","","","","","",""
"","time_out","","html-keyboard-response","170","229270","0.0-1.0-251.0-0.0","0","0","76255","","null","","","null","27","","","","","","","","","","","","","","","",""
"","ITI","","html-keyboard-response","171","230272","0.0-1.0-252.0","0","0","76255","","null","","","null","27","","","","","","","","","","","","","","","NaN",""
"","S1","","html-keyboard-response","172","230525","0.0-1.0-254.0","0","0","76255","","null","","","null","28","","","","","","","","","","","","","","","",""
"","ISI","","html-keyboard-response","173","231526","0.0-1.0-255.0","0","0","76255","","null","","","null","28","NaN","","","","","","","","","","","","","","",""
"","S2","","html-keyboard-response","174","231772","0.0-1.0-256.0","0","0","76255","","243","","","75","28","","k","1","28","training","adjacent","FG","6","7","R.jpg","P.jpg","1","1","1","",""
"","feedback","","html-keyboard-response","175","232775","0.0-1.0-258.0-0.0","0","0","76255","","null","","","null","28","","","","","","","","","","","","","","","",""
"","ITI","","html-keyboard-response","176","233778","0.0-1.0-261.0","0","0","76255","","null","","","null","28","","","","","","","","","","","","","","","NaN",""
"","S1","","html-keyboard-response","177","234031","0.0-1.0-263.0","0","0","76255","","null","","","null","29","","","","","","","","","","","","","","","",""
"","ISI","","html-keyboard-response","178","235048","0.0-1.0-264.0","0","0","76255","","null","","","null","29","NaN","","","","","","","","","","","","","","",""
"","S2","","html-keyboard-response","179","235291","0.0-1.0-265.0","0","0","76255","","240","","","75","29","","k","1","29","training","adjacent","BC","2","3","M.jpg","Q.jpg","1","1","1","",""
"","feedback","","html-keyboard-response","180","236294","0.0-1.0-267.0-0.0","0","0","76255","","null","","","null","29","","","","","","","","","","","","","","","",""
"","ITI","","html-keyboard-response","181","237296","0.0-1.0-270.0","0","0","76255","","null","","","null","29","","","","","","","","","","","","","","","NaN",""
"","S1","","html-keyboard-response","182","237549","0.0-1.0-272.0","0","0","76255","","null","","","null","30","","","","","","","","","","","","","","","",""
"","ISI","","html-keyboard-response","183","238551","0.0-1.0-273.0","0","0","76255","","null","","","null","30","NaN","","","","","","","","","","","","","","",""
"","S2","","html-keyboard-response","184","238804","0.0-1.0-274.0","0","0","76255","","null","","","null","30","","NaN","","","","","","","","","","","","","",""
"","response","","html-keyboard-response","185","238810","0.0-1.0-275.0-0.0","0","0","76255","","4","","","75","30","","","1","30","training","adjacent","CB","3","2","Q.jpg","M.jpg","1","0","0","",""
"","feedback","","html-keyboard-response","186","239813","0.0-1.0-276.0-0.0","0","0","76255","","null","","","null","30","","","","","","","","","","","","","","","",""
"","time_out","","html-keyboard-response","187","241815","0.0-1.0-278.0-0.0","0","0","76255","","null","","","null","30","","","","","","","","","","","","","","","",""
"","ITI","","html-keyboard-response","188","242817","0.0-1.0-279.0","0","0","76255","","null","","","null","30","","","","","","","","","","","","","","","NaN",""
"","S1","","html-keyboard-response","189","243070","0.0-1.0-281.0","0","0","76255","","null","","","null","31","","","","","","","","","","","","","","","",""
"","ISI","","html-keyboard-response","190","244073","0.0-1.0-282.0","0","0","76255","","null","","","null","31","NaN","","","","","","","","","","","","","","",""
"","S2","","html-keyboard-response","191","244325","0.0-1.0-283.0","0","0","76255","","null","","","null","31","","NaN","","","","","","","","","","","","","",""
"","response","","html-keyboard-response","192","244362","0.0-1.0-284.0-0.0","0","0","76255","","36","","","75","31","","","1","31","training","adjacent","GF","7","6","P.jpg","R.jpg","1","0","0","",""
"","feedback","","html-keyboard-response","193","245365","0.0-1.0-285.0-0.0","0","0","76255","","null","","","null","31","","","","","","","","","","","","","","","",""
"","time_out","","html-keyboard-response","194","247367","0.0-1.0-287.0-0.0","0","0","76255","","null","","","null","31","","","","","","","","","","","","","","","",""
"","ITI","","html-keyboard-response","195","248369","0.0-1.0-288.0","0","0","76255","","null","","","null","31","","","","","","","","","","","","","","","NaN",""
"","S1","","html-keyboard-response","196","248623","0.0-1.0-290.0","0","0","76255","","null","","","null","32","","","","","","","","","","","","","","","",""
"","ISI","","html-keyboard-response","197","249625","0.0-1.0-291.0","0","0","76255","","null","","","null","32","NaN","","","","","","","","","","","","","","",""
"","S2","","html-keyboard-response","198","249878","0.0-1.0-292.0","0","0","76255","","null","","","null","32","","NaN","","","","","","","","","","","","","",""
"","response","","html-keyboard-response","199","249912","0.0-1.0-293.0-0.0","0","0","76255","","33","","","68","32","","","1","32","training","adjacent","ED","5","4","N.jpg","O.jpg","0","0","1","",""
"","feedback","","html-keyboard-response","200","250914","0.0-1.0-294.0-0.0","0","0","76255","","null","","","null","32","","","","","","","","","","","","","","","",""
"","ITI","","html-keyboard-response","201","251917","0.0-1.0-297.0","0","0","76255","","null","","","null","32","","","","","","","","","","","","","","","NaN",""
"","S1","","html-keyboard-response","202","252169","0.0-1.0-299.0","0","0","76255","","null","","","null","33","","","","","","","","","","","","","","","",""
"","ISI","","html-keyboard-response","203","253172","0.0-1.0-300.0","0","0","76255","","null","","","null","33","NaN","","","","","","","","","","","","","","",""
"","S2","","html-keyboard-response","204","253394","0.0-1.0-301.0","0","0","76255","","220","","","68","33","","d","1","33","training","adjacent","CB","3","2","Q.jpg","M.jpg","0","0","1","",""
"","feedback","","html-keyboard-response","205","254397","0.0-1.0-303.0-0.0","0","0","76255","","null","","","null","33","","","","","","","","","","","","","","","",""
"","ITI","","html-keyboard-response","206","255400","0.0-1.0-306.0","0","0","76255","","null","","","null","33","","","","","","","","","","","","","","","NaN",""
"","S1","","html-keyboard-response","207","255658","0.0-1.0-308.0","0","0","76255","","null","","","null","34","","","","","","","","","","","","","","","",""
"","ISI","","html-keyboard-response","208","256661","0.0-1.0-309.0","0","0","76255","","null","","","null","34","NaN","","","","","","","","","","","","","","",""
"","S2","","html-keyboard-response","209","256890","0.0-1.0-310.0","0","0","76255","","227","","","75","34","","k","1","34","training","adjacent","FE","6","5","R.jpg","N.jpg","1","0","0","",""
"","feedback","","html-keyboard-response","210","257893","0.0-1.0-312.0-0.0","0","0","76255","","null","","","null","34","","","","","","","","","","","","","","","",""
"","time_out","","html-keyboard-response","211","259895","0.0-1.0-314.0-0.0","0","0","76255","","null","","","null","34","","","","","","","","","","","","","","","",""
"","ITI","","html-keyboard-response","212","260910","0.0-1.0-315.0","0","0","76255","","null","","","null","34","","","","","","","","","","","","","","","NaN",""
"","S1","","html-keyboard-response","213","261163","0.0-1.0-317.0","0","0","76255","","null","","","null","35","","","","","","","","","","","","","","","",""
"","ISI","","html-keyboard-response","214","262173","0.0-1.0-318.0","0","0","76255","","null","","","null","35","NaN","","","","","","","","","","","","","","",""
"","S2","","html-keyboard-response","215","262370","0.0-1.0-319.0","0","0","76255","","194","","","68","35","","d","1","35","training","adjacent","EF","5","6","N.jpg","R.jpg","0","1","0","",""
"","feedback","","html-keyboard-response","216","263373","0.0-1.0-321.0-0.0","0","0","76255","","null","","","null","35","","","","","","","","","","","","","","","",""
"","time_out","","html-keyboard-response","217","265376","0.0-1.0-323.0-0.0","0","0","76255","","null","","","null","35","","","","","","","","","","","","","","","",""
"","ITI","","html-keyboard-response","218","266378","0.0-1.0-324.0","0","0","76255","","null","","","null","35","","","","","","","","","","","","","","","NaN",""
"","S1","","html-keyboard-response","219","266632","0.0-1.0-326.0","0","0","76255","","null","","","null","36","","","","","","","","","","","","","","","",""
"","ISI","","html-keyboard-response","220","267634","0.0-1.0-327.0","0","0","76255","","null","","","null","36","NaN","","","","","","","","","","","","","","",""
"","S2","","html-keyboard-response","221","267862","0.0-1.0-328.0","0","0","76255","","227","","","68","36","","d","1","36","training","adjacent","AB","1","2","L.jpg","M.jpg","0","1","0","",""
"","feedback","","html-keyboard-response","222","268865","0.0-1.0-330.0-0.0","0","0","76255","","null","","","null","36","","","","","","","","","","","","","","","",""
"","time_out","","html-keyboard-response","223","270867","0.0-1.0-332.0-0.0","0","0","76255","","null","","","null","36","","","","","","","","","","","","","","","",""
"","ITI","","html-keyboard-response","224","271869","0.0-1.0-333.0","0","0","76255","","null","","","null","36","","","","","","","","","","","","","","","NaN",""
"","S1","","html-keyboard-response","225","272121","0.0-1.0-335.0","0","0","76255","","null","","","null","37","","","","","","","","","","","","","","","",""
"","ISI","","html-keyboard-response","226","273135","0.0-1.0-336.0","0","0","76255","","null","","","null","37","NaN","","","","","","","","","","","","","","",""
"","S2","","html-keyboard-response","227","273368","0.0-1.0-337.0","0","0","76255","","232","","","68","37","","d","1","37","training","adjacent","BA","2","1","M.jpg","L.jpg","0","0","1","",""
"","feedback","","html-keyboard-response","228","274371","0.0-1.0-339.0-0.0","0","0","76255","","null","","","null","37","","","","","","","","","","","","","","","",""
"","ITI","","html-keyboard-response","229","275374","0.0-1.0-342.0","0","0","76255","","null","","","null","37","","","","","","","","","","","","","","","NaN",""
"","S1","","html-keyboard-response","230","275626","0.0-1.0-344.0","0","0","76255","","null","","","null","38","","","","","","","","","","","","","","","",""
"","ISI","","html-keyboard-response","231","276629","0.0-1.0-345.0","0","0","76255","","null","","","null","38","NaN","","","","","","","","","","","","","","",""
"","S2","","html-keyboard-response","232","276887","0.0-1.0-346.0","0","0","76255","","null","","","null","38","","NaN","","","","","","","","","","","","","",""
"","response","","html-keyboard-response","233","276926","0.0-1.0-347.0-0.0","0","0","76255","","37","","","68","38","","","1","38","training","adjacent","GF","7","6","P.jpg","R.jpg","0","0","1","",""
"","feedback","","html-keyboard-response","234","277929","0.0-1.0-348.0-0.0","0","0","76255","","null","","","null","38","","","","","","","","","","","","","","","",""
"","ITI","","html-keyboard-response","235","278932","0.0-1.0-351.0","0","0","76255","","null","","","null","38","","","","","","","","","","","","","","","NaN",""
"","S1","","html-keyboard-response","236","279184","0.0-1.0-353.0","0","0","76255","","null","","","null","39","","","","","","","","","","","","","","","",""
"","ISI","","html-keyboard-response","237","280187","0.0-1.0-354.0","0","0","76255","","null","","","null","39","NaN","","","","","","","","","","","","","","",""
"","S2","","html-keyboard-response","238","280440","0.0-1.0-355.0","0","0","76255","","null","","","null","39","","NaN","","","","","","","","","","","","","",""
"","response","","html-keyboard-response","239","280510","0.0-1.0-356.0-0.0","0","0","76255","","69","","","68","39","","","1","39","training","adjacent","CD","3","4","Q.jpg","O.jpg","0","1","0","",""
"","feedback","","html-keyboard-response","240","281513","0.0-1.0-357.0-0.0","0","0","76255","","null","","","null","39","","","","","","","","","","","","","","","",""
"","time_out","","html-keyboard-response","241","283515","0.0-1.0-359.0-0.0","0","0","76255","","null","","","null","39","","","","","","","","","","","","","","","",""
"","ITI","","html-keyboard-response","242","284518","0.0-1.0-360.0","0","0","76255","","null","","","null","39","","","","","","","","","","","","","","","NaN",""
"","S1","","html-keyboard-response","243","284770","0.0-1.0-362.0","0","0","76255","","null","","","null","40","","","","","","","","","","","","","","","",""
"","ISI","","html-keyboard-response","244","285772","0.0-1.0-363.0","0","0","76255","","null","","","null","40","NaN","","","","","","","","","","","","","","",""
"","S2","","html-keyboard-response","245","286025","0.0-1.0-364.0","0","0","76255","","null","","","null","40","","NaN","","","","","","","","","","","","","",""
"","response","","html-keyboard-response","246","286047","0.0-1.0-365.0-0.0","0","0","76255","","21","","","75","40","","","1","40","training","adjacent","DE","4","5","O.jpg","N.jpg","1","1","1","",""
"","feedback","","html-keyboard-response","247","287050","0.0-1.0-366.0-0.0","0","0","76255","","null","","","null","40","","","","","","","","","","","","","","","",""
"","ITI","","html-keyboard-response","248","288057","0.0-1.0-369.0","0","0","76255","","null","","","null","40","","","","","","","","","","","","","","","NaN",""
"","S1","","html-keyboard-response","249","288309","0.0-1.0-371.0","0","0","76255","","null","","","null","41","","","","","","","","","","","","","","","",""
"","ISI","","html-keyboard-response","250","289312","0.0-1.0-372.0","0","0","76255","","null","","","null","41","NaN","","","","","","","","","","","","","","",""
"","S2","","html-keyboard-response","251","289561","0.0-1.0-373.0","0","0","76255","","248","","","75","41","","k","1","41","training","adjacent","EF","5","6","N.jpg","R.jpg","1","1","1","",""
"","feedback","","html-keyboard-response","252","290564","0.0-1.0-375.0-0.0","0","0","76255","","null","","","null","41","","","","","","","","","","","","","","","",""
"","ITI","","html-keyboard-response","253","291567","0.0-1.0-378.0","0","0","76255","","null","","","null","41","","","","","","","","","","","","","","","NaN",""
"","S1","","html-keyboard-response","254","291819","0.0-1.0-380.0","0","0","76255","","null","","","null","42","","","","","","","","","","","","","","","",""
"","ISI","","html-keyboard-response","255","292821","0.0-1.0-381.0","0","0","76255","","null","","","null","42","NaN","","","","","","","","","","","","","","",""
"","S2","","html-keyboard-response","256","293070","0.0-1.0-382.0","0","0","76255","","247","","","75","42","","k","1","42","training","adjacent","BC","2","3","M.jpg","Q.jpg","1","1","1","",""
"","feedback","","html-keyboard-response","257","294073","0.0-1.0-384.0-0.0","0","0","76255","","null","","","null","42","","","","","","","","","","","","","","","",""
"","ITI","","html-keyboard-response","258","295076","0.0-1.0-387.0","0","0","76255","","null","","","null","42","","","","","","","","","","","","","","","NaN",""
"","S1","","html-keyboard-response","259","295329","0.0-1.0-389.0","0","0","76255","","null","","","null","43","","","","","","","","","","","","","","","",""
"","ISI","","html-keyboard-response","260","296331","0.0-1.0-390.0","0","0","76255","","null","","","null","43","NaN","","","","","","","","","","","","","","",""
"","S2","","html-keyboard-response","261","296577","0.0-1.0-391.0","0","0","76255","","245","","","75","43","","k","1","43","training","adjacent","CD","3","4","Q.jpg","O.jpg","1","1","1","",""
"","feedback","","html-keyboard-response","262","297580","0.0-1.0-393.0-0.0","0","0","76255","","null","","","null","43","","","","","","","","","","","","","","","",""
"","ITI","","html-keyboard-response","263","298583","0.0-1.0-396.0","0","0","76255","","null","","","null","43","","","","","","","","","","","","","","","NaN",""
"","S1","","html-keyboard-response","264","298835","0.0-1.0-398.0","0","0","76255","","null","","","null","44","","","","","","","","","","","","","","","",""
"","ISI","","html-keyboard-response","265","299837","0.0-1.0-399.0","0","0","76255","","null","","","null","44","NaN","","","","","","","","","","","","","","",""
"","S2","","html-keyboard-response","266","300089","0.0-1.0-400.0","0","0","76255","","null","","","null","44","","NaN","","","","","","","","","","","","","",""
"","response","","html-keyboard-response","267","300101","0.0-1.0-401.0-0.0","0","0","76255","","11","","","75","44","","","1","44","training","adjacent","BC","2","3","M.jpg","Q.jpg","1","1","1","",""
"","feedback","","html-keyboard-response","268","301105","0.0-1.0-402.0-0.0","0","0","76255","","null","","","null","44","","","","","","","","","","","","","","","",""
"","ITI","","html-keyboard-response","269","302107","0.0-1.0-405.0","0","0","76255","","null","","","null","44","","","","","","","","","","","","","","","NaN",""
"","S1","","html-keyboard-response","270","302359","0.0-1.0-407.0","0","0","76255","","null","","","null","45","","","","","","","","","","","","","","","",""
"","ISI","","html-keyboard-response","271","303362","0.0-1.0-408.0","0","0","76255","","null","","","null","45","NaN","","","","","","","","","","","","","","",""
"","S2","","html-keyboard-response","272","303614","0.0-1.0-409.0","0","0","76255","","null","","","null","45","","NaN","","","","","","","","","","","","","",""
"","response","","html-keyboard-response","273","303627","0.0-1.0-410.0-0.0","0","0","76255","","12","","","75","45","","","1","45","training","adjacent","ED","5","4","N.jpg","O.jpg","1","0","0","",""
"","feedback","","html-keyboard-response","274","304629","0.0-1.0-411.0-0.0","0","0","76255","","null","","","null","45","","","","","","","","","","","","","","","",""
"","time_out","","html-keyboard-response","275","306632","0.0-1.0-413.0-0.0","0","0","76255","","null","","","null","45","","","","","","","","","","","","","","","",""
"","ITI","","html-keyboard-response","276","307634","0.0-1.0-414.0","0","0","76255","","null","","","null","45","","","","","","","","","","","","","","","NaN",""
"","S1","","html-keyboard-response","277","307886","0.0-1.0-416.0","0","0","76255","","null","","","null","46","","","","","","","","","","","","","","","",""
"","ISI","","html-keyboard-response","278","308888","0.0-1.0-417.0","0","0","76255","","953","","","68","46","d","","","","","","","","","","","","","","",""
"","S2","","html-keyboard-response","279","309141","0.0-1.0-418.0","0","0","76255","","null","","","null","46","","NaN","","","","","","","","","","","","","",""
"","response","","html-keyboard-response","280","309499","0.0-1.0-419.0-0.0","0","0","76255","","357","","","68","46","","","1","46","training","adjacent","FE","6","5","R.jpg","N.jpg","0","0","1","",""
"","feedback","","html-keyboard-response","281","310501","0.0-1.0-420.0-0.0","0","0","76255","","null","","","null","46","","","","","","","","","","","","","","","",""
"","ITI","","html-keyboard-response","282","311504","0.0-1.0-423.0","0","0","76255","","null","","","null","46","","","","","","","","","","","","","","","NaN",""
"","S1","","html-keyboard-response","283","311756","0.0-1.0-425.0","0","0","76255","","null","","","null","47","","","","","","","","","","","","","","","",""
"","ISI","","html-keyboard-response","284","312758","0.0-1.0-426.0","0","0","76255","","null","","","null","47","NaN","","","","","","","","","","","","","","",""
"","S2","","html-keyboard-response","285","313011","0.0-1.0-427.0","0","0","76255","","null","","","null","47","","NaN","","","","","","","","","","","","","",""
"","response","","html-keyboard-response","286","313108","0.0-1.0-428.0-0.0","0","0","76255","","96","","","68","47","","","1","47","training","adjacent","FG","6","7","R.jpg","P.jpg","0","1","0","",""
"","feedback","","html-keyboard-response","287","314110","0.0-1.0-429.0-0.0","0","0","76255","","null","","","null","47","","","","","","","","","","","","","","","",""
"","time_out","","html-keyboard-response","288","316112","0.0-1.0-431.0-0.0","0","0","76255","","null","","","null","47","","","","","","","","","","","","","","","",""
"","ITI","","html-keyboard-response","289","317114","0.0-1.0-432.0","0","0","76255","","null","","","null","47","","","","","","","","","","","","","","","NaN",""
"","block_over","","html-keyboard-response","290","320939","0.0-1.0-433.0-0.0","0","0","76255","","3823","","","32","47","","","","","","","","","","","","","","","",""
"","S1","","html-keyboard-response","291","321191","0.0-1.0-434.0","0","0","76255","","null","","","null","48","","","","","","","","","","","","","","","",""
"","ISI","","html-keyboard-response","292","322193","0.0-1.0-435.0","0","0","76255","","null","","","null","48","NaN","","","","","","","","","","","","","","",""
"","S2","","html-keyboard-response","293","322446","0.0-1.0-436.0","0","0","76255","","null","","","null","48","","NaN","","","","","","","","","","","","","",""
"","response","","html-keyboard-response","294","322468","0.0-1.0-437.0-0.0","0","0","76255","","20","","","75","48","","","2","48","training","adjacent","FE","6","5","R.jpg","N.jpg","1","0","0","",""
"","feedback","","html-keyboard-response","295","323470","0.0-1.0-438.0-0.0","0","0","76255","","null","","","null","48","","","","","","","","","","","","","","","",""
"","time_out","","html-keyboard-response","296","325472","0.0-1.0-440.0-0.0","0","0","76255","","null","","","null","48","","","","","","","","","","","","","","","",""
"","ITI","","html-keyboard-response","297","326474","0.0-1.0-441.0","0","0","76255","","null","","","null","48","","","","","","","","","","","","","","","NaN",""
"","S1","","html-keyboard-response","298","326727","0.0-1.0-443.0","0","0","76255","","null","","","null","49","","","","","","","","","","","","","","","",""
"","ISI","","html-keyboard-response","299","327729","0.0-1.0-444.0","0","0","76255","","null","","","null","49","NaN","","","","","","","","","","","","","","",""
"","S2","","html-keyboard-response","300","327982","0.0-1.0-445.0","0","0","76255","","null","","","null","49","","NaN","","","","","","","","","","","","","",""
"","response","","html-keyboard-response","301","328041","0.0-1.0-446.0-0.0","0","0","76255","","57","","","75","49","","","2","49","training","adjacent","FG","6","7","R.jpg","P.jpg","1","1","1","",""
"","feedback","","html-keyboard-response","302","329043","0.0-1.0-447.0-0.0","0","0","76255","","null","","","null","49","","","","","","","","","","","","","","","",""
"","ITI","","html-keyboard-response","303","330046","0.0-1.0-450.0","0","0","76255","","null","","","null","49","","","","","","","","","","","","","","","NaN",""
"","S1","","html-keyboard-response","304","330299","0.0-1.0-452.0","0","0","76255","","null","","","null","50","","","","","","","","","","","","","","","",""
"","ISI","","html-keyboard-response","305","331301","0.0-1.0-453.0","0","0","76255","","null","","","null","50","NaN","","","","","","","","","","","","","","",""
"","S2","","html-keyboard-response","306","331541","0.0-1.0-454.0","0","0","76255","","238","","","75","50","","k","2","50","training","adjacent","CD","3","4","Q.jpg","O.jpg","1","1","1","",""
"","feedback","","html-keyboard-response","307","332544","0.0-1.0-456.0-0.0","0","0","76255","","null","","","null","50","","","","","","","","","","","","","","","",""
"","ITI","","html-keyboard-response","308","333546","0.0-1.0-459.0","0","0","76255","","null","","","null","50","","","","","","","","","","","","","","","NaN",""
"","S1","","html-keyboard-response","309","333799","0.0-1.0-461.0","0","0","76255","","null","","","null","51","","","","","","","","","","","","","","","",""
"","ISI","","html-keyboard-response","310","334802","0.0-1.0-462.0","0","0","76255","","null","","","null","51","NaN","","","","","","","","","","","","","","",""
"","S2","","html-keyboard-response","311","335054","0.0-1.0-463.0","0","0","76255","","null","","","null","51","","NaN","","","","","","","","","","","","","",""
"","response","","html-keyboard-response","312","335084","0.0-1.0-464.0-0.0","0","0","76255","","28","","","75","51","","","2","51","training","adjacent","CB","3","2","Q.jpg","M.jpg","1","0","0","",""
"","feedback","","html-keyboard-response","313","336087","0.0-1.0-465.0-0.0","0","0","76255","","null","","","null","51","","","","","","","","","","","","","","","",""
"","time_out","","html-keyboard-response","314","338090","0.0-1.0-467.0-0.0","0","0","76255","","null","","","null","51","","","","","","","","","","","","","","","",""
"","ITI","","html-keyboard-response","315","339093","0.0-1.0-468.0","0","0","76255","","null","","","null","51","","","","","","","","","","","","","","","NaN",""
"","S1","","html-keyboard-response","316","339345","0.0-1.0-470.0","0","0","76255","","null","","","null","52","","","","","","","","","","","","","","","",""
"","ISI","","html-keyboard-response","317","340347","0.0-1.0-471.0","0","0","76255","","null","","","null","52","NaN","","","","","","","","","","","","","","",""
"","S2","","html-keyboard-response","318","340600","0.0-1.0-472.0","0","0","76255","","null","","","null","52","","NaN","","","","","","","","","","","","","",""
"","response","","html-keyboard-response","319","340894","0.0-1.0-473.0-0.0","0","0","76255","","292","","","68","52","","","2","52","training","adjacent","FE","6","5","R.jpg","N.jpg","0","0","1","",""
"","feedback","","html-keyboard-response","320","341896","0.0-1.0-474.0-0.0","0","0","76255","","null","","","null","52","","","","","","","","","","","","","","","",""
"","ITI","","html-keyboard-response","321","342898","0.0-1.0-477.0","0","0","76255","","null","","","null","52","","","","","","","","","","","","","","","NaN",""
"","S1","","html-keyboard-response","322","343151","0.0-1.0-479.0","0","0","76255","","null","","","null","53","","","","","","","","","","","","","","","",""
"","ISI","","html-keyboard-response","323","344155","0.0-1.0-480.0","0","0","76255","","null","","","null","53","NaN","","","","","","","","","","","","","","",""
"","S2","","html-keyboard-response","324","344389","0.0-1.0-481.0","0","0","76255","","233","","","68","53","","d","2","53","training","adjacent","DE","4","5","O.jpg","N.jpg","0","1","0","",""
"","feedback","","html-keyboard-response","325","345392","0.0-1.0-483.0-0.0","0","0","76255","","null","","","null","53","","","","","","","","","","","","","","","",""
"","time_out","","html-keyboard-response","326","347395","0.0-1.0-485.0-0.0","0","0","76255","","null","","","null","53","","","","","","","","","","","","","","","",""
"","ITI","","html-keyboard-response","327","348397","0.0-1.0-486.0","0","0","76255","","null","","","null","53","","","","","","","","","","","","","","","NaN",""
"","S1","","html-keyboard-response","328","348649","0.0-1.0-488.0","0","0","76255","","null","","","null","54","","","","","","","","","","","","","","","",""
"","ISI","","html-keyboard-response","329","349651","0.0-1.0-489.0","0","0","76255","","null","","","null","54","NaN","","","","","","","","","","","","","","",""
"","S2","","html-keyboard-response","330","349870","0.0-1.0-490.0","0","0","76255","","217","","","68","54","","d","2","54","training","adjacent","CD","3","4","Q.jpg","O.jpg","0","1","0","",""
"","feedback","","html-keyboard-response","331","350872","0.0-1.0-492.0-0.0","0","0","76255","","null","","","null","54","","","","","","","","","","","","","","","",""
"","time_out","","html-keyboard-response","332","352875","0.0-1.0-494.0-0.0","0","0","76255","","null","","","null","54","","","","","","","","","","","","","","","",""
"","ITI","","html-keyboard-response","333","353878","0.0-1.0-495.0","0","0","76255","","null","","","null","54","","","","","","","","","","","","","","","NaN",""
"","S1","","html-keyboard-response","334","354130","0.0-1.0-497.0","0","0","76255","","null","","","null","55","","","","","","","","","","","","","","","",""
"","ISI","","html-keyboard-response","335","355133","0.0-1.0-498.0","0","0","76255","","null","","","null","55","NaN","","","","","","","","","","","","","","",""
"","S2","","html-keyboard-response","336","355386","0.0-1.0-499.0","0","0","76255","","null","","","null","55","","NaN","","","","","","","","","","","","","",""
"","response","","html-keyboard-response","337","355394","0.0-1.0-500.0-0.0","0","0","76255","","7","","","75","55","","","2","55","training","adjacent","BA","2","1","M.jpg","L.jpg","1","0","0","",""
"","feedback","","html-keyboard-response","338","356397","0.0-1.0-501.0-0.0","0","0","76255","","null","","","null","55","","","","","","","","","","","","","","","",""
"","time_out","","html-keyboard-response","339","358400","0.0-1.0-503.0-0.0","0","0","76255","","null","","","null","55","","","","","","","","","","","","","","","",""
"","ITI","","html-keyboard-response","340","359402","0.0-1.0-504.0","0","0","76255","","null","","","null","55","","","","","","","","","","","","","","","NaN",""
"","S1","","html-keyboard-response","341","359654","0.0-1.0-506.0","0","0","76255","","null","","","null","56","","","","","","","","","","","","","","","",""
"","ISI","","html-keyboard-response","342","360656","0.0-1.0-507.0","0","0","76255","","null","","","null","56","NaN","","","","","","","","","","","","","","",""
"","S2","","html-keyboard-response","343","360892","0.0-1.0-508.0","0","0","76255","","235","","","68","56","","d","2","56","training","adjacent","EF","5","6","N.jpg","R.jpg","0","1","0","",""
"","feedback","","html-keyboard-response","344","361895","0.0-1.0-510.0-0.0","0","0","76255","","null","","","null","56","","","","","","","","","","","","","","","",""
"","time_out","","html-keyboard-response","345","363898","0.0-1.0-512.0-0.0","0","0","76255","","null","","","null","56","","","","","","","","","","","","","","","",""
"","ITI","","html-keyboard-response","346","364900","0.0-1.0-513.0","0","0","76255","","null","","","null","56","","","","","","","","","","","","","","","NaN",""
"","S1","","html-keyboard-response","347","365153","0.0-1.0-515.0","0","0","76255","","null","","","null","57","","","","","","","","","","","","","","","",""
"","ISI","","html-keyboard-response","348","366155","0.0-1.0-516.0","0","0","76255","","null","","","null","57","NaN","","","","","","","","","","","","","","",""
"","S2","","html-keyboard-response","349","366407","0.0-1.0-517.0","0","0","76255","","null","","","null","57","","NaN","","","","","","","","","","","","","",""
"","response","","html-keyboard-response","350","366628","0.0-1.0-518.0-0.0","0","0","76255","","218","","","75","57","","","2","57","training","adjacent","FG","6","7","R.jpg","P.jpg","1","1","1","",""
"","feedback","","html-keyboard-response","351","367630","0.0-1.0-519.0-0.0","0","0","76255","","null","","","null","57","","","","","","","","","","","","","","","",""
"","ITI","","html-keyboard-response","352","368633","0.0-1.0-522.0","0","0","76255","","null","","","null","57","","","","","","","","","","","","","","","NaN",""
"","S1","","html-keyboard-response","353","368886","0.0-1.0-524.0","0","0","76255","","null","","","null","58","","","","","","","","","","","","","","","",""
"","ISI","","html-keyboard-response","354","369888","0.0-1.0-525.0","0","0","76255","","null","","","null","58","NaN","","","","","","","","","","","","","","",""
"","S2","","html-keyboard-response","355","370140","0.0-1.0-526.0","0","0","76255","","null","","","null","58","","NaN","","","","","","","","","","","","","",""
"","response","","html-keyboard-response","356","370615","0.0-1.0-527.0-0.0","0","0","76255","","474","","","75","58","","","2","58","training","adjacent","BC","2","3","M.jpg","Q.jpg","1","1","1","",""
"","feedback","","html-keyboard-response","357","371618","0.0-1.0-528.0-0.0","0","0","76255","","null","","","null","58","","","","","","","","","","","","","","","",""
"","ITI","","html-keyboard-response","358","372620","0.0-1.0-531.0","0","0","76255","","null","","","null","58","","","","","","","","","","","","","","","NaN",""
"","S1","","html-keyboard-response","359","372873","0.0-1.0-533.0","0","0","76255","","null","","","null","59","","","","","","","","","","","","","","","",""
"","ISI","","html-keyboard-response","360","373876","0.0-1.0-534.0","0","0","76255","","null","","","null","59","NaN","","","","","","","","","","","","","","",""
"","S2","","html-keyboard-response","361","374129","0.0-1.0-535.0","0","0","76255","","null","","","null","59","","NaN","","","","","","","","","","","","","",""
"","response","","html-keyboard-response","362","374298","0.0-1.0-536.0-0.0","0","0","76255","","167","","","75","59","","","2","59","training","adjacent","CB","3","2","Q.jpg","M.jpg","1","0","0","",""
"","feedback","","html-keyboard-response","363","375300","0.0-1.0-537.0-0.0","0","0","76255","","null","","","null","59","","","","","","","","","","","","","","","",""
"","time_out","","html-keyboard-response","364","377302","0.0-1.0-539.0-0.0","0","0","76255","","null","","","null","59","","","","","","","","","","","","","","","",""
"","ITI","","html-keyboard-response","365","378304","0.0-1.0-540.0","0","0","76255","","null","","","null","59","","","","","","","","","","","","","","","NaN",""
"","S1","","html-keyboard-response","366","378556","0.0-1.0-542.0","0","0","76255","","null","","","null","60","","","","","","","","","","","","","","","",""
"","ISI","","html-keyboard-response","367","379559","0.0-1.0-543.0","0","0","76255","","null","","","null","60","NaN","","","","","","","","","","","","","","",""
"","S2","","html-keyboard-response","368","379780","0.0-1.0-544.0","0","0","76255","","220","","","68","60","","d","2","60","training","adjacent","DE","4","5","O.jpg","N.jpg","0","1","0","",""
"","feedback","","html-keyboard-response","369","380783","0.0-1.0-546.0-0.0","0","0","76255","","null","","","null","60","","","","","","","","","","","","","","","",""
"","time_out","","html-keyboard-response","370","382785","0.0-1.0-548.0-0.0","0","0","76255","","null","","","null","60","","","","","","","","","","","","","","","",""
"","ITI","","html-keyboard-response","371","383787","0.0-1.0-549.0","0","0","76255","","null","","","null","60","","","","","","","","","","","","","","","NaN",""
"","S1","","html-keyboard-response","372","384039","0.0-1.0-551.0","0","0","76255","","null","","","null","61","","","","","","","","","","","","","","","",""
"","ISI","","html-keyboard-response","373","385042","0.0-1.0-552.0","0","0","76255","","null","","","null","61","NaN","","","","","","","","","","","","","","",""
"","S2","","html-keyboard-response","374","385294","0.0-1.0-553.0","0","0","76255","","null","","","null","61","","NaN","","","","","","","","","","","","","",""
"","response","","html-keyboard-response","375","385432","0.0-1.0-554.0-0.0","0","0","76255","","136","","","75","61","","","2","61","training","adjacent","AB","1","2","L.jpg","M.jpg","1","1","1","",""
"","feedback","","html-keyboard-response","376","386435","0.0-1.0-555.0-0.0","0","0","76255","","null","","","null","61","","","","","","","","","","","","","","","",""
"","ITI","","html-keyboard-response","377","387437","0.0-1.0-558.0","0","0","76255","","null","","","null","61","","","","","","","","","","","","","","","NaN",""
"","S1","","html-keyboard-response","378","387690","0.0-1.0-560.0","0","0","76255","","null","","","null","62","","","","","","","","","","","","","","","",""
"","ISI","","html-keyboard-response","379","388693","0.0-1.0-561.0","0","0","76255","","null","","","null","62","NaN","","","","","","","","","","","","","","",""
"","S2","","html-keyboard-response","380","388945","0.0-1.0-562.0","0","0","76255","","null","","","null","62","","NaN","","","","","","","","","","","","","",""
"","response","","html-keyboard-response","381","389287","0.0-1.0-563.0-0.0","0","0","76255","","340","","","75","62","","","2","62","training","adjacent","GF","7","6","P.jpg","R.jpg","1","0","0","",""
"","feedback","","html-keyboard-response","382","390289","0.0-1.0-564.0-0.0","0","0","76255","","null","","","null","62","","","","","","","","","","","","","","","",""
"","time_out","","html-keyboard-response","383","392291","0.0-1.0-566.0-0.0","0","0","76255","","null","","","null","62","","","","","","","","","","","","","","","",""
"","ITI","","html-keyboard-response","384","393294","0.0-1.0-567.0","0","0","76255","","null","","","null","62","","","","","","","","","","","","","","","NaN",""
"","S1","","html-keyboard-response","385","393546","0.0-1.0-569.0","0","0","76255","","null","","","null","63","","","","","","","","","","","","","","","",""
"","ISI","","html-keyboard-response","386","394549","0.0-1.0-570.0","0","0","76255","","null","","","null","63","NaN","","","","","","","","","","","","","","",""
"","S2","","html-keyboard-response","387","394801","0.0-1.0-571.0","0","0","76255","","null","","","null","63","","NaN","","","","","","","","","","","","","",""
"","response","","html-keyboard-response","388","395302","0.0-1.0-572.0-0.0","0","0","76255","","499","","","68","63","","","2","63","training","adjacent","BC","2","3","M.jpg","Q.jpg","0","1","0","",""
"","feedback","","html-keyboard-response","389","396305","0.0-1.0-573.0-0.0","0","0","76255","","null","","","null","63","","","","","","","","","","","","","","","",""
"","time_out","","html-keyboard-response","390","398308","0.0-1.0-575.0-0.0","0","0","76255","","null","","","null","63","","","","","","","","","","","","","","","",""
"","ITI","","html-keyboard-response","391","399310","0.0-1.0-576.0","0","0","76255","","null","","","null","63","","","","","","","","","","","","","","","NaN",""
"","S1","","html-keyboard-response","392","399562","0.0-1.0-578.0","0","0","76255","","null","","","null","64","","","","","","","","","","","","","","","",""
"","ISI","","html-keyboard-response","393","400565","0.0-1.0-579.0","0","0","76255","","null","","","null","64","NaN","","","","","","","","","","","","","","",""
"","S2","","html-keyboard-response","394","400817","0.0-1.0-580.0","0","0","76255","","null","","","null","64","","NaN","","","","","","","","","","","","","",""
"","response","","html-keyboard-response","395","401020","0.0-1.0-581.0-0.0","0","0","76255","","202","","","75","64","","","2","64","training","adjacent","ED","5","4","N.jpg","O.jpg","1","0","0","",""
"","feedback","","html-keyboard-response","396","402023","0.0-1.0-582.0-0.0","0","0","76255","","null","","","null","64","","","","","","","","","","","","","","","",""
"","time_out","","html-keyboard-response","397","404025","0.0-1.0-584.0-0.0","0","0","76255","","null","","","null","64","","","","","","","","","","","","","","","",""
"","ITI","","html-keyboard-response","398","405027","0.0-1.0-585.0","0","0","76255","","null","","","null","64","","","","","","","","","","","","","","","NaN",""
"","S1","","html-keyboard-response","399","405280","0.0-1.0-587.0","0","0","76255","","null","","","null","65","","","","","","","","","","","","","","","",""
"","ISI","","html-keyboard-response","400","406283","0.0-1.0-588.0","0","0","76255","","null","","","null","65","NaN","","","","","","","","","","","","","","",""
"","S2","","html-keyboard-response","401","406503","0.0-1.0-589.0","0","0","76255","","219","","","75","65","","k","2","65","training","adjacent","GF","7","6","P.jpg","R.jpg","1","0","0","",""
"","feedback","","html-keyboard-response","402","407506","0.0-1.0-591.0-0.0","0","0","76255","","null","","","null","65","","","","","","","","","","","","","","","",""
"","time_out","","html-keyboard-response","403","409508","0.0-1.0-593.0-0.0","0","0","76255","","null","","","null","65","","","","","","","","","","","","","","","",""
"","ITI","","html-keyboard-response","404","410511","0.0-1.0-594.0","0","0","76255","","null","","","null","65","","","","","","","","","","","","","","","NaN",""
"","S1","","html-keyboard-response","405","410763","0.0-1.0-596.0","0","0","76255","","null","","","null","66","","","","","","","","","","","","","","","",""
"","ISI","","html-keyboard-response","406","411766","0.0-1.0-597.0","0","0","76255","","null","","","null","66","NaN","","","","","","","","","","","","","","",""
"","S2","","html-keyboard-response","407","412019","0.0-1.0-598.0","0","0","76255","","null","","","null","66","","NaN","","","","","","","","","","","","","",""
"","response","","html-keyboard-response","408","412130","0.0-1.0-599.0-0.0","0","0","76255","","109","","","68","66","","","2","66","training","adjacent","CB","3","2","Q.jpg","M.jpg","0","0","1","",""
"","feedback","","html-keyboard-response","409","413132","0.0-1.0-600.0-0.0","0","0","76255","","null","","","null","66","","","","","","","","","","","","","","","",""
"","ITI","","html-keyboard-response","410","414134","0.0-1.0-603.0","0","0","76255","","null","","","null","66","","","","","","","","","","","","","","","NaN",""
"","S1","","html-keyboard-response","411","414386","0.0-1.0-605.0","0","0","76255","","null","","","null","67","","","","","","","","","","","","","","","",""
"","ISI","","html-keyboard-response","412","415388","0.0-1.0-606.0","0","0","76255","","null","","","null","67","NaN","","","","","","","","","","","","","","",""
"","S2","","html-keyboard-response","413","415641","0.0-1.0-607.0","0","0","76255","","null","","","null","67","","NaN","","","","","","","","","","","","","",""
"","response","","html-keyboard-response","414","417394","0.0-1.0-608.0-0.0","0","0","76255","","null","","","null","67","","","2","67","training","adjacent","FG","6","7","R.jpg","P.jpg","NaN","1","0","",""
"","too_slow_prompt","","html-keyboard-response","415","418402","0.0-1.0-610.0-0.0","1","0","76255","","null","","","null","","","","","","","","","","","","","","","","",""
"","time_out","","html-keyboard-response","416","420404","0.0-1.0-611.0-0.0","0","0","76255","","null","","","null","67","","","","","","","","","","","","","","","",""
"","ITI","","html-keyboard-response","417","421406","0.0-1.0-612.0","0","0","76255","","null","","","null","67","","","","","","","","","","","","","","","NaN",""
"","S1","","html-keyboard-response","418","421659","0.0-1.0-614.0","0","0","76255","","null","","","null","68","","","","","","","","","","","","","","","",""
"","ISI","","html-keyboard-response","419","422673","0.0-1.0-615.0","0","0","76255","","93","","","68","68","d","","","","","","","","","","","","","","",""
"","S2","","html-keyboard-response","420","422926","0.0-1.0-616.0","0","0","76255","","null","","","null","68","","NaN","","","","","","","","","","","","","",""
"","response","","html-keyboard-response","421","422960","0.0-1.0-617.0-0.0","0","0","76255","","33","","","68","68","","","2","68","training","adjacent","GF","7","6","P.jpg","R.jpg","0","0","1","",""
"","feedback","","html-keyboard-response","422","423962","0.0-1.0-618.0-0.0","0","0","76255","","null","","","null","68","","","","","","","","","","","","","","","",""
"","ITI","","html-keyboard-response","423","424965","0.0-1.0-621.0","0","0","76255","","null","","","null","68","","","","","","","","","","","","","","","NaN",""
"","S1","","html-keyboard-response","424","425218","0.0-1.0-623.0","0","0","76255","","null","","","null","69","","","","","","","","","","","","","","","",""
"","ISI","","html-keyboard-response","425","426220","0.0-1.0-624.0","0","0","76255","","null","","","null","69","NaN","","","","","","","","","","","","","","",""
"","S2","","html-keyboard-response","426","426473","0.0-1.0-625.0","0","0","76255","","null","","","null","69","","NaN","","","","","","","","","","","","","",""
"","response","","html-keyboard-response","427","426607","0.0-1.0-626.0-0.0","0","0","76255","","133","","","68","69","","","2","69","training","adjacent","DE","4","5","O.jpg","N.jpg","0","1","0","",""
"","feedback","","html-keyboard-response","428","427609","0.0-1.0-627.0-0.0","0","0","76255","","null","","","null","69","","","","","","","","","","","","","","","",""
"","time_out","","html-keyboard-response","429","429612","0.0-1.0-629.0-0.0","0","0","76255","","null","","","null","69","","","","","","","","","","","","","","","",""
"","ITI","","html-keyboard-response","430","430615","0.0-1.0-630.0","0","0","76255","","25","","","68","69","","","","","","","","","","","","","","","d",""
"","S1","","html-keyboard-response","431","430867","0.0-1.0-632.0","0","0","76255","","null","","","null","70","","","","","","","","","","","","","","","",""
"","ISI","","html-keyboard-response","432","431869","0.0-1.0-633.0","0","0","76255","","377","","","68","70","d","","","","","","","","","","","","","","",""
"","S2","","html-keyboard-response","433","432124","0.0-1.0-634.0","0","0","76255","","null","","","null","70","","NaN","","","","","","","","","","","","","",""
"","response","","html-keyboard-response","434","432139","0.0-1.0-635.0-0.0","0","0","76255","","14","","","68","70","","","2","70","training","adjacent","DC","4","3","O.jpg","Q.jpg","0","0","1","",""
"","feedback","","html-keyboard-response","435","433143","0.0-1.0-636.0-0.0","0","0","76255","","null","","","null","70","","","","","","","","","","","","","","","",""
"","ITI","","html-keyboard-response","436","434146","0.0-1.0-639.0","0","0","76255","","null","","","null","70","","","","","","","","","","","","","","","NaN",""
"","S1","","html-keyboard-response","437","434398","0.0-1.0-641.0","0","0","76255","","null","","","null","71","","","","","","","","","","","","","","","",""
"","ISI","","html-keyboard-response","438","435400","0.0-1.0-642.0","0","0","76255","","null","","","null","71","NaN","","","","","","","","","","","","","","",""
"","S2","","html-keyboard-response","439","435653","0.0-1.0-643.0","0","0","76255","","null","","","null","71","","NaN","","","","","","","","","","","","","",""
"","response","","html-keyboard-response","440","435872","0.0-1.0-644.0-0.0","0","0","76255","","217","","","68","71","","","2","71","training","adjacent","DC","4","3","O.jpg","Q.jpg","0","0","1","",""
"","feedback","","html-keyboard-response","441","436875","0.0-1.0-645.0-0.0","0","0","76255","","null","","","null","71","","","","","","","","","","","","","","","",""
"","ITI","","html-keyboard-response","442","437878","0.0-1.0-648.0","0","0","76255","","null","","","null","71","","","","","","","","","","","","","","","NaN",""
"","S1","","html-keyboard-response","443","438130","0.0-1.0-650.0","0","0","76255","","null","","","null","72","","","","","","","","","","","","","","","",""
"","ISI","","html-keyboard-response","444","439132","0.0-1.0-651.0","0","0","76255","","null","","","null","72","NaN","","","","","","","","","","","","","","",""
"","S2","","html-keyboard-response","445","439385","0.0-1.0-652.0","0","0","76255","","null","","","null","72","","NaN","","","","","","","","","","","","","",""
"","response","","html-keyboard-response","446","439392","0.0-1.0-653.0-0.0","0","0","76255","","6","","","68","72","","","2","72","training","adjacent","DC","4","3","O.jpg","Q.jpg","0","0","1","",""
"","feedback","","html-keyboard-response","447","440395","0.0-1.0-654.0-0.0","0","0","76255","","null","","","null","72","","","","","","","","","","","","","","","",""
"","ITI","","html-keyboard-response","448","441397","0.0-1.0-657.0","0","0","76255","","null","","","null","72","","","","","","","","","","","","","","","NaN",""
"","S1","","html-keyboard-response","449","441649","0.0-1.0-659.0","0","0","76255","","null","","","null","73","","","","","","","","","","","","","","","",""
"","ISI","","html-keyboard-response","450","442651","0.0-1.0-660.0","0","0","76255","","null","","","null","73","NaN","","","","","","","","","","","","","","",""
"","S2","","html-keyboard-response","451","442904","0.0-1.0-661.0","0","0","76255","","null","","","null","73","","NaN","","","","","","","","","","","","","",""
"","response","","html-keyboard-response","452","442951","0.0-1.0-662.0-0.0","0","0","76255","","45","","","68","73","","","2","73","training","adjacent","CB","3","2","Q.jpg","M.jpg","0","0","1","",""
"","feedback","","html-keyboard-response","453","443953","0.0-1.0-663.0-0.0","0","0","76255","","null","","","null","73","","","","","","","","","","","","","","","",""
"","ITI","","html-keyboard-response","454","444956","0.0-1.0-666.0","0","0","76255","","null","","","null","73","","","","","","","","","","","","","","","NaN",""
"","S1","","html-keyboard-response","455","445208","0.0-1.0-668.0","0","0","76255","","null","","","null","74","","","","","","","","","","","","","","","",""
"","ISI","","html-keyboard-response","456","446210","0.0-1.0-669.0","0","0","76255","","null","","","null","74","NaN","","","","","","","","","","","","","","",""
"","S2","","html-keyboard-response","457","446463","0.0-1.0-670.0","0","0","76255","","null","","","null","74","","NaN","","","","","","","","","","","","","",""
"","response","","html-keyboard-response","458","446518","0.0-1.0-671.0-0.0","0","0","76255","","54","","","68","74","","","2","74","training","adjacent","BC","2","3","M.jpg","Q.jpg","0","1","0","",""
"","feedback","","html-keyboard-response","459","447521","0.0-1.0-672.0-0.0","0","0","76255","","null","","","null","74","","","","","","","","","","","","","","","",""
"","time_out","","html-keyboard-response","460","449523","0.0-1.0-674.0-0.0","0","0","76255","","null","","","null","74","","","","","","","","","","","","","","","",""
"","ITI","","html-keyboard-response","461","450526","0.0-1.0-675.0","0","0","76255","","null","","","null","74","","","","","","","","","","","","","","","NaN",""
"","S1","","html-keyboard-response","462","450778","0.0-1.0-677.0","0","0","76255","","null","","","null","75","","","","","","","","","","","","","","","",""
"","ISI","","html-keyboard-response","463","451781","0.0-1.0-678.0","0","0","76255","","112","","","75","75","k","","","","","","","","","","","","","","",""
"","S2","","html-keyboard-response","464","452033","0.0-1.0-679.0","0","0","76255","","null","","","null","75","","NaN","","","","","","","","","","","","","",""
"","response","","html-keyboard-response","465","452064","0.0-1.0-680.0-0.0","0","0","76255","","30","","","75","75","","","2","75","training","adjacent","ED","5","4","N.jpg","O.jpg","1","0","0","",""
"","feedback","","html-keyboard-response","466","453067","0.0-1.0-681.0-0.0","0","0","76255","","null","","","null","75","","","","","","","","","","","","","","","",""
"","time_out","","html-keyboard-response","467","455069","0.0-1.0-683.0-0.0","0","0","76255","","null","","","null","75","","","","","","","","","","","","","","","",""
"","ITI","","html-keyboard-response","468","456072","0.0-1.0-684.0","0","0","76255","","null","","","null","75","","","","","","","","","","","","","","","NaN",""
"","S1","","html-keyboard-response","469","456325","0.0-1.0-686.0","0","0","76255","","null","","","null","76","","","","","","","","","","","","","","","",""
"","ISI","","html-keyboard-response","470","457328","0.0-1.0-687.0","0","0","76255","","null","","","null","76","NaN","","","","","","","","","","","","","","",""
"","S2","","html-keyboard-response","471","457580","0.0-1.0-688.0","0","0","76255","","null","","","null","76","","NaN","","","","","","","","","","","","","",""
"","response","","html-keyboard-response","472","457809","0.0-1.0-689.0-0.0","0","0","76255","","228","","","75","76","","","2","76","training","adjacent","CD","3","4","Q.jpg","O.jpg","1","1","1","",""
"","feedback","","html-keyboard-response","473","458812","0.0-1.0-690.0-0.0","0","0","76255","","null","","","null","76","","","","","","","","","","","","","","","",""
"","ITI","","html-keyboard-response","474","459814","0.0-1.0-693.0","0","0","76255","","null","","","null","76","","","","","","","","","","","","","","","NaN",""
"","S1","","html-keyboard-response","475","460066","0.0-1.0-695.0","0","0","76255","","null","","","null","77","","","","","","","","","","","","","","","",""
"","ISI","","html-keyboard-response","476","461069","0.0-1.0-696.0","0","0","76255","","null","","","null","77","NaN","","","","","","","","","","","","","","",""
"","S2","","html-keyboard-response","477","461321","0.0-1.0-697.0","0","0","76255","","null","","","null","77","","NaN","","","","","","","","","","","","","",""
"","response","","html-keyboard-response","478","461870","0.0-1.0-698.0-0.0","0","0","76255","","547","","","75","77","","","2","77","training","adjacent","ED","5","4","N.jpg","O.jpg","1","0","0","",""
"","feedback","","html-keyboard-response","479","462872","0.0-1.0-699.0-0.0","0","0","76255","","null","","","null","77","","","","","","","","","","","","","","","",""
"","time_out","","html-keyboard-response","480","464875","0.0-1.0-701.0-0.0","0","0","76255","","null","","","null","77","","","","","","","","","","","","","","","",""
"","ITI","","html-keyboard-response","481","465877","0.0-1.0-702.0","0","0","76255","","null","","","null","77","","","","","","","","","","","","","","","NaN",""
"","S1","","html-keyboard-response","482","466130","0.0-1.0-704.0","0","0","76255","","null","","","null","78","","","","","","","","","","","","","","","",""
"","ISI","","html-keyboard-response","483","467133","0.0-1.0-705.0","0","0","76255","","null","","","null","78","NaN","","","","","","","","","","","","","","",""
"","S2","","html-keyboard-response","484","467385","0.0-1.0-706.0","0","0","76255","","null","","","null","78","","NaN","","","","","","","","","","","","","",""
"","response","","html-keyboard-response","485","467424","0.0-1.0-707.0-0.0","0","0","76255","","37","","","75","78","","","2","78","training","adjacent","BC","2","3","M.jpg","Q.jpg","1","1","1","",""
"","feedback","","html-keyboard-response","486","468427","0.0-1.0-708.0-0.0","0","0","76255","","null","","","null","78","","","","","","","","","","","","","","","",""
"","ITI","","html-keyboard-response","487","469430","0.0-1.0-711.0","0","0","76255","","null","","","null","78","","","","","","","","","","","","","","","NaN",""
"","S1","","html-keyboard-response","488","469684","0.0-1.0-713.0","0","0","76255","","null","","","null","79","","","","","","","","","","","","","","","",""
"","ISI","","html-keyboard-response","489","470687","0.0-1.0-714.0","0","0","76255","","null","","","null","79","NaN","","","","","","","","","","","","","","",""
"","S2","","html-keyboard-response","490","470940","0.0-1.0-715.0","0","0","76255","","null","","","null","79","","NaN","","","","","","","","","","","","","",""
"","response","","html-keyboard-response","491","471046","0.0-1.0-716.0-0.0","0","0","76255","","105","","","75","79","","","2","79","training","adjacent","EF","5","6","N.jpg","R.jpg","1","1","1","",""
"","feedback","","html-keyboard-response","492","472049","0.0-1.0-717.0-0.0","0","0","76255","","null","","","null","79","","","","","","","","","","","","","","","",""
"","ITI","","html-keyboard-response","493","473051","0.0-1.0-720.0","0","0","76255","","null","","","null","79","","","","","","","","","","","","","","","NaN",""
"","S1","","html-keyboard-response","494","473304","0.0-1.0-722.0","0","0","76255","","null","","","null","80","","","","","","","","","","","","","","","",""
"","ISI","","html-keyboard-response","495","474306","0.0-1.0-723.0","0","0","76255","","null","","","null","80","NaN","","","","","","","","","","","","","","",""
"","S2","","html-keyboard-response","496","474559","0.0-1.0-724.0","0","0","76255","","null","","","null","80","","NaN","","","","","","","","","","","","","",""
"","response","","html-keyboard-response","497","474950","0.0-1.0-725.0-0.0","0","0","76255","","389","","","75","80","","","2","80","training","adjacent","FG","6","7","R.jpg","P.jpg","1","1","1","",""
"","feedback","","html-keyboard-response","498","475952","0.0-1.0-726.0-0.0","0","0","76255","","null","","","null","80","","","","","","","","","","","","","","","",""
"","ITI","","html-keyboard-response","499","476955","0.0-1.0-729.0","0","0","76255","","null","","","null","80","","","","","","","","","","","","","","","NaN",""
"","S1","","html-keyboard-response","500","477207","0.0-1.0-731.0","0","0","76255","","null","","","null","81","","","","","","","","","","","","","","","",""
"","ISI","","html-keyboard-response","501","478210","0.0-1.0-732.0","0","0","76255","","null","","","null","81","NaN","","","","","","","","","","","","","","",""
"","S2","","html-keyboard-response","502","478459","0.0-1.0-733.0","0","0","76255","","248","","","75","81","","k","2","81","training","adjacent","AB","1","2","L.jpg","M.jpg","1","1","1","",""
"","feedback","","html-keyboard-response","503","479462","0.0-1.0-735.0-0.0","0","0","76255","","null","","","null","81","","","","","","","","","","","","","","","",""
"","ITI","","html-keyboard-response","504","480465","0.0-1.0-738.0","0","0","76255","","null","","","null","81","","","","","","","","","","","","","","","NaN",""
"","S1","","html-keyboard-response","505","480717","0.0-1.0-740.0","0","0","76255","","null","","","null","82","","","","","","","","","","","","","","","",""
"","ISI","","html-keyboard-response","506","481720","0.0-1.0-741.0","0","0","76255","","168","","","75","82","k","","","","","","","","","","","","","","",""
"","S2","","html-keyboard-response","507","481972","0.0-1.0-742.0","0","0","76255","","null","","","null","82","","NaN","","","","","","","","","","","","","",""
"","response","","html-keyboard-response","508","481984","0.0-1.0-743.0-0.0","0","0","76255","","10","","","75","82","","","2","82","training","adjacent","BA","2","1","M.jpg","L.jpg","1","0","0","",""
"","feedback","","html-keyboard-response","509","482986","0.0-1.0-744.0-0.0","0","0","76255","","null","","","null","82","","","","","","","","","","","","","","","",""
"","time_out","","html-keyboard-response","510","484989","0.0-1.0-746.0-0.0","0","0","76255","","null","","","null","82","","","","","","","","","","","","","","","",""
"","ITI","","html-keyboard-response","511","485992","0.0-1.0-747.0","0","0","76255","","null","","","null","82","","","","","","","","","","","","","","","NaN",""
"","S1","","html-keyboard-response","512","486245","0.0-1.0-749.0","0","0","76255","","null","","","null","83","","","","","","","","","","","","","","","",""
"","ISI","","html-keyboard-response","513","487247","0.0-1.0-750.0","0","0","76255","","155","","","68","83","d","","","","","","","","","","","","","","",""
"","S2","","html-keyboard-response","514","487500","0.0-1.0-751.0","0","0","76255","","null","","","null","83","","NaN","","","","","","","","","","","","","",""
"","response","","html-keyboard-response","515","487514","0.0-1.0-752.0-0.0","0","0","76255","","12","","","68","83","","","2","83","training","adjacent","GF","7","6","P.jpg","R.jpg","0","0","1","",""
"","feedback","","html-keyboard-response","516","488518","0.0-1.0-753.0-0.0","0","0","76255","","null","","","null","83","","","","","","","","","","","","","","","",""
"","ITI","","html-keyboard-response","517","489521","0.0-1.0-756.0","0","0","76255","","null","","","null","83","","","","","","","","","","","","","","","NaN",""
"","S1","","html-keyboard-response","518","489774","0.0-1.0-758.0","0","0","76255","","null","","","null","84","","","","","","","","","","","","","","","",""
"","ISI","","html-keyboard-response","519","490775","0.0-1.0-759.0","0","0","76255","","null","","","null","84","NaN","","","","","","","","","","","","","","",""
"","S2","","html-keyboard-response","520","491028","0.0-1.0-760.0","0","0","76255","","null","","","null","84","","NaN","","","","","","","","","","","","","",""
"","response","","html-keyboard-response","521","491297","0.0-1.0-761.0-0.0","0","0","76255","","267","","","68","84","","","2","84","training","adjacent","FE","6","5","R.jpg","N.jpg","0","0","1","",""
"","feedback","","html-keyboard-response","522","492300","0.0-1.0-762.0-0.0","0","0","76255","","null","","","null","84","","","","","","","","","","","","","","","",""
"","ITI","","html-keyboard-response","523","493302","0.0-1.0-765.0","0","0","76255","","null","","","null","84","","","","","","","","","","","","","","","NaN",""
"","S1","","html-keyboard-response","524","493553","0.0-1.0-767.0","0","0","76255","","null","","","null","85","","","","","","","","","","","","","","","",""
"","ISI","","html-keyboard-response","525","494556","0.0-1.0-768.0","0","0","76255","","null","","","null","85","NaN","","","","","","","","","","","","","","",""
"","S2","","html-keyboard-response","526","494809","0.0-1.0-769.0","0","0","76255","","null","","","null","85","","NaN","","","","","","","","","","","","","",""
"","response","","html-keyboard-response","527","494885","0.0-1.0-770.0-0.0","0","0","76255","","74","","","68","85","","","2","85","training","adjacent","DE","4","5","O.jpg","N.jpg","0","1","0","",""
"","feedback","","html-keyboard-response","528","495888","0.0-1.0-771.0-0.0","0","0","76255","","null","","","null","85","","","","","","","","","","","","","","","",""
"","time_out","","html-keyboard-response","529","497891","0.0-1.0-773.0-0.0","0","0","76255","","null","","","null","85","","","","","","","","","","","","","","","",""
"","ITI","","html-keyboard-response","530","498894","0.0-1.0-774.0","0","0","76255","","null","","","null","85","","","","","","","","","","","","","","","NaN",""
"","S1","","html-keyboard-response","531","499146","0.0-1.0-776.0","0","0","76255","","null","","","null","86","","","","","","","","","","","","","","","",""
"","ISI","","html-keyboard-response","532","500148","0.0-1.0-777.0","0","0","76255","","35","","","75","86","k","","","","","","","","","","","","","","",""
"","S2","","html-keyboard-response","533","500401","0.0-1.0-778.0","0","0","76255","","null","","","null","86","","NaN","","","","","","","","","","","","","",""
"","response","","html-keyboard-response","534","500456","0.0-1.0-779.0-0.0","0","0","76255","","53","","","75","86","","","2","86","training","adjacent","EF","5","6","N.jpg","R.jpg","1","1","1","",""
"","feedback","","html-keyboard-response","535","501459","0.0-1.0-780.0-0.0","0","0","76255","","null","","","null","86","","","","","","","","","","","","","","","",""
"","ITI","","html-keyboard-response","536","502462","0.0-1.0-783.0","0","0","76255","","null","","","null","86","","","","","","","","","","","","","","","NaN",""
"","S1","","html-keyboard-response","537","502715","0.0-1.0-785.0","0","0","76255","","null","","","null","87","","","","","","","","","","","","","","","",""
"","ISI","","html-keyboard-response","538","503717","0.0-1.0-786.0","0","0","76255","","null","","","null","87","NaN","","","","","","","","","","","","","","",""
"","S2","","html-keyboard-response","539","503970","0.0-1.0-787.0","0","0","76255","","null","","","null","87","","NaN","","","","","","","","","","","","","",""
"","response","","html-keyboard-response","540","504002","0.0-1.0-788.0-0.0","0","0","76255","","31","","","75","87","","","2","87","training","adjacent","BA","2","1","M.jpg","L.jpg","1","0","0","",""
"","feedback","","html-keyboard-response","541","505005","0.0-1.0-789.0-0.0","0","0","76255","","null","","","null","87","","","","","","","","","","","","","","","",""
"","time_out","","html-keyboard-response","542","507007","0.0-1.0-791.0-0.0","0","0","76255","","null","","","null","87","","","","","","","","","","","","","","","",""
"","ITI","","html-keyboard-response","543","508009","0.0-1.0-792.0","0","0","76255","","null","","","null","87","","","","","","","","","","","","","","","NaN",""
"","S1","","html-keyboard-response","544","508261","0.0-1.0-794.0","0","0","76255","","null","","","null","88","","","","","","","","","","","","","","","",""
"","ISI","","html-keyboard-response","545","509267","0.0-1.0-795.0","0","0","76255","","124","","","68","88","d","","","","","","","","","","","","","","",""
"","S2","","html-keyboard-response","546","509519","0.0-1.0-796.0","0","0","76255","","null","","","null","88","","NaN","","","","","","","","","","","","","",""
"","response","","html-keyboard-response","547","509579","0.0-1.0-797.0-0.0","0","0","76255","","58","","","68","88","","","2","88","training","adjacent","EF","5","6","N.jpg","R.jpg","0","1","0","",""
"","feedback","","html-keyboard-response","548","510582","0.0-1.0-798.0-0.0","0","0","76255","","null","","","null","88","","","","","","","","","","","","","","","",""
"","time_out","","html-keyboard-response","549","512585","0.0-1.0-800.0-0.0","0","0","76255","","null","","","null","88","","","","","","","","","","","","","","","",""
"","ITI","","html-keyboard-response","550","513588","0.0-1.0-801.0","0","0","76255","","null","","","null","88","","","","","","","","","","","","","","","NaN",""
"","S1","","html-keyboard-response","551","513840","0.0-1.0-803.0","0","0","76255","","null","","","null","89","","","","","","","","","","","","","","","",""
"","ISI","","html-keyboard-response","552","514843","0.0-1.0-804.0","0","0","76255","","299","","","68","89","d","","","","","","","","","","","","","","",""
"","S2","","html-keyboard-response","553","515096","0.0-1.0-805.0","0","0","76255","","null","","","null","89","","NaN","","","","","","","","","","","","","",""
"","response","","html-keyboard-response","554","515187","0.0-1.0-806.0-0.0","0","0","76255","","88","","","68","89","","","2","89","training","adjacent","AB","1","2","L.jpg","M.jpg","0","1","0","",""
"","feedback","","html-keyboard-response","555","516189","0.0-1.0-807.0-0.0","0","0","76255","","null","","","null","89","","","","","","","","","","","","","","","",""
"","time_out","","html-keyboard-response","556","518193","0.0-1.0-809.0-0.0","0","0","76255","","null","","","null","89","","","","","","","","","","","","","","","",""
"","ITI","","html-keyboard-response","557","519195","0.0-1.0-810.0","0","0","76255","","null","","","null","89","","","","","","","","","","","","","","","NaN",""
"","S1","","html-keyboard-response","558","519447","0.0-1.0-812.0","0","0","76255","","null","","","null","90","","","","","","","","","","","","","","","",""
"","ISI","","html-keyboard-response","559","520450","0.0-1.0-813.0","0","0","76255","","null","","","null","90","NaN","","","","","","","","","","","","","","",""
"","S2","","html-keyboard-response","560","520703","0.0-1.0-814.0","0","0","76255","","null","","","null","90","","NaN","","","","","","","","","","","","","",""
"","response","","html-keyboard-response","561","521351","0.0-1.0-815.0-0.0","0","0","76255","","646","","","75","90","","","2","90","training","adjacent","BA","2","1","M.jpg","L.jpg","1","0","0","",""
"","feedback","","html-keyboard-response","562","522354","0.0-1.0-816.0-0.0","0","0","76255","","null","","","null","90","","","","","","","","","","","","","","","",""
"","time_out","","html-keyboard-response","563","524357","0.0-1.0-818.0-0.0","0","0","76255","","null","","","null","90","","","","","","","","","","","","","","","",""
"","ITI","","html-keyboard-response","564","525359","0.0-1.0-819.0","0","0","76255","","null","","","null","90","","","","","","","","","","","","","","","NaN",""
"","S1","","html-keyboard-response","565","525612","0.0-1.0-821.0","0","0","76255","","null","","","null","91","","","","","","","","","","","","","","","",""
"","ISI","","html-keyboard-response","566","526615","0.0-1.0-822.0","0","0","76255","","0","","","75","91","k","","","","","","","","","","","","","","",""
"","S2","","html-keyboard-response","567","526867","0.0-1.0-823.0","0","0","76255","","250","","","75","91","","k","2","91","training","adjacent","CD","3","4","Q.jpg","O.jpg","1","1","1","",""
"","feedback","","html-keyboard-response","568","527869","0.0-1.0-825.0-0.0","0","0","76255","","null","","","null","91","","","","","","","","","","","","","","","",""
"","ITI","","html-keyboard-response","569","528871","0.0-1.0-828.0","0","0","76255","","null","","","null","91","","","","","","","","","","","","","","","NaN",""
"","S1","","html-keyboard-response","570","529123","0.0-1.0-830.0","0","0","76255","","null","","","null","92","","","","","","","","","","","","","","","",""
"","ISI","","html-keyboard-response","571","530125","0.0-1.0-831.0","0","0","76255","","null","","","null","92","NaN","","","","","","","","","","","","","","",""
"","S2","","html-keyboard-response","572","530378","0.0-1.0-832.0","0","0","76255","","null","","","null","92","","NaN","","","","","","","","","","","","","",""
"","response","","html-keyboard-response","573","532130","0.0-1.0-833.0-0.0","0","0","76255","","null","","","null","92","","","2","92","training","adjacent","AB","1","2","L.jpg","M.jpg","NaN","1","0","",""
"","too_slow_prompt","","html-keyboard-response","574","533134","0.0-1.0-835.0-0.0","1","0","76255","","null","","","null","","","","","","","","","","","","","","","","",""
"","time_out","","html-keyboard-response","575","535135","0.0-1.0-836.0-0.0","0","0","76255","","null","","","null","92","","","","","","","","","","","","","","","",""
"","ITI","","html-keyboard-response","576","536138","0.0-1.0-837.0","0","0","76255","","205","","","75","92","","","","","","","","","","","","","","","k",""
"","S1","","html-keyboard-response","577","536390","0.0-1.0-839.0","0","0","76255","","null","","","null","93","","","","","","","","","","","","","","","",""
"","ISI","","html-keyboard-response","578","537393","0.0-1.0-840.0","0","0","76255","","null","","","null","93","NaN","","","","","","","","","","","","","","",""
"","S2","","html-keyboard-response","579","537645","0.0-1.0-841.0","0","0","76255","","null","","","null","93","","NaN","","","","","","","","","","","","","",""
"","response","","html-keyboard-response","580","538636","0.0-1.0-842.0-0.0","0","0","76255","","989","","","75","93","","","2","93","training","adjacent","DC","4","3","O.jpg","Q.jpg","1","0","0","",""
"","feedback","","html-keyboard-response","581","539639","0.0-1.0-843.0-0.0","0","0","76255","","null","","","null","93","","","","","","","","","","","","","","","",""
"","time_out","","html-keyboard-response","582","541641","0.0-1.0-845.0-0.0","0","0","76255","","null","","","null","93","","","","","","","","","","","","","","","",""
