"success","ttype","start_time","trial_type","trial_index","time_elapsed","internal_node_id","warning","missed_checkup","PID","view_history","rt","responses","repeat_instructions","key_press","index","keypress_isi","keypress_S2","block","trial_num","phase","group_type","pair_type","S1_stim","S2_stim","S1_img","S2_img","S1_chosen","S1_higher","accuracy","keypress_iti","total_bonus_tally"
"true","full_screen","d04062023hr2219","fullscreen","0","3653","0.0-0.0","0","0","30774","","","","","","","","","","","","","","","","","","","","","",""
"","instructions","","instructions","1","40693","0.0-1.0-0.0-0.0","0","0","30774","[{""page_index"":0,""viewing_time"":4789},{""page_index"":1,""viewing_time"":12097},{""page_index"":2,""viewing_time"":4131},{""page_index"":1,""viewing_time"":9105},{""page_index"":2,""viewing_time"":4813},{""page_index"":3,""viewing_time"":2101}]","37037","","","","","","","","","","","","","","","","","","","",""
"","comprehension_check","","survey-multi-choice","2","64768","0.0-1.0-0.0-1.0","0","0","30774","","24062","{""Q0"":""True"",""Q1"":""D"",""Q2"":""Once the second image appears and while the screen 'MAKE A CHOICE' is shown"",""Q3"":""Green mark"",""Q4"":""either D or K""}","0","","","","","","","","","","","","","","","","","",""
"","start_exp","","html-keyboard-response","3","66866","0.0-1.0-1.0","0","0","30774","","2093","","","32","","","","","","","","","","","","","","","","",""
"","S1","","html-keyboard-response","4","67022","0.0-1.0-2.0","0","0","30774","","null","","","null","0","","","","","","","","","","","","","","","",""
"","ISI","","html-keyboard-response","5","69025","0.0-1.0-3.0","0","0","30774","","1768","","","68","0","d","","","","","","","","","","","","","","",""
"","S2","","html-keyboard-response","6","69180","0.0-1.0-4.0","0","0","30774","","null","","","null","0","","NaN","","","","","","","","","","","","","",""
"","response","","html-keyboard-response","7","69771","0.0-1.0-5.0-0.0","0","0","30774","","587","","","75","0","","","1","0","training","adjacent","AB","1","2","Q.jpg","M.jpg","0","1","0","",""
"","feedback","","html-keyboard-response","8","70778","0.0-1.0-6.0-0.0","0","0","30774","","null","","","null","0","","","","","","","","","","","","","","","",""
"","time_out","","html-keyboard-response","9","72782","0.0-1.0-8.0-0.0","0","0","30774","","null","","","null","0","","","","","","","","","","","","","","","",""
"","ITI","","html-keyboard-response","10","73790","0.0-1.0-9.0","0","0","30774","","null","","","null","0","","","","","","","","","","","","","","","NaN",""
"","S1","","html-keyboard-response","11","73945","0.0-1.0-11.0","0","0","30774","","null","","","null","1","","","","","","","","","","","","","","","",""
"","ISI","","html-keyboard-response","12","75953","0.0-1.0-12.0","0","0","30774","","null","","","null","1","NaN","","","","","","","","","","","","","","",""
"","S2","","html-keyboard-response","13","76113","0.0-1.0-13.0","0","0","30774","","null","","","null","1","","NaN","","","","","","","","","","","","","",""
"","response","","html-keyboard-response","14","76562","0.0-1.0-14.0-0.0","0","0","30774","","444","","","68","1","","","1","1","training","adjacent","BA","2","1","M.jpg","Q.jpg","1","0","0","",""
"","feedback","","html-keyboard-response","15","77575","0.0-1.0-15.0-0.0","0","0","30774","","null","","","null","1","","","","","","","","","","","","","","","",""
"","time_out","","html-keyboard-response","16","79579","0.0-1.0-17.0-0.0","0","0","30774","","null","","","null","1","","","","","","","","","","","","","","","",""
"","ITI","","html-keyboard-response","17","80585","0.0-1.0-18.0","0","0","30774","","null","","","null","1","","","","","","","","","","","","","","","NaN",""
"","S1","","html-keyboard-response","18","80742","0.0-1.0-20.0","0","0","30774","","null","","","null","2","","","","","","","","","","","","","","","",""
"","ISI","","html-keyboard-response","19","82748","0.0-1.0-21.0","0","0","30774","","null","","","null","2","NaN","","","","","","","","","","","","","","",""
"","S2","","html-keyboard-response","20","82904","0.0-1.0-22.0","0","0","30774","","null","","","null","2","","NaN","","","","","","","","","","","","","",""
"","response","","html-keyboard-response","21","83437","0.0-1.0-23.0-0.0","0","0","30774","","531","","","68","2","","","1","2","training","adjacent","DC","4","3","L.jpg","N.jpg","1","0","0","",""
"","feedback","","html-keyboard-response","22","84445","0.0-1.0-24.0-0.0","0","0","30774","","null","","","null","2","","","","","","","","","","","","","","","",""
"","time_out","","html-keyboard-response","23","86448","0.0-1.0-26.0-0.0","0","0","30774","","null","","","null","2","","","","","","","","","","","","","","","",""
"","ITI","","html-keyboard-response","24","87453","0.0-1.0-27.0","0","0","30774","","null","","","null","2","","","","","","","","","","","","","","","NaN",""
"","S1","","html-keyboard-response","25","87606","0.0-1.0-29.0","0","0","30774","","null","","","null","3","","","","","","","","","","","","","","","",""
"","ISI","","html-keyboard-response","26","89611","0.0-1.0-30.0","0","0","30774","","null","","","null","3","NaN","","","","","","","","","","","","","","",""
"","S2","","html-keyboard-response","27","89765","0.0-1.0-31.0","0","0","30774","","null","","","null","3","","NaN","","","","","","","","","","","","","",""
"","response","","html-keyboard-response","28","90019","0.0-1.0-32.0-0.0","0","0","30774","","251","","","75","3","","","1","3","training","adjacent","DC","4","3","L.jpg","N.jpg","0","0","1","",""
"","feedback","","html-keyboard-response","29","91023","0.0-1.0-33.0-0.0","0","0","30774","","null","","","null","3","","","","","","","","","","","","","","","",""
"","ITI","","html-keyboard-response","30","92028","0.0-1.0-36.0","0","0","30774","","null","","","null","3","","","","","","","","","","","","","","","NaN",""
"","S1","","html-keyboard-response","31","92183","0.0-1.0-38.0","0","0","30774","","null","","","null","4","","","","","","","","","","","","","","","",""
"","ISI","","html-keyboard-response","32","94188","0.0-1.0-39.0","0","0","30774","","null","","","null","4","NaN","","","","","","","","","","","","","","",""
"","S2","","html-keyboard-response","33","94341","0.0-1.0-40.0","0","0","30774","","null","","","null","4","","NaN","","","","","","","","","","","","","",""
"","response","","html-keyboard-response","34","94863","0.0-1.0-41.0-0.0","0","0","30774","","519","","","75","4","","","1","4","training","adjacent","BC","2","3","M.jpg","N.jpg","0","1","0","",""
"","feedback","","html-keyboard-response","35","95876","0.0-1.0-42.0-0.0","0","0","30774","","null","","","null","4","","","","","","","","","","","","","","","",""
"","time_out","","html-keyboard-response","36","97881","0.0-1.0-44.0-0.0","0","0","30774","","null","","","null","4","","","","","","","","","","","","","","","",""
"","ITI","","html-keyboard-response","37","98884","0.0-1.0-45.0","0","0","30774","","null","","","null","4","","","","","","","","","","","","","","","NaN",""
"","S1","","html-keyboard-response","38","99039","0.0-1.0-47.0","0","0","30774","","null","","","null","5","","","","","","","","","","","","","","","",""
"","ISI","","html-keyboard-response","39","101045","0.0-1.0-48.0","0","0","30774","","null","","","null","5","NaN","","","","","","","","","","","","","","",""
"","S2","","html-keyboard-response","40","101206","0.0-1.0-49.0","0","0","30774","","null","","","null","5","","NaN","","","","","","","","","","","","","",""
"","response","","html-keyboard-response","41","101983","0.0-1.0-50.0-0.0","0","0","30774","","773","","","75","5","","","1","5","training","adjacent","FG","6","7","R.jpg","P.jpg","0","1","0","",""
"","feedback","","html-keyboard-response","42","102990","0.0-1.0-51.0-0.0","0","0","30774","","null","","","null","5","","","","","","","","","","","","","","","",""
"","time_out","","html-keyboard-response","43","104999","0.0-1.0-53.0-0.0","0","0","30774","","null","","","null","5","","","","","","","","","","","","","","","",""
"","ITI","","html-keyboard-response","44","106012","0.0-1.0-54.0","0","0","30774","","null","","","null","5","","","","","","","","","","","","","","","NaN",""
"","S1","","html-keyboard-response","45","106181","0.0-1.0-56.0","0","0","30774","","null","","","null","6","","","","","","","","","","","","","","","",""
"","ISI","","html-keyboard-response","46","108184","0.0-1.0-57.0","0","0","30774","","null","","","null","6","NaN","","","","","","","","","","","","","","",""
"","S2","","html-keyboard-response","47","108338","0.0-1.0-58.0","0","0","30774","","null","","","null","6","","NaN","","","","","","","","","","","","","",""
"","response","","html-keyboard-response","48","108994","0.0-1.0-59.0-0.0","0","0","30774","","652","","","68","6","","","1","6","training","adjacent","EF","5","6","O.jpg","R.jpg","1","1","1","",""
"","feedback","","html-keyboard-response","49","109999","0.0-1.0-60.0-0.0","0","0","30774","","null","","","null","6","","","","","","","","","","","","","","","",""
"","ITI","","html-keyboard-response","50","111003","0.0-1.0-63.0","0","0","30774","","null","","","null","6","","","","","","","","","","","","","","","NaN",""
"","S1","","html-keyboard-response","51","111157","0.0-1.0-65.0","0","0","30774","","null","","","null","7","","","","","","","","","","","","","","","",""
"","ISI","","html-keyboard-response","52","113162","0.0-1.0-66.0","0","0","30774","","null","","","null","7","NaN","","","","","","","","","","","","","","",""
"","S2","","html-keyboard-response","53","113316","0.0-1.0-67.0","0","0","30774","","null","","","null","7","","NaN","","","","","","","","","","","","","",""
"","response","","html-keyboard-response","54","114053","0.0-1.0-68.0-0.0","0","0","30774","","733","","","68","7","","","1","7","training","adjacent","DE","4","5","L.jpg","O.jpg","1","1","1","",""
"","feedback","","html-keyboard-response","55","115057","0.0-1.0-69.0-0.0","0","0","30774","","null","","","null","7","","","","","","","","","","","","","","","",""
"","ITI","","html-keyboard-response","56","116061","0.0-1.0-72.0","0","0","30774","","null","","","null","7","","","","","","","","","","","","","","","NaN",""
"","S1","","html-keyboard-response","57","116215","0.0-1.0-74.0","0","0","30774","","null","","","null","8","","","","","","","","","","","","","","","",""
"","ISI","","html-keyboard-response","58","118220","0.0-1.0-75.0","0","0","30774","","null","","","null","8","NaN","","","","","","","","","","","","","","",""
"","S2","","html-keyboard-response","59","118374","0.0-1.0-76.0","0","0","30774","","null","","","null","8","","NaN","","","","","","","","","","","","","",""
"","response","","html-keyboard-response","60","118899","0.0-1.0-77.0-0.0","0","0","30774","","520","","","68","8","","","1","8","training","adjacent","FE","6","5","R.jpg","O.jpg","1","0","0","",""
"","feedback","","html-keyboard-response","61","119903","0.0-1.0-78.0-0.0","0","0","30774","","null","","","null","8","","","","","","","","","","","","","","","",""
"","time_out","","html-keyboard-response","62","121906","0.0-1.0-80.0-0.0","0","0","30774","","null","","","null","8","","","","","","","","","","","","","","","",""
"","ITI","","html-keyboard-response","63","122910","0.0-1.0-81.0","0","0","30774","","null","","","null","8","","","","","","","","","","","","","","","NaN",""
"","S1","","html-keyboard-response","64","123064","0.0-1.0-83.0","0","0","30774","","null","","","null","9","","","","","","","","","","","","","","","",""
"","ISI","","html-keyboard-response","65","125067","0.0-1.0-84.0","0","0","30774","","null","","","null","9","NaN","","","","","","","","","","","","","","",""
"","S2","","html-keyboard-response","66","125222","0.0-1.0-85.0","0","0","30774","","null","","","null","9","","NaN","","","","","","","","","","","","","",""
"","response","","html-keyboard-response","67","125471","0.0-1.0-86.0-0.0","0","0","30774","","245","","","75","9","","","1","9","training","adjacent","GF","7","6","P.jpg","R.jpg","0","0","1","",""
"","feedback","","html-keyboard-response","68","126474","0.0-1.0-87.0-0.0","0","0","30774","","null","","","null","9","","","","","","","","","","","","","","","",""
"","ITI","","html-keyboard-response","69","127477","0.0-1.0-90.0","0","0","30774","","null","","","null","9","","","","","","","","","","","","","","","NaN",""
"","S1","","html-keyboard-response","70","127632","0.0-1.0-92.0","0","0","30774","","null","","","null","10","","","","","","","","","","","","","","","",""
"","ISI","","html-keyboard-response","71","129636","0.0-1.0-93.0","0","0","30774","","null","","","null","10","NaN","","","","","","","","","","","","","","",""
"","S2","","html-keyboard-response","72","129791","0.0-1.0-94.0","0","0","30774","","null","","","null","10","","NaN","","","","","","","","","","","","","",""
"","response","","html-keyboard-response","73","130314","0.0-1.0-95.0-0.0","0","0","30774","","519","","","75","10","","","1","10","training","adjacent","FG","6","7","R.jpg","P.jpg","0","1","0","",""
"","feedback","","html-keyboard-response","74","131319","0.0-1.0-96.0-0.0","0","0","30774","","null","","","null","10","","","","","","","","","","","","","","","",""
"","time_out","","html-keyboard-response","75","133323","0.0-1.0-98.0-0.0","0","0","30774","","null","","","null","10","","","","","","","","","","","","","","","",""
"","ITI","","html-keyboard-response","76","134327","0.0-1.0-99.0","0","0","30774","","null","","","null","10","","","","","","","","","","","","","","","NaN",""
"","S1","","html-keyboard-response","77","134481","0.0-1.0-101.0","0","0","30774","","null","","","null","11","","","","","","","","","","","","","","","",""
"","ISI","","html-keyboard-response","78","136485","0.0-1.0-102.0","0","0","30774","","null","","","null","11","NaN","","","","","","","","","","","","","","",""
"","S2","","html-keyboard-response","79","136639","0.0-1.0-103.0","0","0","30774","","null","","","null","11","","NaN","","","","","","","","","","","","","",""
"","response","","html-keyboard-response","80","136954","0.0-1.0-104.0-0.0","0","0","30774","","312","","","68","11","","","1","11","training","adjacent","ED","5","4","O.jpg","L.jpg","1","0","0","",""
"","feedback","","html-keyboard-response","81","137958","0.0-1.0-105.0-0.0","0","0","30774","","null","","","null","11","","","","","","","","","","","","","","","",""
"","time_out","","html-keyboard-response","82","139962","0.0-1.0-107.0-0.0","0","0","30774","","null","","","null","11","","","","","","","","","","","","","","","",""
"","ITI","","html-keyboard-response","83","140966","0.0-1.0-108.0","0","0","30774","","null","","","null","11","","","","","","","","","","","","","","","NaN",""
"","S1","","html-keyboard-response","84","141119","0.0-1.0-110.0","0","0","30774","","null","","","null","12","","","","","","","","","","","","","","","",""
"","ISI","","html-keyboard-response","85","143123","0.0-1.0-111.0","0","0","30774","","null","","","null","12","NaN","","","","","","","","","","","","","","",""
"","S2","","html-keyboard-response","86","143278","0.0-1.0-112.0","0","0","30774","","null","","","null","12","","NaN","","","","","","","","","","","","","",""
"","response","","html-keyboard-response","87","143971","0.0-1.0-113.0-0.0","0","0","30774","","690","","","68","12","","","1","12","training","adjacent","CB","3","2","N.jpg","M.jpg","1","0","0","",""
"","feedback","","html-keyboard-response","88","144975","0.0-1.0-114.0-0.0","0","0","30774","","null","","","null","12","","","","","","","","","","","","","","","",""
"","time_out","","html-keyboard-response","89","146979","0.0-1.0-116.0-0.0","0","0","30774","","null","","","null","12","","","","","","","","","","","","","","","",""
"","ITI","","html-keyboard-response","90","147983","0.0-1.0-117.0","0","0","30774","","null","","","null","12","","","","","","","","","","","","","","","NaN",""
"","S1","","html-keyboard-response","91","148137","0.0-1.0-119.0","0","0","30774","","null","","","null","13","","","","","","","","","","","","","","","",""
"","ISI","","html-keyboard-response","92","150141","0.0-1.0-120.0","0","0","30774","","null","","","null","13","NaN","","","","","","","","","","","","","","",""
"","S2","","html-keyboard-response","93","150295","0.0-1.0-121.0","0","0","30774","","null","","","null","13","","NaN","","","","","","","","","","","","","",""
"","response","","html-keyboard-response","94","150926","0.0-1.0-122.0-0.0","0","0","30774","","629","","","75","13","","","1","13","training","adjacent","AB","1","2","Q.jpg","M.jpg","0","1","0","",""
"","feedback","","html-keyboard-response","95","151932","0.0-1.0-123.0-0.0","0","0","30774","","null","","","null","13","","","","","","","","","","","","","","","",""
"","time_out","","html-keyboard-response","96","153953","0.0-1.0-125.0-0.0","0","0","30774","","null","","","null","13","","","","","","","","","","","","","","","",""
"","ITI","","html-keyboard-response","97","154958","0.0-1.0-126.0","0","0","30774","","null","","","null","13","","","","","","","","","","","","","","","NaN",""
"","S1","","html-keyboard-response","98","155119","0.0-1.0-128.0","0","0","30774","","null","","","null","14","","","","","","","","","","","","","","","",""
"","ISI","","html-keyboard-response","99","157123","0.0-1.0-129.0","0","0","30774","","null","","","null","14","NaN","","","","","","","","","","","","","","",""
"","S2","","html-keyboard-response","100","157280","0.0-1.0-130.0","0","0","30774","","null","","","null","14","","NaN","","","","","","","","","","","","","",""
"","response","","html-keyboard-response","101","157729","0.0-1.0-131.0-0.0","0","0","30774","","447","","","68","14","","","1","14","training","adjacent","CB","3","2","N.jpg","M.jpg","1","0","0","",""
"","feedback","","html-keyboard-response","102","158735","0.0-1.0-132.0-0.0","0","0","30774","","null","","","null","14","","","","","","","","","","","","","","","",""
"","time_out","","html-keyboard-response","103","160739","0.0-1.0-134.0-0.0","0","0","30774","","null","","","null","14","","","","","","","","","","","","","","","",""
"","ITI","","html-keyboard-response","104","161743","0.0-1.0-135.0","0","0","30774","","null","","","null","14","","","","","","","","","","","","","","","NaN",""
"","S1","","html-keyboard-response","105","161896","0.0-1.0-137.0","0","0","30774","","null","","","null","15","","","","","","","","","","","","","","","",""
"","ISI","","html-keyboard-response","106","163909","0.0-1.0-138.0","0","0","30774","","null","","","null","15","NaN","","","","","","","","","","","","","","",""
"","S2","","html-keyboard-response","107","164080","0.0-1.0-139.0","0","0","30774","","null","","","null","15","","NaN","","","","","","","","","","","","","",""
"","response","","html-keyboard-response","108","164713","0.0-1.0-140.0-0.0","0","0","30774","","629","","","75","15","","","1","15","training","adjacent","EF","5","6","O.jpg","R.jpg","0","1","0","",""
"","feedback","","html-keyboard-response","109","165717","0.0-1.0-141.0-0.0","0","0","30774","","null","","","null","15","","","","","","","","","","","","","","","",""
"","time_out","","html-keyboard-response","110","167722","0.0-1.0-143.0-0.0","0","0","30774","","null","","","null","15","","","","","","","","","","","","","","","",""
"","ITI","","html-keyboard-response","111","168727","0.0-1.0-144.0","0","0","30774","","null","","","null","15","","","","","","","","","","","","","","","NaN",""
"","S1","","html-keyboard-response","112","168889","0.0-1.0-146.0","0","0","30774","","null","","","null","16","","","","","","","","","","","","","","","",""
"","ISI","","html-keyboard-response","113","170894","0.0-1.0-147.0","0","0","30774","","null","","","null","16","NaN","","","","","","","","","","","","","","",""
"","S2","","html-keyboard-response","114","171048","0.0-1.0-148.0","0","0","30774","","null","","","null","16","","NaN","","","","","","","","","","","","","",""
"","response","","html-keyboard-response","115","172903","0.0-1.0-149.0-0.0","0","0","30774","","null","","","null","16","","","1","16","training","adjacent","DE","4","5","L.jpg","O.jpg","NaN","1","0","",""
"","too_slow_prompt","","html-keyboard-response","116","173924","0.0-1.0-151.0-0.0","1","0","30774","","null","","","null","","","","","","","","","","","","","","","","",""
"","time_out","","html-keyboard-response","117","175929","0.0-1.0-152.0-0.0","0","0","30774","","null","","","null","16","","","","","","","","","","","","","","","",""
"","ITI","","html-keyboard-response","118","176932","0.0-1.0-153.0","0","0","30774","","null","","","null","16","","","","","","","","","","","","","","","NaN",""
"","S1","","html-keyboard-response","119","177087","0.0-1.0-155.0","0","0","30774","","null","","","null","17","","","","","","","","","","","","","","","",""
"","ISI","","html-keyboard-response","120","179091","0.0-1.0-156.0","0","0","30774","","null","","","null","17","NaN","","","","","","","","","","","","","","",""
"","S2","","html-keyboard-response","121","179247","0.0-1.0-157.0","0","0","30774","","null","","","null","17","","NaN","","","","","","","","","","","","","",""
"","response","","html-keyboard-response","122","179890","0.0-1.0-158.0-0.0","0","0","30774","","638","","","75","17","","","1","17","training","adjacent","ED","5","4","O.jpg","L.jpg","0","0","1","",""
"","feedback","","html-keyboard-response","123","180896","0.0-1.0-159.0-0.0","0","0","30774","","null","","","null","17","","","","","","","","","","","","","","","",""
"","ITI","","html-keyboard-response","124","181900","0.0-1.0-162.0","0","0","30774","","null","","","null","17","","","","","","","","","","","","","","","NaN",""
"","S1","","html-keyboard-response","125","182058","0.0-1.0-164.0","0","0","30774","","null","","","null","18","","","","","","","","","","","","","","","",""
"","ISI","","html-keyboard-response","126","184063","0.0-1.0-165.0","0","0","30774","","null","","","null","18","NaN","","","","","","","","","","","","","","",""
"","S2","","html-keyboard-response","127","184218","0.0-1.0-166.0","0","0","30774","","null","","","null","18","","NaN","","","","","","","","","","","","","",""
"","response","","html-keyboard-response","128","184671","0.0-1.0-167.0-0.0","0","0","30774","","450","","","75","18","","","1","18","training","adjacent","ED","5","4","O.jpg","L.jpg","0","0","1","",""
"","feedback","","html-keyboard-response","129","185676","0.0-1.0-168.0-0.0","0","0","30774","","null","","","null","18","","","","","","","","","","","","","","","",""
"","ITI","","html-keyboard-response","130","186681","0.0-1.0-171.0","0","0","30774","","null","","","null","18","","","","","","","","","","","","","","","NaN",""
"","S1","","html-keyboard-response","131","186835","0.0-1.0-173.0","0","0","30774","","null","","","null","19","","","","","","","","","","","","","","","",""
"","ISI","","html-keyboard-response","132","188838","0.0-1.0-174.0","0","0","30774","","null","","","null","19","NaN","","","","","","","","","","","","","","",""
"","S2","","html-keyboard-response","133","188993","0.0-1.0-175.0","0","0","30774","","null","","","null","19","","NaN","","","","","","","","","","","","","",""
"","response","","html-keyboard-response","134","189631","0.0-1.0-176.0-0.0","0","0","30774","","634","","","75","19","","","1","19","training","adjacent","FE","6","5","R.jpg","O.jpg","0","0","1","",""
"","feedback","","html-keyboard-response","135","190636","0.0-1.0-177.0-0.0","0","0","30774","","null","","","null","19","","","","","","","","","","","","","","","",""
"","ITI","","html-keyboard-response","136","191641","0.0-1.0-180.0","0","0","30774","","null","","","null","19","","","","","","","","","","","","","","","NaN",""
"","S1","","html-keyboard-response","137","191796","0.0-1.0-182.0","0","0","30774","","null","","","null","20","","","","","","","","","","","","","","","",""
"","ISI","","html-keyboard-response","138","193800","0.0-1.0-183.0","0","0","30774","","null","","","null","20","NaN","","","","","","","","","","","","","","",""
"","S2","","html-keyboard-response","139","193954","0.0-1.0-184.0","0","0","30774","","null","","","null","20","","NaN","","","","","","","","","","","","","",""
"","response","","html-keyboard-response","140","195286","0.0-1.0-185.0-0.0","0","0","30774","","1328","","","68","20","","","1","20","training","adjacent","BC","2","3","M.jpg","N.jpg","1","1","1","",""
"","feedback","","html-keyboard-response","141","196290","0.0-1.0-186.0-0.0","0","0","30774","","null","","","null","20","","","","","","","","","","","","","","","",""
"","ITI","","html-keyboard-response","142","197296","0.0-1.0-189.0","0","0","30774","","null","","","null","20","","","","","","","","","","","","","","","NaN",""
"","S1","","html-keyboard-response","143","197450","0.0-1.0-191.0","0","0","30774","","null","","","null","21","","","","","","","","","","","","","","","",""
"","ISI","","html-keyboard-response","144","199454","0.0-1.0-192.0","0","0","30774","","null","","","null","21","NaN","","","","","","","","","","","","","","",""
"","S2","","html-keyboard-response","145","199609","0.0-1.0-193.0","0","0","30774","","null","","","null","21","","NaN","","","","","","","","","","","","","",""
"","response","","html-keyboard-response","146","199920","0.0-1.0-194.0-0.0","0","0","30774","","307","","","75","21","","","1","21","training","adjacent","BC","2","3","M.jpg","N.jpg","0","1","0","",""
"","feedback","","html-keyboard-response","147","200928","0.0-1.0-195.0-0.0","0","0","30774","","null","","","null","21","","","","","","","","","","","","","","","",""
"","time_out","","html-keyboard-response","148","202932","0.0-1.0-197.0-0.0","0","0","30774","","null","","","null","21","","","","","","","","","","","","","","","",""
"","ITI","","html-keyboard-response","149","203936","0.0-1.0-198.0","0","0","30774","","null","","","null","21","","","","","","","","","","","","","","","NaN",""
"","S1","","html-keyboard-response","150","204091","0.0-1.0-200.0","0","0","30774","","null","","","null","22","","","","","","","","","","","","","","","",""
"","ISI","","html-keyboard-response","151","206094","0.0-1.0-201.0","0","0","30774","","null","","","null","22","NaN","","","","","","","","","","","","","","",""
"","S2","","html-keyboard-response","152","206248","0.0-1.0-202.0","0","0","30774","","null","","","null","22","","NaN","","","","","","","","","","","","","",""
"","response","","html-keyboard-response","153","206743","0.0-1.0-203.0-0.0","0","0","30774","","490","","","68","22","","","1","22","training","adjacent","DE","4","5","L.jpg","O.jpg","1","1","1","",""
"","feedback","","html-keyboard-response","154","207748","0.0-1.0-204.0-0.0","0","0","30774","","null","","","null","22","","","","","","","","","","","","","","","",""
"","ITI","","html-keyboard-response","155","208758","0.0-1.0-207.0","0","0","30774","","null","","","null","22","","","","","","","","","","","","","","","NaN",""
"","S1","","html-keyboard-response","156","208914","0.0-1.0-209.0","0","0","30774","","null","","","null","23","","","","","","","","","","","","","","","",""
"","ISI","","html-keyboard-response","157","210930","0.0-1.0-210.0","0","0","30774","","null","","","null","23","NaN","","","","","","","","","","","","","","",""
"","S2","","html-keyboard-response","158","211084","0.0-1.0-211.0","0","0","30774","","null","","","null","23","","NaN","","","","","","","","","","","","","",""
"","response","","html-keyboard-response","159","211851","0.0-1.0-212.0-0.0","0","0","30774","","764","","","75","23","","","1","23","training","adjacent","FG","6","7","R.jpg","P.jpg","0","1","0","",""
"","feedback","","html-keyboard-response","160","212856","0.0-1.0-213.0-0.0","0","0","30774","","null","","","null","23","","","","","","","","","","","","","","","",""
"","time_out","","html-keyboard-response","161","214860","0.0-1.0-215.0-0.0","0","0","30774","","null","","","null","23","","","","","","","","","","","","","","","",""
"","ITI","","html-keyboard-response","162","215865","0.0-1.0-216.0","0","0","30774","","null","","","null","23","","","","","","","","","","","","","","","NaN",""
"","S1","","html-keyboard-response","163","216019","0.0-1.0-218.0","0","0","30774","","null","","","null","24","","","","","","","","","","","","","","","",""
"","ISI","","html-keyboard-response","164","218025","0.0-1.0-219.0","0","0","30774","","null","","","null","24","NaN","","","","","","","","","","","","","","",""
"","S2","","html-keyboard-response","165","218180","0.0-1.0-220.0","0","0","30774","","null","","","null","24","","NaN","","","","","","","","","","","","","",""
"","response","","html-keyboard-response","166","218851","0.0-1.0-221.0-0.0","0","0","30774","","667","","","68","24","","","1","24","training","adjacent","AB","1","2","Q.jpg","M.jpg","1","1","1","",""
"","feedback","","html-keyboard-response","167","219856","0.0-1.0-222.0-0.0","0","0","30774","","null","","","null","24","","","","","","","","","","","","","","","",""
"","ITI","","html-keyboard-response","168","220866","0.0-1.0-225.0","0","0","30774","","null","","","null","24","","","","","","","","","","","","","","","NaN",""
"","S1","","html-keyboard-response","169","221021","0.0-1.0-227.0","0","0","30774","","null","","","null","25","","","","","","","","","","","","","","","",""
"","ISI","","html-keyboard-response","170","223039","0.0-1.0-228.0","0","0","30774","","null","","","null","25","NaN","","","","","","","","","","","","","","",""
"","S2","","html-keyboard-response","171","223193","0.0-1.0-229.0","0","0","30774","","null","","","null","25","","NaN","","","","","","","","","","","","","",""
"","response","","html-keyboard-response","172","223772","0.0-1.0-230.0-0.0","0","0","30774","","575","","","68","25","","","1","25","training","adjacent","DE","4","5","L.jpg","O.jpg","1","1","1","",""
"","feedback","","html-keyboard-response","173","224778","0.0-1.0-231.0-0.0","0","0","30774","","null","","","null","25","","","","","","","","","","","","","","","",""
"","ITI","","html-keyboard-response","174","225782","0.0-1.0-234.0","0","0","30774","","null","","","null","25","","","","","","","","","","","","","","","NaN",""
"","S1","","html-keyboard-response","175","225939","0.0-1.0-236.0","0","0","30774","","null","","","null","26","","","","","","","","","","","","","","","",""
"","ISI","","html-keyboard-response","176","227943","0.0-1.0-237.0","0","0","30774","","null","","","null","26","NaN","","","","","","","","","","","","","","",""
"","S2","","html-keyboard-response","177","228102","0.0-1.0-238.0","0","0","30774","","null","","","null","26","","NaN","","","","","","","","","","","","","",""
"","response","","html-keyboard-response","178","228605","0.0-1.0-239.0-0.0","0","0","30774","","498","","","75","26","","","1","26","training","adjacent","CD","3","4","N.jpg","L.jpg","0","1","0","",""
"","feedback","","html-keyboard-response","179","229610","0.0-1.0-240.0-0.0","0","0","30774","","null","","","null","26","","","","","","","","","","","","","","","",""
"","time_out","","html-keyboard-response","180","231617","0.0-1.0-242.0-0.0","0","0","30774","","null","","","null","26","","","","","","","","","","","","","","","",""
"","ITI","","html-keyboard-response","181","232622","0.0-1.0-243.0","0","0","30774","","null","","","null","26","","","","","","","","","","","","","","","NaN",""
"","S1","","html-keyboard-response","182","232777","0.0-1.0-245.0","0","0","30774","","null","","","null","27","","","","","","","","","","","","","","","",""
"","ISI","","html-keyboard-response","183","234782","0.0-1.0-246.0","0","0","30774","","null","","","null","27","NaN","","","","","","","","","","","","","","",""
"","S2","","html-keyboard-response","184","234938","0.0-1.0-247.0","0","0","30774","","null","","","null","27","","NaN","","","","","","","","","","","","","",""
"","response","","html-keyboard-response","185","235372","0.0-1.0-248.0-0.0","0","0","30774","","431","","","68","27","","","1","27","training","adjacent","DC","4","3","L.jpg","N.jpg","1","0","0","",""
"","feedback","","html-keyboard-response","186","236378","0.0-1.0-249.0-0.0","0","0","30774","","null","","","null","27","","","","","","","","","","","","","","","",""
"","time_out","","html-keyboard-response","187","238382","0.0-1.0-251.0-0.0","0","0","30774","","null","","","null","27","","","","","","","","","","","","","","","",""
"","ITI","","html-keyboard-response","188","239387","0.0-1.0-252.0","0","0","30774","","null","","","null","27","","","","","","","","","","","","","","","NaN",""
"","S1","","html-keyboard-response","189","239541","0.0-1.0-254.0","0","0","30774","","null","","","null","28","","","","","","","","","","","","","","","",""
"","ISI","","html-keyboard-response","190","241546","0.0-1.0-255.0","0","0","30774","","null","","","null","28","NaN","","","","","","","","","","","","","","",""
"","S2","","html-keyboard-response","191","241701","0.0-1.0-256.0","0","0","30774","","null","","","null","28","","NaN","","","","","","","","","","","","","",""
"","response","","html-keyboard-response","192","242362","0.0-1.0-257.0-0.0","0","0","30774","","655","","","68","28","","","1","28","training","adjacent","FG","6","7","R.jpg","P.jpg","1","1","1","",""
"","feedback","","html-keyboard-response","193","243366","0.0-1.0-258.0-0.0","0","0","30774","","null","","","null","28","","","","","","","","","","","","","","","",""
"","ITI","","html-keyboard-response","194","244376","0.0-1.0-261.0","0","0","30774","","null","","","null","28","","","","","","","","","","","","","","","NaN",""
"","S1","","html-keyboard-response","195","244531","0.0-1.0-263.0","0","0","30774","","null","","","null","29","","","","","","","","","","","","","","","",""
"","ISI","","html-keyboard-response","196","246536","0.0-1.0-264.0","0","0","30774","","null","","","null","29","NaN","","","","","","","","","","","","","","",""
"","S2","","html-keyboard-response","197","246693","0.0-1.0-265.0","0","0","30774","","null","","","null","29","","NaN","","","","","","","","","","","","","",""
"","response","","html-keyboard-response","198","247305","0.0-1.0-266.0-0.0","0","0","30774","","608","","","68","29","","","1","29","training","adjacent","FE","6","5","R.jpg","O.jpg","1","0","0","",""
"","feedback","","html-keyboard-response","199","248309","0.0-1.0-267.0-0.0","0","0","30774","","null","","","null","29","","","","","","","","","","","","","","","",""
"","time_out","","html-keyboard-response","200","250314","0.0-1.0-269.0-0.0","0","0","30774","","null","","","null","29","","","","","","","","","","","","","","","",""
"","ITI","","html-keyboard-response","201","251318","0.0-1.0-270.0","0","0","30774","","null","","","null","29","","","","","","","","","","","","","","","NaN",""
"","S1","","html-keyboard-response","202","251473","0.0-1.0-272.0","0","0","30774","","null","","","null","30","","","","","","","","","","","","","","","",""
"","ISI","","html-keyboard-response","203","253477","0.0-1.0-273.0","0","0","30774","","null","","","null","30","NaN","","","","","","","","","","","","","","",""
"","S2","","html-keyboard-response","204","253632","0.0-1.0-274.0","0","0","30774","","null","","","null","30","","NaN","","","","","","","","","","","","","",""
"","response","","html-keyboard-response","205","254159","0.0-1.0-275.0-0.0","0","0","30774","","524","","","68","30","","","1","30","training","adjacent","AB","1","2","Q.jpg","M.jpg","1","1","1","",""
"","feedback","","html-keyboard-response","206","255164","0.0-1.0-276.0-0.0","0","0","30774","","null","","","null","30","","","","","","","","","","","","","","","",""
"","ITI","","html-keyboard-response","207","256171","0.0-1.0-279.0","0","0","30774","","null","","","null","30","","","","","","","","","","","","","","","NaN",""
"","S1","","html-keyboard-response","208","256326","0.0-1.0-281.0","0","0","30774","","null","","","null","31","","","","","","","","","","","","","","","",""
"","ISI","","html-keyboard-response","209","258330","0.0-1.0-282.0","0","0","30774","","null","","","null","31","NaN","","","","","","","","","","","","","","",""
"","S2","","html-keyboard-response","210","258484","0.0-1.0-283.0","0","0","30774","","null","","","null","31","","NaN","","","","","","","","","","","","","",""
"","response","","html-keyboard-response","211","259016","0.0-1.0-284.0-0.0","0","0","30774","","528","","","75","31","","","1","31","training","adjacent","CB","3","2","N.jpg","M.jpg","0","0","1","",""
"","feedback","","html-keyboard-response","212","260020","0.0-1.0-285.0-0.0","0","0","30774","","null","","","null","31","","","","","","","","","","","","","","","",""
"","ITI","","html-keyboard-response","213","261025","0.0-1.0-288.0","0","0","30774","","null","","","null","31","","","","","","","","","","","","","","","NaN",""
"","S1","","html-keyboard-response","214","261182","0.0-1.0-290.0","0","0","30774","","null","","","null","32","","","","","","","","","","","","","","","",""
"","ISI","","html-keyboard-response","215","263190","0.0-1.0-291.0","0","0","30774","","null","","","null","32","NaN","","","","","","","","","","","","","","",""
"","S2","","html-keyboard-response","216","263344","0.0-1.0-292.0","0","0","30774","","null","","","null","32","","NaN","","","","","","","","","","","","","",""
"","response","","html-keyboard-response","217","264609","0.0-1.0-293.0-0.0","0","0","30774","","1261","","","68","32","","","1","32","training","adjacent","CD","3","4","N.jpg","L.jpg","1","1","1","",""
"","feedback","","html-keyboard-response","218","265614","0.0-1.0-294.0-0.0","0","0","30774","","null","","","null","32","","","","","","","","","","","","","","","",""
"","ITI","","html-keyboard-response","219","266619","0.0-1.0-297.0","0","0","30774","","null","","","null","32","","","","","","","","","","","","","","","NaN",""
"","S1","","html-keyboard-response","220","266774","0.0-1.0-299.0","0","0","30774","","null","","","null","33","","","","","","","","","","","","","","","",""
"","ISI","","html-keyboard-response","221","268778","0.0-1.0-300.0","0","0","30774","","null","","","null","33","NaN","","","","","","","","","","","","","","",""
"","S2","","html-keyboard-response","222","268935","0.0-1.0-301.0","0","0","30774","","null","","","null","33","","NaN","","","","","","","","","","","","","",""
"","response","","html-keyboard-response","223","270023","0.0-1.0-302.0-0.0","0","0","30774","","1085","","","68","33","","","1","33","training","adjacent","CB","3","2","N.jpg","M.jpg","1","0","0","",""
"","feedback","","html-keyboard-response","224","271028","0.0-1.0-303.0-0.0","0","0","30774","","null","","","null","33","","","","","","","","","","","","","","","",""
"","time_out","","html-keyboard-response","225","273033","0.0-1.0-305.0-0.0","0","0","30774","","null","","","null","33","","","","","","","","","","","","","","","",""
"","ITI","","html-keyboard-response","226","274038","0.0-1.0-306.0","0","0","30774","","null","","","null","33","","","","","","","","","","","","","","","NaN",""
"","S1","","html-keyboard-response","227","274193","0.0-1.0-308.0","0","0","30774","","null","","","null","34","","","","","","","","","","","","","","","",""
"","ISI","","html-keyboard-response","228","276197","0.0-1.0-309.0","0","0","30774","","null","","","null","34","NaN","","","","","","","","","","","","","","",""
"","S2","","html-keyboard-response","229","276353","0.0-1.0-310.0","0","0","30774","","null","","","null","34","","NaN","","","","","","","","","","","","","",""
"","response","","html-keyboard-response","230","276911","0.0-1.0-311.0-0.0","0","0","30774","","554","","","75","34","","","1","34","training","adjacent","BA","2","1","M.jpg","Q.jpg","0","0","1","",""
"","feedback","","html-keyboard-response","231","277922","0.0-1.0-312.0-0.0","0","0","30774","","null","","","null","34","","","","","","","","","","","","","","","",""
"","ITI","","html-keyboard-response","232","278927","0.0-1.0-315.0","0","0","30774","","null","","","null","34","","","","","","","","","","","","","","","NaN",""
"","S1","","html-keyboard-response","233","279081","0.0-1.0-317.0","0","0","30774","","null","","","null","35","","","","","","","","","","","","","","","",""
"","ISI","","html-keyboard-response","234","281093","0.0-1.0-318.0","0","0","30774","","null","","","null","35","NaN","","","","","","","","","","","","","","",""
"","S2","","html-keyboard-response","235","281248","0.0-1.0-319.0","0","0","30774","","null","","","null","35","","NaN","","","","","","","","","","","","","",""
"","response","","html-keyboard-response","236","281965","0.0-1.0-320.0-0.0","0","0","30774","","713","","","68","35","","","1","35","training","adjacent","DC","4","3","L.jpg","N.jpg","1","0","0","",""
"","feedback","","html-keyboard-response","237","282969","0.0-1.0-321.0-0.0","0","0","30774","","null","","","null","35","","","","","","","","","","","","","","","",""
"","time_out","","html-keyboard-response","238","284973","0.0-1.0-323.0-0.0","0","0","30774","","null","","","null","35","","","","","","","","","","","","","","","",""
"","ITI","","html-keyboard-response","239","285978","0.0-1.0-324.0","0","0","30774","","null","","","null","35","","","","","","","","","","","","","","","NaN",""
"","S1","","html-keyboard-response","240","286132","0.0-1.0-326.0","0","0","30774","","null","","","null","36","","","","","","","","","","","","","","","",""
"","ISI","","html-keyboard-response","241","288136","0.0-1.0-327.0","0","0","30774","","null","","","null","36","NaN","","","","","","","","","","","","","","",""
"","S2","","html-keyboard-response","242","288291","0.0-1.0-328.0","0","0","30774","","null","","","null","36","","NaN","","","","","","","","","","","","","",""
"","response","","html-keyboard-response","243","288812","0.0-1.0-329.0-0.0","0","0","30774","","518","","","75","36","","","1","36","training","adjacent","CD","3","4","N.jpg","L.jpg","0","1","0","",""
"","feedback","","html-keyboard-response","244","289818","0.0-1.0-330.0-0.0","0","0","30774","","null","","","null","36","","","","","","","","","","","","","","","",""
"","time_out","","html-keyboard-response","245","291822","0.0-1.0-332.0-0.0","0","0","30774","","null","","","null","36","","","","","","","","","","","","","","","",""
"","ITI","","html-keyboard-response","246","292827","0.0-1.0-333.0","0","0","30774","","null","","","null","36","","","","","","","","","","","","","","","NaN",""
"","S1","","html-keyboard-response","247","292981","0.0-1.0-335.0","0","0","30774","","null","","","null","37","","","","","","","","","","","","","","","",""
"","ISI","","html-keyboard-response","248","294985","0.0-1.0-336.0","0","0","30774","","null","","","null","37","NaN","","","","","","","","","","","","","","",""
"","S2","","html-keyboard-response","249","295141","0.0-1.0-337.0","0","0","30774","","null","","","null","37","","NaN","","","","","","","","","","","","","",""
"","response","","html-keyboard-response","250","295764","0.0-1.0-338.0-0.0","0","0","30774","","620","","","68","37","","","1","37","training","adjacent","FE","6","5","R.jpg","O.jpg","1","0","0","",""
"","feedback","","html-keyboard-response","251","296771","0.0-1.0-339.0-0.0","0","0","30774","","null","","","null","37","","","","","","","","","","","","","","","",""
"","time_out","","html-keyboard-response","252","298776","0.0-1.0-341.0-0.0","0","0","30774","","null","","","null","37","","","","","","","","","","","","","","","",""
"","ITI","","html-keyboard-response","253","299780","0.0-1.0-342.0","0","0","30774","","null","","","null","37","","","","","","","","","","","","","","","NaN",""
"","S1","","html-keyboard-response","254","299934","0.0-1.0-344.0","0","0","30774","","null","","","null","38","","","","","","","","","","","","","","","",""
"","ISI","","html-keyboard-response","255","301939","0.0-1.0-345.0","0","0","30774","","null","","","null","38","NaN","","","","","","","","","","","","","","",""
"","S2","","html-keyboard-response","256","302093","0.0-1.0-346.0","0","0","30774","","null","","","null","38","","NaN","","","","","","","","","","","","","",""
"","response","","html-keyboard-response","257","302845","0.0-1.0-347.0-0.0","0","0","30774","","748","","","75","38","","","1","38","training","adjacent","GF","7","6","P.jpg","R.jpg","0","0","1","",""
"","feedback","","html-keyboard-response","258","303849","0.0-1.0-348.0-0.0","0","0","30774","","null","","","null","38","","","","","","","","","","","","","","","",""
"","ITI","","html-keyboard-response","259","304854","0.0-1.0-351.0","0","0","30774","","null","","","null","38","","","","","","","","","","","","","","","NaN",""
"","S1","","html-keyboard-response","260","305008","0.0-1.0-353.0","0","0","30774","","null","","","null","39","","","","","","","","","","","","","","","",""
"","ISI","","html-keyboard-response","261","307012","0.0-1.0-354.0","0","0","30774","","null","","","null","39","NaN","","","","","","","","","","","","","","",""
"","S2","","html-keyboard-response","262","307167","0.0-1.0-355.0","0","0","30774","","null","","","null","39","","NaN","","","","","","","","","","","","","",""
"","response","","html-keyboard-response","263","308051","0.0-1.0-356.0-0.0","0","0","30774","","880","","","75","39","","","1","39","training","adjacent","ED","5","4","O.jpg","L.jpg","0","0","1","",""
"","feedback","","html-keyboard-response","264","309056","0.0-1.0-357.0-0.0","0","0","30774","","null","","","null","39","","","","","","","","","","","","","","","",""
"","ITI","","html-keyboard-response","265","310060","0.0-1.0-360.0","0","0","30774","","null","","","null","39","","","","","","","","","","","","","","","NaN",""
"","S1","","html-keyboard-response","266","310214","0.0-1.0-362.0","0","0","30774","","null","","","null","40","","","","","","","","","","","","","","","",""
"","ISI","","html-keyboard-response","267","312219","0.0-1.0-363.0","0","0","30774","","null","","","null","40","NaN","","","","","","","","","","","","","","",""
"","S2","","html-keyboard-response","268","312374","0.0-1.0-364.0","0","0","30774","","null","","","null","40","","NaN","","","","","","","","","","","","","",""
"","response","","html-keyboard-response","269","312830","0.0-1.0-365.0-0.0","0","0","30774","","452","","","68","40","","","1","40","training","adjacent","BC","2","3","M.jpg","N.jpg","1","1","1","",""
"","feedback","","html-keyboard-response","270","313835","0.0-1.0-366.0-0.0","0","0","30774","","null","","","null","40","","","","","","","","","","","","","","","",""
"","ITI","","html-keyboard-response","271","314839","0.0-1.0-369.0","0","0","30774","","null","","","null","40","","","","","","","","","","","","","","","NaN",""
"","S1","","html-keyboard-response","272","314994","0.0-1.0-371.0","0","0","30774","","null","","","null","41","","","","","","","","","","","","","","","",""
"","ISI","","html-keyboard-response","273","316998","0.0-1.0-372.0","0","0","30774","","null","","","null","41","NaN","","","","","","","","","","","","","","",""
"","S2","","html-keyboard-response","274","317153","0.0-1.0-373.0","0","0","30774","","null","","","null","41","","NaN","","","","","","","","","","","","","",""
"","response","","html-keyboard-response","275","317582","0.0-1.0-374.0-0.0","0","0","30774","","426","","","68","41","","","1","41","training","adjacent","EF","5","6","O.jpg","R.jpg","1","1","1","",""
"","feedback","","html-keyboard-response","276","318588","0.0-1.0-375.0-0.0","0","0","30774","","null","","","null","41","","","","","","","","","","","","","","","",""
"","ITI","","html-keyboard-response","277","319593","0.0-1.0-378.0","0","0","30774","","null","","","null","41","","","","","","","","","","","","","","","NaN",""
"","S1","","html-keyboard-response","278","319748","0.0-1.0-380.0","0","0","30774","","null","","","null","42","","","","","","","","","","","","","","","",""
"","ISI","","html-keyboard-response","279","321756","0.0-1.0-381.0","0","0","30774","","null","","","null","42","NaN","","","","","","","","","","","","","","",""
"","S2","","html-keyboard-response","280","321911","0.0-1.0-382.0","0","0","30774","","null","","","null","42","","NaN","","","","","","","","","","","","","",""
"","response","","html-keyboard-response","281","322404","0.0-1.0-383.0-0.0","0","0","30774","","489","","","68","42","","","1","42","training","adjacent","EF","5","6","O.jpg","R.jpg","1","1","1","",""
"","feedback","","html-keyboard-response","282","323408","0.0-1.0-384.0-0.0","0","0","30774","","null","","","null","42","","","","","","","","","","","","","","","",""
"","ITI","","html-keyboard-response","283","324412","0.0-1.0-387.0","0","0","30774","","null","","","null","42","","","","","","","","","","","","","","","NaN",""
"","S1","","html-keyboard-response","284","324567","0.0-1.0-389.0","0","0","30774","","null","","","null","43","","","","","","","","","","","","","","","",""
"","ISI","","html-keyboard-response","285","326570","0.0-1.0-390.0","0","0","30774","","null","","","null","43","NaN","","","","","","","","","","","","","","",""
"","S2","","html-keyboard-response","286","326725","0.0-1.0-391.0","0","0","30774","","null","","","null","43","","NaN","","","","","","","","","","","","","",""
"","response","","html-keyboard-response","287","328579","0.0-1.0-392.0-0.0","0","0","30774","","null","","","null","43","","","1","43","training","adjacent","GF","7","6","P.jpg","R.jpg","NaN","0","0","",""
"","too_slow_prompt","","html-keyboard-response","288","329583","0.0-1.0-394.0-0.0","1","0","30774","","null","","","null","","","","","","","","","","","","","","","","",""
"","time_out","","html-keyboard-response","289","331588","0.0-1.0-395.0-0.0","0","0","30774","","null","","","null","43","","","","","","","","","","","","","","","",""
"","ITI","","html-keyboard-response","290","332592","0.0-1.0-396.0","0","0","30774","","null","","","null","43","","","","","","","","","","","","","","","NaN",""
"","S1","","html-keyboard-response","291","332747","0.0-1.0-398.0","0","0","30774","","null","","","null","44","","","","","","","","","","","","","","","",""
"","ISI","","html-keyboard-response","292","334751","0.0-1.0-399.0","0","0","30774","","null","","","null","44","NaN","","","","","","","","","","","","","","",""
"","S2","","html-keyboard-response","293","334906","0.0-1.0-400.0","0","0","30774","","null","","","null","44","","NaN","","","","","","","","","","","","","",""
"","response","","html-keyboard-response","294","335406","0.0-1.0-401.0-0.0","0","0","30774","","493","","","68","44","","","1","44","training","adjacent","CD","3","4","N.jpg","L.jpg","1","1","1","",""
"","feedback","","html-keyboard-response","295","336410","0.0-1.0-402.0-0.0","0","0","30774","","null","","","null","44","","","","","","","","","","","","","","","",""
"","ITI","","html-keyboard-response","296","337416","0.0-1.0-405.0","0","0","30774","","null","","","null","44","","","","","","","","","","","","","","","NaN",""
"","S1","","html-keyboard-response","297","337571","0.0-1.0-407.0","0","0","30774","","null","","","null","45","","","","","","","","","","","","","","","",""
"","ISI","","html-keyboard-response","298","339575","0.0-1.0-408.0","0","0","30774","","null","","","null","45","NaN","","","","","","","","","","","","","","",""
"","S2","","html-keyboard-response","299","339730","0.0-1.0-409.0","0","0","30774","","null","","","null","45","","NaN","","","","","","","","","","","","","",""
"","response","","html-keyboard-response","300","340405","0.0-1.0-410.0-0.0","0","0","30774","","668","","","68","45","","","1","45","training","adjacent","GF","7","6","P.jpg","R.jpg","1","0","0","",""
"","feedback","","html-keyboard-response","301","341409","0.0-1.0-411.0-0.0","0","0","30774","","null","","","null","45","","","","","","","","","","","","","","","",""
"","time_out","","html-keyboard-response","302","343414","0.0-1.0-413.0-0.0","0","0","30774","","null","","","null","45","","","","","","","","","","","","","","","",""
"","ITI","","html-keyboard-response","303","344418","0.0-1.0-414.0","0","0","30774","","null","","","null","45","","","","","","","","","","","","","","","NaN",""
"","S1","","html-keyboard-response","304","344572","0.0-1.0-416.0","0","0","30774","","null","","","null","46","","","","","","","","","","","","","","","",""
"","ISI","","html-keyboard-response","305","346576","0.0-1.0-417.0","0","0","30774","","null","","","null","46","NaN","","","","","","","","","","","","","","",""
"","S2","","html-keyboard-response","306","346731","0.0-1.0-418.0","0","0","30774","","null","","","null","46","","NaN","","","","","","","","","","","","","",""
"","response","","html-keyboard-response","307","347165","0.0-1.0-419.0-0.0","0","0","30774","","430","","","75","46","","","1","46","training","adjacent","BA","2","1","M.jpg","Q.jpg","0","0","1","",""
"","feedback","","html-keyboard-response","308","348171","0.0-1.0-420.0-0.0","0","0","30774","","null","","","null","46","","","","","","","","","","","","","","","",""
"","ITI","","html-keyboard-response","309","349178","0.0-1.0-423.0","0","0","30774","","null","","","null","46","","","","","","","","","","","","","","","NaN",""
"","S1","","html-keyboard-response","310","349332","0.0-1.0-425.0","0","0","30774","","null","","","null","47","","","","","","","","","","","","","","","",""
"","ISI","","html-keyboard-response","311","351336","0.0-1.0-426.0","0","0","30774","","null","","","null","47","NaN","","","","","","","","","","","","","","",""
"","S2","","html-keyboard-response","312","351491","0.0-1.0-427.0","0","0","30774","","null","","","null","47","","NaN","","","","","","","","","","","","","",""
"","response","","html-keyboard-response","313","351944","0.0-1.0-428.0-0.0","0","0","30774","","449","","","75","47","","","1","47","training","adjacent","BA","2","1","M.jpg","Q.jpg","0","0","1","",""
"","feedback","","html-keyboard-response","314","352948","0.0-1.0-429.0-0.0","0","0","30774","","null","","","null","47","","","","","","","","","","","","","","","",""
"","ITI","","html-keyboard-response","315","353952","0.0-1.0-432.0","0","0","30774","","null","","","null","47","","","","","","","","","","","","","","","NaN",""
"","block_over","","html-keyboard-response","316","358734","0.0-1.0-433.0-0.0","0","0","30774","","4775","","","32","47","","","","","","","","","","","","","","","",""
"","S1","","html-keyboard-response","317","358889","0.0-1.0-434.0","0","0","30774","","null","","","null","48","","","","","","","","","","","","","","","",""
"","ISI","","html-keyboard-response","318","360894","0.0-1.0-435.0","0","0","30774","","null","","","null","48","NaN","","","","","","","","","","","","","","",""
"","S2","","html-keyboard-response","319","361048","0.0-1.0-436.0","0","0","30774","","null","","","null","48","","NaN","","","","","","","","","","","","","",""
"","response","","html-keyboard-response","320","361770","0.0-1.0-437.0-0.0","0","0","30774","","718","","","68","48","","","2","48","training","adjacent","FG","6","7","R.jpg","P.jpg","1","1","1","",""
"","feedback","","html-keyboard-response","321","362778","0.0-1.0-438.0-0.0","0","0","30774","","null","","","null","48","","","","","","","","","","","","","","","",""
"","ITI","","html-keyboard-response","322","363783","0.0-1.0-441.0","0","0","30774","","null","","","null","48","","","","","","","","","","","","","","","NaN",""
"","S1","","html-keyboard-response","323","363938","0.0-1.0-443.0","0","0","30774","","null","","","null","49","","","","","","","","","","","","","","","",""
"","ISI","","html-keyboard-response","324","365942","0.0-1.0-444.0","0","0","30774","","null","","","null","49","NaN","","","","","","","","","","","","","","",""
"","S2","","html-keyboard-response","325","366096","0.0-1.0-445.0","0","0","30774","","null","","","null","49","","NaN","","","","","","","","","","","","","",""
"","response","","html-keyboard-response","326","366494","0.0-1.0-446.0-0.0","0","0","30774","","394","","","68","49","","","2","49","training","adjacent","FG","6","7","R.jpg","P.jpg","1","1","1","",""
"","feedback","","html-keyboard-response","327","367499","0.0-1.0-447.0-0.0","0","0","30774","","null","","","null","49","","","","","","","","","","","","","","","",""
"","ITI","","html-keyboard-response","328","368504","0.0-1.0-450.0","0","0","30774","","null","","","null","49","","","","","","","","","","","","","","","NaN",""
"","S1","","html-keyboard-response","329","368658","0.0-1.0-452.0","0","0","30774","","null","","","null","50","","","","","","","","","","","","","","","",""
"","ISI","","html-keyboard-response","330","370662","0.0-1.0-453.0","0","0","30774","","null","","","null","50","NaN","","","","","","","","","","","","","","",""
"","S2","","html-keyboard-response","331","370817","0.0-1.0-454.0","0","0","30774","","null","","","null","50","","NaN","","","","","","","","","","","","","",""
"","response","","html-keyboard-response","332","371205","0.0-1.0-455.0-0.0","0","0","30774","","384","","","75","50","","","2","50","training","adjacent","DC","4","3","L.jpg","N.jpg","0","0","1","",""
"","feedback","","html-keyboard-response","333","372210","0.0-1.0-456.0-0.0","0","0","30774","","null","","","null","50","","","","","","","","","","","","","","","",""
"","ITI","","html-keyboard-response","334","373215","0.0-1.0-459.0","0","0","30774","","null","","","null","50","","","","","","","","","","","","","","","NaN",""
"","S1","","html-keyboard-response","335","373369","0.0-1.0-461.0","0","0","30774","","null","","","null","51","","","","","","","","","","","","","","","",""
"","ISI","","html-keyboard-response","336","375373","0.0-1.0-462.0","0","0","30774","","null","","","null","51","NaN","","","","","","","","","","","","","","",""
"","S2","","html-keyboard-response","337","375528","0.0-1.0-463.0","0","0","30774","","null","","","null","51","","NaN","","","","","","","","","","","","","",""
"","response","","html-keyboard-response","338","375919","0.0-1.0-464.0-0.0","0","0","30774","","387","","","68","51","","","2","51","training","adjacent","DC","4","3","L.jpg","N.jpg","1","0","0","",""
"","feedback","","html-keyboard-response","339","376923","0.0-1.0-465.0-0.0","0","0","30774","","null","","","null","51","","","","","","","","","","","","","","","",""
"","time_out","","html-keyboard-response","340","378927","0.0-1.0-467.0-0.0","0","0","30774","","null","","","null","51","","","","","","","","","","","","","","","",""
"","ITI","","html-keyboard-response","341","379932","0.0-1.0-468.0","0","0","30774","","null","","","null","51","","","","","","","","","","","","","","","NaN",""
"","S1","","html-keyboard-response","342","380087","0.0-1.0-470.0","0","0","30774","","null","","","null","52","","","","","","","","","","","","","","","",""
"","ISI","","html-keyboard-response","343","382091","0.0-1.0-471.0","0","0","30774","","null","","","null","52","NaN","","","","","","","","","","","","","","",""
"","S2","","html-keyboard-response","344","382247","0.0-1.0-472.0","0","0","30774","","null","","","null","52","","NaN","","","","","","","","","","","","","",""
"","response","","html-keyboard-response","345","382756","0.0-1.0-473.0-0.0","0","0","30774","","505","","","68","52","","","2","52","training","adjacent","ED","5","4","O.jpg","L.jpg","1","0","0","",""
"","feedback","","html-keyboard-response","346","383762","0.0-1.0-474.0-0.0","0","0","30774","","null","","","null","52","","","","","","","","","","","","","","","",""
"","time_out","","html-keyboard-response","347","385765","0.0-1.0-476.0-0.0","0","0","30774","","null","","","null","52","","","","","","","","","","","","","","","",""
"","ITI","","html-keyboard-response","348","386770","0.0-1.0-477.0","0","0","30774","","null","","","null","52","","","","","","","","","","","","","","","NaN",""
"","S1","","html-keyboard-response","349","386924","0.0-1.0-479.0","0","0","30774","","null","","","null","53","","","","","","","","","","","","","","","",""
"","ISI","","html-keyboard-response","350","388929","0.0-1.0-480.0","0","0","30774","","null","","","null","53","NaN","","","","","","","","","","","","","","",""
"","S2","","html-keyboard-response","351","389084","0.0-1.0-481.0","0","0","30774","","null","","","null","53","","NaN","","","","","","","","","","","","","",""
"","response","","html-keyboard-response","352","389631","0.0-1.0-482.0-0.0","0","0","30774","","544","","","68","53","","","2","53","training","adjacent","DE","4","5","L.jpg","O.jpg","1","1","1","",""
"","feedback","","html-keyboard-response","353","390637","0.0-1.0-483.0-0.0","0","0","30774","","null","","","null","53","","","","","","","","","","","","","","","",""
"","ITI","","html-keyboard-response","354","391642","0.0-1.0-486.0","0","0","30774","","null","","","null","53","","","","","","","","","","","","","","","NaN",""
"","S1","","html-keyboard-response","355","391796","0.0-1.0-488.0","0","0","30774","","null","","","null","54","","","","","","","","","","","","","","","",""
"","ISI","","html-keyboard-response","356","393800","0.0-1.0-489.0","0","0","30774","","null","","","null","54","NaN","","","","","","","","","","","","","","",""
"","S2","","html-keyboard-response","357","393955","0.0-1.0-490.0","0","0","30774","","null","","","null","54","","NaN","","","","","","","","","","","","","",""
"","response","","html-keyboard-response","358","394099","0.0-1.0-491.0-0.0","0","0","30774","","140","","","68","54","","","2","54","training","adjacent","AB","1","2","Q.jpg","M.jpg","1","1","1","",""
"","feedback","","html-keyboard-response","359","395104","0.0-1.0-492.0-0.0","0","0","30774","","null","","","null","54","","","","","","","","","","","","","","","",""
"","ITI","","html-keyboard-response","360","396112","0.0-1.0-495.0","0","0","30774","","null","","","null","54","","","","","","","","","","","","","","","NaN",""
"","S1","","html-keyboard-response","361","396267","0.0-1.0-497.0","0","0","30774","","null","","","null","55","","","","","","","","","","","","","","","",""
"","ISI","","html-keyboard-response","362","398271","0.0-1.0-498.0","0","0","30774","","null","","","null","55","NaN","","","","","","","","","","","","","","",""
"","S2","","html-keyboard-response","363","398425","0.0-1.0-499.0","0","0","30774","","null","","","null","55","","NaN","","","","","","","","","","","","","",""
"","response","","html-keyboard-response","364","399036","0.0-1.0-500.0-0.0","0","0","30774","","606","","","75","55","","","2","55","training","adjacent","FE","6","5","R.jpg","O.jpg","0","0","1","",""
"","feedback","","html-keyboard-response","365","400041","0.0-1.0-501.0-0.0","0","0","30774","","null","","","null","55","","","","","","","","","","","","","","","",""
"","ITI","","html-keyboard-response","366","401046","0.0-1.0-504.0","0","0","30774","","null","","","null","55","","","","","","","","","","","","","","","NaN",""
"","S1","","html-keyboard-response","367","401201","0.0-1.0-506.0","0","0","30774","","null","","","null","56","","","","","","","","","","","","","","","",""
"","ISI","","html-keyboard-response","368","403206","0.0-1.0-507.0","0","0","30774","","null","","","null","56","NaN","","","","","","","","","","","","","","",""
"","S2","","html-keyboard-response","369","403362","0.0-1.0-508.0","0","0","30774","","null","","","null","56","","NaN","","","","","","","","","","","","","",""
"","response","","html-keyboard-response","370","403827","0.0-1.0-509.0-0.0","0","0","30774","","461","","","68","56","","","2","56","training","adjacent","CB","3","2","N.jpg","M.jpg","1","0","0","",""
"","feedback","","html-keyboard-response","371","404832","0.0-1.0-510.0-0.0","0","0","30774","","null","","","null","56","","","","","","","","","","","","","","","",""
"","time_out","","html-keyboard-response","372","406836","0.0-1.0-512.0-0.0","0","0","30774","","null","","","null","56","","","","","","","","","","","","","","","",""
"","ITI","","html-keyboard-response","373","407841","0.0-1.0-513.0","0","0","30774","","null","","","null","56","","","","","","","","","","","","","","","NaN",""
"","S1","","html-keyboard-response","374","407996","0.0-1.0-515.0","0","0","30774","","null","","","null","57","","","","","","","","","","","","","","","",""
"","ISI","","html-keyboard-response","375","410000","0.0-1.0-516.0","0","0","30774","","null","","","null","57","NaN","","","","","","","","","","","","","","",""
"","S2","","html-keyboard-response","376","410155","0.0-1.0-517.0","0","0","30774","","null","","","null","57","","NaN","","","","","","","","","","","","","",""
"","response","","html-keyboard-response","377","410522","0.0-1.0-518.0-0.0","0","0","30774","","363","","","68","57","","","2","57","training","adjacent","CB","3","2","N.jpg","M.jpg","1","0","0","",""
"","feedback","","html-keyboard-response","378","411528","0.0-1.0-519.0-0.0","0","0","30774","","null","","","null","57","","","","","","","","","","","","","","","",""
"","time_out","","html-keyboard-response","379","413532","0.0-1.0-521.0-0.0","0","0","30774","","null","","","null","57","","","","","","","","","","","","","","","",""
"","ITI","","html-keyboard-response","380","414536","0.0-1.0-522.0","0","0","30774","","null","","","null","57","","","","","","","","","","","","","","","NaN",""
"","S1","","html-keyboard-response","381","414690","0.0-1.0-524.0","0","0","30774","","null","","","null","58","","","","","","","","","","","","","","","",""
"","ISI","","html-keyboard-response","382","416695","0.0-1.0-525.0","0","0","30774","","null","","","null","58","NaN","","","","","","","","","","","","","","",""
"","S2","","html-keyboard-response","383","416849","0.0-1.0-526.0","0","0","30774","","null","","","null","58","","NaN","","","","","","","","","","","","","",""
"","response","","html-keyboard-response","384","417602","0.0-1.0-527.0-0.0","0","0","30774","","749","","","75","58","","","2","58","training","adjacent","GF","7","6","P.jpg","R.jpg","0","0","1","",""
"","feedback","","html-keyboard-response","385","418607","0.0-1.0-528.0-0.0","0","0","30774","","null","","","null","58","","","","","","","","","","","","","","","",""
"","ITI","","html-keyboard-response","386","419612","0.0-1.0-531.0","0","0","30774","","null","","","null","58","","","","","","","","","","","","","","","NaN",""
"","S1","","html-keyboard-response","387","419766","0.0-1.0-533.0","0","0","30774","","null","","","null","59","","","","","","","","","","","","","","","",""
"","ISI","","html-keyboard-response","388","421770","0.0-1.0-534.0","0","0","30774","","null","","","null","59","NaN","","","","","","","","","","","","","","",""
"","S2","","html-keyboard-response","389","421926","0.0-1.0-535.0","0","0","30774","","null","","","null","59","","NaN","","","","","","","","","","","","","",""
"","response","","html-keyboard-response","390","422597","0.0-1.0-536.0-0.0","0","0","30774","","668","","","68","59","","","2","59","training","adjacent","BC","2","3","M.jpg","N.jpg","1","1","1","",""
"","feedback","","html-keyboard-response","391","423602","0.0-1.0-537.0-0.0","0","0","30774","","null","","","null","59","","","","","","","","","","","","","","","",""
"","ITI","","html-keyboard-response","392","424608","0.0-1.0-540.0","0","0","30774","","null","","","null","59","","","","","","","","","","","","","","","NaN",""
"","S1","","html-keyboard-response","393","424765","0.0-1.0-542.0","0","0","30774","","null","","","null","60","","","","","","","","","","","","","","","",""
"","ISI","","html-keyboard-response","394","426769","0.0-1.0-543.0","0","0","30774","","null","","","null","60","NaN","","","","","","","","","","","","","","",""
"","S2","","html-keyboard-response","395","426924","0.0-1.0-544.0","0","0","30774","","null","","","null","60","","NaN","","","","","","","","","","","","","",""
"","response","","html-keyboard-response","396","427227","0.0-1.0-545.0-0.0","0","0","30774","","298","","","75","60","","","2","60","training","adjacent","CD","3","4","N.jpg","L.jpg","0","1","0","",""
"","feedback","","html-keyboard-response","397","428231","0.0-1.0-546.0-0.0","0","0","30774","","null","","","null","60","","","","","","","","","","","","","","","",""
"","time_out","","html-keyboard-response","398","430238","0.0-1.0-548.0-0.0","0","0","30774","","null","","","null","60","","","","","","","","","","","","","","","",""
"","ITI","","html-keyboard-response","399","431243","0.0-1.0-549.0","0","0","30774","","null","","","null","60","","","","","","","","","","","","","","","NaN",""
"","S1","","html-keyboard-response","400","431398","0.0-1.0-551.0","0","0","30774","","null","","","null","61","","","","","","","","","","","","","","","",""
"","ISI","","html-keyboard-response","401","433403","0.0-1.0-552.0","0","0","30774","","null","","","null","61","NaN","","","","","","","","","","","","","","",""
"","S2","","html-keyboard-response","402","433560","0.0-1.0-553.0","0","0","30774","","null","","","null","61","","NaN","","","","","","","","","","","","","",""
"","response","","html-keyboard-response","403","434315","0.0-1.0-554.0-0.0","0","0","30774","","751","","","75","61","","","2","61","training","adjacent","BC","2","3","M.jpg","N.jpg","0","1","0","",""
"","feedback","","html-keyboard-response","404","435321","0.0-1.0-555.0-0.0","0","0","30774","","null","","","null","61","","","","","","","","","","","","","","","",""
"","time_out","","html-keyboard-response","405","437326","0.0-1.0-557.0-0.0","0","0","30774","","null","","","null","61","","","","","","","","","","","","","","","",""
"","ITI","","html-keyboard-response","406","438330","0.0-1.0-558.0","0","0","30774","","null","","","null","61","","","","","","","","","","","","","","","NaN",""
"","S1","","html-keyboard-response","407","438485","0.0-1.0-560.0","0","0","30774","","null","","","null","62","","","","","","","","","","","","","","","",""
"","ISI","","html-keyboard-response","408","440489","0.0-1.0-561.0","0","0","30774","","null","","","null","62","NaN","","","","","","","","","","","","","","",""
"","S2","","html-keyboard-response","409","440644","0.0-1.0-562.0","0","0","30774","","null","","","null","62","","NaN","","","","","","","","","","","","","",""
"","response","","html-keyboard-response","410","441064","0.0-1.0-563.0-0.0","0","0","30774","","417","","","68","62","","","2","62","training","adjacent","FE","6","5","R.jpg","O.jpg","1","0","0","",""
"","feedback","","html-keyboard-response","411","442069","0.0-1.0-564.0-0.0","0","0","30774","","null","","","null","62","","","","","","","","","","","","","","","",""
"","time_out","","html-keyboard-response","412","444074","0.0-1.0-566.0-0.0","0","0","30774","","null","","","null","62","","","","","","","","","","","","","","","",""
"","ITI","","html-keyboard-response","413","445079","0.0-1.0-567.0","0","0","30774","","null","","","null","62","","","","","","","","","","","","","","","NaN",""
"","S1","","html-keyboard-response","414","445233","0.0-1.0-569.0","0","0","30774","","null","","","null","63","","","","","","","","","","","","","","","",""
"","ISI","","html-keyboard-response","415","447238","0.0-1.0-570.0","0","0","30774","","null","","","null","63","NaN","","","","","","","","","","","","","","",""
"","S2","","html-keyboard-response","416","447392","0.0-1.0-571.0","0","0","30774","","null","","","null","63","","NaN","","","","","","","","","","","","","",""
"","response","","html-keyboard-response","417","448383","0.0-1.0-572.0-0.0","0","0","30774","","987","","","68","63","","","2","63","training","adjacent","EF","5","6","O.jpg","R.jpg","1","1","1","",""
"","feedback","","html-keyboard-response","418","449395","0.0-1.0-573.0-0.0","0","0","30774","","null","","","null","63","","","","","","","","","","","","","","","",""
"","ITI","","html-keyboard-response","419","450400","0.0-1.0-576.0","0","0","30774","","null","","","null","63","","","","","","","","","","","","","","","NaN",""
"","S1","","html-keyboard-response","420","450554","0.0-1.0-578.0","0","0","30774","","null","","","null","64","","","","","","","","","","","","","","","",""
"","ISI","","html-keyboard-response","421","452558","0.0-1.0-579.0","0","0","30774","","null","","","null","64","NaN","","","","","","","","","","","","","","",""
"","S2","","html-keyboard-response","422","452713","0.0-1.0-580.0","0","0","30774","","null","","","null","64","","NaN","","","","","","","","","","","","","",""
"","response","","html-keyboard-response","423","453047","0.0-1.0-581.0-0.0","0","0","30774","","330","","","75","64","","","2","64","training","adjacent","BC","2","3","M.jpg","N.jpg","0","1","0","",""
"","feedback","","html-keyboard-response","424","454052","0.0-1.0-582.0-0.0","0","0","30774","","null","","","null","64","","","","","","","","","","","","","","","",""
"","time_out","","html-keyboard-response","425","456056","0.0-1.0-584.0-0.0","0","0","30774","","null","","","null","64","","","","","","","","","","","","","","","",""
"","ITI","","html-keyboard-response","426","457062","0.0-1.0-585.0","0","0","30774","","null","","","null","64","","","","","","","","","","","","","","","NaN",""
"","S1","","html-keyboard-response","427","457217","0.0-1.0-587.0","0","0","30774","","null","","","null","65","","","","","","","","","","","","","","","",""
"","ISI","","html-keyboard-response","428","459221","0.0-1.0-588.0","0","0","30774","","null","","","null","65","NaN","","","","","","","","","","","","","","",""
"","S2","","html-keyboard-response","429","459377","0.0-1.0-589.0","0","0","30774","","null","","","null","65","","NaN","","","","","","","","","","","","","",""
"","response","","html-keyboard-response","430","459813","0.0-1.0-590.0-0.0","0","0","30774","","433","","","75","65","","","2","65","training","adjacent","BA","2","1","M.jpg","Q.jpg","0","0","1","",""
"","feedback","","html-keyboard-response","431","460818","0.0-1.0-591.0-0.0","0","0","30774","","null","","","null","65","","","","","","","","","","","","","","","",""
"","ITI","","html-keyboard-response","432","461822","0.0-1.0-594.0","0","0","30774","","null","","","null","65","","","","","","","","","","","","","","","NaN",""
"","S1","","html-keyboard-response","433","461977","0.0-1.0-596.0","0","0","30774","","null","","","null","66","","","","","","","","","","","","","","","",""
"","ISI","","html-keyboard-response","434","463988","0.0-1.0-597.0","0","0","30774","","null","","","null","66","NaN","","","","","","","","","","","","","","",""
"","S2","","html-keyboard-response","435","464142","0.0-1.0-598.0","0","0","30774","","null","","","null","66","","NaN","","","","","","","","","","","","","",""
"","response","","html-keyboard-response","436","465191","0.0-1.0-599.0-0.0","0","0","30774","","1044","","","75","66","","","2","66","training","adjacent","FG","6","7","R.jpg","P.jpg","0","1","0","",""
"","feedback","","html-keyboard-response","437","466196","0.0-1.0-600.0-0.0","0","0","30774","","null","","","null","66","","","","","","","","","","","","","","","",""
"","time_out","","html-keyboard-response","438","468200","0.0-1.0-602.0-0.0","0","0","30774","","null","","","null","66","","","","","","","","","","","","","","","",""
"","ITI","","html-keyboard-response","439","469204","0.0-1.0-603.0","0","0","30774","","null","","","null","66","","","","","","","","","","","","","","","NaN",""
"","S1","","html-keyboard-response","440","469362","0.0-1.0-605.0","0","0","30774","","null","","","null","67","","","","","","","","","","","","","","","",""
"","ISI","","html-keyboard-response","441","471365","0.0-1.0-606.0","0","0","30774","","null","","","null","67","NaN","","","","","","","","","","","","","","",""
"","S2","","html-keyboard-response","442","471520","0.0-1.0-607.0","0","0","30774","","null","","","null","67","","NaN","","","","","","","","","","","","","",""
"","response","","html-keyboard-response","443","471999","0.0-1.0-608.0-0.0","0","0","30774","","475","","","68","67","","","2","67","training","adjacent","FE","6","5","R.jpg","O.jpg","1","0","0","",""
"","feedback","","html-keyboard-response","444","473003","0.0-1.0-609.0-0.0","0","0","30774","","null","","","null","67","","","","","","","","","","","","","","","",""
"","time_out","","html-keyboard-response","445","475008","0.0-1.0-611.0-0.0","0","0","30774","","null","","","null","67","","","","","","","","","","","","","","","",""
"","ITI","","html-keyboard-response","446","476013","0.0-1.0-612.0","0","0","30774","","null","","","null","67","","","","","","","","","","","","","","","NaN",""
"","S1","","html-keyboard-response","447","476169","0.0-1.0-614.0","0","0","30774","","null","","","null","68","","","","","","","","","","","","","","","",""
"","ISI","","html-keyboard-response","448","478174","0.0-1.0-615.0","0","0","30774","","1327","","","75","68","k","","","","","","","","","","","","","","",""
"","S2","","html-keyboard-response","449","478329","0.0-1.0-616.0","0","0","30774","","null","","","null","68","","NaN","","","","","","","","","","","","","",""
"","response","","html-keyboard-response","450","478761","0.0-1.0-617.0-0.0","0","0","30774","","429","","","68","68","","","2","68","training","adjacent","ED","5","4","O.jpg","L.jpg","1","0","0","",""
"","feedback","","html-keyboard-response","451","479767","0.0-1.0-618.0-0.0","0","0","30774","","null","","","null","68","","","","","","","","","","","","","","","",""
"","time_out","","html-keyboard-response","452","481771","0.0-1.0-620.0-0.0","0","0","30774","","null","","","null","68","","","","","","","","","","","","","","","",""
"","ITI","","html-keyboard-response","453","482776","0.0-1.0-621.0","0","0","30774","","null","","","null","68","","","","","","","","","","","","","","","NaN",""
"","S1","","html-keyboard-response","454","482931","0.0-1.0-623.0","0","0","30774","","null","","","null","69","","","","","","","","","","","","","","","",""
"","ISI","","html-keyboard-response","455","484936","0.0-1.0-624.0","0","0","30774","","null","","","null","69","NaN","","","","","","","","","","","","","","",""
"","S2","","html-keyboard-response","456","485091","0.0-1.0-625.0","0","0","30774","","null","","","null","69","","NaN","","","","","","","","","","","","","",""
"","response","","html-keyboard-response","457","485680","0.0-1.0-626.0-0.0","0","0","30774","","585","","","75","69","","","2","69","training","adjacent","BC","2","3","M.jpg","N.jpg","0","1","0","",""
"","feedback","","html-keyboard-response","458","486686","0.0-1.0-627.0-0.0","0","0","30774","","null","","","null","69","","","","","","","","","","","","","","","",""
"","time_out","","html-keyboard-response","459","488690","0.0-1.0-629.0-0.0","0","0","30774","","null","","","null","69","","","","","","","","","","","","","","","",""
"","ITI","","html-keyboard-response","460","489694","0.0-1.0-630.0","0","0","30774","","null","","","null","69","","","","","","","","","","","","","","","NaN",""
"","S1","","html-keyboard-response","461","489848","0.0-1.0-632.0","0","0","30774","","null","","","null","70","","","","","","","","","","","","","","","",""
"","ISI","","html-keyboard-response","462","491852","0.0-1.0-633.0","0","0","30774","","651","","","68","70","d","","","","","","","","","","","","","","",""
"","S2","","html-keyboard-response","463","492008","0.0-1.0-634.0","0","0","30774","","null","","","null","70","","NaN","","","","","","","","","","","","","",""
"","response","","html-keyboard-response","464","492367","0.0-1.0-635.0-0.0","0","0","30774","","355","","","68","70","","","2","70","training","adjacent","FG","6","7","R.jpg","P.jpg","1","1","1","",""
"","feedback","","html-keyboard-response","465","493372","0.0-1.0-636.0-0.0","0","0","30774","","null","","","null","70","","","","","","","","","","","","","","","",""
"","ITI","","html-keyboard-response","466","494377","0.0-1.0-639.0","0","0","30774","","null","","","null","70","","","","","","","","","","","","","","","NaN",""
"","S1","","html-keyboard-response","467","494532","0.0-1.0-641.0","0","0","30774","","null","","","null","71","","","","","","","","","","","","","","","",""
"","ISI","","html-keyboard-response","468","496536","0.0-1.0-642.0","0","0","30774","","null","","","null","71","NaN","","","","","","","","","","","","","","",""
"","S2","","html-keyboard-response","469","496690","0.0-1.0-643.0","0","0","30774","","null","","","null","71","","NaN","","","","","","","","","","","","","",""
"","response","","html-keyboard-response","470","497401","0.0-1.0-644.0-0.0","0","0","30774","","707","","","68","71","","","2","71","training","adjacent","GF","7","6","P.jpg","R.jpg","1","0","0","",""
"","feedback","","html-keyboard-response","471","498406","0.0-1.0-645.0-0.0","0","0","30774","","null","","","null","71","","","","","","","","","","","","","","","",""
"","time_out","","html-keyboard-response","472","500411","0.0-1.0-647.0-0.0","0","0","30774","","null","","","null","71","","","","","","","","","","","","","","","",""
"","ITI","","html-keyboard-response","473","501417","0.0-1.0-648.0","0","0","30774","","null","","","null","71","","","","","","","","","","","","","","","NaN",""
"","S1","","html-keyboard-response","474","501572","0.0-1.0-650.0","0","0","30774","","null","","","null","72","","","","","","","","","","","","","","","",""
"","ISI","","html-keyboard-response","475","503576","0.0-1.0-651.0","0","0","30774","","null","","","null","72","NaN","","","","","","","","","","","","","","",""
"","S2","","html-keyboard-response","476","503732","0.0-1.0-652.0","0","0","30774","","null","","","null","72","","NaN","","","","","","","","","","","","","",""
"","response","","html-keyboard-response","477","504163","0.0-1.0-653.0-0.0","0","0","30774","","428","","","68","72","","","2","72","training","adjacent","EF","5","6","O.jpg","R.jpg","1","1","1","",""
"","feedback","","html-keyboard-response","478","505168","0.0-1.0-654.0-0.0","0","0","30774","","null","","","null","72","","","","","","","","","","","","","","","",""
"","ITI","","html-keyboard-response","479","506173","0.0-1.0-657.0","0","0","30774","","null","","","null","72","","","","","","","","","","","","","","","NaN",""
"","S1","","html-keyboard-response","480","506328","0.0-1.0-659.0","0","0","30774","","null","","","null","73","","","","","","","","","","","","","","","",""
"","ISI","","html-keyboard-response","481","508332","0.0-1.0-660.0","0","0","30774","","null","","","null","73","NaN","","","","","","","","","","","","","","",""
"","S2","","html-keyboard-response","482","508486","0.0-1.0-661.0","0","0","30774","","null","","","null","73","","NaN","","","","","","","","","","","","","",""
"","response","","html-keyboard-response","483","508814","0.0-1.0-662.0-0.0","0","0","30774","","324","","","75","73","","","2","73","training","adjacent","CB","3","2","N.jpg","M.jpg","0","0","1","",""
"","feedback","","html-keyboard-response","484","509819","0.0-1.0-663.0-0.0","0","0","30774","","null","","","null","73","","","","","","","","","","","","","","","",""
"","ITI","","html-keyboard-response","485","510824","0.0-1.0-666.0","0","0","30774","","null","","","null","73","","","","","","","","","","","","","","","NaN",""
"","S1","","html-keyboard-response","486","510980","0.0-1.0-668.0","0","0","30774","","null","","","null","74","","","","","","","","","","","","","","","",""
"","ISI","","html-keyboard-response","487","512984","0.0-1.0-669.0","0","0","30774","","null","","","null","74","NaN","","","","","","","","","","","","","","",""
"","S2","","html-keyboard-response","488","513141","0.0-1.0-670.0","0","0","30774","","null","","","null","74","","NaN","","","","","","","","","","","","","",""
"","response","","html-keyboard-response","489","513307","0.0-1.0-671.0-0.0","0","0","30774","","162","","","68","74","","","2","74","training","adjacent","AB","1","2","Q.jpg","M.jpg","1","1","1","",""
"","feedback","","html-keyboard-response","490","514312","0.0-1.0-672.0-0.0","0","0","30774","","null","","","null","74","","","","","","","","","","","","","","","",""
"","ITI","","html-keyboard-response","491","515316","0.0-1.0-675.0","0","0","30774","","null","","","null","74","","","","","","","","","","","","","","","NaN",""
"","S1","","html-keyboard-response","492","515471","0.0-1.0-677.0","0","0","30774","","null","","","null","75","","","","","","","","","","","","","","","",""
"","ISI","","html-keyboard-response","493","517475","0.0-1.0-678.0","0","0","30774","","null","","","null","75","NaN","","","","","","","","","","","","","","",""
"","S2","","html-keyboard-response","494","517629","0.0-1.0-679.0","0","0","30774","","null","","","null","75","","NaN","","","","","","","","","","","","","",""
"","response","","html-keyboard-response","495","518072","0.0-1.0-680.0-0.0","0","0","30774","","439","","","68","75","","","2","75","training","adjacent","CB","3","2","N.jpg","M.jpg","1","0","0","",""
"","feedback","","html-keyboard-response","496","519079","0.0-1.0-681.0-0.0","0","0","30774","","null","","","null","75","","","","","","","","","","","","","","","",""
"","time_out","","html-keyboard-response","497","521083","0.0-1.0-683.0-0.0","0","0","30774","","null","","","null","75","","","","","","","","","","","","","","","",""
"","ITI","","html-keyboard-response","498","522091","0.0-1.0-684.0","0","0","30774","","null","","","null","75","","","","","","","","","","","","","","","NaN",""
"","S1","","html-keyboard-response","499","522245","0.0-1.0-686.0","0","0","30774","","null","","","null","76","","","","","","","","","","","","","","","",""
"","ISI","","html-keyboard-response","500","524255","0.0-1.0-687.0","0","0","30774","","null","","","null","76","NaN","","","","","","","","","","","","","","",""
"","S2","","html-keyboard-response","501","524411","0.0-1.0-688.0","0","0","30774","","null","","","null","76","","NaN","","","","","","","","","","","","","",""
"","response","","html-keyboard-response","502","524847","0.0-1.0-689.0-0.0","0","0","30774","","433","","","68","76","","","2","76","training","adjacent","DE","4","5","L.jpg","O.jpg","1","1","1","",""
"","feedback","","html-keyboard-response","503","525852","0.0-1.0-690.0-0.0","0","0","30774","","null","","","null","76","","","","","","","","","","","","","","","",""
"","ITI","","html-keyboard-response","504","526858","0.0-1.0-693.0","0","0","30774","","null","","","null","76","","","","","","","","","","","","","","","NaN",""
"","S1","","html-keyboard-response","505","527014","0.0-1.0-695.0","0","0","30774","","null","","","null","77","","","","","","","","","","","","","","","",""
"","ISI","","html-keyboard-response","506","529018","0.0-1.0-696.0","0","0","30774","","null","","","null","77","NaN","","","","","","","","","","","","","","",""
"","S2","","html-keyboard-response","507","529177","0.0-1.0-697.0","0","0","30774","","null","","","null","77","","NaN","","","","","","","","","","","","","",""
"","response","","html-keyboard-response","508","529930","0.0-1.0-698.0-0.0","0","0","30774","","750","","","75","77","","","2","77","training","adjacent","BA","2","1","M.jpg","Q.jpg","0","0","1","",""
"","feedback","","html-keyboard-response","509","530934","0.0-1.0-699.0-0.0","0","0","30774","","null","","","null","77","","","","","","","","","","","","","","","",""
"","ITI","","html-keyboard-response","510","531939","0.0-1.0-702.0","0","0","30774","","null","","","null","77","","","","","","","","","","","","","","","NaN",""
"","S1","","html-keyboard-response","511","532093","0.0-1.0-704.0","0","0","30774","","null","","","null","78","","","","","","","","","","","","","","","",""
"","ISI","","html-keyboard-response","512","534098","0.0-1.0-705.0","0","0","30774","","null","","","null","78","NaN","","","","","","","","","","","","","","",""
"","S2","","html-keyboard-response","513","534252","0.0-1.0-706.0","0","0","30774","","null","","","null","78","","NaN","","","","","","","","","","","","","",""
"","response","","html-keyboard-response","514","534718","0.0-1.0-707.0-0.0","0","0","30774","","462","","","68","78","","","2","78","training","adjacent","BA","2","1","M.jpg","Q.jpg","1","0","0","",""
"","feedback","","html-keyboard-response","515","535723","0.0-1.0-708.0-0.0","0","0","30774","","null","","","null","78","","","","","","","","","","","","","","","",""
"","time_out","","html-keyboard-response","516","537728","0.0-1.0-710.0-0.0","0","0","30774","","null","","","null","78","","","","","","","","","","","","","","","",""
"","ITI","","html-keyboard-response","517","538732","0.0-1.0-711.0","0","0","30774","","null","","","null","78","","","","","","","","","","","","","","","NaN",""
"","S1","","html-keyboard-response","518","538890","0.0-1.0-713.0","0","0","30774","","null","","","null","79","","","","","","","","","","","","","","","",""
"","ISI","","html-keyboard-response","519","540894","0.0-1.0-714.0","0","0","30774","","null","","","null","79","NaN","","","","","","","","","","","","","","",""
"","S2","","html-keyboard-response","520","541049","0.0-1.0-715.0","0","0","30774","","null","","","null","79","","NaN","","","","","","","","","","","","","",""
"","response","","html-keyboard-response","521","541653","0.0-1.0-716.0-0.0","0","0","30774","","599","","","68","79","","","2","79","training","adjacent","CD","3","4","N.jpg","L.jpg","1","1","1","",""
"","feedback","","html-keyboard-response","522","542658","0.0-1.0-717.0-0.0","0","0","30774","","null","","","null","79","","","","","","","","","","","","","","","",""
"","ITI","","html-keyboard-response","523","543666","0.0-1.0-720.0","0","0","30774","","null","","","null","79","","","","","","","","","","","","","","","NaN",""
"","S1","","html-keyboard-response","524","543821","0.0-1.0-722.0","0","0","30774","","null","","","null","80","","","","","","","","","","","","","","","",""
"","ISI","","html-keyboard-response","525","545825","0.0-1.0-723.0","0","0","30774","","null","","","null","80","NaN","","","","","","","","","","","","","","",""
"","S2","","html-keyboard-response","526","545980","0.0-1.0-724.0","0","0","30774","","null","","","null","80","","NaN","","","","","","","","","","","","","",""
"","response","","html-keyboard-response","527","546520","0.0-1.0-725.0-0.0","0","0","30774","","536","","","75","80","","","2","80","training","adjacent","GF","7","6","P.jpg","R.jpg","0","0","1","",""
"","feedback","","html-keyboard-response","528","547526","0.0-1.0-726.0-0.0","0","0","30774","","null","","","null","80","","","","","","","","","","","","","","","",""
"","ITI","","html-keyboard-response","529","548530","0.0-1.0-729.0","0","0","30774","","null","","","null","80","","","","","","","","","","","","","","","NaN",""
"","S1","","html-keyboard-response","530","548687","0.0-1.0-731.0","0","0","30774","","null","","","null","81","","","","","","","","","","","","","","","",""
"","ISI","","html-keyboard-response","531","550693","0.0-1.0-732.0","0","0","30774","","null","","","null","81","NaN","","","","","","","","","","","","","","",""
"","S2","","html-keyboard-response","532","550848","0.0-1.0-733.0","0","0","30774","","null","","","null","81","","NaN","","","","","","","","","","","","","",""
"","response","","html-keyboard-response","533","551394","0.0-1.0-734.0-0.0","0","0","30774","","543","","","75","81","","","2","81","training","adjacent","EF","5","6","O.jpg","R.jpg","0","1","0","",""
"","feedback","","html-keyboard-response","534","552399","0.0-1.0-735.0-0.0","0","0","30774","","null","","","null","81","","","","","","","","","","","","","","","",""
"","time_out","","html-keyboard-response","535","554403","0.0-1.0-737.0-0.0","0","0","30774","","null","","","null","81","","","","","","","","","","","","","","","",""
"","ITI","","html-keyboard-response","536","555409","0.0-1.0-738.0","0","0","30774","","null","","","null","81","","","","","","","","","","","","","","","NaN",""
"","S1","","html-keyboard-response","537","555563","0.0-1.0-740.0","0","0","30774","","null","","","null","82","","","","","","","","","","","","","","","",""
"","ISI","","html-keyboard-response","538","557568","0.0-1.0-741.0","0","0","30774","","null","","","null","82","NaN","","","","","","","","","","","","","","",""
"","S2","","html-keyboard-response","539","557723","0.0-1.0-742.0","0","0","30774","","null","","","null","82","","NaN","","","","","","","","","","","","","",""
"","response","","html-keyboard-response","540","558027","0.0-1.0-743.0-0.0","0","0","30774","","301","","","68","82","","","2","82","training","adjacent","AB","1","2","Q.jpg","M.jpg","1","1","1","",""
"","feedback","","html-keyboard-response","541","559031","0.0-1.0-744.0-0.0","0","0","30774","","null","","","null","82","","","","","","","","","","","","","","","",""
"","ITI","","html-keyboard-response","542","560037","0.0-1.0-747.0","0","0","30774","","null","","","null","82","","","","","","","","","","","","","","","NaN",""
"","S1","","html-keyboard-response","543","560191","0.0-1.0-749.0","0","0","30774","","null","","","null","83","","","","","","","","","","","","","","","",""
"","ISI","","html-keyboard-response","544","562195","0.0-1.0-750.0","0","0","30774","","null","","","null","83","NaN","","","","","","","","","","","","","","",""
"","S2","","html-keyboard-response","545","562349","0.0-1.0-751.0","0","0","30774","","null","","","null","83","","NaN","","","","","","","","","","","","","",""
"","response","","html-keyboard-response","546","562927","0.0-1.0-752.0-0.0","0","0","30774","","573","","","68","83","","","2","83","training","adjacent","DC","4","3","L.jpg","N.jpg","1","0","0","",""
"","feedback","","html-keyboard-response","547","563932","0.0-1.0-753.0-0.0","0","0","30774","","null","","","null","83","","","","","","","","","","","","","","","",""
"","time_out","","html-keyboard-response","548","565937","0.0-1.0-755.0-0.0","0","0","30774","","null","","","null","83","","","","","","","","","","","","","","","",""
"","ITI","","html-keyboard-response","549","566941","0.0-1.0-756.0","0","0","30774","","null","","","null","83","","","","","","","","","","","","","","","NaN",""
"","S1","","html-keyboard-response","550","567096","0.0-1.0-758.0","0","0","30774","","null","","","null","84","","","","","","","","","","","","","","","",""
"","ISI","","html-keyboard-response","551","569100","0.0-1.0-759.0","0","0","30774","","null","","","null","84","NaN","","","","","","","","","","","","","","",""
"","S2","","html-keyboard-response","552","569255","0.0-1.0-760.0","0","0","30774","","null","","","null","84","","NaN","","","","","","","","","","","","","",""
"","response","","html-keyboard-response","553","569722","0.0-1.0-761.0-0.0","0","0","30774","","464","","","68","84","","","2","84","training","adjacent","ED","5","4","O.jpg","L.jpg","1","0","0","",""
"","feedback","","html-keyboard-response","554","570726","0.0-1.0-762.0-0.0","0","0","30774","","null","","","null","84","","","","","","","","","","","","","","","",""
"","time_out","","html-keyboard-response","555","572731","0.0-1.0-764.0-0.0","0","0","30774","","null","","","null","84","","","","","","","","","","","","","","","",""
"","ITI","","html-keyboard-response","556","573737","0.0-1.0-765.0","0","0","30774","","null","","","null","84","","","","","","","","","","","","","","","NaN",""
"","S1","","html-keyboard-response","557","573891","0.0-1.0-767.0","0","0","30774","","null","","","null","85","","","","","","","","","","","","","","","",""
"","ISI","","html-keyboard-response","558","575895","0.0-1.0-768.0","0","0","30774","","null","","","null","85","NaN","","","","","","","","","","","","","","",""
"","S2","","html-keyboard-response","559","576050","0.0-1.0-769.0","0","0","30774","","null","","","null","85","","NaN","","","","","","","","","","","","","",""
"","response","","html-keyboard-response","560","576404","0.0-1.0-770.0-0.0","0","0","30774","","350","","","75","85","","","2","85","training","adjacent","BA","2","1","M.jpg","Q.jpg","0","0","1","",""
"","feedback","","html-keyboard-response","561","577409","0.0-1.0-771.0-0.0","0","0","30774","","null","","","null","85","","","","","","","","","","","","","","","",""
"","ITI","","html-keyboard-response","562","578413","0.0-1.0-774.0","0","0","30774","","null","","","null","85","","","","","","","","","","","","","","","NaN",""
"","S1","","html-keyboard-response","563","578568","0.0-1.0-776.0","0","0","30774","","null","","","null","86","","","","","","","","","","","","","","","",""
"","ISI","","html-keyboard-response","564","580573","0.0-1.0-777.0","0","0","30774","","null","","","null","86","NaN","","","","","","","","","","","","","","",""
"","S2","","html-keyboard-response","565","580728","0.0-1.0-778.0","0","0","30774","","null","","","null","86","","NaN","","","","","","","","","","","","","",""
"","response","","html-keyboard-response","566","581055","0.0-1.0-779.0-0.0","0","0","30774","","324","","","68","86","","","2","86","training","adjacent","AB","1","2","Q.jpg","M.jpg","1","1","1","",""
"","feedback","","html-keyboard-response","567","582060","0.0-1.0-780.0-0.0","0","0","30774","","null","","","null","86","","","","","","","","","","","","","","","",""
"","ITI","","html-keyboard-response","568","583063","0.0-1.0-783.0","0","0","30774","","null","","","null","86","","","","","","","","","","","","","","","NaN",""
"","S1","","html-keyboard-response","569","583218","0.0-1.0-785.0","0","0","30774","","null","","","null","87","","","","","","","","","","","","","","","",""
"","ISI","","html-keyboard-response","570","585222","0.0-1.0-786.0","0","0","30774","","null","","","null","87","NaN","","","","","","","","","","","","","","",""
"","S2","","html-keyboard-response","571","585377","0.0-1.0-787.0","0","0","30774","","null","","","null","87","","NaN","","","","","","","","","","","","","",""
"","response","","html-keyboard-response","572","587237","0.0-1.0-788.0-0.0","0","0","30774","","null","","","null","87","","","2","87","training","adjacent","EF","5","6","O.jpg","R.jpg","NaN","1","0","",""
"","too_slow_prompt","","html-keyboard-response","573","588242","0.0-1.0-790.0-0.0","1","0","30774","","null","","","null","","","","","","","","","","","","","","","","",""
"","time_out","","html-keyboard-response","574","590246","0.0-1.0-791.0-0.0","0","0","30774","","null","","","null","87","","","","","","","","","","","","","","","",""
"","ITI","","html-keyboard-response","575","591251","0.0-1.0-792.0","0","0","30774","","null","","","null","87","","","","","","","","","","","","","","","NaN",""
"","S1","","html-keyboard-response","576","591406","0.0-1.0-794.0","0","0","30774","","null","","","null","88","","","","","","","","","","","","","","","",""
"","ISI","","html-keyboard-response","577","593415","0.0-1.0-795.0","0","0","30774","","null","","","null","88","NaN","","","","","","","","","","","","","","",""
"","S2","","html-keyboard-response","578","593569","0.0-1.0-796.0","0","0","30774","","null","","","null","88","","NaN","","","","","","","","","","","","","",""
"","response","","html-keyboard-response","579","594061","0.0-1.0-797.0-0.0","0","0","30774","","488","","","75","88","","","2","88","training","adjacent","GF","7","6","P.jpg","R.jpg","0","0","1","",""
"","feedback","","html-keyboard-response","580","595067","0.0-1.0-798.0-0.0","0","0","30774","","null","","","null","88","","","","","","","","","","","","","","","",""
"","ITI","","html-keyboard-response","581","596071","0.0-1.0-801.0","0","0","30774","","null","","","null","88","","","","","","","","","","","","","","","NaN",""
"","S1","","html-keyboard-response","582","596227","0.0-1.0-803.0","0","0","30774","","null","","","null","89","","","","","","","","","","","","","","","",""
