"success","ttype","start_time","trial_type","trial_index","time_elapsed","internal_node_id","warning","missed_checkup","PID","view_history","rt","responses","repeat_instructions","key_press","index","keypress_isi","keypress_S2","block","trial_num","phase","group_type","pair_type","S1_stim","S2_stim","S1_img","S2_img","S1_chosen","S1_higher","accuracy","keypress_iti","total_bonus_tally"
"true","full_screen","d03082023hr1924","fullscreen","0","8046","0.0-0.0","0","0","22709","","","","","","","","","","","","","","","","","","","","","",""
"","instructions","","instructions","1","76195","0.0-1.0-0.0-0.0","0","0","22709","[{""page_index"":0,""viewing_time"":25176},{""page_index"":1,""viewing_time"":36358},{""page_index"":2,""viewing_time"":4767},{""page_index"":3,""viewing_time"":1842}]","68144","","","","","","","","","","","","","","","","","","","",""
"","comprehension_check","","survey-multi-choice","2","105529","0.0-1.0-0.0-1.0","0","0","22709","","29329","{""Q0"":""True"",""Q1"":""D"",""Q2"":""Only when the screen 'MAKE A CHOICE' is shown"",""Q3"":""Green mark"",""Q4"":""either D or K""}","1","","","","","","","","","","","","","","","","","",""
"","missed_instruction_checkup","","html-keyboard-response","3","107451","0.0-1.0-0.0-2.0-0.0","0","1","22709","","1918","","","32","","","","","","","","","","","","","","","","",""
"","instructions","","instructions","4","138400","0.0-1.0-0.1-0.1","0","0","22709","[{""page_index"":0,""viewing_time"":6824},{""page_index"":1,""viewing_time"":12796},{""page_index"":2,""viewing_time"":9478},{""page_index"":3,""viewing_time"":1849}]","30948","","","","","","","","","","","","","","","","","","","",""
"","comprehension_check","","survey-multi-choice","5","160597","0.0-1.0-0.1-1.1","0","0","22709","","22193","{""Q0"":""True"",""Q1"":""K"",""Q2"":""Once the second image appears and while the screen 'MAKE A CHOICE' is shown"",""Q3"":""Green mark"",""Q4"":""either D or K""}","0","","","","","","","","","","","","","","","","","",""
"","start_exp","","html-keyboard-response","6","162284","0.0-1.0-1.0","0","0","22709","","1685","","","32","","","","","","","","","","","","","","","","",""
"","S1","","html-keyboard-response","7","162537","0.0-1.0-2.0","0","0","22709","","null","","","null","0","","","","","","","","","","","","","","","",""
"","ISI","","html-keyboard-response","8","162694","0.0-1.0-3.0","0","0","22709","","null","","","null","0","NaN","","","","","","","","","","","","","","",""
"","S2","","html-keyboard-response","9","162948","0.0-1.0-4.0","0","0","22709","","null","","","null","0","","NaN","","","","","","","","","","","","","",""
"","response","","html-keyboard-response","10","164703","0.0-1.0-5.0-0.0","0","0","22709","","null","","","null","0","","","1","0","training","adjacent","FE","6","5","O.jpg","Q.jpg","NaN","0","0","",""
"","too_slow_prompt","","html-keyboard-response","11","165709","0.0-1.0-7.0-0.0","1","0","22709","","null","","","null","","","","","","","","","","","","","","","","",""
"","time_out","","html-keyboard-response","12","167713","0.0-1.0-8.0-0.0","0","0","22709","","null","","","null","0","","","","","","","","","","","","","","","",""
"","ITI","","html-keyboard-response","13","168716","0.0-1.0-9.0","0","0","22709","","602","","","32","0","","","","","","","","","","","","","","","space",""
"","S1","","html-keyboard-response","14","168971","0.0-1.0-11.0","0","0","22709","","null","","","null","1","","","","","","","","","","","","","","","",""
"","ISI","","html-keyboard-response","15","169124","0.0-1.0-12.0","0","0","22709","","null","","","null","1","NaN","","","","","","","","","","","","","","",""
"","S2","","html-keyboard-response","16","169378","0.0-1.0-13.0","0","0","22709","","null","","","null","1","","NaN","","","","","","","","","","","","","",""
"","response","","html-keyboard-response","17","169678","0.0-1.0-14.0-0.0","0","0","22709","","294","","","75","1","","","1","1","training","adjacent","EF","5","6","Q.jpg","O.jpg","1","1","1","",""
"","feedback","","html-keyboard-response","18","170684","0.0-1.0-15.0-0.0","0","0","22709","","null","","","null","1","","","","","","","","","","","","","","","",""
"","ITI","","html-keyboard-response","19","171689","0.0-1.0-18.0","0","0","22709","","969","","","32","1","","","","","","","","","","","","","","","space",""
"","S1","","html-keyboard-response","20","171943","0.0-1.0-20.0","0","0","22709","","null","","","null","2","","","","","","","","","","","","","","","",""
"","ISI","","html-keyboard-response","21","172098","0.0-1.0-21.0","0","0","22709","","null","","","null","2","NaN","","","","","","","","","","","","","","",""
"","S2","","html-keyboard-response","22","172309","0.0-1.0-22.0","0","0","22709","","207","","","68","2","","d","1","2","training","adjacent","FE","6","5","O.jpg","Q.jpg","0","0","1","",""
"","feedback","","html-keyboard-response","23","173313","0.0-1.0-24.0-0.0","0","0","22709","","null","","","null","2","","","","","","","","","","","","","","","",""
"","ITI","","html-keyboard-response","24","174316","0.0-1.0-27.0","0","0","22709","","500","","","32","2","","","","","","","","","","","","","","","space",""
"","S1","","html-keyboard-response","25","174570","0.0-1.0-29.0","0","0","22709","","null","","","null","3","","","","","","","","","","","","","","","",""
"","ISI","","html-keyboard-response","26","174725","0.0-1.0-30.0","0","0","22709","","null","","","null","3","NaN","","","","","","","","","","","","","","",""
"","S2","","html-keyboard-response","27","174981","0.0-1.0-31.0","0","0","22709","","null","","","null","3","","NaN","","","","","","","","","","","","","",""
"","response","","html-keyboard-response","28","175214","0.0-1.0-32.0-0.0","0","0","22709","","228","","","75","3","","","1","3","training","adjacent","AB","1","2","R.jpg","P.jpg","1","1","1","",""
"","feedback","","html-keyboard-response","29","176218","0.0-1.0-33.0-0.0","0","0","22709","","null","","","null","3","","","","","","","","","","","","","","","",""
"","ITI","","html-keyboard-response","30","177223","0.0-1.0-36.0","0","0","22709","","null","","","null","3","","","","","","","","","","","","","","","NaN",""
"","S1","","html-keyboard-response","31","177477","0.0-1.0-38.0","0","0","22709","","null","","","null","4","","","","","","","","","","","","","","","",""
"","ISI","","html-keyboard-response","32","177632","0.0-1.0-39.0","0","0","22709","","null","","","null","4","NaN","","","","","","","","","","","","","","",""
"","S2","","html-keyboard-response","33","177767","0.0-1.0-40.0","0","0","22709","","132","","","68","4","","d","1","4","training","adjacent","BA","2","1","P.jpg","R.jpg","0","0","1","",""
"","feedback","","html-keyboard-response","34","178772","0.0-1.0-42.0-0.0","0","0","22709","","null","","","null","4","","","","","","","","","","","","","","","",""
"","ITI","","html-keyboard-response","35","179776","0.0-1.0-45.0","0","0","22709","","null","","","null","4","","","","","","","","","","","","","","","NaN",""
"","S1","","html-keyboard-response","36","180030","0.0-1.0-47.0","0","0","22709","","null","","","null","5","","","","","","","","","","","","","","","",""
"","ISI","","html-keyboard-response","37","180184","0.0-1.0-48.0","0","0","22709","","120","","","75","5","k","","","","","","","","","","","","","","",""
"","S2","","html-keyboard-response","38","180437","0.0-1.0-49.0","0","0","22709","","null","","","null","5","","NaN","","","","","","","","","","","","","",""
"","response","","html-keyboard-response","39","180684","0.0-1.0-50.0-0.0","0","0","22709","","241","","","75","5","","","1","5","training","adjacent","EF","5","6","Q.jpg","O.jpg","1","1","1","",""
"","feedback","","html-keyboard-response","40","181691","0.0-1.0-51.0-0.0","0","0","22709","","null","","","null","5","","","","","","","","","","","","","","","",""
"","ITI","","html-keyboard-response","41","182694","0.0-1.0-54.0","0","0","22709","","null","","","null","5","","","","","","","","","","","","","","","NaN",""
"","S1","","html-keyboard-response","42","182946","0.0-1.0-56.0","0","0","22709","","null","","","null","6","","","","","","","","","","","","","","","",""
"","ISI","","html-keyboard-response","43","183098","0.0-1.0-57.0","0","0","22709","","null","","","null","6","NaN","","","","","","","","","","","","","","",""
"","S2","","html-keyboard-response","44","183351","0.0-1.0-58.0","0","0","22709","","null","","","null","6","","NaN","","","","","","","","","","","","","",""
"","response","","html-keyboard-response","45","183685","0.0-1.0-59.0-0.0","0","0","22709","","332","","","68","6","","","1","6","training","adjacent","ED","5","4","Q.jpg","N.jpg","0","0","1","",""
"","feedback","","html-keyboard-response","46","184694","0.0-1.0-60.0-0.0","0","0","22709","","null","","","null","6","","","","","","","","","","","","","","","",""
"","ITI","","html-keyboard-response","47","185707","0.0-1.0-63.0","0","0","22709","","null","","","null","6","","","","","","","","","","","","","","","NaN",""
"","S1","","html-keyboard-response","48","185962","0.0-1.0-65.0","0","0","22709","","null","","","null","7","","","","","","","","","","","","","","","",""
"","ISI","","html-keyboard-response","49","186116","0.0-1.0-66.0","0","0","22709","","null","","","null","7","NaN","","","","","","","","","","","","","","",""
"","S2","","html-keyboard-response","50","186371","0.0-1.0-67.0","0","0","22709","","null","","","null","7","","NaN","","","","","","","","","","","","","",""
"","response","","html-keyboard-response","51","188124","0.0-1.0-68.0-0.0","0","0","22709","","null","","","null","7","","","1","7","training","adjacent","CD","3","4","M.jpg","N.jpg","NaN","1","0","",""
"","too_slow_prompt","","html-keyboard-response","52","189127","0.0-1.0-70.0-0.0","1","0","22709","","null","","","null","","","","","","","","","","","","","","","","",""
"","time_out","","html-keyboard-response","53","191131","0.0-1.0-71.0-0.0","0","0","22709","","null","","","null","7","","","","","","","","","","","","","","","",""
"","ITI","","html-keyboard-response","54","192135","0.0-1.0-72.0","0","0","22709","","435","","","75","7","","","","","","","","","","","","","","","k",""
"","S1","","html-keyboard-response","55","192389","0.0-1.0-74.0","0","0","22709","","null","","","null","8","","","","","","","","","","","","","","","",""
"","ISI","","html-keyboard-response","56","192543","0.0-1.0-75.0","0","0","22709","","null","","","null","8","NaN","","","","","","","","","","","","","","",""
"","S2","","html-keyboard-response","57","192627","0.0-1.0-76.0","0","0","22709","","81","","","68","8","","d","1","8","training","adjacent","FE","6","5","O.jpg","Q.jpg","0","0","1","",""
"","feedback","","html-keyboard-response","58","193633","0.0-1.0-78.0-0.0","0","0","22709","","null","","","null","8","","","","","","","","","","","","","","","",""
"","ITI","","html-keyboard-response","59","194637","0.0-1.0-81.0","0","0","22709","","null","","","null","8","","","","","","","","","","","","","","","NaN",""
"","S1","","html-keyboard-response","60","194892","0.0-1.0-83.0","0","0","22709","","null","","","null","9","","","","","","","","","","","","","","","",""
"","ISI","","html-keyboard-response","61","195044","0.0-1.0-84.0","0","0","22709","","null","","","null","9","NaN","","","","","","","","","","","","","","",""
"","S2","","html-keyboard-response","62","195302","0.0-1.0-85.0","0","0","22709","","null","","","null","9","","NaN","","","","","","","","","","","","","",""
"","response","","html-keyboard-response","63","195589","0.0-1.0-86.0-0.0","0","0","22709","","282","","","75","9","","","1","9","training","adjacent","DC","4","3","N.jpg","M.jpg","1","0","0","",""
"","feedback","","html-keyboard-response","64","196593","0.0-1.0-87.0-0.0","0","0","22709","","null","","","null","9","","","","","","","","","","","","","","","",""
"","time_out","","html-keyboard-response","65","198596","0.0-1.0-89.0-0.0","0","0","22709","","null","","","null","9","","","","","","","","","","","","","","","",""
"","ITI","","html-keyboard-response","66","199599","0.0-1.0-90.0","0","0","22709","","543","","","32","9","","","","","","","","","","","","","","","space",""
"","S1","","html-keyboard-response","67","199855","0.0-1.0-92.0","0","0","22709","","null","","","null","10","","","","","","","","","","","","","","","",""
"","ISI","","html-keyboard-response","68","200008","0.0-1.0-93.0","0","0","22709","","null","","","null","10","NaN","","","","","","","","","","","","","","",""
"","S2","","html-keyboard-response","69","200211","0.0-1.0-94.0","0","0","22709","","200","","","68","10","","d","1","10","training","adjacent","AB","1","2","R.jpg","P.jpg","0","1","0","",""
"","feedback","","html-keyboard-response","70","201214","0.0-1.0-96.0-0.0","0","0","22709","","null","","","null","10","","","","","","","","","","","","","","","",""
"","time_out","","html-keyboard-response","71","203218","0.0-1.0-98.0-0.0","0","0","22709","","null","","","null","10","","","","","","","","","","","","","","","",""
"","ITI","","html-keyboard-response","72","204222","0.0-1.0-99.0","0","0","22709","","null","","","null","10","","","","","","","","","","","","","","","NaN",""
"","S1","","html-keyboard-response","73","204477","0.0-1.0-101.0","0","0","22709","","null","","","null","11","","","","","","","","","","","","","","","",""
"","ISI","","html-keyboard-response","74","204633","0.0-1.0-102.0","0","0","22709","","null","","","null","11","NaN","","","","","","","","","","","","","","",""
"","S2","","html-keyboard-response","75","204888","0.0-1.0-103.0","0","0","22709","","null","","","null","11","","NaN","","","","","","","","","","","","","",""
"","response","","html-keyboard-response","76","204904","0.0-1.0-104.0-0.0","0","0","22709","","13","","","68","11","","","1","11","training","adjacent","FG","6","7","O.jpg","L.jpg","0","1","0","",""
"","feedback","","html-keyboard-response","77","205908","0.0-1.0-105.0-0.0","0","0","22709","","null","","","null","11","","","","","","","","","","","","","","","",""
"","time_out","","html-keyboard-response","78","207912","0.0-1.0-107.0-0.0","0","0","22709","","null","","","null","11","","","","","","","","","","","","","","","",""
"","ITI","","html-keyboard-response","79","208917","0.0-1.0-108.0","0","0","22709","","null","","","null","11","","","","","","","","","","","","","","","NaN",""
"","S1","","html-keyboard-response","80","209172","0.0-1.0-110.0","0","0","22709","","null","","","null","12","","","","","","","","","","","","","","","",""
"","ISI","","html-keyboard-response","81","209326","0.0-1.0-111.0","0","0","22709","","null","","","null","12","NaN","","","","","","","","","","","","","","",""
"","S2","","html-keyboard-response","82","209492","0.0-1.0-112.0","0","0","22709","","162","","","75","12","","k","1","12","training","adjacent","BC","2","3","P.jpg","M.jpg","1","1","1","",""
"","feedback","","html-keyboard-response","83","210497","0.0-1.0-114.0-0.0","0","0","22709","","null","","","null","12","","","","","","","","","","","","","","","",""
"","ITI","","html-keyboard-response","84","211502","0.0-1.0-117.0","0","0","22709","","null","","","null","12","","","","","","","","","","","","","","","NaN",""
"","S1","","html-keyboard-response","85","211754","0.0-1.0-119.0","0","0","22709","","null","","","null","13","","","","","","","","","","","","","","","",""
"","ISI","","html-keyboard-response","86","211908","0.0-1.0-120.0","0","0","22709","","null","","","null","13","NaN","","","","","","","","","","","","","","",""
"","S2","","html-keyboard-response","87","212161","0.0-1.0-121.0","0","0","22709","","null","","","null","13","","NaN","","","","","","","","","","","","","",""
"","response","","html-keyboard-response","88","212754","0.0-1.0-122.0-0.0","0","0","22709","","591","","","75","13","","","1","13","training","adjacent","BA","2","1","P.jpg","R.jpg","1","0","0","",""
"","feedback","","html-keyboard-response","89","213758","0.0-1.0-123.0-0.0","0","0","22709","","null","","","null","13","","","","","","","","","","","","","","","",""
"","time_out","","html-keyboard-response","90","215762","0.0-1.0-125.0-0.0","0","0","22709","","null","","","null","13","","","","","","","","","","","","","","","",""
"","ITI","","html-keyboard-response","91","216767","0.0-1.0-126.0","0","0","22709","","null","","","null","13","","","","","","","","","","","","","","","NaN",""
"","S1","","html-keyboard-response","92","217022","0.0-1.0-128.0","0","0","22709","","null","","","null","14","","","","","","","","","","","","","","","",""
"","ISI","","html-keyboard-response","93","217175","0.0-1.0-129.0","0","0","22709","","null","","","null","14","NaN","","","","","","","","","","","","","","",""
"","S2","","html-keyboard-response","94","217402","0.0-1.0-130.0","0","0","22709","","223","","","75","14","","k","1","14","training","adjacent","GF","7","6","L.jpg","O.jpg","1","0","0","",""
"","feedback","","html-keyboard-response","95","218405","0.0-1.0-132.0-0.0","0","0","22709","","null","","","null","14","","","","","","","","","","","","","","","",""
"","time_out","","html-keyboard-response","96","220410","0.0-1.0-134.0-0.0","0","0","22709","","null","","","null","14","","","","","","","","","","","","","","","",""
"","ITI","","html-keyboard-response","97","221416","0.0-1.0-135.0","0","0","22709","","null","","","null","14","","","","","","","","","","","","","","","NaN",""
"","S1","","html-keyboard-response","98","221669","0.0-1.0-137.0","0","0","22709","","null","","","null","15","","","","","","","","","","","","","","","",""
"","ISI","","html-keyboard-response","99","221822","0.0-1.0-138.0","0","0","22709","","null","","","null","15","NaN","","","","","","","","","","","","","","",""
"","S2","","html-keyboard-response","100","222075","0.0-1.0-139.0","0","0","22709","","null","","","null","15","","NaN","","","","","","","","","","","","","",""
"","response","","html-keyboard-response","101","222296","0.0-1.0-140.0-0.0","0","0","22709","","218","","","68","15","","","1","15","training","adjacent","FG","6","7","O.jpg","L.jpg","0","1","0","",""
"","feedback","","html-keyboard-response","102","223300","0.0-1.0-141.0-0.0","0","0","22709","","null","","","null","15","","","","","","","","","","","","","","","",""
"","time_out","","html-keyboard-response","103","225304","0.0-1.0-143.0-0.0","0","0","22709","","null","","","null","15","","","","","","","","","","","","","","","",""
"","ITI","","html-keyboard-response","104","226308","0.0-1.0-144.0","0","0","22709","","994","","","75","15","","","","","","","","","","","","","","","k",""
"","S1","","html-keyboard-response","105","226564","0.0-1.0-146.0","0","0","22709","","null","","","null","16","","","","","","","","","","","","","","","",""
"","ISI","","html-keyboard-response","106","226717","0.0-1.0-147.0","0","0","22709","","null","","","null","16","NaN","","","","","","","","","","","","","","",""
"","S2","","html-keyboard-response","107","226972","0.0-1.0-148.0","0","0","22709","","null","","","null","16","","NaN","","","","","","","","","","","","","",""
"","response","","html-keyboard-response","108","227415","0.0-1.0-149.0-0.0","0","0","22709","","439","","","75","16","","","1","16","training","adjacent","CB","3","2","M.jpg","P.jpg","1","0","0","",""
"","feedback","","html-keyboard-response","109","228420","0.0-1.0-150.0-0.0","0","0","22709","","null","","","null","16","","","","","","","","","","","","","","","",""
"","time_out","","html-keyboard-response","110","230424","0.0-1.0-152.0-0.0","0","0","22709","","null","","","null","16","","","","","","","","","","","","","","","",""
"","ITI","","html-keyboard-response","111","231427","0.0-1.0-153.0","0","0","22709","","null","","","null","16","","","","","","","","","","","","","","","NaN",""
"","S1","","html-keyboard-response","112","231682","0.0-1.0-155.0","0","0","22709","","null","","","null","17","","","","","","","","","","","","","","","",""
"","ISI","","html-keyboard-response","113","231838","0.0-1.0-156.0","0","0","22709","","null","","","null","17","NaN","","","","","","","","","","","","","","",""
"","S2","","html-keyboard-response","114","232085","0.0-1.0-157.0","0","0","22709","","244","","","68","17","","d","1","17","training","adjacent","GF","7","6","L.jpg","O.jpg","0","0","1","",""
"","feedback","","html-keyboard-response","115","233088","0.0-1.0-159.0-0.0","0","0","22709","","null","","","null","17","","","","","","","","","","","","","","","",""
"","ITI","","html-keyboard-response","116","234094","0.0-1.0-162.0","0","0","22709","","null","","","null","17","","","","","","","","","","","","","","","NaN",""
"","S1","","html-keyboard-response","117","234347","0.0-1.0-164.0","0","0","22709","","null","","","null","18","","","","","","","","","","","","","","","",""
"","ISI","","html-keyboard-response","118","234502","0.0-1.0-165.0","0","0","22709","","null","","","null","18","NaN","","","","","","","","","","","","","","",""
"","S2","","html-keyboard-response","119","234568","0.0-1.0-166.0","0","0","22709","","64","","","68","18","","d","1","18","training","adjacent","BA","2","1","P.jpg","R.jpg","0","0","1","",""
"","feedback","","html-keyboard-response","120","235573","0.0-1.0-168.0-0.0","0","0","22709","","null","","","null","18","","","","","","","","","","","","","","","",""
"","ITI","","html-keyboard-response","121","236577","0.0-1.0-171.0","0","0","22709","","706","","","68","18","","","","","","","","","","","","","","","d",""
"","S1","","html-keyboard-response","122","236832","0.0-1.0-173.0","0","0","22709","","null","","","null","19","","","","","","","","","","","","","","","",""
"","ISI","","html-keyboard-response","123","236986","0.0-1.0-174.0","0","0","22709","","null","","","null","19","NaN","","","","","","","","","","","","","","",""
"","S2","","html-keyboard-response","124","237240","0.0-1.0-175.0","0","0","22709","","null","","","null","19","","NaN","","","","","","","","","","","","","",""
"","response","","html-keyboard-response","125","237451","0.0-1.0-176.0-0.0","0","0","22709","","207","","","68","19","","","1","19","training","adjacent","CB","3","2","M.jpg","P.jpg","0","0","1","",""
"","feedback","","html-keyboard-response","126","238456","0.0-1.0-177.0-0.0","0","0","22709","","null","","","null","19","","","","","","","","","","","","","","","",""
"","ITI","","html-keyboard-response","127","239472","0.0-1.0-180.0","0","0","22709","","null","","","null","19","","","","","","","","","","","","","","","NaN",""
"","S1","","html-keyboard-response","128","239726","0.0-1.0-182.0","0","0","22709","","null","","","null","20","","","","","","","","","","","","","","","",""
"","ISI","","html-keyboard-response","129","239899","0.0-1.0-183.0","0","0","22709","","null","","","null","20","NaN","","","","","","","","","","","","","","",""
"","S2","","html-keyboard-response","130","240155","0.0-1.0-184.0","0","0","22709","","null","","","null","20","","NaN","","","","","","","","","","","","","",""
"","response","","html-keyboard-response","131","240254","0.0-1.0-185.0-0.0","0","0","22709","","95","","","68","20","","","1","20","training","adjacent","BC","2","3","P.jpg","M.jpg","0","1","0","",""
"","feedback","","html-keyboard-response","132","241257","0.0-1.0-186.0-0.0","0","0","22709","","null","","","null","20","","","","","","","","","","","","","","","",""
"","time_out","","html-keyboard-response","133","243261","0.0-1.0-188.0-0.0","0","0","22709","","null","","","null","20","","","","","","","","","","","","","","","",""
"","ITI","","html-keyboard-response","134","244265","0.0-1.0-189.0","0","0","22709","","null","","","null","20","","","","","","","","","","","","","","","NaN",""
"","S1","","html-keyboard-response","135","244521","0.0-1.0-191.0","0","0","22709","","null","","","null","21","","","","","","","","","","","","","","","",""
"","ISI","","html-keyboard-response","136","244675","0.0-1.0-192.0","0","0","22709","","null","","","null","21","NaN","","","","","","","","","","","","","","",""
"","S2","","html-keyboard-response","137","244716","0.0-1.0-193.0","0","0","22709","","38","","","68","21","","d","1","21","training","adjacent","DE","4","5","N.jpg","Q.jpg","0","1","0","",""
"","feedback","","html-keyboard-response","138","245719","0.0-1.0-195.0-0.0","0","0","22709","","null","","","null","21","","","","","","","","","","","","","","","",""
"","time_out","","html-keyboard-response","139","247722","0.0-1.0-197.0-0.0","0","0","22709","","null","","","null","21","","","","","","","","","","","","","","","",""
"","ITI","","html-keyboard-response","140","248725","0.0-1.0-198.0","0","0","22709","","null","","","null","21","","","","","","","","","","","","","","","NaN",""
"","S1","","html-keyboard-response","141","248979","0.0-1.0-200.0","0","0","22709","","null","","","null","22","","","","","","","","","","","","","","","",""
"","ISI","","html-keyboard-response","142","249133","0.0-1.0-201.0","0","0","22709","","null","","","null","22","NaN","","","","","","","","","","","","","","",""
"","S2","","html-keyboard-response","143","249332","0.0-1.0-202.0","0","0","22709","","194","","","68","22","","d","1","22","training","adjacent","CD","3","4","M.jpg","N.jpg","0","1","0","",""
"","feedback","","html-keyboard-response","144","250337","0.0-1.0-204.0-0.0","0","0","22709","","null","","","null","22","","","","","","","","","","","","","","","",""
"","time_out","","html-keyboard-response","145","252341","0.0-1.0-206.0-0.0","0","0","22709","","null","","","null","22","","","","","","","","","","","","","","","",""
"","ITI","","html-keyboard-response","146","253345","0.0-1.0-207.0","0","0","22709","","null","","","null","22","","","","","","","","","","","","","","","NaN",""
"","S1","","html-keyboard-response","147","253599","0.0-1.0-209.0","0","0","22709","","null","","","null","23","","","","","","","","","","","","","","","",""
"","ISI","","html-keyboard-response","148","253754","0.0-1.0-210.0","0","0","22709","","null","","","null","23","NaN","","","","","","","","","","","","","","",""
"","S2","","html-keyboard-response","149","254011","0.0-1.0-211.0","0","0","22709","","null","","","null","23","","NaN","","","","","","","","","","","","","",""
"","response","","html-keyboard-response","150","254102","0.0-1.0-212.0-0.0","0","0","22709","","86","","","75","23","","","1","23","training","adjacent","DC","4","3","N.jpg","M.jpg","1","0","0","",""
"","feedback","","html-keyboard-response","151","255106","0.0-1.0-213.0-0.0","0","0","22709","","null","","","null","23","","","","","","","","","","","","","","","",""
"","time_out","","html-keyboard-response","152","257111","0.0-1.0-215.0-0.0","0","0","22709","","null","","","null","23","","","","","","","","","","","","","","","",""
"","ITI","","html-keyboard-response","153","258116","0.0-1.0-216.0","0","0","22709","","null","","","null","23","","","","","","","","","","","","","","","NaN",""
"","S1","","html-keyboard-response","154","258372","0.0-1.0-218.0","0","0","22709","","null","","","null","24","","","","","","","","","","","","","","","",""
"","ISI","","html-keyboard-response","155","258525","0.0-1.0-219.0","0","0","22709","","null","","","null","24","NaN","","","","","","","","","","","","","","",""
"","S2","","html-keyboard-response","156","258778","0.0-1.0-220.0","0","0","22709","","null","","","null","24","","NaN","","","","","","","","","","","","","",""
"","response","","html-keyboard-response","157","260286","0.0-1.0-221.0-0.0","0","0","22709","","1507","","","75","24","","","1","24","training","adjacent","BC","2","3","P.jpg","M.jpg","1","1","1","",""
"","feedback","","html-keyboard-response","158","261297","0.0-1.0-222.0-0.0","0","0","22709","","null","","","null","24","","","","","","","","","","","","","","","",""
"","ITI","","html-keyboard-response","159","262302","0.0-1.0-225.0","0","0","22709","","null","","","null","24","","","","","","","","","","","","","","","NaN",""
"","S1","","html-keyboard-response","160","262557","0.0-1.0-227.0","0","0","22709","","null","","","null","25","","","","","","","","","","","","","","","",""
"","ISI","","html-keyboard-response","161","262710","0.0-1.0-228.0","0","0","22709","","null","","","null","25","NaN","","","","","","","","","","","","","","",""
"","S2","","html-keyboard-response","162","262964","0.0-1.0-229.0","0","0","22709","","null","","","null","25","","NaN","","","","","","","","","","","","","",""
"","response","","html-keyboard-response","163","263050","0.0-1.0-230.0-0.0","0","0","22709","","82","","","68","25","","","1","25","training","adjacent","AB","1","2","R.jpg","P.jpg","0","1","0","",""
"","feedback","","html-keyboard-response","164","264055","0.0-1.0-231.0-0.0","0","0","22709","","null","","","null","25","","","","","","","","","","","","","","","",""
"","time_out","","html-keyboard-response","165","266058","0.0-1.0-233.0-0.0","0","0","22709","","null","","","null","25","","","","","","","","","","","","","","","",""
"","ITI","","html-keyboard-response","166","267062","0.0-1.0-234.0","0","0","22709","","408","","","75","25","","","","","","","","","","","","","","","k",""
"","S1","","html-keyboard-response","167","267316","0.0-1.0-236.0","0","0","22709","","null","","","null","26","","","","","","","","","","","","","","","",""
"","ISI","","html-keyboard-response","168","267470","0.0-1.0-237.0","0","0","22709","","81","","","75","26","k","","","","","","","","","","","","","","",""
"","S2","","html-keyboard-response","169","267724","0.0-1.0-238.0","0","0","22709","","null","","","null","26","","NaN","","","","","","","","","","","","","",""
"","response","","html-keyboard-response","170","267894","0.0-1.0-239.0-0.0","0","0","22709","","167","","","75","26","","","1","26","training","adjacent","DE","4","5","N.jpg","Q.jpg","1","1","1","",""
"","feedback","","html-keyboard-response","171","268900","0.0-1.0-240.0-0.0","0","0","22709","","null","","","null","26","","","","","","","","","","","","","","","",""
"","ITI","","html-keyboard-response","172","269905","0.0-1.0-243.0","0","0","22709","","null","","","null","26","","","","","","","","","","","","","","","NaN",""
"","S1","","html-keyboard-response","173","270159","0.0-1.0-245.0","0","0","22709","","null","","","null","27","","","","","","","","","","","","","","","",""
"","ISI","","html-keyboard-response","174","270313","0.0-1.0-246.0","0","0","22709","","null","","","null","27","NaN","","","","","","","","","","","","","","",""
"","S2","","html-keyboard-response","175","270568","0.0-1.0-247.0","0","0","22709","","null","","","null","27","","NaN","","","","","","","","","","","","","",""
"","response","","html-keyboard-response","176","271103","0.0-1.0-248.0-0.0","0","0","22709","","532","","","68","27","","","1","27","training","adjacent","GF","7","6","L.jpg","O.jpg","0","0","1","",""
"","feedback","","html-keyboard-response","177","272108","0.0-1.0-249.0-0.0","0","0","22709","","null","","","null","27","","","","","","","","","","","","","","","",""
"","ITI","","html-keyboard-response","178","273112","0.0-1.0-252.0","0","0","22709","","null","","","null","27","","","","","","","","","","","","","","","NaN",""
"","S1","","html-keyboard-response","179","273365","0.0-1.0-254.0","0","0","22709","","null","","","null","28","","","","","","","","","","","","","","","",""
"","ISI","","html-keyboard-response","180","273518","0.0-1.0-255.0","0","0","22709","","141","","","75","28","k","","","","","","","","","","","","","","",""
"","S2","","html-keyboard-response","181","273772","0.0-1.0-256.0","0","0","22709","","null","","","null","28","","NaN","","","","","","","","","","","","","",""
"","response","","html-keyboard-response","182","273993","0.0-1.0-257.0-0.0","0","0","22709","","217","","","75","28","","","1","28","training","adjacent","BC","2","3","P.jpg","M.jpg","1","1","1","",""
"","feedback","","html-keyboard-response","183","274996","0.0-1.0-258.0-0.0","0","0","22709","","null","","","null","28","","","","","","","","","","","","","","","",""
"","ITI","","html-keyboard-response","184","276001","0.0-1.0-261.0","0","0","22709","","null","","","null","28","","","","","","","","","","","","","","","NaN",""
"","S1","","html-keyboard-response","185","276255","0.0-1.0-263.0","0","0","22709","","null","","","null","29","","","","","","","","","","","","","","","",""
"","ISI","","html-keyboard-response","186","276409","0.0-1.0-264.0","0","0","22709","","null","","","null","29","NaN","","","","","","","","","","","","","","",""
"","S2","","html-keyboard-response","187","276664","0.0-1.0-265.0","0","0","22709","","null","","","null","29","","NaN","","","","","","","","","","","","","",""
"","response","","html-keyboard-response","188","278418","0.0-1.0-266.0-0.0","0","0","22709","","null","","","null","29","","","1","29","training","adjacent","GF","7","6","L.jpg","O.jpg","NaN","0","0","",""
"","too_slow_prompt","","html-keyboard-response","189","279424","0.0-1.0-268.0-0.0","1","0","22709","","null","","","null","","","","","","","","","","","","","","","","",""
"","time_out","","html-keyboard-response","190","281427","0.0-1.0-269.0-0.0","0","0","22709","","null","","","null","29","","","","","","","","","","","","","","","",""
"","ITI","","html-keyboard-response","191","282432","0.0-1.0-270.0","0","0","22709","","null","","","null","29","","","","","","","","","","","","","","","NaN",""
"","S1","","html-keyboard-response","192","282690","0.0-1.0-272.0","0","0","22709","","null","","","null","30","","","","","","","","","","","","","","","",""
"","ISI","","html-keyboard-response","193","282844","0.0-1.0-273.0","0","0","22709","","143","","","75","30","k","","","","","","","","","","","","","","",""
"","S2","","html-keyboard-response","194","283099","0.0-1.0-274.0","0","0","22709","","null","","","null","30","","NaN","","","","","","","","","","","","","",""
"","response","","html-keyboard-response","195","283262","0.0-1.0-275.0-0.0","0","0","22709","","160","","","75","30","","","1","30","training","adjacent","EF","5","6","Q.jpg","O.jpg","1","1","1","",""
"","feedback","","html-keyboard-response","196","284267","0.0-1.0-276.0-0.0","0","0","22709","","null","","","null","30","","","","","","","","","","","","","","","",""
"","ITI","","html-keyboard-response","197","285271","0.0-1.0-279.0","0","0","22709","","null","","","null","30","","","","","","","","","","","","","","","NaN",""
"","S1","","html-keyboard-response","198","285525","0.0-1.0-281.0","0","0","22709","","null","","","null","31","","","","","","","","","","","","","","","",""
"","ISI","","html-keyboard-response","199","285678","0.0-1.0-282.0","0","0","22709","","null","","","null","31","NaN","","","","","","","","","","","","","","",""
"","S2","","html-keyboard-response","200","285932","0.0-1.0-283.0","0","0","22709","","null","","","null","31","","NaN","","","","","","","","","","","","","",""
"","response","","html-keyboard-response","201","287597","0.0-1.0-284.0-0.0","0","0","22709","","1661","","","75","31","","","1","31","training","adjacent","CD","3","4","M.jpg","N.jpg","1","1","1","",""
"","feedback","","html-keyboard-response","202","288601","0.0-1.0-285.0-0.0","0","0","22709","","null","","","null","31","","","","","","","","","","","","","","","",""
"","ITI","","html-keyboard-response","203","289604","0.0-1.0-288.0","0","0","22709","","null","","","null","31","","","","","","","","","","","","","","","NaN",""
"","S1","","html-keyboard-response","204","289860","0.0-1.0-290.0","0","0","22709","","null","","","null","32","","","","","","","","","","","","","","","",""
"","ISI","","html-keyboard-response","205","290013","0.0-1.0-291.0","0","0","22709","","null","","","null","32","NaN","","","","","","","","","","","","","","",""
"","S2","","html-keyboard-response","206","290271","0.0-1.0-292.0","0","0","22709","","null","","","null","32","","NaN","","","","","","","","","","","","","",""
"","response","","html-keyboard-response","207","290562","0.0-1.0-293.0-0.0","0","0","22709","","289","","","68","32","","","1","32","training","adjacent","DE","4","5","N.jpg","Q.jpg","0","1","0","",""
"","feedback","","html-keyboard-response","208","291565","0.0-1.0-294.0-0.0","0","0","22709","","null","","","null","32","","","","","","","","","","","","","","","",""
"","time_out","","html-keyboard-response","209","293570","0.0-1.0-296.0-0.0","0","0","22709","","null","","","null","32","","","","","","","","","","","","","","","",""
"","ITI","","html-keyboard-response","210","294573","0.0-1.0-297.0","0","0","22709","","null","","","null","32","","","","","","","","","","","","","","","NaN",""
"","S1","","html-keyboard-response","211","294829","0.0-1.0-299.0","0","0","22709","","null","","","null","33","","","","","","","","","","","","","","","",""
"","ISI","","html-keyboard-response","212","294984","0.0-1.0-300.0","0","0","22709","","null","","","null","33","NaN","","","","","","","","","","","","","","",""
"","S2","","html-keyboard-response","213","295238","0.0-1.0-301.0","0","0","22709","","null","","","null","33","","NaN","","","","","","","","","","","","","",""
"","response","","html-keyboard-response","214","295549","0.0-1.0-302.0-0.0","0","0","22709","","307","","","75","33","","","1","33","training","adjacent","BA","2","1","P.jpg","R.jpg","1","0","0","",""
"","feedback","","html-keyboard-response","215","296553","0.0-1.0-303.0-0.0","0","0","22709","","null","","","null","33","","","","","","","","","","","","","","","",""
"","time_out","","html-keyboard-response","216","298556","0.0-1.0-305.0-0.0","0","0","22709","","null","","","null","33","","","","","","","","","","","","","","","",""
"","ITI","","html-keyboard-response","217","299560","0.0-1.0-306.0","0","0","22709","","null","","","null","33","","","","","","","","","","","","","","","NaN",""
"","S1","","html-keyboard-response","218","299815","0.0-1.0-308.0","0","0","22709","","null","","","null","34","","","","","","","","","","","","","","","",""
"","ISI","","html-keyboard-response","219","299969","0.0-1.0-309.0","0","0","22709","","null","","","null","34","NaN","","","","","","","","","","","","","","",""
"","S2","","html-keyboard-response","220","300223","0.0-1.0-310.0","0","0","22709","","null","","","null","34","","NaN","","","","","","","","","","","","","",""
"","response","","html-keyboard-response","221","301976","0.0-1.0-311.0-0.0","0","0","22709","","null","","","null","34","","","1","34","training","adjacent","FG","6","7","O.jpg","L.jpg","NaN","1","0","",""
"","too_slow_prompt","","html-keyboard-response","222","302981","0.0-1.0-313.0-0.0","1","0","22709","","null","","","null","","","","","","","","","","","","","","","","",""
"","time_out","","html-keyboard-response","223","304985","0.0-1.0-314.0-0.0","0","0","22709","","null","","","null","34","","","","","","","","","","","","","","","",""
"","ITI","","html-keyboard-response","224","305989","0.0-1.0-315.0","0","0","22709","","641","","","75","34","","","","","","","","","","","","","","","k",""
"","S1","","html-keyboard-response","225","306244","0.0-1.0-317.0","0","0","22709","","null","","","null","35","","","","","","","","","","","","","","","",""
"","ISI","","html-keyboard-response","226","306398","0.0-1.0-318.0","0","0","22709","","null","","","null","35","NaN","","","","","","","","","","","","","","",""
"","S2","","html-keyboard-response","227","306652","0.0-1.0-319.0","0","0","22709","","null","","","null","35","","NaN","","","","","","","","","","","","","",""
"","response","","html-keyboard-response","228","306891","0.0-1.0-320.0-0.0","0","0","22709","","233","","","75","35","","","1","35","training","adjacent","FG","6","7","O.jpg","L.jpg","1","1","1","",""
"","feedback","","html-keyboard-response","229","307896","0.0-1.0-321.0-0.0","0","0","22709","","null","","","null","35","","","","","","","","","","","","","","","",""
"","ITI","","html-keyboard-response","230","308902","0.0-1.0-324.0","0","0","22709","","null","","","null","35","","","","","","","","","","","","","","","NaN",""
"","S1","","html-keyboard-response","231","309158","0.0-1.0-326.0","0","0","22709","","null","","","null","36","","","","","","","","","","","","","","","",""
"","ISI","","html-keyboard-response","232","309312","0.0-1.0-327.0","0","0","22709","","null","","","null","36","NaN","","","","","","","","","","","","","","",""
"","S2","","html-keyboard-response","233","309555","0.0-1.0-328.0","0","0","22709","","239","","","75","36","","k","1","36","training","adjacent","CB","3","2","M.jpg","P.jpg","1","0","0","",""
"","feedback","","html-keyboard-response","234","310561","0.0-1.0-330.0-0.0","0","0","22709","","null","","","null","36","","","","","","","","","","","","","","","",""
"","time_out","","html-keyboard-response","235","312566","0.0-1.0-332.0-0.0","0","0","22709","","null","","","null","36","","","","","","","","","","","","","","","",""
"","ITI","","html-keyboard-response","236","313572","0.0-1.0-333.0","0","0","22709","","47","","","68","36","","","","","","","","","","","","","","","d",""
"","S1","","html-keyboard-response","237","313827","0.0-1.0-335.0","0","0","22709","","null","","","null","37","","","","","","","","","","","","","","","",""
"","ISI","","html-keyboard-response","238","313989","0.0-1.0-336.0","0","0","22709","","null","","","null","37","NaN","","","","","","","","","","","","","","",""
"","S2","","html-keyboard-response","239","314243","0.0-1.0-337.0","0","0","22709","","null","","","null","37","","NaN","","","","","","","","","","","","","",""
"","response","","html-keyboard-response","240","314404","0.0-1.0-338.0-0.0","0","0","22709","","158","","","75","37","","","1","37","training","adjacent","CD","3","4","M.jpg","N.jpg","1","1","1","",""
"","feedback","","html-keyboard-response","241","315410","0.0-1.0-339.0-0.0","0","0","22709","","null","","","null","37","","","","","","","","","","","","","","","",""
"","ITI","","html-keyboard-response","242","316413","0.0-1.0-342.0","0","0","22709","","null","","","null","37","","","","","","","","","","","","","","","NaN",""
"","S1","","html-keyboard-response","243","316667","0.0-1.0-344.0","0","0","22709","","null","","","null","38","","","","","","","","","","","","","","","",""
"","ISI","","html-keyboard-response","244","316822","0.0-1.0-345.0","0","0","22709","","null","","","null","38","NaN","","","","","","","","","","","","","","",""
"","S2","","html-keyboard-response","245","317028","0.0-1.0-346.0","0","0","22709","","201","","","68","38","","d","1","38","training","adjacent","ED","5","4","Q.jpg","N.jpg","0","0","1","",""
"","feedback","","html-keyboard-response","246","318034","0.0-1.0-348.0-0.0","0","0","22709","","null","","","null","38","","","","","","","","","","","","","","","",""
"","ITI","","html-keyboard-response","247","319040","0.0-1.0-351.0","0","0","22709","","null","","","null","38","","","","","","","","","","","","","","","NaN",""
"","S1","","html-keyboard-response","248","319295","0.0-1.0-353.0","0","0","22709","","null","","","null","39","","","","","","","","","","","","","","","",""
"","ISI","","html-keyboard-response","249","319449","0.0-1.0-354.0","0","0","22709","","null","","","null","39","NaN","","","","","","","","","","","","","","",""
"","S2","","html-keyboard-response","250","319703","0.0-1.0-355.0","0","0","22709","","null","","","null","39","","NaN","","","","","","","","","","","","","",""
"","response","","html-keyboard-response","251","320086","0.0-1.0-356.0-0.0","0","0","22709","","380","","","75","39","","","1","39","training","adjacent","EF","5","6","Q.jpg","O.jpg","1","1","1","",""
"","feedback","","html-keyboard-response","252","321089","0.0-1.0-357.0-0.0","0","0","22709","","null","","","null","39","","","","","","","","","","","","","","","",""
"","ITI","","html-keyboard-response","253","322092","0.0-1.0-360.0","0","0","22709","","null","","","null","39","","","","","","","","","","","","","","","NaN",""
"","S1","","html-keyboard-response","254","322347","0.0-1.0-362.0","0","0","22709","","null","","","null","40","","","","","","","","","","","","","","","",""
"","ISI","","html-keyboard-response","255","322500","0.0-1.0-363.0","0","0","22709","","null","","","null","40","NaN","","","","","","","","","","","","","","",""
"","S2","","html-keyboard-response","256","322755","0.0-1.0-364.0","0","0","22709","","null","","","null","40","","NaN","","","","","","","","","","","","","",""
"","response","","html-keyboard-response","257","322876","0.0-1.0-365.0-0.0","0","0","22709","","117","","","75","40","","","1","40","training","adjacent","ED","5","4","Q.jpg","N.jpg","1","0","0","",""
"","feedback","","html-keyboard-response","258","323880","0.0-1.0-366.0-0.0","0","0","22709","","null","","","null","40","","","","","","","","","","","","","","","",""
"","time_out","","html-keyboard-response","259","325883","0.0-1.0-368.0-0.0","0","0","22709","","null","","","null","40","","","","","","","","","","","","","","","",""
"","ITI","","html-keyboard-response","260","326897","0.0-1.0-369.0","0","0","22709","","null","","","null","40","","","","","","","","","","","","","","","NaN",""
"","S1","","html-keyboard-response","261","327151","0.0-1.0-371.0","0","0","22709","","null","","","null","41","","","","","","","","","","","","","","","",""
"","ISI","","html-keyboard-response","262","327305","0.0-1.0-372.0","0","0","22709","","null","","","null","41","NaN","","","","","","","","","","","","","","",""
"","S2","","html-keyboard-response","263","327560","0.0-1.0-373.0","0","0","22709","","null","","","null","41","","NaN","","","","","","","","","","","","","",""
"","response","","html-keyboard-response","264","327604","0.0-1.0-374.0-0.0","0","0","22709","","41","","","68","41","","","1","41","training","adjacent","DC","4","3","N.jpg","M.jpg","0","0","1","",""
"","feedback","","html-keyboard-response","265","328609","0.0-1.0-375.0-0.0","0","0","22709","","null","","","null","41","","","","","","","","","","","","","","","",""
"","ITI","","html-keyboard-response","266","329613","0.0-1.0-378.0","0","0","22709","","null","","","null","41","","","","","","","","","","","","","","","NaN",""
"","S1","","html-keyboard-response","267","329869","0.0-1.0-380.0","0","0","22709","","null","","","null","42","","","","","","","","","","","","","","","",""
"","ISI","","html-keyboard-response","268","330022","0.0-1.0-381.0","0","0","22709","","91","","","75","42","k","","","","","","","","","","","","","","",""
"","S2","","html-keyboard-response","269","330292","0.0-1.0-382.0","0","0","22709","","null","","","null","42","","NaN","","","","","","","","","","","","","",""
"","response","","html-keyboard-response","270","330741","0.0-1.0-383.0-0.0","0","0","22709","","444","","","75","42","","","1","42","training","adjacent","FE","6","5","O.jpg","Q.jpg","1","0","0","",""
"","feedback","","html-keyboard-response","271","331745","0.0-1.0-384.0-0.0","0","0","22709","","null","","","null","42","","","","","","","","","","","","","","","",""
"","time_out","","html-keyboard-response","272","333750","0.0-1.0-386.0-0.0","0","0","22709","","null","","","null","42","","","","","","","","","","","","","","","",""
"","ITI","","html-keyboard-response","273","334753","0.0-1.0-387.0","0","0","22709","","622","","","68","42","","","","","","","","","","","","","","","d",""
"","S1","","html-keyboard-response","274","335008","0.0-1.0-389.0","0","0","22709","","null","","","null","43","","","","","","","","","","","","","","","",""
"","ISI","","html-keyboard-response","275","335163","0.0-1.0-390.0","0","0","22709","","null","","","null","43","NaN","","","","","","","","","","","","","","",""
"","S2","","html-keyboard-response","276","335350","0.0-1.0-391.0","0","0","22709","","185","","","68","43","","d","1","43","training","adjacent","DE","4","5","N.jpg","Q.jpg","0","1","0","",""
"","feedback","","html-keyboard-response","277","336356","0.0-1.0-393.0-0.0","0","0","22709","","null","","","null","43","","","","","","","","","","","","","","","",""
"","time_out","","html-keyboard-response","278","338361","0.0-1.0-395.0-0.0","0","0","22709","","null","","","null","43","","","","","","","","","","","","","","","",""
"","ITI","","html-keyboard-response","279","339363","0.0-1.0-396.0","0","0","22709","","558","","","75","43","","","","","","","","","","","","","","","k",""
"","S1","","html-keyboard-response","280","339617","0.0-1.0-398.0","0","0","22709","","null","","","null","44","","","","","","","","","","","","","","","",""
"","ISI","","html-keyboard-response","281","339772","0.0-1.0-399.0","0","0","22709","","null","","","null","44","NaN","","","","","","","","","","","","","","",""
"","S2","","html-keyboard-response","282","340027","0.0-1.0-400.0","0","0","22709","","null","","","null","44","","NaN","","","","","","","","","","","","","",""
"","response","","html-keyboard-response","283","341781","0.0-1.0-401.0-0.0","0","0","22709","","null","","","null","44","","","1","44","training","adjacent","AB","1","2","R.jpg","P.jpg","NaN","1","0","",""
"","too_slow_prompt","","html-keyboard-response","284","342785","0.0-1.0-403.0-0.0","1","0","22709","","null","","","null","","","","","","","","","","","","","","","","",""
"","time_out","","html-keyboard-response","285","344790","0.0-1.0-404.0-0.0","0","0","22709","","null","","","null","44","","","","","","","","","","","","","","","",""
"","ITI","","html-keyboard-response","286","345794","0.0-1.0-405.0","0","0","22709","","null","","","null","44","","","","","","","","","","","","","","","NaN",""
"","S1","","html-keyboard-response","287","346048","0.0-1.0-407.0","0","0","22709","","null","","","null","45","","","","","","","","","","","","","","","",""
"","ISI","","html-keyboard-response","288","346202","0.0-1.0-408.0","0","0","22709","","null","","","null","45","NaN","","","","","","","","","","","","","","",""
"","S2","","html-keyboard-response","289","346401","0.0-1.0-409.0","0","0","22709","","194","","","75","45","","k","1","45","training","adjacent","CB","3","2","M.jpg","P.jpg","1","0","0","",""
"","feedback","","html-keyboard-response","290","347405","0.0-1.0-411.0-0.0","0","0","22709","","null","","","null","45","","","","","","","","","","","","","","","",""
"","time_out","","html-keyboard-response","291","349410","0.0-1.0-413.0-0.0","0","0","22709","","null","","","null","45","","","","","","","","","","","","","","","",""
"","ITI","","html-keyboard-response","292","350414","0.0-1.0-414.0","0","0","22709","","848","","","68","45","","","","","","","","","","","","","","","d",""
"","S1","","html-keyboard-response","293","350671","0.0-1.0-416.0","0","0","22709","","null","","","null","46","","","","","","","","","","","","","","","",""
"","ISI","","html-keyboard-response","294","350825","0.0-1.0-417.0","0","0","22709","","null","","","null","46","NaN","","","","","","","","","","","","","","",""
"","S2","","html-keyboard-response","295","351079","0.0-1.0-418.0","0","0","22709","","null","","","null","46","","NaN","","","","","","","","","","","","","",""
"","response","","html-keyboard-response","296","352531","0.0-1.0-419.0-0.0","0","0","22709","","1449","","","75","46","","","1","46","training","adjacent","ED","5","4","Q.jpg","N.jpg","1","0","0","",""
"","feedback","","html-keyboard-response","297","353535","0.0-1.0-420.0-0.0","0","0","22709","","null","","","null","46","","","","","","","","","","","","","","","",""
"","time_out","","html-keyboard-response","298","355540","0.0-1.0-422.0-0.0","0","0","22709","","null","","","null","46","","","","","","","","","","","","","","","",""
"","ITI","","html-keyboard-response","299","356544","0.0-1.0-423.0","0","0","22709","","409","","","75","46","","","","","","","","","","","","","","","k",""
"","S1","","html-keyboard-response","300","356799","0.0-1.0-425.0","0","0","22709","","null","","","null","47","","","","","","","","","","","","","","","",""
"","ISI","","html-keyboard-response","301","356952","0.0-1.0-426.0","0","0","22709","","null","","","null","47","NaN","","","","","","","","","","","","","","",""
"","S2","","html-keyboard-response","302","356976","0.0-1.0-427.0","0","0","22709","","21","","","68","47","","d","1","47","training","adjacent","DC","4","3","N.jpg","M.jpg","0","0","1","",""
"","feedback","","html-keyboard-response","303","357980","0.0-1.0-429.0-0.0","0","0","22709","","null","","","null","47","","","","","","","","","","","","","","","",""
"","ITI","","html-keyboard-response","304","358981","0.0-1.0-432.0","0","0","22709","","null","","","null","47","","","","","","","","","","","","","","","NaN",""
"","block_over","","html-keyboard-response","305","361310","0.0-1.0-433.0-0.0","0","0","22709","","2325","","","32","47","","","","","","","","","","","","","","","",""
"","S1","","html-keyboard-response","306","361564","0.0-1.0-434.0","0","0","22709","","null","","","null","48","","","","","","","","","","","","","","","",""
"","ISI","","html-keyboard-response","307","361718","0.0-1.0-435.0","0","0","22709","","null","","","null","48","NaN","","","","","","","","","","","","","","",""
"","S2","","html-keyboard-response","308","361971","0.0-1.0-436.0","0","0","22709","","null","","","null","48","","NaN","","","","","","","","","","","","","",""
"","response","","html-keyboard-response","309","363163","0.0-1.0-437.0-0.0","0","0","22709","","1189","","","68","48","","","2","48","training","adjacent","AB","1","2","R.jpg","P.jpg","0","1","0","",""
"","feedback","","html-keyboard-response","310","364168","0.0-1.0-438.0-0.0","0","0","22709","","null","","","null","48","","","","","","","","","","","","","","","",""
"","time_out","","html-keyboard-response","311","366173","0.0-1.0-440.0-0.0","0","0","22709","","null","","","null","48","","","","","","","","","","","","","","","",""
"","ITI","","html-keyboard-response","312","367179","0.0-1.0-441.0","0","0","22709","","578","","","75","48","","","","","","","","","","","","","","","k",""
"","S1","","html-keyboard-response","313","367433","0.0-1.0-443.0","0","0","22709","","null","","","null","49","","","","","","","","","","","","","","","",""
"","ISI","","html-keyboard-response","314","367589","0.0-1.0-444.0","0","0","22709","","null","","","null","49","NaN","","","","","","","","","","","","","","",""
"","S2","","html-keyboard-response","315","367843","0.0-1.0-445.0","0","0","22709","","null","","","null","49","","NaN","","","","","","","","","","","","","",""
"","response","","html-keyboard-response","316","369544","0.0-1.0-446.0-0.0","0","0","22709","","1698","","","75","49","","","2","49","training","adjacent","AB","1","2","R.jpg","P.jpg","1","1","1","",""
"","feedback","","html-keyboard-response","317","370548","0.0-1.0-447.0-0.0","0","0","22709","","null","","","null","49","","","","","","","","","","","","","","","",""
"","ITI","","html-keyboard-response","318","371552","0.0-1.0-450.0","0","0","22709","","null","","","null","49","","","","","","","","","","","","","","","NaN",""
"","S1","","html-keyboard-response","319","371807","0.0-1.0-452.0","0","0","22709","","null","","","null","50","","","","","","","","","","","","","","","",""
"","ISI","","html-keyboard-response","320","371961","0.0-1.0-453.0","0","0","22709","","null","","","null","50","NaN","","","","","","","","","","","","","","",""
"","S2","","html-keyboard-response","321","372018","0.0-1.0-454.0","0","0","22709","","53","","","75","50","","k","2","50","training","adjacent","FG","6","7","O.jpg","L.jpg","1","1","1","",""
"","feedback","","html-keyboard-response","322","373022","0.0-1.0-456.0-0.0","0","0","22709","","null","","","null","50","","","","","","","","","","","","","","","",""
"","ITI","","html-keyboard-response","323","374027","0.0-1.0-459.0","0","0","22709","","null","","","null","50","","","","","","","","","","","","","","","NaN",""
"","S1","","html-keyboard-response","324","374281","0.0-1.0-461.0","0","0","22709","","null","","","null","51","","","","","","","","","","","","","","","",""
"","ISI","","html-keyboard-response","325","374434","0.0-1.0-462.0","0","0","22709","","null","","","null","51","NaN","","","","","","","","","","","","","","",""
"","S2","","html-keyboard-response","326","374690","0.0-1.0-463.0","0","0","22709","","null","","","null","51","","NaN","","","","","","","","","","","","","",""
"","response","","html-keyboard-response","327","374719","0.0-1.0-464.0-0.0","0","0","22709","","26","","","75","51","","","2","51","training","adjacent","CB","3","2","M.jpg","P.jpg","1","0","0","",""
"","feedback","","html-keyboard-response","328","375724","0.0-1.0-465.0-0.0","0","0","22709","","null","","","null","51","","","","","","","","","","","","","","","",""
"","time_out","","html-keyboard-response","329","377729","0.0-1.0-467.0-0.0","0","0","22709","","null","","","null","51","","","","","","","","","","","","","","","",""
"","ITI","","html-keyboard-response","330","378733","0.0-1.0-468.0","0","0","22709","","214","","","68","51","","","","","","","","","","","","","","","d",""
"","S1","","html-keyboard-response","331","378986","0.0-1.0-470.0","0","0","22709","","null","","","null","52","","","","","","","","","","","","","","","",""
"","ISI","","html-keyboard-response","332","379138","0.0-1.0-471.0","0","0","22709","","null","","","null","52","NaN","","","","","","","","","","","","","","",""
"","S2","","html-keyboard-response","333","379390","0.0-1.0-472.0","0","0","22709","","null","","","null","52","","NaN","","","","","","","","","","","","","",""
"","response","","html-keyboard-response","334","381042","0.0-1.0-473.0-0.0","0","0","22709","","1651","","","75","52","","","2","52","training","adjacent","BC","2","3","P.jpg","M.jpg","1","1","1","",""
"","feedback","","html-keyboard-response","335","382046","0.0-1.0-474.0-0.0","0","0","22709","","null","","","null","52","","","","","","","","","","","","","","","",""
"","ITI","","html-keyboard-response","336","383051","0.0-1.0-477.0","0","0","22709","","null","","","null","52","","","","","","","","","","","","","","","NaN",""
"","S1","","html-keyboard-response","337","383305","0.0-1.0-479.0","0","0","22709","","null","","","null","53","","","","","","","","","","","","","","","",""
"","ISI","","html-keyboard-response","338","383459","0.0-1.0-480.0","0","0","22709","","142","","","75","53","k","","","","","","","","","","","","","","",""
"","S2","","html-keyboard-response","339","383712","0.0-1.0-481.0","0","0","22709","","null","","","null","53","","NaN","","","","","","","","","","","","","",""
"","response","","html-keyboard-response","340","383889","0.0-1.0-482.0-0.0","0","0","22709","","172","","","75","53","","","2","53","training","adjacent","GF","7","6","L.jpg","O.jpg","1","0","0","",""
"","feedback","","html-keyboard-response","341","384894","0.0-1.0-483.0-0.0","0","0","22709","","null","","","null","53","","","","","","","","","","","","","","","",""
"","time_out","","html-keyboard-response","342","386900","0.0-1.0-485.0-0.0","0","0","22709","","null","","","null","53","","","","","","","","","","","","","","","",""
"","ITI","","html-keyboard-response","343","387903","0.0-1.0-486.0","0","0","22709","","null","","","null","53","","","","","","","","","","","","","","","NaN",""
"","S1","","html-keyboard-response","344","388156","0.0-1.0-488.0","0","0","22709","","null","","","null","54","","","","","","","","","","","","","","","",""
"","ISI","","html-keyboard-response","345","388310","0.0-1.0-489.0","0","0","22709","","null","","","null","54","NaN","","","","","","","","","","","","","","",""
"","S2","","html-keyboard-response","346","388564","0.0-1.0-490.0","0","0","22709","","null","","","null","54","","NaN","","","","","","","","","","","","","",""
"","response","","html-keyboard-response","347","390318","0.0-1.0-491.0-0.0","0","0","22709","","null","","","null","54","","","2","54","training","adjacent","DE","4","5","N.jpg","Q.jpg","NaN","1","0","",""
"","too_slow_prompt","","html-keyboard-response","348","391322","0.0-1.0-493.0-0.0","1","0","22709","","null","","","null","","","","","","","","","","","","","","","","",""
"","time_out","","html-keyboard-response","349","393325","0.0-1.0-494.0-0.0","0","0","22709","","null","","","null","54","","","","","","","","","","","","","","","",""
"","ITI","","html-keyboard-response","350","394327","0.0-1.0-495.0","0","0","22709","","3","","","75","54","","","","","","","","","","","","","","","k",""
"","S1","","html-keyboard-response","351","394581","0.0-1.0-497.0","0","0","22709","","null","","","null","55","","","","","","","","","","","","","","","",""
"","ISI","","html-keyboard-response","352","394735","0.0-1.0-498.0","0","0","22709","","null","","","null","55","NaN","","","","","","","","","","","","","","",""
"","S2","","html-keyboard-response","353","394913","0.0-1.0-499.0","0","0","22709","","175","","","75","55","","k","2","55","training","adjacent","DC","4","3","N.jpg","M.jpg","1","0","0","",""
"","feedback","","html-keyboard-response","354","395918","0.0-1.0-501.0-0.0","0","0","22709","","null","","","null","55","","","","","","","","","","","","","","","",""
"","time_out","","html-keyboard-response","355","397923","0.0-1.0-503.0-0.0","0","0","22709","","null","","","null","55","","","","","","","","","","","","","","","",""
"","ITI","","html-keyboard-response","356","398927","0.0-1.0-504.0","0","0","22709","","869","","","68","55","","","","","","","","","","","","","","","d",""
"","S1","","html-keyboard-response","357","399182","0.0-1.0-506.0","0","0","22709","","null","","","null","56","","","","","","","","","","","","","","","",""
"","ISI","","html-keyboard-response","358","399335","0.0-1.0-507.0","0","0","22709","","93","","","68","56","d","","","","","","","","","","","","","","",""
"","S2","","html-keyboard-response","359","399588","0.0-1.0-508.0","0","0","22709","","null","","","null","56","","NaN","","","","","","","","","","","","","",""
"","response","","html-keyboard-response","360","399750","0.0-1.0-509.0-0.0","0","0","22709","","159","","","68","56","","","2","56","training","adjacent","CD","3","4","M.jpg","N.jpg","0","1","0","",""
"","feedback","","html-keyboard-response","361","400755","0.0-1.0-510.0-0.0","0","0","22709","","null","","","null","56","","","","","","","","","","","","","","","",""
"","time_out","","html-keyboard-response","362","402761","0.0-1.0-512.0-0.0","0","0","22709","","null","","","null","56","","","","","","","","","","","","","","","",""
"","ITI","","html-keyboard-response","363","403765","0.0-1.0-513.0","0","0","22709","","null","","","null","56","","","","","","","","","","","","","","","NaN",""
"","S1","","html-keyboard-response","364","404020","0.0-1.0-515.0","0","0","22709","","null","","","null","57","","","","","","","","","","","","","","","",""
"","ISI","","html-keyboard-response","365","404173","0.0-1.0-516.0","0","0","22709","","null","","","null","57","NaN","","","","","","","","","","","","","","",""
"","S2","","html-keyboard-response","366","404428","0.0-1.0-517.0","0","0","22709","","null","","","null","57","","NaN","","","","","","","","","","","","","",""
"","response","","html-keyboard-response","367","404736","0.0-1.0-518.0-0.0","0","0","22709","","305","","","68","57","","","2","57","training","adjacent","EF","5","6","Q.jpg","O.jpg","0","1","0","",""
"","feedback","","html-keyboard-response","368","405741","0.0-1.0-519.0-0.0","0","0","22709","","null","","","null","57","","","","","","","","","","","","","","","",""
"","time_out","","html-keyboard-response","369","407745","0.0-1.0-521.0-0.0","0","0","22709","","null","","","null","57","","","","","","","","","","","","","","","",""
"","ITI","","html-keyboard-response","370","408748","0.0-1.0-522.0","0","0","22709","","null","","","null","57","","","","","","","","","","","","","","","NaN",""
"","S1","","html-keyboard-response","371","409001","0.0-1.0-524.0","0","0","22709","","null","","","null","58","","","","","","","","","","","","","","","",""
"","ISI","","html-keyboard-response","372","409155","0.0-1.0-525.0","0","0","22709","","null","","","null","58","NaN","","","","","","","","","","","","","","",""
"","S2","","html-keyboard-response","373","409411","0.0-1.0-526.0","0","0","22709","","null","","","null","58","","NaN","","","","","","","","","","","","","",""
"","response","","html-keyboard-response","374","411164","0.0-1.0-527.0-0.0","0","0","22709","","null","","","null","58","","","2","58","training","adjacent","CD","3","4","M.jpg","N.jpg","NaN","1","0","",""
"","too_slow_prompt","","html-keyboard-response","375","412167","0.0-1.0-529.0-0.0","1","0","22709","","null","","","null","","","","","","","","","","","","","","","","",""
"","time_out","","html-keyboard-response","376","414171","0.0-1.0-530.0-0.0","0","0","22709","","null","","","null","58","","","","","","","","","","","","","","","",""
"","ITI","","html-keyboard-response","377","415174","0.0-1.0-531.0","0","0","22709","","null","","","null","58","","","","","","","","","","","","","","","NaN",""
"","S1","","html-keyboard-response","378","415429","0.0-1.0-533.0","0","0","22709","","null","","","null","59","","","","","","","","","","","","","","","",""
"","ISI","","html-keyboard-response","379","415582","0.0-1.0-534.0","0","0","22709","","null","","","null","59","NaN","","","","","","","","","","","","","","",""
"","S2","","html-keyboard-response","380","415717","0.0-1.0-535.0","0","0","22709","","133","","","68","59","","d","2","59","training","adjacent","EF","5","6","Q.jpg","O.jpg","0","1","0","",""
"","feedback","","html-keyboard-response","381","416721","0.0-1.0-537.0-0.0","0","0","22709","","null","","","null","59","","","","","","","","","","","","","","","",""
"","time_out","","html-keyboard-response","382","418724","0.0-1.0-539.0-0.0","0","0","22709","","null","","","null","59","","","","","","","","","","","","","","","",""
"","ITI","","html-keyboard-response","383","419728","0.0-1.0-540.0","0","0","22709","","117","","","75","59","","","","","","","","","","","","","","","k",""
"","S1","","html-keyboard-response","384","419983","0.0-1.0-542.0","0","0","22709","","null","","","null","60","","","","","","","","","","","","","","","",""
"","ISI","","html-keyboard-response","385","420137","0.0-1.0-543.0","0","0","22709","","null","","","null","60","NaN","","","","","","","","","","","","","","",""
"","S2","","html-keyboard-response","386","420181","0.0-1.0-544.0","0","0","22709","","41","","","75","60","","k","2","60","training","adjacent","DE","4","5","N.jpg","Q.jpg","1","1","1","",""
"","feedback","","html-keyboard-response","387","421188","0.0-1.0-546.0-0.0","0","0","22709","","null","","","null","60","","","","","","","","","","","","","","","",""
"","ITI","","html-keyboard-response","388","422193","0.0-1.0-549.0","0","0","22709","","null","","","null","60","","","","","","","","","","","","","","","NaN",""
"","S1","","html-keyboard-response","389","422451","0.0-1.0-551.0","0","0","22709","","null","","","null","61","","","","","","","","","","","","","","","",""
"","ISI","","html-keyboard-response","390","422604","0.0-1.0-552.0","0","0","22709","","null","","","null","61","NaN","","","","","","","","","","","","","","",""
"","S2","","html-keyboard-response","391","422781","0.0-1.0-553.0","0","0","22709","","173","","","75","61","","k","2","61","training","adjacent","ED","5","4","Q.jpg","N.jpg","1","0","0","",""
"","feedback","","html-keyboard-response","392","423786","0.0-1.0-555.0-0.0","0","0","22709","","null","","","null","61","","","","","","","","","","","","","","","",""
"","time_out","","html-keyboard-response","393","425790","0.0-1.0-557.0-0.0","0","0","22709","","null","","","null","61","","","","","","","","","","","","","","","",""
"","ITI","","html-keyboard-response","394","426794","0.0-1.0-558.0","0","0","22709","","418","","","68","61","","","","","","","","","","","","","","","d",""
"","S1","","html-keyboard-response","395","427049","0.0-1.0-560.0","0","0","22709","","null","","","null","62","","","","","","","","","","","","","","","",""
"","ISI","","html-keyboard-response","396","427203","0.0-1.0-561.0","0","0","22709","","null","","","null","62","NaN","","","","","","","","","","","","","","",""
"","S2","","html-keyboard-response","397","427457","0.0-1.0-562.0","0","0","22709","","null","","","null","62","","NaN","","","","","","","","","","","","","",""
"","response","","html-keyboard-response","398","427472","0.0-1.0-563.0-0.0","0","0","22709","","11","","","68","62","","","2","62","training","adjacent","BC","2","3","P.jpg","M.jpg","0","1","0","",""
"","feedback","","html-keyboard-response","399","428488","0.0-1.0-564.0-0.0","0","0","22709","","null","","","null","62","","","","","","","","","","","","","","","",""
"","time_out","","html-keyboard-response","400","430492","0.0-1.0-566.0-0.0","0","0","22709","","null","","","null","62","","","","","","","","","","","","","","","",""
"","ITI","","html-keyboard-response","401","431497","0.0-1.0-567.0","0","0","22709","","null","","","null","62","","","","","","","","","","","","","","","NaN",""
"","S1","","html-keyboard-response","402","431751","0.0-1.0-569.0","0","0","22709","","null","","","null","63","","","","","","","","","","","","","","","",""
"","ISI","","html-keyboard-response","403","431905","0.0-1.0-570.0","0","0","22709","","123","","","68","63","d","","","","","","","","","","","","","","",""
"","S2","","html-keyboard-response","404","432160","0.0-1.0-571.0","0","0","22709","","null","","","null","63","","NaN","","","","","","","","","","","","","",""
"","response","","html-keyboard-response","405","432581","0.0-1.0-572.0-0.0","0","0","22709","","417","","","68","63","","","2","63","training","adjacent","CB","3","2","M.jpg","P.jpg","0","0","1","",""
"","feedback","","html-keyboard-response","406","433585","0.0-1.0-573.0-0.0","0","0","22709","","null","","","null","63","","","","","","","","","","","","","","","",""
"","ITI","","html-keyboard-response","407","434590","0.0-1.0-576.0","0","0","22709","","null","","","null","63","","","","","","","","","","","","","","","NaN",""
"","S1","","html-keyboard-response","408","434846","0.0-1.0-578.0","0","0","22709","","null","","","null","64","","","","","","","","","","","","","","","",""
"","ISI","","html-keyboard-response","409","435000","0.0-1.0-579.0","0","0","22709","","null","","","null","64","NaN","","","","","","","","","","","","","","",""
"","S2","","html-keyboard-response","410","435255","0.0-1.0-580.0","0","0","22709","","null","","","null","64","","NaN","","","","","","","","","","","","","",""
"","response","","html-keyboard-response","411","436710","0.0-1.0-581.0-0.0","0","0","22709","","1451","","","68","64","","","2","64","training","adjacent","EF","5","6","Q.jpg","O.jpg","0","1","0","",""
"","feedback","","html-keyboard-response","412","437715","0.0-1.0-582.0-0.0","0","0","22709","","null","","","null","64","","","","","","","","","","","","","","","",""
"","time_out","","html-keyboard-response","413","439720","0.0-1.0-584.0-0.0","0","0","22709","","null","","","null","64","","","","","","","","","","","","","","","",""
"","ITI","","html-keyboard-response","414","440722","0.0-1.0-585.0","0","0","22709","","979","","","75","64","","","","","","","","","","","","","","","k",""
"","S1","","html-keyboard-response","415","440976","0.0-1.0-587.0","0","0","22709","","null","","","null","65","","","","","","","","","","","","","","","",""
"","ISI","","html-keyboard-response","416","441129","0.0-1.0-588.0","0","0","22709","","null","","","null","65","NaN","","","","","","","","","","","","","","",""
"","S2","","html-keyboard-response","417","441382","0.0-1.0-589.0","0","0","22709","","null","","","null","65","","NaN","","","","","","","","","","","","","",""
"","response","","html-keyboard-response","418","441491","0.0-1.0-590.0-0.0","0","0","22709","","105","","","75","65","","","2","65","training","adjacent","FE","6","5","O.jpg","Q.jpg","1","0","0","",""
"","feedback","","html-keyboard-response","419","442496","0.0-1.0-591.0-0.0","0","0","22709","","null","","","null","65","","","","","","","","","","","","","","","",""
"","time_out","","html-keyboard-response","420","444509","0.0-1.0-593.0-0.0","0","0","22709","","null","","","null","65","","","","","","","","","","","","","","","",""
"","ITI","","html-keyboard-response","421","445513","0.0-1.0-594.0","0","0","22709","","916","","","68","65","","","","","","","","","","","","","","","d",""
"","S1","","html-keyboard-response","422","445768","0.0-1.0-596.0","0","0","22709","","null","","","null","66","","","","","","","","","","","","","","","",""
"","ISI","","html-keyboard-response","423","445922","0.0-1.0-597.0","0","0","22709","","null","","","null","66","NaN","","","","","","","","","","","","","","",""
"","S2","","html-keyboard-response","424","446010","0.0-1.0-598.0","0","0","22709","","86","","","68","66","","d","2","66","training","adjacent","FG","6","7","O.jpg","L.jpg","0","1","0","",""
"","feedback","","html-keyboard-response","425","447014","0.0-1.0-600.0-0.0","0","0","22709","","null","","","null","66","","","","","","","","","","","","","","","",""
"","time_out","","html-keyboard-response","426","449018","0.0-1.0-602.0-0.0","0","0","22709","","null","","","null","66","","","","","","","","","","","","","","","",""
"","ITI","","html-keyboard-response","427","450021","0.0-1.0-603.0","0","0","22709","","null","","","null","66","","","","","","","","","","","","","","","NaN",""
"","S1","","html-keyboard-response","428","450276","0.0-1.0-605.0","0","0","22709","","null","","","null","67","","","","","","","","","","","","","","","",""
"","ISI","","html-keyboard-response","429","450430","0.0-1.0-606.0","0","0","22709","","null","","","null","67","NaN","","","","","","","","","","","","","","",""
"","S2","","html-keyboard-response","430","450546","0.0-1.0-607.0","0","0","22709","","113","","","75","67","","k","2","67","training","adjacent","ED","5","4","Q.jpg","N.jpg","1","0","0","",""
"","feedback","","html-keyboard-response","431","451550","0.0-1.0-609.0-0.0","0","0","22709","","null","","","null","67","","","","","","","","","","","","","","","",""
"","time_out","","html-keyboard-response","432","453554","0.0-1.0-611.0-0.0","0","0","22709","","null","","","null","67","","","","","","","","","","","","","","","",""
"","ITI","","html-keyboard-response","433","454557","0.0-1.0-612.0","0","0","22709","","983","","","75","67","","","","","","","","","","","","","","","k",""
"","S1","","html-keyboard-response","434","454810","0.0-1.0-614.0","0","0","22709","","null","","","null","68","","","","","","","","","","","","","","","",""
"","ISI","","html-keyboard-response","435","454964","0.0-1.0-615.0","0","0","22709","","null","","","null","68","NaN","","","","","","","","","","","","","","",""
"","S2","","html-keyboard-response","436","455220","0.0-1.0-616.0","0","0","22709","","null","","","null","68","","NaN","","","","","","","","","","","","","",""
"","response","","html-keyboard-response","437","455801","0.0-1.0-617.0-0.0","0","0","22709","","577","","","75","68","","","2","68","training","adjacent","EF","5","6","Q.jpg","O.jpg","1","1","1","",""
"","feedback","","html-keyboard-response","438","456807","0.0-1.0-618.0-0.0","0","0","22709","","null","","","null","68","","","","","","","","","","","","","","","",""
"","ITI","","html-keyboard-response","439","457812","0.0-1.0-621.0","0","0","22709","","null","","","null","68","","","","","","","","","","","","","","","NaN",""
"","S1","","html-keyboard-response","440","458064","0.0-1.0-623.0","0","0","22709","","null","","","null","69","","","","","","","","","","","","","","","",""
"","ISI","","html-keyboard-response","441","458217","0.0-1.0-624.0","0","0","22709","","null","","","null","69","NaN","","","","","","","","","","","","","","",""
"","S2","","html-keyboard-response","442","458261","0.0-1.0-625.0","0","0","22709","","42","","","75","69","","k","2","69","training","adjacent","BC","2","3","P.jpg","M.jpg","1","1","1","",""
"","feedback","","html-keyboard-response","443","459265","0.0-1.0-627.0-0.0","0","0","22709","","null","","","null","69","","","","","","","","","","","","","","","",""
"","ITI","","html-keyboard-response","444","460268","0.0-1.0-630.0","0","0","22709","","810","","","68","69","","","","","","","","","","","","","","","d",""
"","S1","","html-keyboard-response","445","460524","0.0-1.0-632.0","0","0","22709","","null","","","null","70","","","","","","","","","","","","","","","",""
"","ISI","","html-keyboard-response","446","460679","0.0-1.0-633.0","0","0","22709","","89","","","68","70","d","","","","","","","","","","","","","","",""
"","S2","","html-keyboard-response","447","460942","0.0-1.0-634.0","0","0","22709","","null","","","null","70","","NaN","","","","","","","","","","","","","",""
"","response","","html-keyboard-response","448","461336","0.0-1.0-635.0-0.0","0","0","22709","","391","","","75","70","","","2","70","training","adjacent","FE","6","5","O.jpg","Q.jpg","1","0","0","",""
"","feedback","","html-keyboard-response","449","462341","0.0-1.0-636.0-0.0","0","0","22709","","null","","","null","70","","","","","","","","","","","","","","","",""
"","time_out","","html-keyboard-response","450","464346","0.0-1.0-638.0-0.0","0","0","22709","","null","","","null","70","","","","","","","","","","","","","","","",""
"","ITI","","html-keyboard-response","451","465349","0.0-1.0-639.0","0","0","22709","","null","","","null","70","","","","","","","","","","","","","","","NaN",""
"","S1","","html-keyboard-response","452","465602","0.0-1.0-641.0","0","0","22709","","null","","","null","71","","","","","","","","","","","","","","","",""
"","ISI","","html-keyboard-response","453","465755","0.0-1.0-642.0","0","0","22709","","null","","","null","71","NaN","","","","","","","","","","","","","","",""
"","S2","","html-keyboard-response","454","465826","0.0-1.0-643.0","0","0","22709","","68","","","75","71","","k","2","71","training","adjacent","GF","7","6","L.jpg","O.jpg","1","0","0","",""
"","feedback","","html-keyboard-response","455","466831","0.0-1.0-645.0-0.0","0","0","22709","","null","","","null","71","","","","","","","","","","","","","","","",""
"","time_out","","html-keyboard-response","456","468836","0.0-1.0-647.0-0.0","0","0","22709","","null","","","null","71","","","","","","","","","","","","","","","",""
"","ITI","","html-keyboard-response","457","469839","0.0-1.0-648.0","0","0","22709","","null","","","null","71","","","","","","","","","","","","","","","NaN",""
"","S1","","html-keyboard-response","458","470100","0.0-1.0-650.0","0","0","22709","","null","","","null","72","","","","","","","","","","","","","","","",""
"","ISI","","html-keyboard-response","459","470252","0.0-1.0-651.0","0","0","22709","","41","","","68","72","d","","","","","","","","","","","","","","",""
"","S2","","html-keyboard-response","460","470507","0.0-1.0-652.0","0","0","22709","","null","","","null","72","","NaN","","","","","","","","","","","","","",""
"","response","","html-keyboard-response","461","470899","0.0-1.0-653.0-0.0","0","0","22709","","390","","","68","72","","","2","72","training","adjacent","FE","6","5","O.jpg","Q.jpg","0","0","1","",""
"","feedback","","html-keyboard-response","462","471902","0.0-1.0-654.0-0.0","0","0","22709","","null","","","null","72","","","","","","","","","","","","","","","",""
"","ITI","","html-keyboard-response","463","472907","0.0-1.0-657.0","0","0","22709","","null","","","null","72","","","","","","","","","","","","","","","NaN",""
"","S1","","html-keyboard-response","464","473162","0.0-1.0-659.0","0","0","22709","","null","","","null","73","","","","","","","","","","","","","","","",""
"","ISI","","html-keyboard-response","465","473315","0.0-1.0-660.0","0","0","22709","","134","","","75","73","k","","","","","","","","","","","","","","",""
"","S2","","html-keyboard-response","466","473569","0.0-1.0-661.0","0","0","22709","","null","","","null","73","","NaN","","","","","","","","","","","","","",""
"","response","","html-keyboard-response","467","473757","0.0-1.0-662.0-0.0","0","0","22709","","184","","","75","73","","","2","73","training","adjacent","DC","4","3","N.jpg","M.jpg","1","0","0","",""
"","feedback","","html-keyboard-response","468","474762","0.0-1.0-663.0-0.0","0","0","22709","","null","","","null","73","","","","","","","","","","","","","","","",""
"","time_out","","html-keyboard-response","469","476767","0.0-1.0-665.0-0.0","0","0","22709","","null","","","null","73","","","","","","","","","","","","","","","",""
"","ITI","","html-keyboard-response","470","477771","0.0-1.0-666.0","0","0","22709","","null","","","null","73","","","","","","","","","","","","","","","NaN",""
"","S1","","html-keyboard-response","471","478025","0.0-1.0-668.0","0","0","22709","","null","","","null","74","","","","","","","","","","","","","","","",""
"","ISI","","html-keyboard-response","472","478179","0.0-1.0-669.0","0","0","22709","","null","","","null","74","NaN","","","","","","","","","","","","","","",""
"","S2","","html-keyboard-response","473","478433","0.0-1.0-670.0","0","0","22709","","null","","","null","74","","NaN","","","","","","","","","","","","","",""
"","response","","html-keyboard-response","474","478858","0.0-1.0-671.0-0.0","0","0","22709","","421","","","75","74","","","2","74","training","adjacent","BA","2","1","P.jpg","R.jpg","1","0","0","",""
"","feedback","","html-keyboard-response","475","479862","0.0-1.0-672.0-0.0","0","0","22709","","null","","","null","74","","","","","","","","","","","","","","","",""
"","time_out","","html-keyboard-response","476","481864","0.0-1.0-674.0-0.0","0","0","22709","","null","","","null","74","","","","","","","","","","","","","","","",""
"","ITI","","html-keyboard-response","477","482868","0.0-1.0-675.0","0","0","22709","","null","","","null","74","","","","","","","","","","","","","","","NaN",""
"","S1","","html-keyboard-response","478","483122","0.0-1.0-677.0","0","0","22709","","null","","","null","75","","","","","","","","","","","","","","","",""
"","ISI","","html-keyboard-response","479","483276","0.0-1.0-678.0","0","0","22709","","null","","","null","75","NaN","","","","","","","","","","","","","","",""
"","S2","","html-keyboard-response","480","483530","0.0-1.0-679.0","0","0","22709","","null","","","null","75","","NaN","","","","","","","","","","","","","",""
"","response","","html-keyboard-response","481","483941","0.0-1.0-680.0-0.0","0","0","22709","","409","","","68","75","","","2","75","training","adjacent","FE","6","5","O.jpg","Q.jpg","0","0","1","",""
"","feedback","","html-keyboard-response","482","484947","0.0-1.0-681.0-0.0","0","0","22709","","null","","","null","75","","","","","","","","","","","","","","","",""
"","ITI","","html-keyboard-response","483","485951","0.0-1.0-684.0","0","0","22709","","null","","","null","75","","","","","","","","","","","","","","","NaN",""
"","S1","","html-keyboard-response","484","486206","0.0-1.0-686.0","0","0","22709","","null","","","null","76","","","","","","","","","","","","","","","",""
"","ISI","","html-keyboard-response","485","486360","0.0-1.0-687.0","0","0","22709","","null","","","null","76","NaN","","","","","","","","","","","","","","",""
"","S2","","html-keyboard-response","486","486615","0.0-1.0-688.0","0","0","22709","","null","","","null","76","","NaN","","","","","","","","","","","","","",""
"","response","","html-keyboard-response","487","487859","0.0-1.0-689.0-0.0","0","0","22709","","1240","","","68","76","","","2","76","training","adjacent","AB","1","2","R.jpg","P.jpg","0","1","0","",""
"","feedback","","html-keyboard-response","488","488864","0.0-1.0-690.0-0.0","0","0","22709","","null","","","null","76","","","","","","","","","","","","","","","",""
"","time_out","","html-keyboard-response","489","490871","0.0-1.0-692.0-0.0","0","0","22709","","null","","","null","76","","","","","","","","","","","","","","","",""
"","ITI","","html-keyboard-response","490","491873","0.0-1.0-693.0","0","0","22709","","null","","","null","76","","","","","","","","","","","","","","","NaN",""
"","S1","","html-keyboard-response","491","492127","0.0-1.0-695.0","0","0","22709","","null","","","null","77","","","","","","","","","","","","","","","",""
"","ISI","","html-keyboard-response","492","492281","0.0-1.0-696.0","0","0","22709","","null","","","null","77","NaN","","","","","","","","","","","","","","",""
"","S2","","html-keyboard-response","493","492514","0.0-1.0-697.0","0","0","22709","","227","","","75","77","","k","2","77","training","adjacent","DE","4","5","N.jpg","Q.jpg","1","1","1","",""
"","feedback","","html-keyboard-response","494","493518","0.0-1.0-699.0-0.0","0","0","22709","","null","","","null","77","","","","","","","","","","","","","","","",""
"","ITI","","html-keyboard-response","495","494523","0.0-1.0-702.0","0","0","22709","","null","","","null","77","","","","","","","","","","","","","","","NaN",""
"","S1","","html-keyboard-response","496","494778","0.0-1.0-704.0","0","0","22709","","null","","","null","78","","","","","","","","","","","","","","","",""
"","ISI","","html-keyboard-response","497","494932","0.0-1.0-705.0","0","0","22709","","null","","","null","78","NaN","","","","","","","","","","","","","","",""
"","S2","","html-keyboard-response","498","495186","0.0-1.0-706.0","0","0","22709","","null","","","null","78","","NaN","","","","","","","","","","","","","",""
"","response","","html-keyboard-response","499","495482","0.0-1.0-707.0-0.0","0","0","22709","","292","","","68","78","","","2","78","training","adjacent","AB","1","2","R.jpg","P.jpg","0","1","0","",""
"","feedback","","html-keyboard-response","500","496488","0.0-1.0-708.0-0.0","0","0","22709","","null","","","null","78","","","","","","","","","","","","","","","",""
"","time_out","","html-keyboard-response","501","498505","0.0-1.0-710.0-0.0","0","0","22709","","null","","","null","78","","","","","","","","","","","","","","","",""
"","ITI","","html-keyboard-response","502","499510","0.0-1.0-711.0","0","0","22709","","null","","","null","78","","","","","","","","","","","","","","","NaN",""
"","S1","","html-keyboard-response","503","499765","0.0-1.0-713.0","0","0","22709","","null","","","null","79","","","","","","","","","","","","","","","",""
"","ISI","","html-keyboard-response","504","499919","0.0-1.0-714.0","0","0","22709","","null","","","null","79","NaN","","","","","","","","","","","","","","",""
"","S2","","html-keyboard-response","505","500081","0.0-1.0-715.0","0","0","22709","","158","","","68","79","","d","2","79","training","adjacent","GF","7","6","L.jpg","O.jpg","0","0","1","",""
"","feedback","","html-keyboard-response","506","501085","0.0-1.0-717.0-0.0","0","0","22709","","null","","","null","79","","","","","","","","","","","","","","","",""
"","ITI","","html-keyboard-response","507","502093","0.0-1.0-720.0","0","0","22709","","null","","","null","79","","","","","","","","","","","","","","","NaN",""
"","S1","","html-keyboard-response","508","502348","0.0-1.0-722.0","0","0","22709","","null","","","null","80","","","","","","","","","","","","","","","",""
"","ISI","","html-keyboard-response","509","502502","0.0-1.0-723.0","0","0","22709","","null","","","null","80","NaN","","","","","","","","","","","","","","",""
"","S2","","html-keyboard-response","510","502528","0.0-1.0-724.0","0","0","22709","","23","","","75","80","","k","2","80","training","adjacent","DE","4","5","N.jpg","Q.jpg","1","1","1","",""
"","feedback","","html-keyboard-response","511","503533","0.0-1.0-726.0-0.0","0","0","22709","","null","","","null","80","","","","","","","","","","","","","","","",""
"","ITI","","html-keyboard-response","512","504537","0.0-1.0-729.0","0","0","22709","","null","","","null","80","","","","","","","","","","","","","","","NaN",""
"","S1","","html-keyboard-response","513","504792","0.0-1.0-731.0","0","0","22709","","null","","","null","81","","","","","","","","","","","","","","","",""
"","ISI","","html-keyboard-response","514","504946","0.0-1.0-732.0","0","0","22709","","null","","","null","81","NaN","","","","","","","","","","","","","","",""
"","S2","","html-keyboard-response","515","505200","0.0-1.0-733.0","0","0","22709","","null","","","null","81","","NaN","","","","","","","","","","","","","",""
"","response","","html-keyboard-response","516","505632","0.0-1.0-734.0-0.0","0","0","22709","","428","","","68","81","","","2","81","training","adjacent","DC","4","3","N.jpg","M.jpg","0","0","1","",""
"","feedback","","html-keyboard-response","517","506637","0.0-1.0-735.0-0.0","0","0","22709","","null","","","null","81","","","","","","","","","","","","","","","",""
"","ITI","","html-keyboard-response","518","507641","0.0-1.0-738.0","0","0","22709","","null","","","null","81","","","","","","","","","","","","","","","NaN",""
"","S1","","html-keyboard-response","519","507901","0.0-1.0-740.0","0","0","22709","","null","","","null","82","","","","","","","","","","","","","","","",""
"","ISI","","html-keyboard-response","520","508054","0.0-1.0-741.0","0","0","22709","","null","","","null","82","NaN","","","","","","","","","","","","","","",""
"","S2","","html-keyboard-response","521","508309","0.0-1.0-742.0","0","0","22709","","null","","","null","82","","NaN","","","","","","","","","","","","","",""
"","response","","html-keyboard-response","522","510063","0.0-1.0-743.0-0.0","0","0","22709","","null","","","null","82","","","2","82","training","adjacent","FG","6","7","O.jpg","L.jpg","NaN","1","0","",""
"","too_slow_prompt","","html-keyboard-response","523","511067","0.0-1.0-745.0-0.0","1","0","22709","","null","","","null","","","","","","","","","","","","","","","","",""
"","time_out","","html-keyboard-response","524","513072","0.0-1.0-746.0-0.0","0","0","22709","","null","","","null","82","","","","","","","","","","","","","","","",""
"","ITI","","html-keyboard-response","525","514078","0.0-1.0-747.0","0","0","22709","","null","","","null","82","","","","","","","","","","","","","","","NaN",""
"","S1","","html-keyboard-response","526","514332","0.0-1.0-749.0","0","0","22709","","null","","","null","83","","","","","","","","","","","","","","","",""
"","ISI","","html-keyboard-response","527","514487","0.0-1.0-750.0","0","0","22709","","null","","","null","83","NaN","","","","","","","","","","","","","","",""
"","S2","","html-keyboard-response","528","514745","0.0-1.0-751.0","0","0","22709","","null","","","null","83","","NaN","","","","","","","","","","","","","",""
"","response","","html-keyboard-response","529","516480","0.0-1.0-752.0-0.0","0","0","22709","","1731","","","68","83","","","2","83","training","adjacent","GF","7","6","L.jpg","O.jpg","0","0","1","",""
"","feedback","","html-keyboard-response","530","517492","0.0-1.0-753.0-0.0","0","0","22709","","null","","","null","83","","","","","","","","","","","","","","","",""
"","ITI","","html-keyboard-response","531","518498","0.0-1.0-756.0","0","0","22709","","null","","","null","83","","","","","","","","","","","","","","","NaN",""
"","S1","","html-keyboard-response","532","518753","0.0-1.0-758.0","0","0","22709","","null","","","null","84","","","","","","","","","","","","","","","",""
"","ISI","","html-keyboard-response","533","518907","0.0-1.0-759.0","0","0","22709","","null","","","null","84","NaN","","","","","","","","","","","","","","",""
"","S2","","html-keyboard-response","534","519161","0.0-1.0-760.0","0","0","22709","","null","","","null","84","","NaN","","","","","","","","","","","","","",""
"","response","","html-keyboard-response","535","519356","0.0-1.0-761.0-0.0","0","0","22709","","193","","","75","84","","","2","84","training","adjacent","CD","3","4","M.jpg","N.jpg","1","1","1","",""
"","feedback","","html-keyboard-response","536","520361","0.0-1.0-762.0-0.0","0","0","22709","","null","","","null","84","","","","","","","","","","","","","","","",""
"","ITI","","html-keyboard-response","537","521366","0.0-1.0-765.0","0","0","22709","","null","","","null","84","","","","","","","","","","","","","","","NaN",""
"","S1","","html-keyboard-response","538","521620","0.0-1.0-767.0","0","0","22709","","null","","","null","85","","","","","","","","","","","","","","","",""
"","ISI","","html-keyboard-response","539","521773","0.0-1.0-768.0","0","0","22709","","null","","","null","85","NaN","","","","","","","","","","","","","","",""
"","S2","","html-keyboard-response","540","521811","0.0-1.0-769.0","0","0","22709","","35","","","68","85","","d","2","85","training","adjacent","BA","2","1","P.jpg","R.jpg","0","0","1","",""
"","feedback","","html-keyboard-response","541","522816","0.0-1.0-771.0-0.0","0","0","22709","","null","","","null","85","","","","","","","","","","","","","","","",""
"","ITI","","html-keyboard-response","542","523821","0.0-1.0-774.0","0","0","22709","","null","","","null","85","","","","","","","","","","","","","","","NaN",""
"","S1","","html-keyboard-response","543","524076","0.0-1.0-776.0","0","0","22709","","null","","","null","86","","","","","","","","","","","","","","","",""
"","ISI","","html-keyboard-response","544","524230","0.0-1.0-777.0","0","0","22709","","null","","","null","86","NaN","","","","","","","","","","","","","","",""
"","S2","","html-keyboard-response","545","524492","0.0-1.0-778.0","0","0","22709","","null","","","null","86","","NaN","","","","","","","","","","","","","",""
"","response","","html-keyboard-response","546","525004","0.0-1.0-779.0-0.0","0","0","22709","","509","","","75","86","","","2","86","training","adjacent","BC","2","3","P.jpg","M.jpg","1","1","1","",""
"","feedback","","html-keyboard-response","547","526007","0.0-1.0-780.0-0.0","0","0","22709","","null","","","null","86","","","","","","","","","","","","","","","",""
"","ITI","","html-keyboard-response","548","527010","0.0-1.0-783.0","0","0","22709","","null","","","null","86","","","","","","","","","","","","","","","NaN",""
"","S1","","html-keyboard-response","549","527263","0.0-1.0-785.0","0","0","22709","","null","","","null","87","","","","","","","","","","","","","","","",""
"","ISI","","html-keyboard-response","550","527417","0.0-1.0-786.0","0","0","22709","","null","","","null","87","NaN","","","","","","","","","","","","","","",""
"","S2","","html-keyboard-response","551","527671","0.0-1.0-787.0","0","0","22709","","null","","","null","87","","NaN","","","","","","","","","","","","","",""
"","response","","html-keyboard-response","552","527780","0.0-1.0-788.0-0.0","0","0","22709","","107","","","68","87","","","2","87","training","adjacent","CB","3","2","M.jpg","P.jpg","0","0","1","",""
"","feedback","","html-keyboard-response","553","528785","0.0-1.0-789.0-0.0","0","0","22709","","null","","","null","87","","","","","","","","","","","","","","","",""
"","ITI","","html-keyboard-response","554","529790","0.0-1.0-792.0","0","0","22709","","null","","","null","87","","","","","","","","","","","","","","","NaN",""
"","S1","","html-keyboard-response","555","530044","0.0-1.0-794.0","0","0","22709","","null","","","null","88","","","","","","","","","","","","","","","",""
"","ISI","","html-keyboard-response","556","530197","0.0-1.0-795.0","0","0","22709","","null","","","null","88","NaN","","","","","","","","","","","","","","",""
"","S2","","html-keyboard-response","557","530452","0.0-1.0-796.0","0","0","22709","","null","","","null","88","","NaN","","","","","","","","","","","","","",""
"","response","","html-keyboard-response","558","530832","0.0-1.0-797.0-0.0","0","0","22709","","375","","","75","88","","","2","88","training","adjacent","FG","6","7","O.jpg","L.jpg","1","1","1","",""
"","feedback","","html-keyboard-response","559","531838","0.0-1.0-798.0-0.0","0","0","22709","","null","","","null","88","","","","","","","","","","","","","","","",""
"","ITI","","html-keyboard-response","560","532843","0.0-1.0-801.0","0","0","22709","","null","","","null","88","","","","","","","","","","","","","","","NaN",""
"","S1","","html-keyboard-response","561","533098","0.0-1.0-803.0","0","0","22709","","null","","","null","89","","","","","","","","","","","","","","","",""
"","ISI","","html-keyboard-response","562","533252","0.0-1.0-804.0","0","0","22709","","null","","","null","89","NaN","","","","","","","","","","","","","","",""
"","S2","","html-keyboard-response","563","533489","0.0-1.0-805.0","0","0","22709","","233","","","68","89","","d","2","89","training","adjacent","CD","3","4","M.jpg","N.jpg","0","1","0","",""
"","feedback","","html-keyboard-response","564","534495","0.0-1.0-807.0-0.0","0","0","22709","","null","","","null","89","","","","","","","","","","","","","","","",""
"","time_out","","html-keyboard-response","565","536499","0.0-1.0-809.0-0.0","0","0","22709","","null","","","null","89","","","","","","","","","","","","","","","",""
"","ITI","","html-keyboard-response","566","537502","0.0-1.0-810.0","0","0","22709","","null","","","null","89","","","","","","","","","","","","","","","NaN",""
"","S1","","html-keyboard-response","567","537757","0.0-1.0-812.0","0","0","22709","","null","","","null","90","","","","","","","","","","","","","","","",""
"","ISI","","html-keyboard-response","568","537911","0.0-1.0-813.0","0","0","22709","","null","","","null","90","NaN","","","","","","","","","","","","","","",""
"","S2","","html-keyboard-response","569","538165","0.0-1.0-814.0","0","0","22709","","null","","","null","90","","NaN","","","","","","","","","","","","","",""
"","response","","html-keyboard-response","570","538487","0.0-1.0-815.0-0.0","0","0","22709","","317","","","75","90","","","2","90","training","adjacent","CB","3","2","M.jpg","P.jpg","1","0","0","",""
"","feedback","","html-keyboard-response","571","539492","0.0-1.0-816.0-0.0","0","0","22709","","null","","","null","90","","","","","","","","","","","","","","","",""
"","time_out","","html-keyboard-response","572","541498","0.0-1.0-818.0-0.0","0","0","22709","","null","","","null","90","","","","","","","","","","","","","","","",""
"","ITI","","html-keyboard-response","573","542500","0.0-1.0-819.0","0","0","22709","","null","","","null","90","","","","","","","","","","","","","","","NaN",""
"","S1","","html-keyboard-response","574","542755","0.0-1.0-821.0","0","0","22709","","null","","","null","91","","","","","","","","","","","","","","","",""
"","ISI","","html-keyboard-response","575","542909","0.0-1.0-822.0","0","0","22709","","null","","","null","91","NaN","","","","","","","","","","","","","","",""
"","S2","","html-keyboard-response","576","543161","0.0-1.0-823.0","0","0","22709","","null","","","null","91","","NaN","","","","","","","","","","","","","",""
"","response","","html-keyboard-response","577","544762","0.0-1.0-824.0-0.0","0","0","22709","","1597","","","75","91","","","2","91","training","adjacent","DC","4","3","N.jpg","M.jpg","1","0","0","",""
"","feedback","","html-keyboard-response","578","545767","0.0-1.0-825.0-0.0","0","0","22709","","null","","","null","91","","","","","","","","","","","","","","","",""
"","time_out","","html-keyboard-response","579","547772","0.0-1.0-827.0-0.0","0","0","22709","","null","","","null","91","","","","","","","","","","","","","","","",""
"","ITI","","html-keyboard-response","580","548777","0.0-1.0-828.0","0","0","22709","","null","","","null","91","","","","","","","","","","","","","","","NaN",""
"","S1","","html-keyboard-response","581","549031","0.0-1.0-830.0","0","0","22709","","null","","","null","92","","","","","","","","","","","","","","","",""
