"success","ttype","start_time","trial_type","trial_index","time_elapsed","internal_node_id","warning","missed_checkup","PID","view_history","rt","responses","repeat_instructions","key_press","index","keypress_isi","keypress_S2","block","trial_num","phase","group_type","pair_type","S1_stim","S2_stim","S1_img","S2_img","S1_chosen","S1_higher","accuracy","keypress_iti","total_bonus_tally"
"true","full_screen","d07282022hr1814","fullscreen","0","80328","0.0-0.0","0","0","61306","","","","","","","","","","","","","","","","","","","","","",""
"","instructions","","instructions","1","153045","0.0-1.0-0.0-0.0","0","0","61306","[{""page_index"":0,""viewing_time"":10313},{""page_index"":1,""viewing_time"":45036},{""page_index"":2,""viewing_time"":15652},{""page_index"":3,""viewing_time"":1713}]","72714","","","","","","","","","","","","","","","","","","","",""
"","comprehension_check","","survey-multi-choice","2","168553","0.0-1.0-0.0-1.0","0","0","61306","","15504","{""Q0"":""True"",""Q1"":""True"",""Q2"":""When you see the prompt 'MAKE A CHOICE' after the second image was presented"",""Q3"":""Green mark"",""Q4"":""either D or K""}","0","","","","","","","","","","","","","","","","","",""
"","start_exp","","html-keyboard-response","3","170264","0.0-1.0-1.0","0","0","61306","","1708","","","32","","","","","","","","","","","","","","","","",""
"","S1","","html-keyboard-response","4","170517","0.0-1.0-2.0","0","0","61306","","null","","","null","0","","","","","","","","","","","","","","","",""
"","ISI","","html-keyboard-response","5","172519","0.0-1.0-3.0","0","0","61306","","null","","","null","0","NaN","","","","","","","","","","","","","","",""
"","S2","","html-keyboard-response","6","172772","0.0-1.0-4.0","0","0","61306","","null","","","null","0","","NaN","","","","","","","","","","","","","",""
"","response","","html-keyboard-response","7","173484","0.0-1.0-5.0","0","0","61306","","710","","","68","0","","","1","0","training","adjacent","BA","2","1","N.jpg","M.jpg","1","0","0","",""
"","feedback","","html-keyboard-response","8","174486","0.0-1.0-6.0-0.0","0","0","61306","","null","","","null","0","","","","","","","","","","","","","","","",""
"","time_out","","html-keyboard-response","9","176489","0.0-1.0-8.0-0.0","0","0","61306","","null","","","null","0","","","","","","","","","","","","","","","",""
"","ITI","","html-keyboard-response","10","177490","0.0-1.0-9.0","0","0","61306","","null","","","null","0","","","","","","","","","","","","","","","NaN",""
"","S1","","html-keyboard-response","11","177743","0.0-1.0-11.0","0","0","61306","","null","","","null","1","","","","","","","","","","","","","","","",""
"","ISI","","html-keyboard-response","12","179746","0.0-1.0-12.0","0","0","61306","","null","","","null","1","NaN","","","","","","","","","","","","","","",""
"","S2","","html-keyboard-response","13","179999","0.0-1.0-13.0","0","0","61306","","null","","","null","1","","NaN","","","","","","","","","","","","","",""
"","response","","html-keyboard-response","14","180632","0.0-1.0-14.0","0","0","61306","","632","","","68","1","","","1","1","training","adjacent","EF","5","6","Q.jpg","R.jpg","1","1","1","",""
"","feedback","","html-keyboard-response","15","181635","0.0-1.0-15.0-0.0","0","0","61306","","null","","","null","1","","","","","","","","","","","","","","","",""
"","ITI","","html-keyboard-response","16","182637","0.0-1.0-18.0","0","0","61306","","null","","","null","1","","","","","","","","","","","","","","","NaN",""
"","S1","","html-keyboard-response","17","182890","0.0-1.0-20.0","0","0","61306","","null","","","null","2","","","","","","","","","","","","","","","",""
"","ISI","","html-keyboard-response","18","184893","0.0-1.0-21.0","0","0","61306","","null","","","null","2","NaN","","","","","","","","","","","","","","",""
"","S2","","html-keyboard-response","19","185145","0.0-1.0-22.0","0","0","61306","","null","","","null","2","","NaN","","","","","","","","","","","","","",""
"","response","","html-keyboard-response","20","185555","0.0-1.0-23.0","0","0","61306","","408","","","75","2","","","1","2","training","adjacent","ED","5","4","Q.jpg","P.jpg","0","0","1","",""
"","feedback","","html-keyboard-response","21","186558","0.0-1.0-24.0-0.0","0","0","61306","","null","","","null","2","","","","","","","","","","","","","","","",""
"","ITI","","html-keyboard-response","22","187560","0.0-1.0-27.0","0","0","61306","","null","","","null","2","","","","","","","","","","","","","","","NaN",""
"","S1","","html-keyboard-response","23","187813","0.0-1.0-29.0","0","0","61306","","null","","","null","3","","","","","","","","","","","","","","","",""
"","ISI","","html-keyboard-response","24","189815","0.0-1.0-30.0","0","0","61306","","null","","","null","3","NaN","","","","","","","","","","","","","","",""
"","S2","","html-keyboard-response","25","190066","0.0-1.0-31.0","0","0","61306","","null","","","null","3","","NaN","","","","","","","","","","","","","",""
"","response","","html-keyboard-response","26","190713","0.0-1.0-32.0","0","0","61306","","646","","","68","3","","","1","3","training","adjacent","GF","7","6","O.jpg","R.jpg","1","0","0","",""
"","feedback","","html-keyboard-response","27","191717","0.0-1.0-33.0-0.0","0","0","61306","","null","","","null","3","","","","","","","","","","","","","","","",""
"","time_out","","html-keyboard-response","28","193718","0.0-1.0-35.0-0.0","0","0","61306","","null","","","null","3","","","","","","","","","","","","","","","",""
"","ITI","","html-keyboard-response","29","194720","0.0-1.0-36.0","0","0","61306","","null","","","null","3","","","","","","","","","","","","","","","NaN",""
"","S1","","html-keyboard-response","30","194971","0.0-1.0-38.0","0","0","61306","","null","","","null","4","","","","","","","","","","","","","","","",""
"","ISI","","html-keyboard-response","31","196973","0.0-1.0-39.0","0","0","61306","","null","","","null","4","NaN","","","","","","","","","","","","","","",""
"","S2","","html-keyboard-response","32","197225","0.0-1.0-40.0","0","0","61306","","null","","","null","4","","NaN","","","","","","","","","","","","","",""
"","response","","html-keyboard-response","33","197659","0.0-1.0-41.0","0","0","61306","","433","","","75","4","","","1","4","training","adjacent","AB","1","2","M.jpg","N.jpg","0","1","0","",""
"","feedback","","html-keyboard-response","34","198662","0.0-1.0-42.0-0.0","0","0","61306","","null","","","null","4","","","","","","","","","","","","","","","",""
"","time_out","","html-keyboard-response","35","200664","0.0-1.0-44.0-0.0","0","0","61306","","null","","","null","4","","","","","","","","","","","","","","","",""
"","ITI","","html-keyboard-response","36","201666","0.0-1.0-45.0","0","0","61306","","null","","","null","4","","","","","","","","","","","","","","","NaN",""
"","S1","","html-keyboard-response","37","201918","0.0-1.0-47.0","0","0","61306","","null","","","null","5","","","","","","","","","","","","","","","",""
"","ISI","","html-keyboard-response","38","203920","0.0-1.0-48.0","0","0","61306","","null","","","null","5","NaN","","","","","","","","","","","","","","",""
"","S2","","html-keyboard-response","39","204172","0.0-1.0-49.0","0","0","61306","","null","","","null","5","","NaN","","","","","","","","","","","","","",""
"","response","","html-keyboard-response","40","204834","0.0-1.0-50.0","0","0","61306","","660","","","68","5","","","1","5","training","adjacent","EF","5","6","Q.jpg","R.jpg","1","1","1","",""
"","feedback","","html-keyboard-response","41","205836","0.0-1.0-51.0-0.0","0","0","61306","","null","","","null","5","","","","","","","","","","","","","","","",""
"","ITI","","html-keyboard-response","42","206838","0.0-1.0-54.0","0","0","61306","","null","","","null","5","","","","","","","","","","","","","","","NaN",""
"","S1","","html-keyboard-response","43","207090","0.0-1.0-56.0","0","0","61306","","null","","","null","6","","","","","","","","","","","","","","","",""
"","ISI","","html-keyboard-response","44","209091","0.0-1.0-57.0","0","0","61306","","null","","","null","6","NaN","","","","","","","","","","","","","","",""
"","S2","","html-keyboard-response","45","209343","0.0-1.0-58.0","0","0","61306","","null","","","null","6","","NaN","","","","","","","","","","","","","",""
"","response","","html-keyboard-response","46","209763","0.0-1.0-59.0","0","0","61306","","418","","","75","6","","","1","6","training","adjacent","CB","3","2","L.jpg","N.jpg","0","0","1","",""
"","feedback","","html-keyboard-response","47","210765","0.0-1.0-60.0-0.0","0","0","61306","","null","","","null","6","","","","","","","","","","","","","","","",""
"","ITI","","html-keyboard-response","48","211767","0.0-1.0-63.0","0","0","61306","","null","","","null","6","","","","","","","","","","","","","","","NaN",""
"","S1","","html-keyboard-response","49","212019","0.0-1.0-65.0","0","0","61306","","null","","","null","7","","","","","","","","","","","","","","","",""
"","ISI","","html-keyboard-response","50","214021","0.0-1.0-66.0","0","0","61306","","null","","","null","7","NaN","","","","","","","","","","","","","","",""
"","S2","","html-keyboard-response","51","214273","0.0-1.0-67.0","0","0","61306","","null","","","null","7","","NaN","","","","","","","","","","","","","",""
"","response","","html-keyboard-response","52","215132","0.0-1.0-68.0","0","0","61306","","857","","","68","7","","","1","7","training","adjacent","DE","4","5","P.jpg","Q.jpg","1","1","1","",""
"","feedback","","html-keyboard-response","53","216134","0.0-1.0-69.0-0.0","0","0","61306","","null","","","null","7","","","","","","","","","","","","","","","",""
"","ITI","","html-keyboard-response","54","217136","0.0-1.0-72.0","0","0","61306","","null","","","null","7","","","","","","","","","","","","","","","NaN",""
"","S1","","html-keyboard-response","55","217388","0.0-1.0-74.0","0","0","61306","","null","","","null","8","","","","","","","","","","","","","","","",""
"","ISI","","html-keyboard-response","56","219390","0.0-1.0-75.0","0","0","61306","","null","","","null","8","NaN","","","","","","","","","","","","","","",""
"","S2","","html-keyboard-response","57","219644","0.0-1.0-76.0","0","0","61306","","null","","","null","8","","NaN","","","","","","","","","","","","","",""
"","response","","html-keyboard-response","58","220134","0.0-1.0-77.0","0","0","61306","","489","","","68","8","","","1","8","training","adjacent","DE","4","5","P.jpg","Q.jpg","1","1","1","",""
"","feedback","","html-keyboard-response","59","221136","0.0-1.0-78.0-0.0","0","0","61306","","null","","","null","8","","","","","","","","","","","","","","","",""
"","ITI","","html-keyboard-response","60","222138","0.0-1.0-81.0","0","0","61306","","null","","","null","8","","","","","","","","","","","","","","","NaN",""
"","S1","","html-keyboard-response","61","222390","0.0-1.0-83.0","0","0","61306","","null","","","null","9","","","","","","","","","","","","","","","",""
"","ISI","","html-keyboard-response","62","224393","0.0-1.0-84.0","0","0","61306","","null","","","null","9","NaN","","","","","","","","","","","","","","",""
"","S2","","html-keyboard-response","63","224645","0.0-1.0-85.0","0","0","61306","","null","","","null","9","","NaN","","","","","","","","","","","","","",""
"","response","","html-keyboard-response","64","225255","0.0-1.0-86.0","0","0","61306","","607","","","75","9","","","1","9","training","adjacent","DC","4","3","P.jpg","L.jpg","0","0","1","",""
"","feedback","","html-keyboard-response","65","226257","0.0-1.0-87.0-0.0","0","0","61306","","null","","","null","9","","","","","","","","","","","","","","","",""
"","ITI","","html-keyboard-response","66","227259","0.0-1.0-90.0","0","0","61306","","null","","","null","9","","","","","","","","","","","","","","","NaN",""
"","S1","","html-keyboard-response","67","227511","0.0-1.0-92.0","0","0","61306","","null","","","null","10","","","","","","","","","","","","","","","",""
"","ISI","","html-keyboard-response","68","229513","0.0-1.0-93.0","0","0","61306","","null","","","null","10","NaN","","","","","","","","","","","","","","",""
"","S2","","html-keyboard-response","69","229766","0.0-1.0-94.0","0","0","61306","","null","","","null","10","","NaN","","","","","","","","","","","","","",""
"","response","","html-keyboard-response","70","230461","0.0-1.0-95.0","0","0","61306","","694","","","68","10","","","1","10","training","adjacent","AB","1","2","M.jpg","N.jpg","1","1","1","",""
"","feedback","","html-keyboard-response","71","231463","0.0-1.0-96.0-0.0","0","0","61306","","null","","","null","10","","","","","","","","","","","","","","","",""
"","ITI","","html-keyboard-response","72","232464","0.0-1.0-99.0","0","0","61306","","null","","","null","10","","","","","","","","","","","","","","","NaN",""
"","S1","","html-keyboard-response","73","232718","0.0-1.0-101.0","0","0","61306","","null","","","null","11","","","","","","","","","","","","","","","",""
"","ISI","","html-keyboard-response","74","234720","0.0-1.0-102.0","0","0","61306","","null","","","null","11","NaN","","","","","","","","","","","","","","",""
"","S2","","html-keyboard-response","75","234973","0.0-1.0-103.0","0","0","61306","","null","","","null","11","","NaN","","","","","","","","","","","","","",""
"","response","","html-keyboard-response","76","235399","0.0-1.0-104.0","0","0","61306","","424","","","75","11","","","1","11","training","adjacent","FE","6","5","R.jpg","Q.jpg","0","0","1","",""
"","feedback","","html-keyboard-response","77","236399","0.0-1.0-105.0-0.0","0","0","61306","","null","","","null","11","","","","","","","","","","","","","","","",""
"","ITI","","html-keyboard-response","78","237401","0.0-1.0-108.0","0","0","61306","","null","","","null","11","","","","","","","","","","","","","","","NaN",""
"","S1","","html-keyboard-response","79","237653","0.0-1.0-110.0","0","0","61306","","null","","","null","12","","","","","","","","","","","","","","","",""
"","ISI","","html-keyboard-response","80","239656","0.0-1.0-111.0","0","0","61306","","null","","","null","12","NaN","","","","","","","","","","","","","","",""
"","S2","","html-keyboard-response","81","239909","0.0-1.0-112.0","0","0","61306","","null","","","null","12","","NaN","","","","","","","","","","","","","",""
"","response","","html-keyboard-response","82","240485","0.0-1.0-113.0","0","0","61306","","575","","","68","12","","","1","12","training","adjacent","BA","2","1","N.jpg","M.jpg","1","0","0","",""
"","feedback","","html-keyboard-response","83","241487","0.0-1.0-114.0-0.0","0","0","61306","","null","","","null","12","","","","","","","","","","","","","","","",""
"","time_out","","html-keyboard-response","84","243488","0.0-1.0-116.0-0.0","0","0","61306","","null","","","null","12","","","","","","","","","","","","","","","",""
"","ITI","","html-keyboard-response","85","244491","0.0-1.0-117.0","0","0","61306","","null","","","null","12","","","","","","","","","","","","","","","NaN",""
"","S1","","html-keyboard-response","86","244743","0.0-1.0-119.0","0","0","61306","","null","","","null","13","","","","","","","","","","","","","","","",""
"","ISI","","html-keyboard-response","87","246745","0.0-1.0-120.0","0","0","61306","","null","","","null","13","NaN","","","","","","","","","","","","","","",""
"","S2","","html-keyboard-response","88","246997","0.0-1.0-121.0","0","0","61306","","null","","","null","13","","NaN","","","","","","","","","","","","","",""
"","response","","html-keyboard-response","89","247461","0.0-1.0-122.0","0","0","61306","","463","","","75","13","","","1","13","training","adjacent","GF","7","6","O.jpg","R.jpg","0","0","1","",""
"","feedback","","html-keyboard-response","90","248464","0.0-1.0-123.0-0.0","0","0","61306","","null","","","null","13","","","","","","","","","","","","","","","",""
"","ITI","","html-keyboard-response","91","249466","0.0-1.0-126.0","0","0","61306","","null","","","null","13","","","","","","","","","","","","","","","NaN",""
"","S1","","html-keyboard-response","92","249718","0.0-1.0-128.0","0","0","61306","","null","","","null","14","","","","","","","","","","","","","","","",""
"","ISI","","html-keyboard-response","93","251720","0.0-1.0-129.0","0","0","61306","","null","","","null","14","NaN","","","","","","","","","","","","","","",""
"","S2","","html-keyboard-response","94","251973","0.0-1.0-130.0","0","0","61306","","null","","","null","14","","NaN","","","","","","","","","","","","","",""
"","response","","html-keyboard-response","95","252386","0.0-1.0-131.0","0","0","61306","","411","","","75","14","","","1","14","training","adjacent","FE","6","5","R.jpg","Q.jpg","0","0","1","",""
"","feedback","","html-keyboard-response","96","253389","0.0-1.0-132.0-0.0","0","0","61306","","null","","","null","14","","","","","","","","","","","","","","","",""
"","ITI","","html-keyboard-response","97","254390","0.0-1.0-135.0","0","0","61306","","null","","","null","14","","","","","","","","","","","","","","","NaN",""
"","S1","","html-keyboard-response","98","254643","0.0-1.0-137.0","0","0","61306","","null","","","null","15","","","","","","","","","","","","","","","",""
"","ISI","","html-keyboard-response","99","256645","0.0-1.0-138.0","0","0","61306","","null","","","null","15","NaN","","","","","","","","","","","","","","",""
"","S2","","html-keyboard-response","100","256897","0.0-1.0-139.0","0","0","61306","","null","","","null","15","","NaN","","","","","","","","","","","","","",""
"","response","","html-keyboard-response","101","257516","0.0-1.0-140.0","0","0","61306","","617","","","68","15","","","1","15","training","adjacent","BC","2","3","N.jpg","L.jpg","1","1","1","",""
"","feedback","","html-keyboard-response","102","258518","0.0-1.0-141.0-0.0","0","0","61306","","null","","","null","15","","","","","","","","","","","","","","","",""
"","ITI","","html-keyboard-response","103","259520","0.0-1.0-144.0","0","0","61306","","null","","","null","15","","","","","","","","","","","","","","","NaN",""
"","S1","","html-keyboard-response","104","259772","0.0-1.0-146.0","0","0","61306","","null","","","null","16","","","","","","","","","","","","","","","",""
"","ISI","","html-keyboard-response","105","261774","0.0-1.0-147.0","0","0","61306","","null","","","null","16","NaN","","","","","","","","","","","","","","",""
"","S2","","html-keyboard-response","106","262025","0.0-1.0-148.0","0","0","61306","","null","","","null","16","","NaN","","","","","","","","","","","","","",""
"","response","","html-keyboard-response","107","262948","0.0-1.0-149.0","0","0","61306","","921","","","75","16","","","1","16","training","adjacent","CD","3","4","L.jpg","P.jpg","0","1","0","",""
"","feedback","","html-keyboard-response","108","263950","0.0-1.0-150.0-0.0","0","0","61306","","null","","","null","16","","","","","","","","","","","","","","","",""
"","time_out","","html-keyboard-response","109","265954","0.0-1.0-152.0-0.0","0","0","61306","","null","","","null","16","","","","","","","","","","","","","","","",""
"","ITI","","html-keyboard-response","110","266956","0.0-1.0-153.0","0","0","61306","","null","","","null","16","","","","","","","","","","","","","","","NaN",""
"","S1","","html-keyboard-response","111","267208","0.0-1.0-155.0","0","0","61306","","null","","","null","17","","","","","","","","","","","","","","","",""
"","ISI","","html-keyboard-response","112","269210","0.0-1.0-156.0","0","0","61306","","null","","","null","17","NaN","","","","","","","","","","","","","","",""
"","S2","","html-keyboard-response","113","269462","0.0-1.0-157.0","0","0","61306","","null","","","null","17","","NaN","","","","","","","","","","","","","",""
"","response","","html-keyboard-response","114","269941","0.0-1.0-158.0","0","0","61306","","477","","","68","17","","","1","17","training","adjacent","AB","1","2","M.jpg","N.jpg","1","1","1","",""
"","feedback","","html-keyboard-response","115","270943","0.0-1.0-159.0-0.0","0","0","61306","","null","","","null","17","","","","","","","","","","","","","","","",""
"","ITI","","html-keyboard-response","116","271944","0.0-1.0-162.0","0","0","61306","","null","","","null","17","","","","","","","","","","","","","","","NaN",""
"","S1","","html-keyboard-response","117","272197","0.0-1.0-164.0","0","0","61306","","null","","","null","18","","","","","","","","","","","","","","","",""
"","ISI","","html-keyboard-response","118","274198","0.0-1.0-165.0","0","0","61306","","null","","","null","18","NaN","","","","","","","","","","","","","","",""
"","S2","","html-keyboard-response","119","274450","0.0-1.0-166.0","0","0","61306","","null","","","null","18","","NaN","","","","","","","","","","","","","",""
"","response","","html-keyboard-response","120","275415","0.0-1.0-167.0","0","0","61306","","963","","","68","18","","","1","18","training","adjacent","FE","6","5","R.jpg","Q.jpg","1","0","0","",""
"","feedback","","html-keyboard-response","121","276417","0.0-1.0-168.0-0.0","0","0","61306","","null","","","null","18","","","","","","","","","","","","","","","",""
"","time_out","","html-keyboard-response","122","278419","0.0-1.0-170.0-0.0","0","0","61306","","null","","","null","18","","","","","","","","","","","","","","","",""
"","ITI","","html-keyboard-response","123","279420","0.0-1.0-171.0","0","0","61306","","null","","","null","18","","","","","","","","","","","","","","","NaN",""
"","S1","","html-keyboard-response","124","279673","0.0-1.0-173.0","0","0","61306","","null","","","null","19","","","","","","","","","","","","","","","",""
"","ISI","","html-keyboard-response","125","281675","0.0-1.0-174.0","0","0","61306","","null","","","null","19","NaN","","","","","","","","","","","","","","",""
"","S2","","html-keyboard-response","126","281928","0.0-1.0-175.0","0","0","61306","","null","","","null","19","","NaN","","","","","","","","","","","","","",""
"","response","","html-keyboard-response","127","282329","0.0-1.0-176.0","0","0","61306","","400","","","75","19","","","1","19","training","adjacent","CB","3","2","L.jpg","N.jpg","0","0","1","",""
"","feedback","","html-keyboard-response","128","283331","0.0-1.0-177.0-0.0","0","0","61306","","null","","","null","19","","","","","","","","","","","","","","","",""
"","ITI","","html-keyboard-response","129","284334","0.0-1.0-180.0","0","0","61306","","null","","","null","19","","","","","","","","","","","","","","","NaN",""
"","S1","","html-keyboard-response","130","284586","0.0-1.0-182.0","0","0","61306","","null","","","null","20","","","","","","","","","","","","","","","",""
"","ISI","","html-keyboard-response","131","286589","0.0-1.0-183.0","0","0","61306","","null","","","null","20","NaN","","","","","","","","","","","","","","",""
"","S2","","html-keyboard-response","132","286840","0.0-1.0-184.0","0","0","61306","","null","","","null","20","","NaN","","","","","","","","","","","","","",""
"","response","","html-keyboard-response","133","287981","0.0-1.0-185.0","0","0","61306","","1139","","","75","20","","","1","20","training","adjacent","DC","4","3","P.jpg","L.jpg","0","0","1","",""
"","feedback","","html-keyboard-response","134","288983","0.0-1.0-186.0-0.0","0","0","61306","","null","","","null","20","","","","","","","","","","","","","","","",""
"","ITI","","html-keyboard-response","135","289985","0.0-1.0-189.0","0","0","61306","","null","","","null","20","","","","","","","","","","","","","","","NaN",""
"","S1","","html-keyboard-response","136","290236","0.0-1.0-191.0","0","0","61306","","null","","","null","21","","","","","","","","","","","","","","","",""
"","ISI","","html-keyboard-response","137","292239","0.0-1.0-192.0","0","0","61306","","null","","","null","21","NaN","","","","","","","","","","","","","","",""
"","S2","","html-keyboard-response","138","292491","0.0-1.0-193.0","0","0","61306","","null","","","null","21","","NaN","","","","","","","","","","","","","",""
"","response","","html-keyboard-response","139","292990","0.0-1.0-194.0","0","0","61306","","497","","","75","21","","","1","21","training","adjacent","ED","5","4","Q.jpg","P.jpg","0","0","1","",""
"","feedback","","html-keyboard-response","140","293993","0.0-1.0-195.0-0.0","0","0","61306","","null","","","null","21","","","","","","","","","","","","","","","",""
"","ITI","","html-keyboard-response","141","294994","0.0-1.0-198.0","0","0","61306","","null","","","null","21","","","","","","","","","","","","","","","NaN",""
"","S1","","html-keyboard-response","142","295246","0.0-1.0-200.0","0","0","61306","","null","","","null","22","","","","","","","","","","","","","","","",""
"","ISI","","html-keyboard-response","143","297247","0.0-1.0-201.0","0","0","61306","","null","","","null","22","NaN","","","","","","","","","","","","","","",""
"","S2","","html-keyboard-response","144","297499","0.0-1.0-202.0","0","0","61306","","null","","","null","22","","NaN","","","","","","","","","","","","","",""
"","response","","html-keyboard-response","145","298091","0.0-1.0-203.0","0","0","61306","","590","","","68","22","","","1","22","training","adjacent","BA","2","1","N.jpg","M.jpg","1","0","0","",""
"","feedback","","html-keyboard-response","146","299092","0.0-1.0-204.0-0.0","0","0","61306","","null","","","null","22","","","","","","","","","","","","","","","",""
"","time_out","","html-keyboard-response","147","301094","0.0-1.0-206.0-0.0","0","0","61306","","null","","","null","22","","","","","","","","","","","","","","","",""
"","ITI","","html-keyboard-response","148","302096","0.0-1.0-207.0","0","0","61306","","null","","","null","22","","","","","","","","","","","","","","","NaN",""
"","S1","","html-keyboard-response","149","302348","0.0-1.0-209.0","0","0","61306","","null","","","null","23","","","","","","","","","","","","","","","",""
"","ISI","","html-keyboard-response","150","304351","0.0-1.0-210.0","0","0","61306","","null","","","null","23","NaN","","","","","","","","","","","","","","",""
"","S2","","html-keyboard-response","151","304603","0.0-1.0-211.0","0","0","61306","","null","","","null","23","","NaN","","","","","","","","","","","","","",""
"","response","","html-keyboard-response","152","305032","0.0-1.0-212.0","0","0","61306","","428","","","68","23","","","1","23","training","adjacent","DE","4","5","P.jpg","Q.jpg","1","1","1","",""
"","feedback","","html-keyboard-response","153","306034","0.0-1.0-213.0-0.0","0","0","61306","","null","","","null","23","","","","","","","","","","","","","","","",""
"","ITI","","html-keyboard-response","154","307037","0.0-1.0-216.0","0","0","61306","","null","","","null","23","","","","","","","","","","","","","","","NaN",""
"","S1","","html-keyboard-response","155","307288","0.0-1.0-218.0","0","0","61306","","null","","","null","24","","","","","","","","","","","","","","","",""
"","ISI","","html-keyboard-response","156","309290","0.0-1.0-219.0","0","0","61306","","null","","","null","24","NaN","","","","","","","","","","","","","","",""
"","S2","","html-keyboard-response","157","309542","0.0-1.0-220.0","0","0","61306","","null","","","null","24","","NaN","","","","","","","","","","","","","",""
"","response","","html-keyboard-response","158","310098","0.0-1.0-221.0","0","0","61306","","554","","","75","24","","","1","24","training","adjacent","BC","2","3","N.jpg","L.jpg","0","1","0","",""
"","feedback","","html-keyboard-response","159","311100","0.0-1.0-222.0-0.0","0","0","61306","","null","","","null","24","","","","","","","","","","","","","","","",""
"","time_out","","html-keyboard-response","160","313102","0.0-1.0-224.0-0.0","0","0","61306","","null","","","null","24","","","","","","","","","","","","","","","",""
"","ITI","","html-keyboard-response","161","314104","0.0-1.0-225.0","0","0","61306","","null","","","null","24","","","","","","","","","","","","","","","NaN",""
"","S1","","html-keyboard-response","162","314356","0.0-1.0-227.0","0","0","61306","","null","","","null","25","","","","","","","","","","","","","","","",""
"","ISI","","html-keyboard-response","163","316357","0.0-1.0-228.0","0","0","61306","","null","","","null","25","NaN","","","","","","","","","","","","","","",""
"","S2","","html-keyboard-response","164","316610","0.0-1.0-229.0","0","0","61306","","null","","","null","25","","NaN","","","","","","","","","","","","","",""
"","response","","html-keyboard-response","165","317120","0.0-1.0-230.0","0","0","61306","","509","","","68","25","","","1","25","training","adjacent","BC","2","3","N.jpg","L.jpg","1","1","1","",""
"","feedback","","html-keyboard-response","166","318123","0.0-1.0-231.0-0.0","0","0","61306","","null","","","null","25","","","","","","","","","","","","","","","",""
"","ITI","","html-keyboard-response","167","319124","0.0-1.0-234.0","0","0","61306","","null","","","null","25","","","","","","","","","","","","","","","NaN",""
"","S1","","html-keyboard-response","168","319376","0.0-1.0-236.0","0","0","61306","","null","","","null","26","","","","","","","","","","","","","","","",""
"","ISI","","html-keyboard-response","169","321378","0.0-1.0-237.0","0","0","61306","","null","","","null","26","NaN","","","","","","","","","","","","","","",""
"","S2","","html-keyboard-response","170","321630","0.0-1.0-238.0","0","0","61306","","null","","","null","26","","NaN","","","","","","","","","","","","","",""
"","response","","html-keyboard-response","171","322274","0.0-1.0-239.0","0","0","61306","","642","","","75","26","","","1","26","training","adjacent","CD","3","4","L.jpg","P.jpg","0","1","0","",""
"","feedback","","html-keyboard-response","172","323277","0.0-1.0-240.0-0.0","0","0","61306","","null","","","null","26","","","","","","","","","","","","","","","",""
"","time_out","","html-keyboard-response","173","325279","0.0-1.0-242.0-0.0","0","0","61306","","null","","","null","26","","","","","","","","","","","","","","","",""
"","ITI","","html-keyboard-response","174","326280","0.0-1.0-243.0","0","0","61306","","null","","","null","26","","","","","","","","","","","","","","","NaN",""
"","S1","","html-keyboard-response","175","326532","0.0-1.0-245.0","0","0","61306","","null","","","null","27","","","","","","","","","","","","","","","",""
"","ISI","","html-keyboard-response","176","328534","0.0-1.0-246.0","0","0","61306","","null","","","null","27","NaN","","","","","","","","","","","","","","",""
"","S2","","html-keyboard-response","177","328786","0.0-1.0-247.0","0","0","61306","","null","","","null","27","","NaN","","","","","","","","","","","","","",""
"","response","","html-keyboard-response","178","329354","0.0-1.0-248.0","0","0","61306","","567","","","68","27","","","1","27","training","adjacent","DC","4","3","P.jpg","L.jpg","1","0","0","",""
"","feedback","","html-keyboard-response","179","330355","0.0-1.0-249.0-0.0","0","0","61306","","null","","","null","27","","","","","","","","","","","","","","","",""
"","time_out","","html-keyboard-response","180","332358","0.0-1.0-251.0-0.0","0","0","61306","","null","","","null","27","","","","","","","","","","","","","","","",""
"","ITI","","html-keyboard-response","181","333362","0.0-1.0-252.0","0","0","61306","","null","","","null","27","","","","","","","","","","","","","","","NaN",""
"","S1","","html-keyboard-response","182","333613","0.0-1.0-254.0","0","0","61306","","null","","","null","28","","","","","","","","","","","","","","","",""
"","ISI","","html-keyboard-response","183","335616","0.0-1.0-255.0","0","0","61306","","null","","","null","28","NaN","","","","","","","","","","","","","","",""
"","S2","","html-keyboard-response","184","335869","0.0-1.0-256.0","0","0","61306","","null","","","null","28","","NaN","","","","","","","","","","","","","",""
"","response","","html-keyboard-response","185","336356","0.0-1.0-257.0","0","0","61306","","485","","","75","28","","","1","28","training","adjacent","FG","6","7","R.jpg","O.jpg","0","1","0","",""
"","feedback","","html-keyboard-response","186","337358","0.0-1.0-258.0-0.0","0","0","61306","","null","","","null","28","","","","","","","","","","","","","","","",""
"","time_out","","html-keyboard-response","187","339361","0.0-1.0-260.0-0.0","0","0","61306","","null","","","null","28","","","","","","","","","","","","","","","",""
"","ITI","","html-keyboard-response","188","340364","0.0-1.0-261.0","0","0","61306","","null","","","null","28","","","","","","","","","","","","","","","NaN",""
"","S1","","html-keyboard-response","189","340617","0.0-1.0-263.0","0","0","61306","","null","","","null","29","","","","","","","","","","","","","","","",""
"","ISI","","html-keyboard-response","190","342619","0.0-1.0-264.0","0","0","61306","","null","","","null","29","NaN","","","","","","","","","","","","","","",""
"","S2","","html-keyboard-response","191","342872","0.0-1.0-265.0","0","0","61306","","null","","","null","29","","NaN","","","","","","","","","","","","","",""
"","response","","html-keyboard-response","192","343339","0.0-1.0-266.0","0","0","61306","","465","","","68","29","","","1","29","training","adjacent","FG","6","7","R.jpg","O.jpg","1","1","1","",""
"","feedback","","html-keyboard-response","193","344341","0.0-1.0-267.0-0.0","0","0","61306","","null","","","null","29","","","","","","","","","","","","","","","",""
"","ITI","","html-keyboard-response","194","345342","0.0-1.0-270.0","0","0","61306","","null","","","null","29","","","","","","","","","","","","","","","NaN",""
"","S1","","html-keyboard-response","195","345594","0.0-1.0-272.0","0","0","61306","","null","","","null","30","","","","","","","","","","","","","","","",""
"","ISI","","html-keyboard-response","196","347596","0.0-1.0-273.0","0","0","61306","","null","","","null","30","NaN","","","","","","","","","","","","","","",""
"","S2","","html-keyboard-response","197","347848","0.0-1.0-274.0","0","0","61306","","null","","","null","30","","NaN","","","","","","","","","","","","","",""
"","response","","html-keyboard-response","198","348426","0.0-1.0-275.0","0","0","61306","","576","","","68","30","","","1","30","training","adjacent","CB","3","2","L.jpg","N.jpg","1","0","0","",""
"","feedback","","html-keyboard-response","199","349428","0.0-1.0-276.0-0.0","0","0","61306","","null","","","null","30","","","","","","","","","","","","","","","",""
"","time_out","","html-keyboard-response","200","351429","0.0-1.0-278.0-0.0","0","0","61306","","null","","","null","30","","","","","","","","","","","","","","","",""
"","ITI","","html-keyboard-response","201","352432","0.0-1.0-279.0","0","0","61306","","null","","","null","30","","","","","","","","","","","","","","","NaN",""
"","S1","","html-keyboard-response","202","352684","0.0-1.0-281.0","0","0","61306","","null","","","null","31","","","","","","","","","","","","","","","",""
"","ISI","","html-keyboard-response","203","354686","0.0-1.0-282.0","0","0","61306","","null","","","null","31","NaN","","","","","","","","","","","","","","",""
"","S2","","html-keyboard-response","204","354938","0.0-1.0-283.0","0","0","61306","","null","","","null","31","","NaN","","","","","","","","","","","","","",""
"","response","","html-keyboard-response","205","355652","0.0-1.0-284.0","0","0","61306","","712","","","68","31","","","1","31","training","adjacent","CB","3","2","L.jpg","N.jpg","1","0","0","",""
"","feedback","","html-keyboard-response","206","356654","0.0-1.0-285.0-0.0","0","0","61306","","null","","","null","31","","","","","","","","","","","","","","","",""
"","time_out","","html-keyboard-response","207","358657","0.0-1.0-287.0-0.0","0","0","61306","","null","","","null","31","","","","","","","","","","","","","","","",""
"","ITI","","html-keyboard-response","208","359658","0.0-1.0-288.0","0","0","61306","","null","","","null","31","","","","","","","","","","","","","","","NaN",""
"","S1","","html-keyboard-response","209","359911","0.0-1.0-290.0","0","0","61306","","null","","","null","32","","","","","","","","","","","","","","","",""
"","ISI","","html-keyboard-response","210","361914","0.0-1.0-291.0","0","0","61306","","null","","","null","32","NaN","","","","","","","","","","","","","","",""
"","S2","","html-keyboard-response","211","362166","0.0-1.0-292.0","0","0","61306","","null","","","null","32","","NaN","","","","","","","","","","","","","",""
"","response","","html-keyboard-response","212","362722","0.0-1.0-293.0","0","0","61306","","555","","","68","32","","","1","32","training","adjacent","CD","3","4","L.jpg","P.jpg","1","1","1","",""
"","feedback","","html-keyboard-response","213","363725","0.0-1.0-294.0-0.0","0","0","61306","","null","","","null","32","","","","","","","","","","","","","","","",""
"","ITI","","html-keyboard-response","214","364726","0.0-1.0-297.0","0","0","61306","","null","","","null","32","","","","","","","","","","","","","","","NaN",""
"","S1","","html-keyboard-response","215","364979","0.0-1.0-299.0","0","0","61306","","null","","","null","33","","","","","","","","","","","","","","","",""
"","ISI","","html-keyboard-response","216","366980","0.0-1.0-300.0","0","0","61306","","null","","","null","33","NaN","","","","","","","","","","","","","","",""
"","S2","","html-keyboard-response","217","367232","0.0-1.0-301.0","0","0","61306","","null","","","null","33","","NaN","","","","","","","","","","","","","",""
"","response","","html-keyboard-response","218","367778","0.0-1.0-302.0","0","0","61306","","544","","","68","33","","","1","33","training","adjacent","GF","7","6","O.jpg","R.jpg","1","0","0","",""
"","feedback","","html-keyboard-response","219","368779","0.0-1.0-303.0-0.0","0","0","61306","","null","","","null","33","","","","","","","","","","","","","","","",""
"","time_out","","html-keyboard-response","220","370782","0.0-1.0-305.0-0.0","0","0","61306","","null","","","null","33","","","","","","","","","","","","","","","",""
"","ITI","","html-keyboard-response","221","371784","0.0-1.0-306.0","0","0","61306","","null","","","null","33","","","","","","","","","","","","","","","NaN",""
"","S1","","html-keyboard-response","222","372037","0.0-1.0-308.0","0","0","61306","","null","","","null","34","","","","","","","","","","","","","","","",""
"","ISI","","html-keyboard-response","223","374040","0.0-1.0-309.0","0","0","61306","","null","","","null","34","NaN","","","","","","","","","","","","","","",""
"","S2","","html-keyboard-response","224","374292","0.0-1.0-310.0","0","0","61306","","null","","","null","34","","NaN","","","","","","","","","","","","","",""
"","response","","html-keyboard-response","225","374997","0.0-1.0-311.0","0","0","61306","","703","","","68","34","","","1","34","training","adjacent","BC","2","3","N.jpg","L.jpg","1","1","1","",""
"","feedback","","html-keyboard-response","226","375999","0.0-1.0-312.0-0.0","0","0","61306","","null","","","null","34","","","","","","","","","","","","","","","",""
"","ITI","","html-keyboard-response","227","377002","0.0-1.0-315.0","0","0","61306","","null","","","null","34","","","","","","","","","","","","","","","NaN",""
"","S1","","html-keyboard-response","228","377253","0.0-1.0-317.0","0","0","61306","","null","","","null","35","","","","","","","","","","","","","","","",""
"","ISI","","html-keyboard-response","229","379256","0.0-1.0-318.0","0","0","61306","","null","","","null","35","NaN","","","","","","","","","","","","","","",""
"","S2","","html-keyboard-response","230","379507","0.0-1.0-319.0","0","0","61306","","null","","","null","35","","NaN","","","","","","","","","","","","","",""
"","response","","html-keyboard-response","231","380369","0.0-1.0-320.0","0","0","61306","","861","","","68","35","","","1","35","training","adjacent","ED","5","4","Q.jpg","P.jpg","1","0","0","",""
"","feedback","","html-keyboard-response","232","381372","0.0-1.0-321.0-0.0","0","0","61306","","null","","","null","35","","","","","","","","","","","","","","","",""
"","time_out","","html-keyboard-response","233","383374","0.0-1.0-323.0-0.0","0","0","61306","","null","","","null","35","","","","","","","","","","","","","","","",""
"","ITI","","html-keyboard-response","234","384376","0.0-1.0-324.0","0","0","61306","","null","","","null","35","","","","","","","","","","","","","","","NaN",""
"","S1","","html-keyboard-response","235","384630","0.0-1.0-326.0","0","0","61306","","null","","","null","36","","","","","","","","","","","","","","","",""
"","ISI","","html-keyboard-response","236","386632","0.0-1.0-327.0","0","0","61306","","null","","","null","36","NaN","","","","","","","","","","","","","","",""
"","S2","","html-keyboard-response","237","386884","0.0-1.0-328.0","0","0","61306","","null","","","null","36","","NaN","","","","","","","","","","","","","",""
"","response","","html-keyboard-response","238","387347","0.0-1.0-329.0","0","0","61306","","462","","","68","36","","","1","36","training","adjacent","AB","1","2","M.jpg","N.jpg","1","1","1","",""
"","feedback","","html-keyboard-response","239","388350","0.0-1.0-330.0-0.0","0","0","61306","","null","","","null","36","","","","","","","","","","","","","","","",""
"","ITI","","html-keyboard-response","240","389352","0.0-1.0-333.0","0","0","61306","","null","","","null","36","","","","","","","","","","","","","","","NaN",""
"","S1","","html-keyboard-response","241","389603","0.0-1.0-335.0","0","0","61306","","null","","","null","37","","","","","","","","","","","","","","","",""
"","ISI","","html-keyboard-response","242","391606","0.0-1.0-336.0","0","0","61306","","null","","","null","37","NaN","","","","","","","","","","","","","","",""
"","S2","","html-keyboard-response","243","391857","0.0-1.0-337.0","0","0","61306","","null","","","null","37","","NaN","","","","","","","","","","","","","",""
"","response","","html-keyboard-response","244","392398","0.0-1.0-338.0","0","0","61306","","539","","","68","37","","","1","37","training","adjacent","BA","2","1","N.jpg","M.jpg","1","0","0","",""
"","feedback","","html-keyboard-response","245","393400","0.0-1.0-339.0-0.0","0","0","61306","","null","","","null","37","","","","","","","","","","","","","","","",""
"","time_out","","html-keyboard-response","246","395403","0.0-1.0-341.0-0.0","0","0","61306","","null","","","null","37","","","","","","","","","","","","","","","",""
"","ITI","","html-keyboard-response","247","396405","0.0-1.0-342.0","0","0","61306","","null","","","null","37","","","","","","","","","","","","","","","NaN",""
"","S1","","html-keyboard-response","248","396658","0.0-1.0-344.0","0","0","61306","","null","","","null","38","","","","","","","","","","","","","","","",""
"","ISI","","html-keyboard-response","249","398659","0.0-1.0-345.0","0","0","61306","","null","","","null","38","NaN","","","","","","","","","","","","","","",""
"","S2","","html-keyboard-response","250","398911","0.0-1.0-346.0","0","0","61306","","null","","","null","38","","NaN","","","","","","","","","","","","","",""
"","response","","html-keyboard-response","251","399379","0.0-1.0-347.0","0","0","61306","","467","","","68","38","","","1","38","training","adjacent","FG","6","7","R.jpg","O.jpg","1","1","1","",""
"","feedback","","html-keyboard-response","252","400380","0.0-1.0-348.0-0.0","0","0","61306","","null","","","null","38","","","","","","","","","","","","","","","",""
"","ITI","","html-keyboard-response","253","401383","0.0-1.0-351.0","0","0","61306","","null","","","null","38","","","","","","","","","","","","","","","NaN",""
"","S1","","html-keyboard-response","254","401636","0.0-1.0-353.0","0","0","61306","","null","","","null","39","","","","","","","","","","","","","","","",""
"","ISI","","html-keyboard-response","255","403638","0.0-1.0-354.0","0","0","61306","","null","","","null","39","NaN","","","","","","","","","","","","","","",""
"","S2","","html-keyboard-response","256","403890","0.0-1.0-355.0","0","0","61306","","null","","","null","39","","NaN","","","","","","","","","","","","","",""
"","response","","html-keyboard-response","257","404395","0.0-1.0-356.0","0","0","61306","","503","","","68","39","","","1","39","training","adjacent","EF","5","6","Q.jpg","R.jpg","1","1","1","",""
"","feedback","","html-keyboard-response","258","405398","0.0-1.0-357.0-0.0","0","0","61306","","null","","","null","39","","","","","","","","","","","","","","","",""
"","ITI","","html-keyboard-response","259","406399","0.0-1.0-360.0","0","0","61306","","null","","","null","39","","","","","","","","","","","","","","","NaN",""
"","block_over","","html-keyboard-response","260","417884","0.0-1.0-361.0-0.0","0","0","61306","","11483","","","32","39","","","","","","","","","","","","","","","",""
"","S1","","html-keyboard-response","261","418137","0.0-1.0-362.0","0","0","61306","","null","","","null","40","","","","","","","","","","","","","","","",""
"","ISI","","html-keyboard-response","262","420139","0.0-1.0-363.0","0","0","61306","","null","","","null","40","NaN","","","","","","","","","","","","","","",""
"","S2","","html-keyboard-response","263","420392","0.0-1.0-364.0","0","0","61306","","null","","","null","40","","NaN","","","","","","","","","","","","","",""
"","response","","html-keyboard-response","264","421152","0.0-1.0-365.0","0","0","61306","","758","","","68","40","","","2","40","training","adjacent","ED","5","4","Q.jpg","P.jpg","1","0","0","",""
"","feedback","","html-keyboard-response","265","422154","0.0-1.0-366.0-0.0","0","0","61306","","null","","","null","40","","","","","","","","","","","","","","","",""
"","time_out","","html-keyboard-response","266","424157","0.0-1.0-368.0-0.0","0","0","61306","","null","","","null","40","","","","","","","","","","","","","","","",""
"","ITI","","html-keyboard-response","267","425159","0.0-1.0-369.0","0","0","61306","","null","","","null","40","","","","","","","","","","","","","","","NaN",""
"","S1","","html-keyboard-response","268","425410","0.0-1.0-371.0","0","0","61306","","null","","","null","41","","","","","","","","","","","","","","","",""
"","ISI","","html-keyboard-response","269","427411","0.0-1.0-372.0","0","0","61306","","null","","","null","41","NaN","","","","","","","","","","","","","","",""
"","S2","","html-keyboard-response","270","427663","0.0-1.0-373.0","0","0","61306","","null","","","null","41","","NaN","","","","","","","","","","","","","",""
"","response","","html-keyboard-response","271","428183","0.0-1.0-374.0","0","0","61306","","518","","","68","41","","","2","41","training","adjacent","CB","3","2","L.jpg","N.jpg","1","0","0","",""
"","feedback","","html-keyboard-response","272","429185","0.0-1.0-375.0-0.0","0","0","61306","","null","","","null","41","","","","","","","","","","","","","","","",""
"","time_out","","html-keyboard-response","273","431187","0.0-1.0-377.0-0.0","0","0","61306","","null","","","null","41","","","","","","","","","","","","","","","",""
"","ITI","","html-keyboard-response","274","432189","0.0-1.0-378.0","0","0","61306","","null","","","null","41","","","","","","","","","","","","","","","NaN",""
"","S1","","html-keyboard-response","275","432443","0.0-1.0-380.0","0","0","61306","","null","","","null","42","","","","","","","","","","","","","","","",""
"","ISI","","html-keyboard-response","276","434444","0.0-1.0-381.0","0","0","61306","","null","","","null","42","NaN","","","","","","","","","","","","","","",""
"","S2","","html-keyboard-response","277","434696","0.0-1.0-382.0","0","0","61306","","null","","","null","42","","NaN","","","","","","","","","","","","","",""
"","response","","html-keyboard-response","278","435092","0.0-1.0-383.0","0","0","61306","","395","","","68","42","","","2","42","training","adjacent","FG","6","7","R.jpg","O.jpg","1","1","1","",""
"","feedback","","html-keyboard-response","279","436094","0.0-1.0-384.0-0.0","0","0","61306","","null","","","null","42","","","","","","","","","","","","","","","",""
"","ITI","","html-keyboard-response","280","437097","0.0-1.0-387.0","0","0","61306","","null","","","null","42","","","","","","","","","","","","","","","NaN",""
"","S1","","html-keyboard-response","281","437349","0.0-1.0-389.0","0","0","61306","","null","","","null","43","","","","","","","","","","","","","","","",""
"","ISI","","html-keyboard-response","282","439350","0.0-1.0-390.0","0","0","61306","","null","","","null","43","NaN","","","","","","","","","","","","","","",""
"","S2","","html-keyboard-response","283","439604","0.0-1.0-391.0","0","0","61306","","null","","","null","43","","NaN","","","","","","","","","","","","","",""
"","response","","html-keyboard-response","284","440368","0.0-1.0-392.0","0","0","61306","","763","","","75","43","","","2","43","training","adjacent","CB","3","2","L.jpg","N.jpg","0","0","1","",""
"","feedback","","html-keyboard-response","285","441372","0.0-1.0-393.0-0.0","0","0","61306","","null","","","null","43","","","","","","","","","","","","","","","",""
"","ITI","","html-keyboard-response","286","442375","0.0-1.0-396.0","0","0","61306","","null","","","null","43","","","","","","","","","","","","","","","NaN",""
"","S1","","html-keyboard-response","287","442627","0.0-1.0-398.0","0","0","61306","","null","","","null","44","","","","","","","","","","","","","","","",""
"","ISI","","html-keyboard-response","288","444628","0.0-1.0-399.0","0","0","61306","","null","","","null","44","NaN","","","","","","","","","","","","","","",""
"","S2","","html-keyboard-response","289","444880","0.0-1.0-400.0","0","0","61306","","null","","","null","44","","NaN","","","","","","","","","","","","","",""
"","response","","html-keyboard-response","290","445506","0.0-1.0-401.0","0","0","61306","","624","","","68","44","","","2","44","training","adjacent","FG","6","7","R.jpg","O.jpg","1","1","1","",""
"","feedback","","html-keyboard-response","291","446509","0.0-1.0-402.0-0.0","0","0","61306","","null","","","null","44","","","","","","","","","","","","","","","",""
"","ITI","","html-keyboard-response","292","447511","0.0-1.0-405.0","0","0","61306","","null","","","null","44","","","","","","","","","","","","","","","NaN",""
"","S1","","html-keyboard-response","293","447763","0.0-1.0-407.0","0","0","61306","","null","","","null","45","","","","","","","","","","","","","","","",""
"","ISI","","html-keyboard-response","294","449764","0.0-1.0-408.0","0","0","61306","","null","","","null","45","NaN","","","","","","","","","","","","","","",""
"","S2","","html-keyboard-response","295","450016","0.0-1.0-409.0","0","0","61306","","null","","","null","45","","NaN","","","","","","","","","","","","","",""
"","response","","html-keyboard-response","296","450691","0.0-1.0-410.0","0","0","61306","","674","","","68","45","","","2","45","training","adjacent","EF","5","6","Q.jpg","R.jpg","1","1","1","",""
"","feedback","","html-keyboard-response","297","451694","0.0-1.0-411.0-0.0","0","0","61306","","null","","","null","45","","","","","","","","","","","","","","","",""
"","ITI","","html-keyboard-response","298","452697","0.0-1.0-414.0","0","0","61306","","null","","","null","45","","","","","","","","","","","","","","","NaN",""
"","S1","","html-keyboard-response","299","452948","0.0-1.0-416.0","0","0","61306","","null","","","null","46","","","","","","","","","","","","","","","",""
"","ISI","","html-keyboard-response","300","454949","0.0-1.0-417.0","0","0","61306","","null","","","null","46","NaN","","","","","","","","","","","","","","",""
"","S2","","html-keyboard-response","301","455203","0.0-1.0-418.0","0","0","61306","","null","","","null","46","","NaN","","","","","","","","","","","","","",""
"","response","","html-keyboard-response","302","456092","0.0-1.0-419.0","0","0","61306","","887","","","75","46","","","2","46","training","adjacent","GF","7","6","O.jpg","R.jpg","0","0","1","",""
"","feedback","","html-keyboard-response","303","457095","0.0-1.0-420.0-0.0","0","0","61306","","null","","","null","46","","","","","","","","","","","","","","","",""
"","ITI","","html-keyboard-response","304","458097","0.0-1.0-423.0","0","0","61306","","null","","","null","46","","","","","","","","","","","","","","","NaN",""
"","S1","","html-keyboard-response","305","458349","0.0-1.0-425.0","0","0","61306","","null","","","null","47","","","","","","","","","","","","","","","",""
"","ISI","","html-keyboard-response","306","460352","0.0-1.0-426.0","0","0","61306","","null","","","null","47","NaN","","","","","","","","","","","","","","",""
"","S2","","html-keyboard-response","307","460604","0.0-1.0-427.0","0","0","61306","","null","","","null","47","","NaN","","","","","","","","","","","","","",""
"","response","","html-keyboard-response","308","461601","0.0-1.0-428.0","0","0","61306","","995","","","68","47","","","2","47","training","adjacent","AB","1","2","M.jpg","N.jpg","1","1","1","",""
"","feedback","","html-keyboard-response","309","462603","0.0-1.0-429.0-0.0","0","0","61306","","null","","","null","47","","","","","","","","","","","","","","","",""
"","ITI","","html-keyboard-response","310","463606","0.0-1.0-432.0","0","0","61306","","null","","","null","47","","","","","","","","","","","","","","","NaN",""
"","S1","","html-keyboard-response","311","463858","0.0-1.0-434.0","0","0","61306","","null","","","null","48","","","","","","","","","","","","","","","",""
"","ISI","","html-keyboard-response","312","465859","0.0-1.0-435.0","0","0","61306","","null","","","null","48","NaN","","","","","","","","","","","","","","",""
"","S2","","html-keyboard-response","313","466112","0.0-1.0-436.0","0","0","61306","","null","","","null","48","","NaN","","","","","","","","","","","","","",""
"","response","","html-keyboard-response","314","466853","0.0-1.0-437.0","0","0","61306","","739","","","68","48","","","2","48","training","adjacent","DE","4","5","P.jpg","Q.jpg","1","1","1","",""
"","feedback","","html-keyboard-response","315","467856","0.0-1.0-438.0-0.0","0","0","61306","","null","","","null","48","","","","","","","","","","","","","","","",""
"","ITI","","html-keyboard-response","316","468858","0.0-1.0-441.0","0","0","61306","","null","","","null","48","","","","","","","","","","","","","","","NaN",""
"","S1","","html-keyboard-response","317","469110","0.0-1.0-443.0","0","0","61306","","null","","","null","49","","","","","","","","","","","","","","","",""
"","ISI","","html-keyboard-response","318","471112","0.0-1.0-444.0","0","0","61306","","null","","","null","49","NaN","","","","","","","","","","","","","","",""
"","S2","","html-keyboard-response","319","471364","0.0-1.0-445.0","0","0","61306","","null","","","null","49","","NaN","","","","","","","","","","","","","",""
"","response","","html-keyboard-response","320","472043","0.0-1.0-446.0","0","0","61306","","677","","","75","49","","","2","49","training","adjacent","DC","4","3","P.jpg","L.jpg","0","0","1","",""
"","feedback","","html-keyboard-response","321","473046","0.0-1.0-447.0-0.0","0","0","61306","","null","","","null","49","","","","","","","","","","","","","","","",""
"","ITI","","html-keyboard-response","322","474047","0.0-1.0-450.0","0","0","61306","","null","","","null","49","","","","","","","","","","","","","","","NaN",""
"","S1","","html-keyboard-response","323","474299","0.0-1.0-452.0","0","0","61306","","null","","","null","50","","","","","","","","","","","","","","","",""
"","ISI","","html-keyboard-response","324","476301","0.0-1.0-453.0","0","0","61306","","null","","","null","50","NaN","","","","","","","","","","","","","","",""
"","S2","","html-keyboard-response","325","476553","0.0-1.0-454.0","0","0","61306","","null","","","null","50","","NaN","","","","","","","","","","","","","",""
"","response","","html-keyboard-response","326","477257","0.0-1.0-455.0","0","0","61306","","703","","","68","50","","","2","50","training","adjacent","BA","2","1","N.jpg","M.jpg","1","0","0","",""
"","feedback","","html-keyboard-response","327","478259","0.0-1.0-456.0-0.0","0","0","61306","","null","","","null","50","","","","","","","","","","","","","","","",""
"","time_out","","html-keyboard-response","328","480261","0.0-1.0-458.0-0.0","0","0","61306","","null","","","null","50","","","","","","","","","","","","","","","",""
"","ITI","","html-keyboard-response","329","481263","0.0-1.0-459.0","0","0","61306","","null","","","null","50","","","","","","","","","","","","","","","NaN",""
"","S1","","html-keyboard-response","330","481516","0.0-1.0-461.0","0","0","61306","","null","","","null","51","","","","","","","","","","","","","","","",""
"","ISI","","html-keyboard-response","331","483517","0.0-1.0-462.0","0","0","61306","","null","","","null","51","NaN","","","","","","","","","","","","","","",""
"","S2","","html-keyboard-response","332","483770","0.0-1.0-463.0","0","0","61306","","null","","","null","51","","NaN","","","","","","","","","","","","","",""
"","response","","html-keyboard-response","333","484416","0.0-1.0-464.0","0","0","61306","","645","","","68","51","","","2","51","training","adjacent","ED","5","4","Q.jpg","P.jpg","1","0","0","",""
"","feedback","","html-keyboard-response","334","485419","0.0-1.0-465.0-0.0","0","0","61306","","null","","","null","51","","","","","","","","","","","","","","","",""
"","time_out","","html-keyboard-response","335","487421","0.0-1.0-467.0-0.0","0","0","61306","","null","","","null","51","","","","","","","","","","","","","","","",""
"","ITI","","html-keyboard-response","336","488423","0.0-1.0-468.0","0","0","61306","","null","","","null","51","","","","","","","","","","","","","","","NaN",""
"","S1","","html-keyboard-response","337","488676","0.0-1.0-470.0","0","0","61306","","null","","","null","52","","","","","","","","","","","","","","","",""
"","ISI","","html-keyboard-response","338","490678","0.0-1.0-471.0","0","0","61306","","null","","","null","52","NaN","","","","","","","","","","","","","","",""
"","S2","","html-keyboard-response","339","490930","0.0-1.0-472.0","0","0","61306","","null","","","null","52","","NaN","","","","","","","","","","","","","",""
"","response","","html-keyboard-response","340","491500","0.0-1.0-473.0","0","0","61306","","568","","","75","52","","","2","52","training","adjacent","CD","3","4","L.jpg","P.jpg","0","1","0","",""
"","feedback","","html-keyboard-response","341","492503","0.0-1.0-474.0-0.0","0","0","61306","","null","","","null","52","","","","","","","","","","","","","","","",""
"","time_out","","html-keyboard-response","342","494505","0.0-1.0-476.0-0.0","0","0","61306","","null","","","null","52","","","","","","","","","","","","","","","",""
"","ITI","","html-keyboard-response","343","495507","0.0-1.0-477.0","0","0","61306","","null","","","null","52","","","","","","","","","","","","","","","NaN",""
"","S1","","html-keyboard-response","344","495759","0.0-1.0-479.0","0","0","61306","","null","","","null","53","","","","","","","","","","","","","","","",""
"","ISI","","html-keyboard-response","345","497760","0.0-1.0-480.0","0","0","61306","","null","","","null","53","NaN","","","","","","","","","","","","","","",""
"","S2","","html-keyboard-response","346","498013","0.0-1.0-481.0","0","0","61306","","null","","","null","53","","NaN","","","","","","","","","","","","","",""
"","response","","html-keyboard-response","347","498601","0.0-1.0-482.0","0","0","61306","","587","","","68","53","","","2","53","training","adjacent","EF","5","6","Q.jpg","R.jpg","1","1","1","",""
"","feedback","","html-keyboard-response","348","499605","0.0-1.0-483.0-0.0","0","0","61306","","null","","","null","53","","","","","","","","","","","","","","","",""
"","ITI","","html-keyboard-response","349","500606","0.0-1.0-486.0","0","0","61306","","null","","","null","53","","","","","","","","","","","","","","","NaN",""
"","S1","","html-keyboard-response","350","500859","0.0-1.0-488.0","0","0","61306","","null","","","null","54","","","","","","","","","","","","","","","",""
"","ISI","","html-keyboard-response","351","502862","0.0-1.0-489.0","0","0","61306","","null","","","null","54","NaN","","","","","","","","","","","","","","",""
"","S2","","html-keyboard-response","352","503113","0.0-1.0-490.0","0","0","61306","","null","","","null","54","","NaN","","","","","","","","","","","","","",""
"","response","","html-keyboard-response","353","503655","0.0-1.0-491.0","0","0","61306","","539","","","75","54","","","2","54","training","adjacent","ED","5","4","Q.jpg","P.jpg","0","0","1","",""
"","feedback","","html-keyboard-response","354","504657","0.0-1.0-492.0-0.0","0","0","61306","","null","","","null","54","","","","","","","","","","","","","","","",""
"","ITI","","html-keyboard-response","355","505659","0.0-1.0-495.0","0","0","61306","","null","","","null","54","","","","","","","","","","","","","","","NaN",""
"","S1","","html-keyboard-response","356","505910","0.0-1.0-497.0","0","0","61306","","null","","","null","55","","","","","","","","","","","","","","","",""
"","ISI","","html-keyboard-response","357","507912","0.0-1.0-498.0","0","0","61306","","null","","","null","55","NaN","","","","","","","","","","","","","","",""
"","S2","","html-keyboard-response","358","508165","0.0-1.0-499.0","0","0","61306","","null","","","null","55","","NaN","","","","","","","","","","","","","",""
"","response","","html-keyboard-response","359","509158","0.0-1.0-500.0","0","0","61306","","991","","","68","55","","","2","55","training","adjacent","CB","3","2","L.jpg","N.jpg","1","0","0","",""
"","feedback","","html-keyboard-response","360","510160","0.0-1.0-501.0-0.0","0","0","61306","","null","","","null","55","","","","","","","","","","","","","","","",""
"","time_out","","html-keyboard-response","361","512163","0.0-1.0-503.0-0.0","0","0","61306","","null","","","null","55","","","","","","","","","","","","","","","",""
"","ITI","","html-keyboard-response","362","513165","0.0-1.0-504.0","0","0","61306","","null","","","null","55","","","","","","","","","","","","","","","NaN",""
"","S1","","html-keyboard-response","363","513417","0.0-1.0-506.0","0","0","61306","","null","","","null","56","","","","","","","","","","","","","","","",""
"","ISI","","html-keyboard-response","364","515419","0.0-1.0-507.0","0","0","61306","","null","","","null","56","NaN","","","","","","","","","","","","","","",""
"","S2","","html-keyboard-response","365","515671","0.0-1.0-508.0","0","0","61306","","null","","","null","56","","NaN","","","","","","","","","","","","","",""
"","response","","html-keyboard-response","366","516335","0.0-1.0-509.0","0","0","61306","","661","","","68","56","","","2","56","training","adjacent","FE","6","5","R.jpg","Q.jpg","1","0","0","",""
"","feedback","","html-keyboard-response","367","517337","0.0-1.0-510.0-0.0","0","0","61306","","null","","","null","56","","","","","","","","","","","","","","","",""
"","time_out","","html-keyboard-response","368","519339","0.0-1.0-512.0-0.0","0","0","61306","","null","","","null","56","","","","","","","","","","","","","","","",""
"","ITI","","html-keyboard-response","369","520341","0.0-1.0-513.0","0","0","61306","","null","","","null","56","","","","","","","","","","","","","","","NaN",""
"","S1","","html-keyboard-response","370","520593","0.0-1.0-515.0","0","0","61306","","null","","","null","57","","","","","","","","","","","","","","","",""
"","ISI","","html-keyboard-response","371","522595","0.0-1.0-516.0","0","0","61306","","null","","","null","57","NaN","","","","","","","","","","","","","","",""
"","S2","","html-keyboard-response","372","522847","0.0-1.0-517.0","0","0","61306","","null","","","null","57","","NaN","","","","","","","","","","","","","",""
"","response","","html-keyboard-response","373","523427","0.0-1.0-518.0","0","0","61306","","578","","","68","57","","","2","57","training","adjacent","FE","6","5","R.jpg","Q.jpg","1","0","0","",""
"","feedback","","html-keyboard-response","374","524430","0.0-1.0-519.0-0.0","0","0","61306","","null","","","null","57","","","","","","","","","","","","","","","",""
"","time_out","","html-keyboard-response","375","526432","0.0-1.0-521.0-0.0","0","0","61306","","null","","","null","57","","","","","","","","","","","","","","","",""
"","ITI","","html-keyboard-response","376","527434","0.0-1.0-522.0","0","0","61306","","null","","","null","57","","","","","","","","","","","","","","","NaN",""
"","S1","","html-keyboard-response","377","527686","0.0-1.0-524.0","0","0","61306","","null","","","null","58","","","","","","","","","","","","","","","",""
"","ISI","","html-keyboard-response","378","529688","0.0-1.0-525.0","0","0","61306","","null","","","null","58","NaN","","","","","","","","","","","","","","",""
"","S2","","html-keyboard-response","379","529940","0.0-1.0-526.0","0","0","61306","","null","","","null","58","","NaN","","","","","","","","","","","","","",""
"","response","","html-keyboard-response","380","530388","0.0-1.0-527.0","0","0","61306","","445","","","75","58","","","2","58","training","adjacent","GF","7","6","O.jpg","R.jpg","0","0","1","",""
"","feedback","","html-keyboard-response","381","531390","0.0-1.0-528.0-0.0","0","0","61306","","null","","","null","58","","","","","","","","","","","","","","","",""
"","ITI","","html-keyboard-response","382","532391","0.0-1.0-531.0","0","0","61306","","null","","","null","58","","","","","","","","","","","","","","","NaN",""
"","S1","","html-keyboard-response","383","532645","0.0-1.0-533.0","0","0","61306","","null","","","null","59","","","","","","","","","","","","","","","",""
"","ISI","","html-keyboard-response","384","534647","0.0-1.0-534.0","0","0","61306","","null","","","null","59","NaN","","","","","","","","","","","","","","",""
"","S2","","html-keyboard-response","385","534899","0.0-1.0-535.0","0","0","61306","","null","","","null","59","","NaN","","","","","","","","","","","","","",""
"","response","","html-keyboard-response","386","535365","0.0-1.0-536.0","0","0","61306","","465","","","75","59","","","2","59","training","adjacent","DC","4","3","P.jpg","L.jpg","0","0","1","",""
"","feedback","","html-keyboard-response","387","536366","0.0-1.0-537.0-0.0","0","0","61306","","null","","","null","59","","","","","","","","","","","","","","","",""
"","ITI","","html-keyboard-response","388","537369","0.0-1.0-540.0","0","0","61306","","null","","","null","59","","","","","","","","","","","","","","","NaN",""
"","S1","","html-keyboard-response","389","537622","0.0-1.0-542.0","0","0","61306","","null","","","null","60","","","","","","","","","","","","","","","",""
"","ISI","","html-keyboard-response","390","539624","0.0-1.0-543.0","0","0","61306","","null","","","null","60","NaN","","","","","","","","","","","","","","",""
"","S2","","html-keyboard-response","391","539877","0.0-1.0-544.0","0","0","61306","","null","","","null","60","","NaN","","","","","","","","","","","","","",""
"","response","","html-keyboard-response","392","540453","0.0-1.0-545.0","0","0","61306","","575","","","68","60","","","2","60","training","adjacent","DE","4","5","P.jpg","Q.jpg","1","1","1","",""
"","feedback","","html-keyboard-response","393","541455","0.0-1.0-546.0-0.0","0","0","61306","","null","","","null","60","","","","","","","","","","","","","","","",""
"","ITI","","html-keyboard-response","394","542457","0.0-1.0-549.0","0","0","61306","","null","","","null","60","","","","","","","","","","","","","","","NaN",""
"","S1","","html-keyboard-response","395","542710","0.0-1.0-551.0","0","0","61306","","null","","","null","61","","","","","","","","","","","","","","","",""
"","ISI","","html-keyboard-response","396","544712","0.0-1.0-552.0","0","0","61306","","null","","","null","61","NaN","","","","","","","","","","","","","","",""
"","S2","","html-keyboard-response","397","544965","0.0-1.0-553.0","0","0","61306","","null","","","null","61","","NaN","","","","","","","","","","","","","",""
"","response","","html-keyboard-response","398","545457","0.0-1.0-554.0","0","0","61306","","490","","","68","61","","","2","61","training","adjacent","DE","4","5","P.jpg","Q.jpg","1","1","1","",""
"","feedback","","html-keyboard-response","399","546460","0.0-1.0-555.0-0.0","0","0","61306","","null","","","null","61","","","","","","","","","","","","","","","",""
"","ITI","","html-keyboard-response","400","547461","0.0-1.0-558.0","0","0","61306","","null","","","null","61","","","","","","","","","","","","","","","NaN",""
"","S1","","html-keyboard-response","401","547714","0.0-1.0-560.0","0","0","61306","","null","","","null","62","","","","","","","","","","","","","","","",""
"","ISI","","html-keyboard-response","402","549716","0.0-1.0-561.0","0","0","61306","","null","","","null","62","NaN","","","","","","","","","","","","","","",""
"","S2","","html-keyboard-response","403","549969","0.0-1.0-562.0","0","0","61306","","null","","","null","62","","NaN","","","","","","","","","","","","","",""
"","response","","html-keyboard-response","404","550586","0.0-1.0-563.0","0","0","61306","","616","","","68","62","","","2","62","training","adjacent","BC","2","3","N.jpg","L.jpg","1","1","1","",""
"","feedback","","html-keyboard-response","405","551588","0.0-1.0-564.0-0.0","0","0","61306","","null","","","null","62","","","","","","","","","","","","","","","",""
"","ITI","","html-keyboard-response","406","552589","0.0-1.0-567.0","0","0","61306","","null","","","null","62","","","","","","","","","","","","","","","NaN",""
"","S1","","html-keyboard-response","407","552843","0.0-1.0-569.0","0","0","61306","","null","","","null","63","","","","","","","","","","","","","","","",""
"","ISI","","html-keyboard-response","408","554844","0.0-1.0-570.0","0","0","61306","","null","","","null","63","NaN","","","","","","","","","","","","","","",""
"","S2","","html-keyboard-response","409","555097","0.0-1.0-571.0","0","0","61306","","null","","","null","63","","NaN","","","","","","","","","","","","","",""
"","response","","html-keyboard-response","410","555473","0.0-1.0-572.0","0","0","61306","","375","","","75","63","","","2","63","training","adjacent","CD","3","4","L.jpg","P.jpg","0","1","0","",""
"","feedback","","html-keyboard-response","411","556476","0.0-1.0-573.0-0.0","0","0","61306","","null","","","null","63","","","","","","","","","","","","","","","",""
"","time_out","","html-keyboard-response","412","558479","0.0-1.0-575.0-0.0","0","0","61306","","null","","","null","63","","","","","","","","","","","","","","","",""
"","ITI","","html-keyboard-response","413","559480","0.0-1.0-576.0","0","0","61306","","null","","","null","63","","","","","","","","","","","","","","","NaN",""
"","S1","","html-keyboard-response","414","559732","0.0-1.0-578.0","0","0","61306","","null","","","null","64","","","","","","","","","","","","","","","",""
"","ISI","","html-keyboard-response","415","561734","0.0-1.0-579.0","0","0","61306","","null","","","null","64","NaN","","","","","","","","","","","","","","",""
"","S2","","html-keyboard-response","416","561986","0.0-1.0-580.0","0","0","61306","","null","","","null","64","","NaN","","","","","","","","","","","","","",""
"","response","","html-keyboard-response","417","562565","0.0-1.0-581.0","0","0","61306","","577","","","68","64","","","2","64","training","adjacent","GF","7","6","O.jpg","R.jpg","1","0","0","",""
"","feedback","","html-keyboard-response","418","563569","0.0-1.0-582.0-0.0","0","0","61306","","null","","","null","64","","","","","","","","","","","","","","","",""
"","time_out","","html-keyboard-response","419","565571","0.0-1.0-584.0-0.0","0","0","61306","","null","","","null","64","","","","","","","","","","","","","","","",""
"","ITI","","html-keyboard-response","420","566575","0.0-1.0-585.0","0","0","61306","","null","","","null","64","","","","","","","","","","","","","","","NaN",""
"","S1","","html-keyboard-response","421","566827","0.0-1.0-587.0","0","0","61306","","null","","","null","65","","","","","","","","","","","","","","","",""
"","ISI","","html-keyboard-response","422","568829","0.0-1.0-588.0","0","0","61306","","null","","","null","65","NaN","","","","","","","","","","","","","","",""
"","S2","","html-keyboard-response","423","569081","0.0-1.0-589.0","0","0","61306","","null","","","null","65","","NaN","","","","","","","","","","","","","",""
"","response","","html-keyboard-response","424","569508","0.0-1.0-590.0","0","0","61306","","426","","","75","65","","","2","65","training","adjacent","BC","2","3","N.jpg","L.jpg","0","1","0","",""
"","feedback","","html-keyboard-response","425","570512","0.0-1.0-591.0-0.0","0","0","61306","","null","","","null","65","","","","","","","","","","","","","","","",""
"","time_out","","html-keyboard-response","426","572513","0.0-1.0-593.0-0.0","0","0","61306","","null","","","null","65","","","","","","","","","","","","","","","",""
"","ITI","","html-keyboard-response","427","573516","0.0-1.0-594.0","0","0","61306","","null","","","null","65","","","","","","","","","","","","","","","NaN",""
"","S1","","html-keyboard-response","428","573767","0.0-1.0-596.0","0","0","61306","","null","","","null","66","","","","","","","","","","","","","","","",""
"","ISI","","html-keyboard-response","429","575770","0.0-1.0-597.0","0","0","61306","","null","","","null","66","NaN","","","","","","","","","","","","","","",""
"","S2","","html-keyboard-response","430","576021","0.0-1.0-598.0","0","0","61306","","null","","","null","66","","NaN","","","","","","","","","","","","","",""
"","response","","html-keyboard-response","431","576438","0.0-1.0-599.0","0","0","61306","","415","","","68","66","","","2","66","training","adjacent","FG","6","7","R.jpg","O.jpg","1","1","1","",""
"","feedback","","html-keyboard-response","432","577441","0.0-1.0-600.0-0.0","0","0","61306","","null","","","null","66","","","","","","","","","","","","","","","",""
"","ITI","","html-keyboard-response","433","578443","0.0-1.0-603.0","0","0","61306","","null","","","null","66","","","","","","","","","","","","","","","NaN",""
"","S1","","html-keyboard-response","434","578695","0.0-1.0-605.0","0","0","61306","","null","","","null","67","","","","","","","","","","","","","","","",""
"","ISI","","html-keyboard-response","435","580697","0.0-1.0-606.0","0","0","61306","","null","","","null","67","NaN","","","","","","","","","","","","","","",""
"","S2","","html-keyboard-response","436","580949","0.0-1.0-607.0","0","0","61306","","null","","","null","67","","NaN","","","","","","","","","","","","","",""
"","response","","html-keyboard-response","437","581723","0.0-1.0-608.0","0","0","61306","","773","","","68","67","","","2","67","training","adjacent","EF","5","6","Q.jpg","R.jpg","1","1","1","",""
"","feedback","","html-keyboard-response","438","582726","0.0-1.0-609.0-0.0","0","0","61306","","null","","","null","67","","","","","","","","","","","","","","","",""
"","ITI","","html-keyboard-response","439","583728","0.0-1.0-612.0","0","0","61306","","null","","","null","67","","","","","","","","","","","","","","","NaN",""
"","S1","","html-keyboard-response","440","583981","0.0-1.0-614.0","0","0","61306","","null","","","null","68","","","","","","","","","","","","","","","",""
"","ISI","","html-keyboard-response","441","585983","0.0-1.0-615.0","0","0","61306","","null","","","null","68","NaN","","","","","","","","","","","","","","",""
"","S2","","html-keyboard-response","442","586236","0.0-1.0-616.0","0","0","61306","","null","","","null","68","","NaN","","","","","","","","","","","","","",""
"","response","","html-keyboard-response","443","586899","0.0-1.0-617.0","0","0","61306","","662","","","75","68","","","2","68","training","adjacent","CD","3","4","L.jpg","P.jpg","0","1","0","",""
"","feedback","","html-keyboard-response","444","587902","0.0-1.0-618.0-0.0","0","0","61306","","null","","","null","68","","","","","","","","","","","","","","","",""
"","time_out","","html-keyboard-response","445","589906","0.0-1.0-620.0-0.0","0","0","61306","","null","","","null","68","","","","","","","","","","","","","","","",""
"","ITI","","html-keyboard-response","446","590909","0.0-1.0-621.0","0","0","61306","","null","","","null","68","","","","","","","","","","","","","","","NaN",""
"","S1","","html-keyboard-response","447","591162","0.0-1.0-623.0","0","0","61306","","null","","","null","69","","","","","","","","","","","","","","","",""
"","ISI","","html-keyboard-response","448","593164","0.0-1.0-624.0","0","0","61306","","null","","","null","69","NaN","","","","","","","","","","","","","","",""
"","S2","","html-keyboard-response","449","593415","0.0-1.0-625.0","0","0","61306","","null","","","null","69","","NaN","","","","","","","","","","","","","",""
"","response","","html-keyboard-response","450","593928","0.0-1.0-626.0","0","0","61306","","511","","","68","69","","","2","69","training","adjacent","BA","2","1","N.jpg","M.jpg","1","0","0","",""
"","feedback","","html-keyboard-response","451","594931","0.0-1.0-627.0-0.0","0","0","61306","","null","","","null","69","","","","","","","","","","","","","","","",""
"","time_out","","html-keyboard-response","452","596932","0.0-1.0-629.0-0.0","0","0","61306","","null","","","null","69","","","","","","","","","","","","","","","",""
"","ITI","","html-keyboard-response","453","597933","0.0-1.0-630.0","0","0","61306","","null","","","null","69","","","","","","","","","","","","","","","NaN",""
"","S1","","html-keyboard-response","454","598186","0.0-1.0-632.0","0","0","61306","","null","","","null","70","","","","","","","","","","","","","","","",""
"","ISI","","html-keyboard-response","455","600188","0.0-1.0-633.0","0","0","61306","","null","","","null","70","NaN","","","","","","","","","","","","","","",""
"","S2","","html-keyboard-response","456","600440","0.0-1.0-634.0","0","0","61306","","null","","","null","70","","NaN","","","","","","","","","","","","","",""
"","response","","html-keyboard-response","457","600939","0.0-1.0-635.0","0","0","61306","","496","","","68","70","","","2","70","training","adjacent","DE","4","5","P.jpg","Q.jpg","1","1","1","",""
"","feedback","","html-keyboard-response","458","601941","0.0-1.0-636.0-0.0","0","0","61306","","null","","","null","70","","","","","","","","","","","","","","","",""
"","ITI","","html-keyboard-response","459","602944","0.0-1.0-639.0","0","0","61306","","null","","","null","70","","","","","","","","","","","","","","","NaN",""
"","S1","","html-keyboard-response","460","603197","0.0-1.0-641.0","0","0","61306","","null","","","null","71","","","","","","","","","","","","","","","",""
"","ISI","","html-keyboard-response","461","605199","0.0-1.0-642.0","0","0","61306","","null","","","null","71","NaN","","","","","","","","","","","","","","",""
"","S2","","html-keyboard-response","462","605451","0.0-1.0-643.0","0","0","61306","","null","","","null","71","","NaN","","","","","","","","","","","","","",""
"","response","","html-keyboard-response","463","606012","0.0-1.0-644.0","0","0","61306","","560","","","75","71","","","2","71","training","adjacent","AB","1","2","M.jpg","N.jpg","0","1","0","",""
"","feedback","","html-keyboard-response","464","607014","0.0-1.0-645.0-0.0","0","0","61306","","null","","","null","71","","","","","","","","","","","","","","","",""
"","time_out","","html-keyboard-response","465","609015","0.0-1.0-647.0-0.0","0","0","61306","","null","","","null","71","","","","","","","","","","","","","","","",""
"","ITI","","html-keyboard-response","466","610018","0.0-1.0-648.0","0","0","61306","","null","","","null","71","","","","","","","","","","","","","","","NaN",""
"","S1","","html-keyboard-response","467","610270","0.0-1.0-650.0","0","0","61306","","null","","","null","72","","","","","","","","","","","","","","","",""
"","ISI","","html-keyboard-response","468","612272","0.0-1.0-651.0","0","0","61306","","null","","","null","72","NaN","","","","","","","","","","","","","","",""
"","S2","","html-keyboard-response","469","612524","0.0-1.0-652.0","0","0","61306","","null","","","null","72","","NaN","","","","","","","","","","","","","",""
"","response","","html-keyboard-response","470","613216","0.0-1.0-653.0","0","0","61306","","691","","","68","72","","","2","72","training","adjacent","DC","4","3","P.jpg","L.jpg","1","0","0","",""
"","feedback","","html-keyboard-response","471","614218","0.0-1.0-654.0-0.0","0","0","61306","","null","","","null","72","","","","","","","","","","","","","","","",""
"","time_out","","html-keyboard-response","472","616220","0.0-1.0-656.0-0.0","0","0","61306","","null","","","null","72","","","","","","","","","","","","","","","",""
"","ITI","","html-keyboard-response","473","617222","0.0-1.0-657.0","0","0","61306","","null","","","null","72","","","","","","","","","","","","","","","NaN",""
"","S1","","html-keyboard-response","474","617476","0.0-1.0-659.0","0","0","61306","","null","","","null","73","","","","","","","","","","","","","","","",""
"","ISI","","html-keyboard-response","475","619477","0.0-1.0-660.0","0","0","61306","","null","","","null","73","NaN","","","","","","","","","","","","","","",""
"","S2","","html-keyboard-response","476","619730","0.0-1.0-661.0","0","0","61306","","null","","","null","73","","NaN","","","","","","","","","","","","","",""
"","response","","html-keyboard-response","477","620234","0.0-1.0-662.0","0","0","61306","","503","","","75","73","","","2","73","training","adjacent","AB","1","2","M.jpg","N.jpg","0","1","0","",""
"","feedback","","html-keyboard-response","478","621237","0.0-1.0-663.0-0.0","0","0","61306","","null","","","null","73","","","","","","","","","","","","","","","",""
"","time_out","","html-keyboard-response","479","623239","0.0-1.0-665.0-0.0","0","0","61306","","null","","","null","73","","","","","","","","","","","","","","","",""
"","ITI","","html-keyboard-response","480","624240","0.0-1.0-666.0","0","0","61306","","null","","","null","73","","","","","","","","","","","","","","","NaN",""
"","S1","","html-keyboard-response","481","624493","0.0-1.0-668.0","0","0","61306","","null","","","null","74","","","","","","","","","","","","","","","",""
"","ISI","","html-keyboard-response","482","626496","0.0-1.0-669.0","0","0","61306","","null","","","null","74","NaN","","","","","","","","","","","","","","",""
"","S2","","html-keyboard-response","483","626747","0.0-1.0-670.0","0","0","61306","","null","","","null","74","","NaN","","","","","","","","","","","","","",""
"","response","","html-keyboard-response","484","627356","0.0-1.0-671.0","0","0","61306","","607","","","68","74","","","2","74","training","adjacent","FE","6","5","R.jpg","Q.jpg","1","0","0","",""
"","feedback","","html-keyboard-response","485","628358","0.0-1.0-672.0-0.0","0","0","61306","","null","","","null","74","","","","","","","","","","","","","","","",""
"","time_out","","html-keyboard-response","486","630360","0.0-1.0-674.0-0.0","0","0","61306","","null","","","null","74","","","","","","","","","","","","","","","",""
"","ITI","","html-keyboard-response","487","631363","0.0-1.0-675.0","0","0","61306","","null","","","null","74","","","","","","","","","","","","","","","NaN",""
"","S1","","html-keyboard-response","488","631616","0.0-1.0-677.0","0","0","61306","","null","","","null","75","","","","","","","","","","","","","","","",""
"","ISI","","html-keyboard-response","489","633617","0.0-1.0-678.0","0","0","61306","","null","","","null","75","NaN","","","","","","","","","","","","","","",""
"","S2","","html-keyboard-response","490","633869","0.0-1.0-679.0","0","0","61306","","null","","","null","75","","NaN","","","","","","","","","","","","","",""
"","response","","html-keyboard-response","491","634176","0.0-1.0-680.0","0","0","61306","","305","","","68","75","","","2","75","training","adjacent","DC","4","3","P.jpg","L.jpg","1","0","0","",""
"","feedback","","html-keyboard-response","492","635178","0.0-1.0-681.0-0.0","0","0","61306","","null","","","null","75","","","","","","","","","","","","","","","",""
"","time_out","","html-keyboard-response","493","637180","0.0-1.0-683.0-0.0","0","0","61306","","null","","","null","75","","","","","","","","","","","","","","","",""
"","ITI","","html-keyboard-response","494","638183","0.0-1.0-684.0","0","0","61306","","null","","","null","75","","","","","","","","","","","","","","","NaN",""
"","S1","","html-keyboard-response","495","638435","0.0-1.0-686.0","0","0","61306","","null","","","null","76","","","","","","","","","","","","","","","",""
"","ISI","","html-keyboard-response","496","640437","0.0-1.0-687.0","0","0","61306","","null","","","null","76","NaN","","","","","","","","","","","","","","",""
"","S2","","html-keyboard-response","497","640689","0.0-1.0-688.0","0","0","61306","","null","","","null","76","","NaN","","","","","","","","","","","","","",""
"","response","","html-keyboard-response","498","640991","0.0-1.0-689.0","0","0","61306","","300","","","75","76","","","2","76","training","adjacent","CD","3","4","L.jpg","P.jpg","0","1","0","",""
"","feedback","","html-keyboard-response","499","641993","0.0-1.0-690.0-0.0","0","0","61306","","null","","","null","76","","","","","","","","","","","","","","","",""
"","time_out","","html-keyboard-response","500","643994","0.0-1.0-692.0-0.0","0","0","61306","","null","","","null","76","","","","","","","","","","","","","","","",""
"","ITI","","html-keyboard-response","501","644996","0.0-1.0-693.0","0","0","61306","","null","","","null","76","","","","","","","","","","","","","","","NaN",""
"","S1","","html-keyboard-response","502","645249","0.0-1.0-695.0","0","0","61306","","null","","","null","77","","","","","","","","","","","","","","","",""
"","ISI","","html-keyboard-response","503","647251","0.0-1.0-696.0","0","0","61306","","null","","","null","77","NaN","","","","","","","","","","","","","","",""
"","S2","","html-keyboard-response","504","647502","0.0-1.0-697.0","0","0","61306","","null","","","null","77","","NaN","","","","","","","","","","","","","",""
"","response","","html-keyboard-response","505","647962","0.0-1.0-698.0","0","0","61306","","457","","","68","77","","","2","77","training","adjacent","BC","2","3","N.jpg","L.jpg","1","1","1","",""
"","feedback","","html-keyboard-response","506","648963","0.0-1.0-699.0-0.0","0","0","61306","","null","","","null","77","","","","","","","","","","","","","","","",""
"","ITI","","html-keyboard-response","507","649966","0.0-1.0-702.0","0","0","61306","","null","","","null","77","","","","","","","","","","","","","","","NaN",""
"","S1","","html-keyboard-response","508","650218","0.0-1.0-704.0","0","0","61306","","null","","","null","78","","","","","","","","","","","","","","","",""
"","ISI","","html-keyboard-response","509","652220","0.0-1.0-705.0","0","0","61306","","null","","","null","78","NaN","","","","","","","","","","","","","","",""
"","S2","","html-keyboard-response","510","652474","0.0-1.0-706.0","0","0","61306","","null","","","null","78","","NaN","","","","","","","","","","","","","",""
"","response","","html-keyboard-response","511","653084","0.0-1.0-707.0","0","0","61306","","607","","","75","78","","","2","78","training","adjacent","BA","2","1","N.jpg","M.jpg","0","0","1","",""
"","feedback","","html-keyboard-response","512","654086","0.0-1.0-708.0-0.0","0","0","61306","","null","","","null","78","","","","","","","","","","","","","","","",""
"","ITI","","html-keyboard-response","513","655089","0.0-1.0-711.0","0","0","61306","","null","","","null","78","","","","","","","","","","","","","","","NaN",""
"","S1","","html-keyboard-response","514","655340","0.0-1.0-713.0","0","0","61306","","null","","","null","79","","","","","","","","","","","","","","","",""
"","ISI","","html-keyboard-response","515","657343","0.0-1.0-714.0","0","0","61306","","null","","","null","79","NaN","","","","","","","","","","","","","","",""
"","S2","","html-keyboard-response","516","657595","0.0-1.0-715.0","0","0","61306","","null","","","null","79","","NaN","","","","","","","","","","","","","",""
"","response","","html-keyboard-response","517","658238","0.0-1.0-716.0","0","0","61306","","642","","","68","79","","","2","79","training","adjacent","ED","5","4","Q.jpg","P.jpg","1","0","0","",""
"","feedback","","html-keyboard-response","518","659240","0.0-1.0-717.0-0.0","0","0","61306","","null","","","null","79","","","","","","","","","","","","","","","",""
"","time_out","","html-keyboard-response","519","661243","0.0-1.0-719.0-0.0","0","0","61306","","null","","","null","79","","","","","","","","","","","","","","","",""
"","ITI","","html-keyboard-response","520","662245","0.0-1.0-720.0","0","0","61306","","null","","","null","79","","","","","","","","","","","","","","","NaN",""
"","block_over","","html-keyboard-response","521","664132","0.0-1.0-721.0-0.0","0","0","61306","","1886","","","32","79","","","","","","","","","","","","","","","",""
"","S1","","html-keyboard-response","522","664385","0.0-1.0-722.0","0","0","61306","","null","","","null","80","","","","","","","","","","","","","","","",""
"","ISI","","html-keyboard-response","523","666386","0.0-1.0-723.0","0","0","61306","","null","","","null","80","NaN","","","","","","","","","","","","","","",""
"","S2","","html-keyboard-response","524","666640","0.0-1.0-724.0","0","0","61306","","null","","","null","80","","NaN","","","","","","","","","","","","","",""
"","response","","html-keyboard-response","525","667055","0.0-1.0-725.0","0","0","61306","","414","","","68","80","","","3","80","training","adjacent","CB","3","2","L.jpg","N.jpg","1","0","0","",""
"","feedback","","html-keyboard-response","526","668058","0.0-1.0-726.0-0.0","0","0","61306","","null","","","null","80","","","","","","","","","","","","","","","",""
"","time_out","","html-keyboard-response","527","670060","0.0-1.0-728.0-0.0","0","0","61306","","null","","","null","80","","","","","","","","","","","","","","","",""
"","ITI","","html-keyboard-response","528","671063","0.0-1.0-729.0","0","0","61306","","null","","","null","80","","","","","","","","","","","","","","","NaN",""
"","S1","","html-keyboard-response","529","671314","0.0-1.0-731.0","0","0","61306","","null","","","null","81","","","","","","","","","","","","","","","",""
"","ISI","","html-keyboard-response","530","673317","0.0-1.0-732.0","0","0","61306","","null","","","null","81","NaN","","","","","","","","","","","","","","",""
"","S2","","html-keyboard-response","531","673569","0.0-1.0-733.0","0","0","61306","","null","","","null","81","","NaN","","","","","","","","","","","","","",""
"","response","","html-keyboard-response","532","674057","0.0-1.0-734.0","0","0","61306","","486","","","68","81","","","3","81","training","adjacent","DE","4","5","P.jpg","Q.jpg","1","1","1","",""
"","feedback","","html-keyboard-response","533","675059","0.0-1.0-735.0-0.0","0","0","61306","","null","","","null","81","","","","","","","","","","","","","","","",""
"","ITI","","html-keyboard-response","534","676060","0.0-1.0-738.0","0","0","61306","","null","","","null","81","","","","","","","","","","","","","","","NaN",""
"","S1","","html-keyboard-response","535","676314","0.0-1.0-740.0","0","0","61306","","null","","","null","82","","","","","","","","","","","","","","","",""
"","ISI","","html-keyboard-response","536","678316","0.0-1.0-741.0","0","0","61306","","null","","","null","82","NaN","","","","","","","","","","","","","","",""
"","S2","","html-keyboard-response","537","678569","0.0-1.0-742.0","0","0","61306","","null","","","null","82","","NaN","","","","","","","","","","","","","",""
"","response","","html-keyboard-response","538","679102","0.0-1.0-743.0","0","0","61306","","532","","","75","82","","","3","82","training","adjacent","GF","7","6","O.jpg","R.jpg","0","0","1","",""
"","feedback","","html-keyboard-response","539","680106","0.0-1.0-744.0-0.0","0","0","61306","","null","","","null","82","","","","","","","","","","","","","","","",""
"","ITI","","html-keyboard-response","540","681108","0.0-1.0-747.0","0","0","61306","","null","","","null","82","","","","","","","","","","","","","","","NaN",""
"","S1","","html-keyboard-response","541","681359","0.0-1.0-749.0","0","0","61306","","null","","","null","83","","","","","","","","","","","","","","","",""
"","ISI","","html-keyboard-response","542","683363","0.0-1.0-750.0","0","0","61306","","null","","","null","83","NaN","","","","","","","","","","","","","","",""
"","S2","","html-keyboard-response","543","683616","0.0-1.0-751.0","0","0","61306","","null","","","null","83","","NaN","","","","","","","","","","","","","",""
"","response","","html-keyboard-response","544","684083","0.0-1.0-752.0","0","0","61306","","464","","","68","83","","","3","83","training","adjacent","DC","4","3","P.jpg","L.jpg","1","0","0","",""
"","feedback","","html-keyboard-response","545","685085","0.0-1.0-753.0-0.0","0","0","61306","","null","","","null","83","","","","","","","","","","","","","","","",""
"","time_out","","html-keyboard-response","546","687087","0.0-1.0-755.0-0.0","0","0","61306","","null","","","null","83","","","","","","","","","","","","","","","",""
"","ITI","","html-keyboard-response","547","688090","0.0-1.0-756.0","0","0","61306","","null","","","null","83","","","","","","","","","","","","","","","NaN",""
"","S1","","html-keyboard-response","548","688341","0.0-1.0-758.0","0","0","61306","","null","","","null","84","","","","","","","","","","","","","","","",""
"","ISI","","html-keyboard-response","549","690343","0.0-1.0-759.0","0","0","61306","","null","","","null","84","NaN","","","","","","","","","","","","","","",""
"","S2","","html-keyboard-response","550","690594","0.0-1.0-760.0","0","0","61306","","null","","","null","84","","NaN","","","","","","","","","","","","","",""
"","response","","html-keyboard-response","551","691171","0.0-1.0-761.0","0","0","61306","","575","","","75","84","","","3","84","training","adjacent","CD","3","4","L.jpg","P.jpg","0","1","0","",""
"","feedback","","html-keyboard-response","552","692173","0.0-1.0-762.0-0.0","0","0","61306","","null","","","null","84","","","","","","","","","","","","","","","",""
"","time_out","","html-keyboard-response","553","694176","0.0-1.0-764.0-0.0","0","0","61306","","null","","","null","84","","","","","","","","","","","","","","","",""
"","ITI","","html-keyboard-response","554","695177","0.0-1.0-765.0","0","0","61306","","null","","","null","84","","","","","","","","","","","","","","","NaN",""
"","S1","","html-keyboard-response","555","695429","0.0-1.0-767.0","0","0","61306","","null","","","null","85","","","","","","","","","","","","","","","",""
"","ISI","","html-keyboard-response","556","697431","0.0-1.0-768.0","0","0","61306","","null","","","null","85","NaN","","","","","","","","","","","","","","",""
"","S2","","html-keyboard-response","557","697683","0.0-1.0-769.0","0","0","61306","","null","","","null","85","","NaN","","","","","","","","","","","","","",""
"","response","","html-keyboard-response","558","698176","0.0-1.0-770.0","0","0","61306","","492","","","68","85","","","3","85","training","adjacent","FE","6","5","R.jpg","Q.jpg","1","0","0","",""
"","feedback","","html-keyboard-response","559","699179","0.0-1.0-771.0-0.0","0","0","61306","","null","","","null","85","","","","","","","","","","","","","","","",""
"","time_out","","html-keyboard-response","560","701181","0.0-1.0-773.0-0.0","0","0","61306","","null","","","null","85","","","","","","","","","","","","","","","",""
"","ITI","","html-keyboard-response","561","702183","0.0-1.0-774.0","0","0","61306","","null","","","null","85","","","","","","","","","","","","","","","NaN",""
"","S1","","html-keyboard-response","562","702436","0.0-1.0-776.0","0","0","61306","","null","","","null","86","","","","","","","","","","","","","","","",""
"","ISI","","html-keyboard-response","563","704438","0.0-1.0-777.0","0","0","61306","","null","","","null","86","NaN","","","","","","","","","","","","","","",""
"","S2","","html-keyboard-response","564","704690","0.0-1.0-778.0","0","0","61306","","null","","","null","86","","NaN","","","","","","","","","","","","","",""
"","response","","html-keyboard-response","565","705203","0.0-1.0-779.0","0","0","61306","","511","","","68","86","","","3","86","training","adjacent","CB","3","2","L.jpg","N.jpg","1","0","0","",""
"","feedback","","html-keyboard-response","566","706205","0.0-1.0-780.0-0.0","0","0","61306","","null","","","null","86","","","","","","","","","","","","","","","",""
"","time_out","","html-keyboard-response","567","708207","0.0-1.0-782.0-0.0","0","0","61306","","null","","","null","86","","","","","","","","","","","","","","","",""
"","ITI","","html-keyboard-response","568","709208","0.0-1.0-783.0","0","0","61306","","null","","","null","86","","","","","","","","","","","","","","","NaN",""
"","S1","","html-keyboard-response","569","709460","0.0-1.0-785.0","0","0","61306","","null","","","null","87","","","","","","","","","","","","","","","",""
"","ISI","","html-keyboard-response","570","711462","0.0-1.0-786.0","0","0","61306","","null","","","null","87","NaN","","","","","","","","","","","","","","",""
"","S2","","html-keyboard-response","571","711714","0.0-1.0-787.0","0","0","61306","","null","","","null","87","","NaN","","","","","","","","","","","","","",""
"","response","","html-keyboard-response","572","712290","0.0-1.0-788.0","0","0","61306","","575","","","68","87","","","3","87","training","adjacent","BA","2","1","N.jpg","M.jpg","1","0","0","",""
"","feedback","","html-keyboard-response","573","713293","0.0-1.0-789.0-0.0","0","0","61306","","null","","","null","87","","","","","","","","","","","","","","","",""
"","time_out","","html-keyboard-response","574","715294","0.0-1.0-791.0-0.0","0","0","61306","","null","","","null","87","","","","","","","","","","","","","","","",""
"","ITI","","html-keyboard-response","575","716297","0.0-1.0-792.0","0","0","61306","","null","","","null","87","","","","","","","","","","","","","","","NaN",""
"","S1","","html-keyboard-response","576","716549","0.0-1.0-794.0","0","0","61306","","null","","","null","88","","","","","","","","","","","","","","","",""
"","ISI","","html-keyboard-response","577","718551","0.0-1.0-795.0","0","0","61306","","null","","","null","88","NaN","","","","","","","","","","","","","","",""
"","S2","","html-keyboard-response","578","718803","0.0-1.0-796.0","0","0","61306","","null","","","null","88","","NaN","","","","","","","","","","","","","",""
"","response","","html-keyboard-response","579","719182","0.0-1.0-797.0","0","0","61306","","378","","","75","88","","","3","88","training","adjacent","GF","7","6","O.jpg","R.jpg","0","0","1","",""
"","feedback","","html-keyboard-response","580","720186","0.0-1.0-798.0-0.0","0","0","61306","","null","","","null","88","","","","","","","","","","","","","","","",""
"","ITI","","html-keyboard-response","581","721188","0.0-1.0-801.0","0","0","61306","","null","","","null","88","","","","","","","","","","","","","","","NaN",""
"","S1","","html-keyboard-response","582","721440","0.0-1.0-803.0","0","0","61306","","null","","","null","89","","","","","","","","","","","","","","","",""
"","ISI","","html-keyboard-response","583","723443","0.0-1.0-804.0","0","0","61306","","null","","","null","89","NaN","","","","","","","","","","","","","","",""
"","S2","","html-keyboard-response","584","723694","0.0-1.0-805.0","0","0","61306","","null","","","null","89","","NaN","","","","","","","","","","","","","",""
