"success","ttype","start_time","trial_type","trial_index","time_elapsed","internal_node_id","warning","missed_checkup","PID","view_history","rt","responses","repeat_instructions","key_press","index","keypress_isi","keypress_S2","block","trial_num","phase","group_type","pair_type","S1_stim","S2_stim","S1_img","S2_img","S1_chosen","S1_higher","accuracy","keypress_iti","total_bonus_tally"
"true","full_screen","d04132023hr2029","fullscreen","0","6338","0.0-0.0","0","0","62307","","","","","","","","","","","","","","","","","","","","","",""
"","instructions","","instructions","1","58194","0.0-1.0-0.0-0.0","0","0","62307","[{""page_index"":0,""viewing_time"":4049},{""page_index"":1,""viewing_time"":25531},{""page_index"":2,""viewing_time"":18941},{""page_index"":3,""viewing_time"":3322}]","51845","","","","","","","","","","","","","","","","","","","",""
"","comprehension_check","","survey-multi-choice","2","99793","0.0-1.0-0.0-1.0","0","0","62307","","41578","{""Q0"":""True"",""Q1"":""K"",""Q2"":""Once the second image appears and while the screen 'MAKE A CHOICE' is shown"",""Q3"":""Green mark"",""Q4"":""either D or K""}","0","","","","","","","","","","","","","","","","","",""
"","start_exp","","html-keyboard-response","3","103893","0.0-1.0-1.0","0","0","62307","","4090","","","32","","","","","","","","","","","","","","","","",""
"","S1","","html-keyboard-response","4","104151","0.0-1.0-2.0","0","0","62307","","null","","","null","0","","","","","","","","","","","","","","","",""
"","ISI","","html-keyboard-response","5","105181","0.0-1.0-3.0","0","0","62307","","null","","","null","0","NaN","","","","","","","","","","","","","","",""
"","S2","","html-keyboard-response","6","105448","0.0-1.0-4.0","0","0","62307","","null","","","null","0","","NaN","","","","","","","","","","","","","",""
"","response","","html-keyboard-response","7","107228","0.0-1.0-5.0-0.0","0","0","62307","","null","","","null","0","","","1","0","training","adjacent","FE","6","5","Q.jpg","M.jpg","NaN","0","0","",""
"","too_slow_prompt","","html-keyboard-response","8","108244","0.0-1.0-7.0-0.0","1","0","62307","","null","","","null","","","","","","","","","","","","","","","","",""
"","time_out","","html-keyboard-response","9","110259","0.0-1.0-8.0-0.0","0","0","62307","","null","","","null","0","","","","","","","","","","","","","","","",""
"","ITI","","html-keyboard-response","10","111273","0.0-1.0-9.0","0","0","62307","","null","","","null","0","","","","","","","","","","","","","","","NaN",""
"","S1","","html-keyboard-response","11","111539","0.0-1.0-11.0","0","0","62307","","null","","","null","1","","","","","","","","","","","","","","","",""
"","ISI","","html-keyboard-response","12","112553","0.0-1.0-12.0","0","0","62307","","326","","","75","1","k","","","","","","","","","","","","","","",""
"","S2","","html-keyboard-response","13","112819","0.0-1.0-13.0","0","0","62307","","null","","","null","1","","NaN","","","","","","","","","","","","","",""
"","response","","html-keyboard-response","14","113544","0.0-1.0-14.0-0.0","0","0","62307","","717","","","75","1","","","1","1","training","adjacent","CD","3","4","N.jpg","P.jpg","1","1","1","",""
"","feedback","","html-keyboard-response","15","114553","0.0-1.0-15.0-0.0","0","0","62307","","null","","","null","1","","","","","","","","","","","","","","","",""
"","ITI","","html-keyboard-response","16","115569","0.0-1.0-18.0","0","0","62307","","null","","","null","1","","","","","","","","","","","","","","","NaN",""
"","S1","","html-keyboard-response","17","115834","0.0-1.0-20.0","0","0","62307","","null","","","null","2","","","","","","","","","","","","","","","",""
"","ISI","","html-keyboard-response","18","116849","0.0-1.0-21.0","0","0","62307","","null","","","null","2","NaN","","","","","","","","","","","","","","",""
"","S2","","html-keyboard-response","19","117115","0.0-1.0-22.0","0","0","62307","","null","","","null","2","","NaN","","","","","","","","","","","","","",""
"","response","","html-keyboard-response","20","117365","0.0-1.0-23.0-0.0","0","0","62307","","244","","","75","2","","","1","2","training","adjacent","FG","6","7","Q.jpg","O.jpg","1","1","1","",""
"","feedback","","html-keyboard-response","21","118380","0.0-1.0-24.0-0.0","0","0","62307","","null","","","null","2","","","","","","","","","","","","","","","",""
"","ITI","","html-keyboard-response","22","119411","0.0-1.0-27.0","0","0","62307","","null","","","null","2","","","","","","","","","","","","","","","NaN",""
"","S1","","html-keyboard-response","23","119709","0.0-1.0-29.0","0","0","62307","","null","","","null","3","","","","","","","","","","","","","","","",""
"","ISI","","html-keyboard-response","24","120723","0.0-1.0-30.0","0","0","62307","","null","","","null","3","NaN","","","","","","","","","","","","","","",""
"","S2","","html-keyboard-response","25","120989","0.0-1.0-31.0","0","0","62307","","null","","","null","3","","NaN","","","","","","","","","","","","","",""
"","response","","html-keyboard-response","26","121190","0.0-1.0-32.0-0.0","0","0","62307","","194","","","75","3","","","1","3","training","adjacent","FG","6","7","Q.jpg","O.jpg","1","1","1","",""
"","feedback","","html-keyboard-response","27","122207","0.0-1.0-33.0-0.0","0","0","62307","","null","","","null","3","","","","","","","","","","","","","","","",""
"","ITI","","html-keyboard-response","28","123222","0.0-1.0-36.0","0","0","62307","","null","","","null","3","","","","","","","","","","","","","","","NaN",""
"","S1","","html-keyboard-response","29","123488","0.0-1.0-38.0","0","0","62307","","null","","","null","4","","","","","","","","","","","","","","","",""
"","ISI","","html-keyboard-response","30","124503","0.0-1.0-39.0","0","0","62307","","null","","","null","4","NaN","","","","","","","","","","","","","","",""
"","S2","","html-keyboard-response","31","124769","0.0-1.0-40.0","0","0","62307","","null","","","null","4","","NaN","","","","","","","","","","","","","",""
"","response","","html-keyboard-response","32","124847","0.0-1.0-41.0-0.0","0","0","62307","","71","","","75","4","","","1","4","training","adjacent","FE","6","5","Q.jpg","M.jpg","1","0","0","",""
"","feedback","","html-keyboard-response","33","125862","0.0-1.0-42.0-0.0","0","0","62307","","null","","","null","4","","","","","","","","","","","","","","","",""
"","time_out","","html-keyboard-response","34","127894","0.0-1.0-44.0-0.0","0","0","62307","","null","","","null","4","","","","","","","","","","","","","","","",""
"","ITI","","html-keyboard-response","35","128909","0.0-1.0-45.0","0","0","62307","","null","","","null","4","","","","","","","","","","","","","","","NaN",""
"","S1","","html-keyboard-response","36","129189","0.0-1.0-47.0","0","0","62307","","null","","","null","5","","","","","","","","","","","","","","","",""
"","ISI","","html-keyboard-response","37","130205","0.0-1.0-48.0","0","0","62307","","null","","","null","5","NaN","","","","","","","","","","","","","","",""
"","S2","","html-keyboard-response","38","130470","0.0-1.0-49.0","0","0","62307","","null","","","null","5","","NaN","","","","","","","","","","","","","",""
"","response","","html-keyboard-response","39","130710","0.0-1.0-50.0-0.0","0","0","62307","","233","","","75","5","","","1","5","training","adjacent","ED","5","4","M.jpg","P.jpg","1","0","0","",""
"","feedback","","html-keyboard-response","40","131719","0.0-1.0-51.0-0.0","0","0","62307","","null","","","null","5","","","","","","","","","","","","","","","",""
"","time_out","","html-keyboard-response","41","133735","0.0-1.0-53.0-0.0","0","0","62307","","null","","","null","5","","","","","","","","","","","","","","","",""
"","ITI","","html-keyboard-response","42","134750","0.0-1.0-54.0","0","0","62307","","null","","","null","5","","","","","","","","","","","","","","","NaN",""
"","S1","","html-keyboard-response","43","135015","0.0-1.0-56.0","0","0","62307","","null","","","null","6","","","","","","","","","","","","","","","",""
"","ISI","","html-keyboard-response","44","136046","0.0-1.0-57.0","0","0","62307","","null","","","null","6","NaN","","","","","","","","","","","","","","",""
"","S2","","html-keyboard-response","45","136328","0.0-1.0-58.0","0","0","62307","","null","","","null","6","","NaN","","","","","","","","","","","","","",""
"","response","","html-keyboard-response","46","136647","0.0-1.0-59.0-0.0","0","0","62307","","312","","","68","6","","","1","6","training","adjacent","FE","6","5","Q.jpg","M.jpg","0","0","1","",""
"","feedback","","html-keyboard-response","47","137655","0.0-1.0-60.0-0.0","0","0","62307","","null","","","null","6","","","","","","","","","","","","","","","",""
"","ITI","","html-keyboard-response","48","138670","0.0-1.0-63.0","0","0","62307","","null","","","null","6","","","","","","","","","","","","","","","NaN",""
"","S1","","html-keyboard-response","49","138936","0.0-1.0-65.0","0","0","62307","","null","","","null","7","","","","","","","","","","","","","","","",""
"","ISI","","html-keyboard-response","50","139951","0.0-1.0-66.0","0","0","62307","","null","","","null","7","NaN","","","","","","","","","","","","","","",""
"","S2","","html-keyboard-response","51","140216","0.0-1.0-67.0","0","0","62307","","null","","","null","7","","NaN","","","","","","","","","","","","","",""
"","response","","html-keyboard-response","52","140945","0.0-1.0-68.0-0.0","0","0","62307","","722","","","68","7","","","1","7","training","adjacent","BC","2","3","L.jpg","N.jpg","0","1","0","",""
"","feedback","","html-keyboard-response","53","141967","0.0-1.0-69.0-0.0","0","0","62307","","null","","","null","7","","","","","","","","","","","","","","","",""
"","time_out","","html-keyboard-response","54","143997","0.0-1.0-71.0-0.0","0","0","62307","","null","","","null","7","","","","","","","","","","","","","","","",""
"","ITI","","html-keyboard-response","55","145029","0.0-1.0-72.0","0","0","62307","","null","","","null","7","","","","","","","","","","","","","","","NaN",""
"","S1","","html-keyboard-response","56","145295","0.0-1.0-74.0","0","0","62307","","null","","","null","8","","","","","","","","","","","","","","","",""
"","ISI","","html-keyboard-response","57","146309","0.0-1.0-75.0","0","0","62307","","null","","","null","8","NaN","","","","","","","","","","","","","","",""
"","S2","","html-keyboard-response","58","146591","0.0-1.0-76.0","0","0","62307","","null","","","null","8","","NaN","","","","","","","","","","","","","",""
"","response","","html-keyboard-response","59","146764","0.0-1.0-77.0-0.0","0","0","62307","","166","","","75","8","","","1","8","training","adjacent","FG","6","7","Q.jpg","O.jpg","1","1","1","",""
"","feedback","","html-keyboard-response","60","147777","0.0-1.0-78.0-0.0","0","0","62307","","null","","","null","8","","","","","","","","","","","","","","","",""
"","ITI","","html-keyboard-response","61","148793","0.0-1.0-81.0","0","0","62307","","null","","","null","8","","","","","","","","","","","","","","","NaN",""
"","S1","","html-keyboard-response","62","149057","0.0-1.0-83.0","0","0","62307","","null","","","null","9","","","","","","","","","","","","","","","",""
"","ISI","","html-keyboard-response","63","150073","0.0-1.0-84.0","0","0","62307","","null","","","null","9","NaN","","","","","","","","","","","","","","",""
"","S2","","html-keyboard-response","64","150339","0.0-1.0-85.0","0","0","62307","","null","","","null","9","","NaN","","","","","","","","","","","","","",""
"","response","","html-keyboard-response","65","150429","0.0-1.0-86.0-0.0","0","0","62307","","83","","","68","9","","","1","9","training","adjacent","EF","5","6","M.jpg","Q.jpg","0","1","0","",""
"","feedback","","html-keyboard-response","66","151448","0.0-1.0-87.0-0.0","0","0","62307","","null","","","null","9","","","","","","","","","","","","","","","",""
"","time_out","","html-keyboard-response","67","153479","0.0-1.0-89.0-0.0","0","0","62307","","null","","","null","9","","","","","","","","","","","","","","","",""
"","ITI","","html-keyboard-response","68","154510","0.0-1.0-90.0","0","0","62307","","null","","","null","9","","","","","","","","","","","","","","","NaN",""
"","S1","","html-keyboard-response","69","154806","0.0-1.0-92.0","0","0","62307","","null","","","null","10","","","","","","","","","","","","","","","",""
"","ISI","","html-keyboard-response","70","155821","0.0-1.0-93.0","0","0","62307","","null","","","null","10","NaN","","","","","","","","","","","","","","",""
"","S2","","html-keyboard-response","71","156087","0.0-1.0-94.0","0","0","62307","","null","","","null","10","","NaN","","","","","","","","","","","","","",""
"","response","","html-keyboard-response","72","156436","0.0-1.0-95.0-0.0","0","0","62307","","343","","","75","10","","","1","10","training","adjacent","DC","4","3","P.jpg","N.jpg","1","0","0","",""
"","feedback","","html-keyboard-response","73","157446","0.0-1.0-96.0-0.0","0","0","62307","","null","","","null","10","","","","","","","","","","","","","","","",""
"","time_out","","html-keyboard-response","74","159462","0.0-1.0-98.0-0.0","0","0","62307","","null","","","null","10","","","","","","","","","","","","","","","",""
"","ITI","","html-keyboard-response","75","160477","0.0-1.0-99.0","0","0","62307","","null","","","null","10","","","","","","","","","","","","","","","NaN",""
"","S1","","html-keyboard-response","76","160742","0.0-1.0-101.0","0","0","62307","","null","","","null","11","","","","","","","","","","","","","","","",""
"","ISI","","html-keyboard-response","77","161756","0.0-1.0-102.0","0","0","62307","","null","","","null","11","NaN","","","","","","","","","","","","","","",""
"","S2","","html-keyboard-response","78","162039","0.0-1.0-103.0","0","0","62307","","null","","","null","11","","NaN","","","","","","","","","","","","","",""
"","response","","html-keyboard-response","79","162097","0.0-1.0-104.0-0.0","0","0","62307","","51","","","68","11","","","1","11","training","adjacent","DE","4","5","P.jpg","M.jpg","0","1","0","",""
"","feedback","","html-keyboard-response","80","163116","0.0-1.0-105.0-0.0","0","0","62307","","null","","","null","11","","","","","","","","","","","","","","","",""
"","time_out","","html-keyboard-response","81","165131","0.0-1.0-107.0-0.0","0","0","62307","","null","","","null","11","","","","","","","","","","","","","","","",""
"","ITI","","html-keyboard-response","82","166148","0.0-1.0-108.0","0","0","62307","","null","","","null","11","","","","","","","","","","","","","","","NaN",""
"","S1","","html-keyboard-response","83","166412","0.0-1.0-110.0","0","0","62307","","null","","","null","12","","","","","","","","","","","","","","","",""
"","ISI","","html-keyboard-response","84","167428","0.0-1.0-111.0","0","0","62307","","null","","","null","12","NaN","","","","","","","","","","","","","","",""
"","S2","","html-keyboard-response","85","167708","0.0-1.0-112.0","0","0","62307","","null","","","null","12","","NaN","","","","","","","","","","","","","",""
"","response","","html-keyboard-response","86","167954","0.0-1.0-113.0-0.0","0","0","62307","","239","","","75","12","","","1","12","training","adjacent","CB","3","2","N.jpg","L.jpg","1","0","0","",""
"","feedback","","html-keyboard-response","87","168973","0.0-1.0-114.0-0.0","0","0","62307","","null","","","null","12","","","","","","","","","","","","","","","",""
"","time_out","","html-keyboard-response","88","170988","0.0-1.0-116.0-0.0","0","0","62307","","null","","","null","12","","","","","","","","","","","","","","","",""
"","ITI","","html-keyboard-response","89","172003","0.0-1.0-117.0","0","0","62307","","null","","","null","12","","","","","","","","","","","","","","","NaN",""
"","S1","","html-keyboard-response","90","172269","0.0-1.0-119.0","0","0","62307","","null","","","null","13","","","","","","","","","","","","","","","",""
"","ISI","","html-keyboard-response","91","173285","0.0-1.0-120.0","0","0","62307","","null","","","null","13","NaN","","","","","","","","","","","","","","",""
"","S2","","html-keyboard-response","92","173550","0.0-1.0-121.0","0","0","62307","","null","","","null","13","","NaN","","","","","","","","","","","","","",""
"","response","","html-keyboard-response","93","174252","0.0-1.0-122.0-0.0","0","0","62307","","696","","","68","13","","","1","13","training","adjacent","CD","3","4","N.jpg","P.jpg","0","1","0","",""
"","feedback","","html-keyboard-response","94","175269","0.0-1.0-123.0-0.0","0","0","62307","","null","","","null","13","","","","","","","","","","","","","","","",""
"","time_out","","html-keyboard-response","95","177284","0.0-1.0-125.0-0.0","0","0","62307","","null","","","null","13","","","","","","","","","","","","","","","",""
"","ITI","","html-keyboard-response","96","178298","0.0-1.0-126.0","0","0","62307","","null","","","null","13","","","","","","","","","","","","","","","NaN",""
"","S1","","html-keyboard-response","97","178564","0.0-1.0-128.0","0","0","62307","","null","","","null","14","","","","","","","","","","","","","","","",""
"","ISI","","html-keyboard-response","98","179579","0.0-1.0-129.0","0","0","62307","","null","","","null","14","NaN","","","","","","","","","","","","","","",""
"","S2","","html-keyboard-response","99","179862","0.0-1.0-130.0","0","0","62307","","null","","","null","14","","NaN","","","","","","","","","","","","","",""
"","response","","html-keyboard-response","100","179896","0.0-1.0-131.0-0.0","0","0","62307","","28","","","75","14","","","1","14","training","adjacent","BC","2","3","L.jpg","N.jpg","1","1","1","",""
"","feedback","","html-keyboard-response","101","180907","0.0-1.0-132.0-0.0","0","0","62307","","null","","","null","14","","","","","","","","","","","","","","","",""
"","ITI","","html-keyboard-response","102","181922","0.0-1.0-135.0","0","0","62307","","null","","","null","14","","","","","","","","","","","","","","","NaN",""
"","S1","","html-keyboard-response","103","182188","0.0-1.0-137.0","0","0","62307","","null","","","null","15","","","","","","","","","","","","","","","",""
"","ISI","","html-keyboard-response","104","183203","0.0-1.0-138.0","0","0","62307","","null","","","null","15","NaN","","","","","","","","","","","","","","",""
"","S2","","html-keyboard-response","105","183468","0.0-1.0-139.0","0","0","62307","","null","","","null","15","","NaN","","","","","","","","","","","","","",""
"","response","","html-keyboard-response","106","184335","0.0-1.0-140.0-0.0","0","0","62307","","860","","","75","15","","","1","15","training","adjacent","BA","2","1","L.jpg","R.jpg","1","0","0","",""
"","feedback","","html-keyboard-response","107","185374","0.0-1.0-141.0-0.0","0","0","62307","","null","","","null","15","","","","","","","","","","","","","","","",""
"","time_out","","html-keyboard-response","108","187420","0.0-1.0-143.0-0.0","0","0","62307","","null","","","null","15","","","","","","","","","","","","","","","",""
"","ITI","","html-keyboard-response","109","188466","0.0-1.0-144.0","0","0","62307","","null","","","null","15","","","","","","","","","","","","","","","NaN",""
"","S1","","html-keyboard-response","110","188732","0.0-1.0-146.0","0","0","62307","","null","","","null","16","","","","","","","","","","","","","","","",""
"","ISI","","html-keyboard-response","111","189746","0.0-1.0-147.0","0","0","62307","","null","","","null","16","NaN","","","","","","","","","","","","","","",""
"","S2","","html-keyboard-response","112","190030","0.0-1.0-148.0","0","0","62307","","null","","","null","16","","NaN","","","","","","","","","","","","","",""
"","response","","html-keyboard-response","113","190125","0.0-1.0-149.0-0.0","0","0","62307","","89","","","68","16","","","1","16","training","adjacent","DC","4","3","P.jpg","N.jpg","0","0","1","",""
"","feedback","","html-keyboard-response","114","191138","0.0-1.0-150.0-0.0","0","0","62307","","null","","","null","16","","","","","","","","","","","","","","","",""
"","ITI","","html-keyboard-response","115","192153","0.0-1.0-153.0","0","0","62307","","null","","","null","16","","","","","","","","","","","","","","","NaN",""
"","S1","","html-keyboard-response","116","192419","0.0-1.0-155.0","0","0","62307","","null","","","null","17","","","","","","","","","","","","","","","",""
"","ISI","","html-keyboard-response","117","193434","0.0-1.0-156.0","0","0","62307","","null","","","null","17","NaN","","","","","","","","","","","","","","",""
"","S2","","html-keyboard-response","118","193700","0.0-1.0-157.0","0","0","62307","","null","","","null","17","","NaN","","","","","","","","","","","","","",""
"","response","","html-keyboard-response","119","193813","0.0-1.0-158.0-0.0","0","0","62307","","107","","","68","17","","","1","17","training","adjacent","FG","6","7","Q.jpg","O.jpg","0","1","0","",""
"","feedback","","html-keyboard-response","120","194824","0.0-1.0-159.0-0.0","0","0","62307","","null","","","null","17","","","","","","","","","","","","","","","",""
"","time_out","","html-keyboard-response","121","196870","0.0-1.0-161.0-0.0","0","0","62307","","null","","","null","17","","","","","","","","","","","","","","","",""
"","ITI","","html-keyboard-response","122","197917","0.0-1.0-162.0","0","0","62307","","null","","","null","17","","","","","","","","","","","","","","","NaN",""
"","S1","","html-keyboard-response","123","198183","0.0-1.0-164.0","0","0","62307","","null","","","null","18","","","","","","","","","","","","","","","",""
"","ISI","","html-keyboard-response","124","199198","0.0-1.0-165.0","0","0","62307","","null","","","null","18","NaN","","","","","","","","","","","","","","",""
"","S2","","html-keyboard-response","125","199464","0.0-1.0-166.0","0","0","62307","","259","","","75","18","","k","1","18","training","adjacent","CB","3","2","N.jpg","L.jpg","1","0","0","",""
"","feedback","","html-keyboard-response","126","200480","0.0-1.0-168.0-0.0","0","0","62307","","null","","","null","18","","","","","","","","","","","","","","","",""
"","time_out","","html-keyboard-response","127","202494","0.0-1.0-170.0-0.0","0","0","62307","","null","","","null","18","","","","","","","","","","","","","","","",""
"","ITI","","html-keyboard-response","128","203509","0.0-1.0-171.0","0","0","62307","","null","","","null","18","","","","","","","","","","","","","","","NaN",""
"","S1","","html-keyboard-response","129","203774","0.0-1.0-173.0","0","0","62307","","null","","","null","19","","","","","","","","","","","","","","","",""
"","ISI","","html-keyboard-response","130","204791","0.0-1.0-174.0","0","0","62307","","null","","","null","19","NaN","","","","","","","","","","","","","","",""
"","S2","","html-keyboard-response","131","205047","0.0-1.0-175.0","0","0","62307","","248","","","68","19","","d","1","19","training","adjacent","BC","2","3","L.jpg","N.jpg","0","1","0","",""
"","feedback","","html-keyboard-response","132","206056","0.0-1.0-177.0-0.0","0","0","62307","","null","","","null","19","","","","","","","","","","","","","","","",""
"","time_out","","html-keyboard-response","133","208071","0.0-1.0-179.0-0.0","0","0","62307","","null","","","null","19","","","","","","","","","","","","","","","",""
"","ITI","","html-keyboard-response","134","209086","0.0-1.0-180.0","0","0","62307","","null","","","null","19","","","","","","","","","","","","","","","NaN",""
"","S1","","html-keyboard-response","135","209351","0.0-1.0-182.0","0","0","62307","","null","","","null","20","","","","","","","","","","","","","","","",""
"","ISI","","html-keyboard-response","136","210398","0.0-1.0-183.0","0","0","62307","","null","","","null","20","NaN","","","","","","","","","","","","","","",""
"","S2","","html-keyboard-response","137","210664","0.0-1.0-184.0","0","0","62307","","null","","","null","20","","NaN","","","","","","","","","","","","","",""
"","response","","html-keyboard-response","138","210851","0.0-1.0-185.0-0.0","0","0","62307","","181","","","75","20","","","1","20","training","adjacent","AB","1","2","R.jpg","L.jpg","1","1","1","",""
"","feedback","","html-keyboard-response","139","211866","0.0-1.0-186.0-0.0","0","0","62307","","null","","","null","20","","","","","","","","","","","","","","","",""
"","ITI","","html-keyboard-response","140","212881","0.0-1.0-189.0","0","0","62307","","null","","","null","20","","","","","","","","","","","","","","","NaN",""
"","S1","","html-keyboard-response","141","213148","0.0-1.0-191.0","0","0","62307","","null","","","null","21","","","","","","","","","","","","","","","",""
"","ISI","","html-keyboard-response","142","214164","0.0-1.0-192.0","0","0","62307","","null","","","null","21","NaN","","","","","","","","","","","","","","",""
"","S2","","html-keyboard-response","143","214430","0.0-1.0-193.0","0","0","62307","","null","","","null","21","","NaN","","","","","","","","","","","","","",""
"","response","","html-keyboard-response","144","215116","0.0-1.0-194.0-0.0","0","0","62307","","680","","","75","21","","","1","21","training","adjacent","EF","5","6","M.jpg","Q.jpg","1","1","1","",""
"","feedback","","html-keyboard-response","145","216148","0.0-1.0-195.0-0.0","0","0","62307","","null","","","null","21","","","","","","","","","","","","","","","",""
"","ITI","","html-keyboard-response","146","217178","0.0-1.0-198.0","0","0","62307","","null","","","null","21","","","","","","","","","","","","","","","NaN",""
"","S1","","html-keyboard-response","147","217443","0.0-1.0-200.0","0","0","62307","","null","","","null","22","","","","","","","","","","","","","","","",""
"","ISI","","html-keyboard-response","148","218458","0.0-1.0-201.0","0","0","62307","","null","","","null","22","NaN","","","","","","","","","","","","","","",""
"","S2","","html-keyboard-response","149","218740","0.0-1.0-202.0","0","0","62307","","null","","","null","22","","NaN","","","","","","","","","","","","","",""
"","response","","html-keyboard-response","150","219913","0.0-1.0-203.0-0.0","0","0","62307","","1166","","","68","22","","","1","22","training","adjacent","FE","6","5","Q.jpg","M.jpg","0","0","1","",""
"","feedback","","html-keyboard-response","151","220926","0.0-1.0-204.0-0.0","0","0","62307","","null","","","null","22","","","","","","","","","","","","","","","",""
"","ITI","","html-keyboard-response","152","221942","0.0-1.0-207.0","0","0","62307","","null","","","null","22","","","","","","","","","","","","","","","NaN",""
"","S1","","html-keyboard-response","153","222207","0.0-1.0-209.0","0","0","62307","","null","","","null","23","","","","","","","","","","","","","","","",""
"","ISI","","html-keyboard-response","154","223224","0.0-1.0-210.0","0","0","62307","","null","","","null","23","NaN","","","","","","","","","","","","","","",""
"","S2","","html-keyboard-response","155","223489","0.0-1.0-211.0","0","0","62307","","null","","","null","23","","NaN","","","","","","","","","","","","","",""
"","response","","html-keyboard-response","156","224100","0.0-1.0-212.0-0.0","0","0","62307","","604","","","68","23","","","1","23","training","adjacent","CD","3","4","N.jpg","P.jpg","0","1","0","",""
"","feedback","","html-keyboard-response","157","225129","0.0-1.0-213.0-0.0","0","0","62307","","null","","","null","23","","","","","","","","","","","","","","","",""
"","time_out","","html-keyboard-response","158","227158","0.0-1.0-215.0-0.0","0","0","62307","","null","","","null","23","","","","","","","","","","","","","","","",""
"","ITI","","html-keyboard-response","159","228190","0.0-1.0-216.0","0","0","62307","","null","","","null","23","","","","","","","","","","","","","","","NaN",""
"","S1","","html-keyboard-response","160","228487","0.0-1.0-218.0","0","0","62307","","null","","","null","24","","","","","","","","","","","","","","","",""
"","ISI","","html-keyboard-response","161","229502","0.0-1.0-219.0","0","0","62307","","null","","","null","24","NaN","","","","","","","","","","","","","","",""
"","S2","","html-keyboard-response","162","229767","0.0-1.0-220.0","0","0","62307","","null","","","null","24","","NaN","","","","","","","","","","","","","",""
"","response","","html-keyboard-response","163","230199","0.0-1.0-221.0-0.0","0","0","62307","","426","","","75","24","","","1","24","training","adjacent","ED","5","4","M.jpg","P.jpg","1","0","0","",""
"","feedback","","html-keyboard-response","164","231221","0.0-1.0-222.0-0.0","0","0","62307","","null","","","null","24","","","","","","","","","","","","","","","",""
"","time_out","","html-keyboard-response","165","233235","0.0-1.0-224.0-0.0","0","0","62307","","null","","","null","24","","","","","","","","","","","","","","","",""
"","ITI","","html-keyboard-response","166","234250","0.0-1.0-225.0","0","0","62307","","null","","","null","24","","","","","","","","","","","","","","","NaN",""
"","S1","","html-keyboard-response","167","234516","0.0-1.0-227.0","0","0","62307","","null","","","null","25","","","","","","","","","","","","","","","",""
"","ISI","","html-keyboard-response","168","235532","0.0-1.0-228.0","0","0","62307","","null","","","null","25","NaN","","","","","","","","","","","","","","",""
"","S2","","html-keyboard-response","169","235798","0.0-1.0-229.0","0","0","62307","","null","","","null","25","","NaN","","","","","","","","","","","","","",""
"","response","","html-keyboard-response","170","237578","0.0-1.0-230.0-0.0","0","0","62307","","null","","","null","25","","","1","25","training","adjacent","BC","2","3","L.jpg","N.jpg","NaN","1","0","",""
"","too_slow_prompt","","html-keyboard-response","171","238593","0.0-1.0-232.0-0.0","1","0","62307","","null","","","null","","","","","","","","","","","","","","","","",""
"","time_out","","html-keyboard-response","172","240639","0.0-1.0-233.0-0.0","0","0","62307","","null","","","null","25","","","","","","","","","","","","","","","",""
"","ITI","","html-keyboard-response","173","241654","0.0-1.0-234.0","0","0","62307","","null","","","null","25","","","","","","","","","","","","","","","NaN",""
"","S1","","html-keyboard-response","174","241920","0.0-1.0-236.0","0","0","62307","","null","","","null","26","","","","","","","","","","","","","","","",""
"","ISI","","html-keyboard-response","175","242951","0.0-1.0-237.0","0","0","62307","","null","","","null","26","NaN","","","","","","","","","","","","","","",""
"","S2","","html-keyboard-response","176","243249","0.0-1.0-238.0","0","0","62307","","null","","","null","26","","NaN","","","","","","","","","","","","","",""
"","response","","html-keyboard-response","177","244124","0.0-1.0-239.0-0.0","0","0","62307","","869","","","68","26","","","1","26","training","adjacent","ED","5","4","M.jpg","P.jpg","0","0","1","",""
"","feedback","","html-keyboard-response","178","245138","0.0-1.0-240.0-0.0","0","0","62307","","null","","","null","26","","","","","","","","","","","","","","","",""
"","ITI","","html-keyboard-response","179","246152","0.0-1.0-243.0","0","0","62307","","null","","","null","26","","","","","","","","","","","","","","","NaN",""
"","S1","","html-keyboard-response","180","246418","0.0-1.0-245.0","0","0","62307","","null","","","null","27","","","","","","","","","","","","","","","",""
"","ISI","","html-keyboard-response","181","247433","0.0-1.0-246.0","0","0","62307","","null","","","null","27","NaN","","","","","","","","","","","","","","",""
"","S2","","html-keyboard-response","182","247700","0.0-1.0-247.0","0","0","62307","","null","","","null","27","","NaN","","","","","","","","","","","","","",""
"","response","","html-keyboard-response","183","247807","0.0-1.0-248.0-0.0","0","0","62307","","102","","","75","27","","","1","27","training","adjacent","AB","1","2","R.jpg","L.jpg","1","1","1","",""
"","feedback","","html-keyboard-response","184","248823","0.0-1.0-249.0-0.0","0","0","62307","","null","","","null","27","","","","","","","","","","","","","","","",""
"","ITI","","html-keyboard-response","185","249840","0.0-1.0-252.0","0","0","62307","","null","","","null","27","","","","","","","","","","","","","","","NaN",""
"","S1","","html-keyboard-response","186","250120","0.0-1.0-254.0","0","0","62307","","null","","","null","28","","","","","","","","","","","","","","","",""
"","ISI","","html-keyboard-response","187","251167","0.0-1.0-255.0","0","0","62307","","null","","","null","28","NaN","","","","","","","","","","","","","","",""
"","S2","","html-keyboard-response","188","251432","0.0-1.0-256.0","0","0","62307","","null","","","null","28","","NaN","","","","","","","","","","","","","",""
"","response","","html-keyboard-response","189","252070","0.0-1.0-257.0-0.0","0","0","62307","","632","","","68","28","","","1","28","training","adjacent","EF","5","6","M.jpg","Q.jpg","0","1","0","",""
"","feedback","","html-keyboard-response","190","253088","0.0-1.0-258.0-0.0","0","0","62307","","null","","","null","28","","","","","","","","","","","","","","","",""
"","time_out","","html-keyboard-response","191","255103","0.0-1.0-260.0-0.0","0","0","62307","","null","","","null","28","","","","","","","","","","","","","","","",""
"","ITI","","html-keyboard-response","192","256118","0.0-1.0-261.0","0","0","62307","","null","","","null","28","","","","","","","","","","","","","","","NaN",""
"","S1","","html-keyboard-response","193","256383","0.0-1.0-263.0","0","0","62307","","null","","","null","29","","","","","","","","","","","","","","","",""
"","ISI","","html-keyboard-response","194","257399","0.0-1.0-264.0","0","0","62307","","null","","","null","29","NaN","","","","","","","","","","","","","","",""
"","S2","","html-keyboard-response","195","257681","0.0-1.0-265.0","0","0","62307","","null","","","null","29","","NaN","","","","","","","","","","","","","",""
"","response","","html-keyboard-response","196","257856","0.0-1.0-266.0-0.0","0","0","62307","","168","","","75","29","","","1","29","training","adjacent","BA","2","1","L.jpg","R.jpg","1","0","0","",""
"","feedback","","html-keyboard-response","197","258867","0.0-1.0-267.0-0.0","0","0","62307","","null","","","null","29","","","","","","","","","","","","","","","",""
"","time_out","","html-keyboard-response","198","260882","0.0-1.0-269.0-0.0","0","0","62307","","null","","","null","29","","","","","","","","","","","","","","","",""
"","ITI","","html-keyboard-response","199","261901","0.0-1.0-270.0","0","0","62307","","null","","","null","29","","","","","","","","","","","","","","","NaN",""
"","S1","","html-keyboard-response","200","262164","0.0-1.0-272.0","0","0","62307","","null","","","null","30","","","","","","","","","","","","","","","",""
"","ISI","","html-keyboard-response","201","263194","0.0-1.0-273.0","0","0","62307","","null","","","null","30","NaN","","","","","","","","","","","","","","",""
"","S2","","html-keyboard-response","202","263459","0.0-1.0-274.0","0","0","62307","","null","","","null","30","","NaN","","","","","","","","","","","","","",""
"","response","","html-keyboard-response","203","263991","0.0-1.0-275.0-0.0","0","0","62307","","525","","","75","30","","","1","30","training","adjacent","BA","2","1","L.jpg","R.jpg","1","0","0","",""
"","feedback","","html-keyboard-response","204","265006","0.0-1.0-276.0-0.0","0","0","62307","","null","","","null","30","","","","","","","","","","","","","","","",""
"","time_out","","html-keyboard-response","205","267021","0.0-1.0-278.0-0.0","0","0","62307","","null","","","null","30","","","","","","","","","","","","","","","",""
"","ITI","","html-keyboard-response","206","268037","0.0-1.0-279.0","0","0","62307","","null","","","null","30","","","","","","","","","","","","","","","NaN",""
"","S1","","html-keyboard-response","207","268301","0.0-1.0-281.0","0","0","62307","","null","","","null","31","","","","","","","","","","","","","","","",""
"","ISI","","html-keyboard-response","208","269350","0.0-1.0-282.0","0","0","62307","","null","","","null","31","NaN","","","","","","","","","","","","","","",""
"","S2","","html-keyboard-response","209","269647","0.0-1.0-283.0","0","0","62307","","null","","","null","31","","NaN","","","","","","","","","","","","","",""
"","response","","html-keyboard-response","210","270525","0.0-1.0-284.0-0.0","0","0","62307","","872","","","68","31","","","1","31","training","adjacent","GF","7","6","O.jpg","Q.jpg","0","0","1","",""
"","feedback","","html-keyboard-response","211","271535","0.0-1.0-285.0-0.0","0","0","62307","","null","","","null","31","","","","","","","","","","","","","","","",""
"","ITI","","html-keyboard-response","212","272551","0.0-1.0-288.0","0","0","62307","","null","","","null","31","","","","","","","","","","","","","","","NaN",""
"","S1","","html-keyboard-response","213","272816","0.0-1.0-290.0","0","0","62307","","null","","","null","32","","","","","","","","","","","","","","","",""
"","ISI","","html-keyboard-response","214","273833","0.0-1.0-291.0","0","0","62307","","null","","","null","32","NaN","","","","","","","","","","","","","","",""
"","S2","","html-keyboard-response","215","274098","0.0-1.0-292.0","0","0","62307","","null","","","null","32","","NaN","","","","","","","","","","","","","",""
"","response","","html-keyboard-response","216","274824","0.0-1.0-293.0-0.0","0","0","62307","","720","","","68","32","","","1","32","training","adjacent","AB","1","2","R.jpg","L.jpg","0","1","0","",""
"","feedback","","html-keyboard-response","217","275847","0.0-1.0-294.0-0.0","0","0","62307","","null","","","null","32","","","","","","","","","","","","","","","",""
"","time_out","","html-keyboard-response","218","277861","0.0-1.0-296.0-0.0","0","0","62307","","null","","","null","32","","","","","","","","","","","","","","","",""
"","ITI","","html-keyboard-response","219","278876","0.0-1.0-297.0","0","0","62307","","null","","","null","32","","","","","","","","","","","","","","","NaN",""
"","S1","","html-keyboard-response","220","279158","0.0-1.0-299.0","0","0","62307","","null","","","null","33","","","","","","","","","","","","","","","",""
"","ISI","","html-keyboard-response","221","280173","0.0-1.0-300.0","0","0","62307","","null","","","null","33","NaN","","","","","","","","","","","","","","",""
"","S2","","html-keyboard-response","222","280439","0.0-1.0-301.0","0","0","62307","","null","","","null","33","","NaN","","","","","","","","","","","","","",""
"","response","","html-keyboard-response","223","280519","0.0-1.0-302.0-0.0","0","0","62307","","73","","","75","33","","","1","33","training","adjacent","GF","7","6","O.jpg","Q.jpg","1","0","0","",""
"","feedback","","html-keyboard-response","224","281534","0.0-1.0-303.0-0.0","0","0","62307","","null","","","null","33","","","","","","","","","","","","","","","",""
"","time_out","","html-keyboard-response","225","283548","0.0-1.0-305.0-0.0","0","0","62307","","null","","","null","33","","","","","","","","","","","","","","","",""
"","ITI","","html-keyboard-response","226","284562","0.0-1.0-306.0","0","0","62307","","null","","","null","33","","","","","","","","","","","","","","","NaN",""
"","S1","","html-keyboard-response","227","284828","0.0-1.0-308.0","0","0","62307","","null","","","null","34","","","","","","","","","","","","","","","",""
"","ISI","","html-keyboard-response","228","285844","0.0-1.0-309.0","0","0","62307","","null","","","null","34","NaN","","","","","","","","","","","","","","",""
"","S2","","html-keyboard-response","229","286108","0.0-1.0-310.0","0","0","62307","","null","","","null","34","","NaN","","","","","","","","","","","","","",""
"","response","","html-keyboard-response","230","286771","0.0-1.0-311.0-0.0","0","0","62307","","656","","","75","34","","","1","34","training","adjacent","DE","4","5","P.jpg","M.jpg","1","1","1","",""
"","feedback","","html-keyboard-response","231","287781","0.0-1.0-312.0-0.0","0","0","62307","","null","","","null","34","","","","","","","","","","","","","","","",""
"","ITI","","html-keyboard-response","232","288795","0.0-1.0-315.0","0","0","62307","","null","","","null","34","","","","","","","","","","","","","","","NaN",""
"","S1","","html-keyboard-response","233","289060","0.0-1.0-317.0","0","0","62307","","null","","","null","35","","","","","","","","","","","","","","","",""
"","ISI","","html-keyboard-response","234","290076","0.0-1.0-318.0","0","0","62307","","null","","","null","35","NaN","","","","","","","","","","","","","","",""
"","S2","","html-keyboard-response","235","290342","0.0-1.0-319.0","0","0","62307","","null","","","null","35","","NaN","","","","","","","","","","","","","",""
"","response","","html-keyboard-response","236","291779","0.0-1.0-320.0-0.0","0","0","62307","","1430","","","68","35","","","1","35","training","adjacent","DC","4","3","P.jpg","N.jpg","0","0","1","",""
"","feedback","","html-keyboard-response","237","292794","0.0-1.0-321.0-0.0","0","0","62307","","null","","","null","35","","","","","","","","","","","","","","","",""
"","ITI","","html-keyboard-response","238","293809","0.0-1.0-324.0","0","0","62307","","null","","","null","35","","","","","","","","","","","","","","","NaN",""
"","S1","","html-keyboard-response","239","294075","0.0-1.0-326.0","0","0","62307","","null","","","null","36","","","","","","","","","","","","","","","",""
"","ISI","","html-keyboard-response","240","295090","0.0-1.0-327.0","0","0","62307","","null","","","null","36","NaN","","","","","","","","","","","","","","",""
"","S2","","html-keyboard-response","241","295355","0.0-1.0-328.0","0","0","62307","","null","","","null","36","","NaN","","","","","","","","","","","","","",""
"","response","","html-keyboard-response","242","295414","0.0-1.0-329.0-0.0","0","0","62307","","51","","","75","36","","","1","36","training","adjacent","CB","3","2","N.jpg","L.jpg","1","0","0","",""
"","feedback","","html-keyboard-response","243","296435","0.0-1.0-330.0-0.0","0","0","62307","","null","","","null","36","","","","","","","","","","","","","","","",""
"","time_out","","html-keyboard-response","244","298481","0.0-1.0-332.0-0.0","0","0","62307","","null","","","null","36","","","","","","","","","","","","","","","",""
"","ITI","","html-keyboard-response","245","299526","0.0-1.0-333.0","0","0","62307","","null","","","null","36","","","","","","","","","","","","","","","NaN",""
"","S1","","html-keyboard-response","246","299792","0.0-1.0-335.0","0","0","62307","","null","","","null","37","","","","","","","","","","","","","","","",""
"","ISI","","html-keyboard-response","247","300807","0.0-1.0-336.0","0","0","62307","","null","","","null","37","NaN","","","","","","","","","","","","","","",""
"","S2","","html-keyboard-response","248","301089","0.0-1.0-337.0","0","0","62307","","null","","","null","37","","NaN","","","","","","","","","","","","","",""
"","response","","html-keyboard-response","249","301320","0.0-1.0-338.0-0.0","0","0","62307","","225","","","75","37","","","1","37","training","adjacent","GF","7","6","O.jpg","Q.jpg","1","0","0","",""
"","feedback","","html-keyboard-response","250","302338","0.0-1.0-339.0-0.0","0","0","62307","","null","","","null","37","","","","","","","","","","","","","","","",""
"","time_out","","html-keyboard-response","251","304353","0.0-1.0-341.0-0.0","0","0","62307","","null","","","null","37","","","","","","","","","","","","","","","",""
"","ITI","","html-keyboard-response","252","305368","0.0-1.0-342.0","0","0","62307","","null","","","null","37","","","","","","","","","","","","","","","NaN",""
"","S1","","html-keyboard-response","253","305634","0.0-1.0-344.0","0","0","62307","","null","","","null","38","","","","","","","","","","","","","","","",""
"","ISI","","html-keyboard-response","254","306666","0.0-1.0-345.0","0","0","62307","","null","","","null","38","NaN","","","","","","","","","","","","","","",""
"","S2","","html-keyboard-response","255","306923","0.0-1.0-346.0","0","0","62307","","250","","","68","38","","d","1","38","training","adjacent","CB","3","2","N.jpg","L.jpg","0","0","1","",""
"","feedback","","html-keyboard-response","256","307945","0.0-1.0-348.0-0.0","0","0","62307","","null","","","null","38","","","","","","","","","","","","","","","",""
"","ITI","","html-keyboard-response","257","308960","0.0-1.0-351.0","0","0","62307","","null","","","null","38","","","","","","","","","","","","","","","NaN",""
"","S1","","html-keyboard-response","258","309226","0.0-1.0-353.0","0","0","62307","","null","","","null","39","","","","","","","","","","","","","","","",""
"","ISI","","html-keyboard-response","259","310242","0.0-1.0-354.0","0","0","62307","","null","","","null","39","NaN","","","","","","","","","","","","","","",""
"","S2","","html-keyboard-response","260","310507","0.0-1.0-355.0","0","0","62307","","null","","","null","39","","NaN","","","","","","","","","","","","","",""
"","response","","html-keyboard-response","261","310801","0.0-1.0-356.0-0.0","0","0","62307","","285","","","68","39","","","1","39","training","adjacent","AB","1","2","R.jpg","L.jpg","0","1","0","",""
"","feedback","","html-keyboard-response","262","311819","0.0-1.0-357.0-0.0","0","0","62307","","null","","","null","39","","","","","","","","","","","","","","","",""
"","time_out","","html-keyboard-response","263","313834","0.0-1.0-359.0-0.0","0","0","62307","","null","","","null","39","","","","","","","","","","","","","","","",""
"","ITI","","html-keyboard-response","264","314850","0.0-1.0-360.0","0","0","62307","","null","","","null","39","","","","","","","","","","","","","","","NaN",""
"","S1","","html-keyboard-response","265","315132","0.0-1.0-362.0","0","0","62307","","null","","","null","40","","","","","","","","","","","","","","","",""
"","ISI","","html-keyboard-response","266","316177","0.0-1.0-363.0","0","0","62307","","null","","","null","40","NaN","","","","","","","","","","","","","","",""
"","S2","","html-keyboard-response","267","316445","0.0-1.0-364.0","0","0","62307","","null","","","null","40","","NaN","","","","","","","","","","","","","",""
"","response","","html-keyboard-response","268","316451","0.0-1.0-365.0-0.0","0","0","62307","","0","","","75","40","","","1","40","training","adjacent","ED","5","4","M.jpg","P.jpg","1","0","0","",""
"","feedback","","html-keyboard-response","269","317474","0.0-1.0-366.0-0.0","0","0","62307","","null","","","null","40","","","","","","","","","","","","","","","",""
"","time_out","","html-keyboard-response","270","319489","0.0-1.0-368.0-0.0","0","0","62307","","null","","","null","40","","","","","","","","","","","","","","","",""
"","ITI","","html-keyboard-response","271","320504","0.0-1.0-369.0","0","0","62307","","null","","","null","40","","","","","","","","","","","","","","","NaN",""
"","S1","","html-keyboard-response","272","320769","0.0-1.0-371.0","0","0","62307","","null","","","null","41","","","","","","","","","","","","","","","",""
"","ISI","","html-keyboard-response","273","321785","0.0-1.0-372.0","0","0","62307","","392","","","68","41","d","","","","","","","","","","","","","","",""
"","S2","","html-keyboard-response","274","322051","0.0-1.0-373.0","0","0","62307","","null","","","null","41","","NaN","","","","","","","","","","","","","",""
"","response","","html-keyboard-response","275","323575","0.0-1.0-374.0-0.0","0","0","62307","","1518","","","75","41","","","1","41","training","adjacent","DE","4","5","P.jpg","M.jpg","1","1","1","",""
"","feedback","","html-keyboard-response","276","324597","0.0-1.0-375.0-0.0","0","0","62307","","null","","","null","41","","","","","","","","","","","","","","","",""
"","ITI","","html-keyboard-response","277","325612","0.0-1.0-378.0","0","0","62307","","null","","","null","41","","","","","","","","","","","","","","","NaN",""
"","S1","","html-keyboard-response","278","325877","0.0-1.0-380.0","0","0","62307","","null","","","null","42","","","","","","","","","","","","","","","",""
"","ISI","","html-keyboard-response","279","326893","0.0-1.0-381.0","0","0","62307","","null","","","null","42","NaN","","","","","","","","","","","","","","",""
"","S2","","html-keyboard-response","280","327158","0.0-1.0-382.0","0","0","62307","","null","","","null","42","","NaN","","","","","","","","","","","","","",""
"","response","","html-keyboard-response","281","328923","0.0-1.0-383.0-0.0","0","0","62307","","null","","","null","42","","","1","42","training","adjacent","GF","7","6","O.jpg","Q.jpg","NaN","0","0","",""
"","too_slow_prompt","","html-keyboard-response","282","329938","0.0-1.0-385.0-0.0","1","0","62307","","null","","","null","","","","","","","","","","","","","","","","",""
"","time_out","","html-keyboard-response","283","331953","0.0-1.0-386.0-0.0","0","0","62307","","null","","","null","42","","","","","","","","","","","","","","","",""
"","ITI","","html-keyboard-response","284","332969","0.0-1.0-387.0","0","0","62307","","null","","","null","42","","","","","","","","","","","","","","","NaN",""
"","S1","","html-keyboard-response","285","333251","0.0-1.0-389.0","0","0","62307","","null","","","null","43","","","","","","","","","","","","","","","",""
"","ISI","","html-keyboard-response","286","334297","0.0-1.0-390.0","0","0","62307","","null","","","null","43","NaN","","","","","","","","","","","","","","",""
"","S2","","html-keyboard-response","287","334562","0.0-1.0-391.0","0","0","62307","","null","","","null","43","","NaN","","","","","","","","","","","","","",""
"","response","","html-keyboard-response","288","335432","0.0-1.0-392.0-0.0","0","0","62307","","863","","","68","43","","","1","43","training","adjacent","DE","4","5","P.jpg","M.jpg","0","1","0","",""
"","feedback","","html-keyboard-response","289","336452","0.0-1.0-393.0-0.0","0","0","62307","","null","","","null","43","","","","","","","","","","","","","","","",""
"","time_out","","html-keyboard-response","290","338476","0.0-1.0-395.0-0.0","0","0","62307","","null","","","null","43","","","","","","","","","","","","","","","",""
"","ITI","","html-keyboard-response","291","339489","0.0-1.0-396.0","0","0","62307","","null","","","null","43","","","","","","","","","","","","","","","NaN",""
"","S1","","html-keyboard-response","292","339745","0.0-1.0-398.0","0","0","62307","","null","","","null","44","","","","","","","","","","","","","","","",""
"","ISI","","html-keyboard-response","293","340770","0.0-1.0-399.0","0","0","62307","","null","","","null","44","NaN","","","","","","","","","","","","","","",""
"","S2","","html-keyboard-response","294","341050","0.0-1.0-400.0","0","0","62307","","null","","","null","44","","NaN","","","","","","","","","","","","","",""
"","response","","html-keyboard-response","295","342839","0.0-1.0-401.0-0.0","0","0","62307","","null","","","null","44","","","1","44","training","adjacent","BA","2","1","L.jpg","R.jpg","NaN","0","0","",""
"","too_slow_prompt","","html-keyboard-response","296","343847","0.0-1.0-403.0-0.0","1","0","62307","","null","","","null","","","","","","","","","","","","","","","","",""
"","time_out","","html-keyboard-response","297","345859","0.0-1.0-404.0-0.0","0","0","62307","","null","","","null","44","","","","","","","","","","","","","","","",""
"","ITI","","html-keyboard-response","298","346872","0.0-1.0-405.0","0","0","62307","","null","","","null","44","","","","","","","","","","","","","","","NaN",""
"","S1","","html-keyboard-response","299","347141","0.0-1.0-407.0","0","0","62307","","null","","","null","45","","","","","","","","","","","","","","","",""
"","ISI","","html-keyboard-response","300","348187","0.0-1.0-408.0","0","0","62307","","null","","","null","45","NaN","","","","","","","","","","","","","","",""
"","S2","","html-keyboard-response","301","348437","0.0-1.0-409.0","0","0","62307","","241","","","75","45","","k","1","45","training","adjacent","CD","3","4","N.jpg","P.jpg","1","1","1","",""
"","feedback","","html-keyboard-response","302","349452","0.0-1.0-411.0-0.0","0","0","62307","","null","","","null","45","","","","","","","","","","","","","","","",""
"","ITI","","html-keyboard-response","303","350468","0.0-1.0-414.0","0","0","62307","","null","","","null","45","","","","","","","","","","","","","","","NaN",""
"","S1","","html-keyboard-response","304","350734","0.0-1.0-416.0","0","0","62307","","null","","","null","46","","","","","","","","","","","","","","","",""
"","ISI","","html-keyboard-response","305","351749","0.0-1.0-417.0","0","0","62307","","null","","","null","46","NaN","","","","","","","","","","","","","","",""
"","S2","","html-keyboard-response","306","352013","0.0-1.0-418.0","0","0","62307","","null","","","null","46","","NaN","","","","","","","","","","","","","",""
"","response","","html-keyboard-response","307","352593","0.0-1.0-419.0-0.0","0","0","62307","","572","","","68","46","","","1","46","training","adjacent","EF","5","6","M.jpg","Q.jpg","0","1","0","",""
"","feedback","","html-keyboard-response","308","353607","0.0-1.0-420.0-0.0","0","0","62307","","null","","","null","46","","","","","","","","","","","","","","","",""
"","time_out","","html-keyboard-response","309","355621","0.0-1.0-422.0-0.0","0","0","62307","","null","","","null","46","","","","","","","","","","","","","","","",""
"","ITI","","html-keyboard-response","310","356637","0.0-1.0-423.0","0","0","62307","","null","","","null","46","","","","","","","","","","","","","","","NaN",""
"","S1","","html-keyboard-response","311","356918","0.0-1.0-425.0","0","0","62307","","null","","","null","47","","","","","","","","","","","","","","","",""
"","ISI","","html-keyboard-response","312","357934","0.0-1.0-426.0","0","0","62307","","null","","","null","47","NaN","","","","","","","","","","","","","","",""
"","S2","","html-keyboard-response","313","358199","0.0-1.0-427.0","0","0","62307","","null","","","null","47","","NaN","","","","","","","","","","","","","",""
"","response","","html-keyboard-response","314","358423","0.0-1.0-428.0-0.0","0","0","62307","","218","","","75","47","","","1","47","training","adjacent","DC","4","3","P.jpg","N.jpg","1","0","0","",""
"","feedback","","html-keyboard-response","315","359434","0.0-1.0-429.0-0.0","0","0","62307","","null","","","null","47","","","","","","","","","","","","","","","",""
"","time_out","","html-keyboard-response","316","361448","0.0-1.0-431.0-0.0","0","0","62307","","null","","","null","47","","","","","","","","","","","","","","","",""
"","ITI","","html-keyboard-response","317","362463","0.0-1.0-432.0","0","0","62307","","null","","","null","47","","","","","","","","","","","","","","","NaN",""
"","block_over","","html-keyboard-response","318","368016","0.0-1.0-433.0-0.0","0","0","62307","","5542","","","32","47","","","","","","","","","","","","","","","",""
"","S1","","html-keyboard-response","319","368290","0.0-1.0-434.0","0","0","62307","","null","","","null","48","","","","","","","","","","","","","","","",""
"","ISI","","html-keyboard-response","320","369304","0.0-1.0-435.0","0","0","62307","","null","","","null","48","NaN","","","","","","","","","","","","","","",""
"","S2","","html-keyboard-response","321","369570","0.0-1.0-436.0","0","0","62307","","null","","","null","48","","NaN","","","","","","","","","","","","","",""
"","response","","html-keyboard-response","322","369840","0.0-1.0-437.0-0.0","0","0","62307","","263","","","75","48","","","2","48","training","adjacent","GF","7","6","O.jpg","Q.jpg","1","0","0","",""
"","feedback","","html-keyboard-response","323","370852","0.0-1.0-438.0-0.0","0","0","62307","","null","","","null","48","","","","","","","","","","","","","","","",""
"","time_out","","html-keyboard-response","324","372866","0.0-1.0-440.0-0.0","0","0","62307","","null","","","null","48","","","","","","","","","","","","","","","",""
"","ITI","","html-keyboard-response","325","373897","0.0-1.0-441.0","0","0","62307","","null","","","null","48","","","","","","","","","","","","","","","NaN",""
"","S1","","html-keyboard-response","326","374162","0.0-1.0-443.0","0","0","62307","","null","","","null","49","","","","","","","","","","","","","","","",""
"","ISI","","html-keyboard-response","327","375177","0.0-1.0-444.0","0","0","62307","","null","","","null","49","NaN","","","","","","","","","","","","","","",""
"","S2","","html-keyboard-response","328","375458","0.0-1.0-445.0","0","0","62307","","null","","","null","49","","NaN","","","","","","","","","","","","","",""
"","response","","html-keyboard-response","329","375738","0.0-1.0-446.0-0.0","0","0","62307","","274","","","68","49","","","2","49","training","adjacent","FE","6","5","Q.jpg","M.jpg","0","0","1","",""
"","feedback","","html-keyboard-response","330","376756","0.0-1.0-447.0-0.0","0","0","62307","","null","","","null","49","","","","","","","","","","","","","","","",""
"","ITI","","html-keyboard-response","331","377770","0.0-1.0-450.0","0","0","62307","","null","","","null","49","","","","","","","","","","","","","","","NaN",""
"","S1","","html-keyboard-response","332","378037","0.0-1.0-452.0","0","0","62307","","null","","","null","50","","","","","","","","","","","","","","","",""
"","ISI","","html-keyboard-response","333","379052","0.0-1.0-453.0","0","0","62307","","null","","","null","50","NaN","","","","","","","","","","","","","","",""
"","S2","","html-keyboard-response","334","379318","0.0-1.0-454.0","0","0","62307","","null","","","null","50","","NaN","","","","","","","","","","","","","",""
"","response","","html-keyboard-response","335","379908","0.0-1.0-455.0-0.0","0","0","62307","","583","","","75","50","","","2","50","training","adjacent","BA","2","1","L.jpg","R.jpg","1","0","0","",""
"","feedback","","html-keyboard-response","336","380942","0.0-1.0-456.0-0.0","0","0","62307","","null","","","null","50","","","","","","","","","","","","","","","",""
"","time_out","","html-keyboard-response","337","382988","0.0-1.0-458.0-0.0","0","0","62307","","null","","","null","50","","","","","","","","","","","","","","","",""
"","ITI","","html-keyboard-response","338","384003","0.0-1.0-459.0","0","0","62307","","null","","","null","50","","","","","","","","","","","","","","","NaN",""
"","S1","","html-keyboard-response","339","384269","0.0-1.0-461.0","0","0","62307","","null","","","null","51","","","","","","","","","","","","","","","",""
"","ISI","","html-keyboard-response","340","385300","0.0-1.0-462.0","0","0","62307","","null","","","null","51","NaN","","","","","","","","","","","","","","",""
"","S2","","html-keyboard-response","341","385599","0.0-1.0-463.0","0","0","62307","","null","","","null","51","","NaN","","","","","","","","","","","","","",""
"","response","","html-keyboard-response","342","385943","0.0-1.0-464.0-0.0","0","0","62307","","337","","","68","51","","","2","51","training","adjacent","DC","4","3","P.jpg","N.jpg","0","0","1","",""
"","feedback","","html-keyboard-response","343","386955","0.0-1.0-465.0-0.0","0","0","62307","","null","","","null","51","","","","","","","","","","","","","","","",""
"","ITI","","html-keyboard-response","344","387971","0.0-1.0-468.0","0","0","62307","","null","","","null","51","","","","","","","","","","","","","","","NaN",""
"","S1","","html-keyboard-response","345","388237","0.0-1.0-470.0","0","0","62307","","null","","","null","52","","","","","","","","","","","","","","","",""
"","ISI","","html-keyboard-response","346","389252","0.0-1.0-471.0","0","0","62307","","null","","","null","52","NaN","","","","","","","","","","","","","","",""
"","S2","","html-keyboard-response","347","389518","0.0-1.0-472.0","0","0","62307","","null","","","null","52","","NaN","","","","","","","","","","","","","",""
"","response","","html-keyboard-response","348","389937","0.0-1.0-473.0-0.0","0","0","62307","","411","","","75","52","","","2","52","training","adjacent","FG","6","7","Q.jpg","O.jpg","1","1","1","",""
"","feedback","","html-keyboard-response","349","390954","0.0-1.0-474.0-0.0","0","0","62307","","null","","","null","52","","","","","","","","","","","","","","","",""
"","ITI","","html-keyboard-response","350","391986","0.0-1.0-477.0","0","0","62307","","null","","","null","52","","","","","","","","","","","","","","","NaN",""
"","S1","","html-keyboard-response","351","392251","0.0-1.0-479.0","0","0","62307","","null","","","null","53","","","","","","","","","","","","","","","",""
"","ISI","","html-keyboard-response","352","393265","0.0-1.0-480.0","0","0","62307","","null","","","null","53","NaN","","","","","","","","","","","","","","",""
"","S2","","html-keyboard-response","353","393547","0.0-1.0-481.0","0","0","62307","","null","","","null","53","","NaN","","","","","","","","","","","","","",""
"","response","","html-keyboard-response","354","394020","0.0-1.0-482.0-0.0","0","0","62307","","467","","","68","53","","","2","53","training","adjacent","DC","4","3","P.jpg","N.jpg","0","0","1","",""
"","feedback","","html-keyboard-response","355","395030","0.0-1.0-483.0-0.0","0","0","62307","","null","","","null","53","","","","","","","","","","","","","","","",""
"","ITI","","html-keyboard-response","356","396046","0.0-1.0-486.0","0","0","62307","","null","","","null","53","","","","","","","","","","","","","","","NaN",""
"","S1","","html-keyboard-response","357","396311","0.0-1.0-488.0","0","0","62307","","null","","","null","54","","","","","","","","","","","","","","","",""
"","ISI","","html-keyboard-response","358","397327","0.0-1.0-489.0","0","0","62307","","null","","","null","54","NaN","","","","","","","","","","","","","","",""
"","S2","","html-keyboard-response","359","397594","0.0-1.0-490.0","0","0","62307","","null","","","null","54","","NaN","","","","","","","","","","","","","",""
"","response","","html-keyboard-response","360","397930","0.0-1.0-491.0-0.0","0","0","62307","","329","","","68","54","","","2","54","training","adjacent","BC","2","3","L.jpg","N.jpg","0","1","0","",""
"","feedback","","html-keyboard-response","361","398952","0.0-1.0-492.0-0.0","0","0","62307","","null","","","null","54","","","","","","","","","","","","","","","",""
"","time_out","","html-keyboard-response","362","400982","0.0-1.0-494.0-0.0","0","0","62307","","null","","","null","54","","","","","","","","","","","","","","","",""
"","ITI","","html-keyboard-response","363","401998","0.0-1.0-495.0","0","0","62307","","null","","","null","54","","","","","","","","","","","","","","","NaN",""
"","S1","","html-keyboard-response","364","402279","0.0-1.0-497.0","0","0","62307","","null","","","null","55","","","","","","","","","","","","","","","",""
"","ISI","","html-keyboard-response","365","403294","0.0-1.0-498.0","0","0","62307","","635","","","75","55","k","","","","","","","","","","","","","","",""
"","S2","","html-keyboard-response","366","403559","0.0-1.0-499.0","0","0","62307","","null","","","null","55","","NaN","","","","","","","","","","","","","",""
"","response","","html-keyboard-response","367","404536","0.0-1.0-500.0-0.0","0","0","62307","","972","","","75","55","","","2","55","training","adjacent","BA","2","1","L.jpg","R.jpg","1","0","0","",""
"","feedback","","html-keyboard-response","368","405558","0.0-1.0-501.0-0.0","0","0","62307","","null","","","null","55","","","","","","","","","","","","","","","",""
"","time_out","","html-keyboard-response","369","407573","0.0-1.0-503.0-0.0","0","0","62307","","null","","","null","55","","","","","","","","","","","","","","","",""
"","ITI","","html-keyboard-response","370","408604","0.0-1.0-504.0","0","0","62307","","null","","","null","55","","","","","","","","","","","","","","","NaN",""
"","S1","","html-keyboard-response","371","408870","0.0-1.0-506.0","0","0","62307","","null","","","null","56","","","","","","","","","","","","","","","",""
"","ISI","","html-keyboard-response","372","409902","0.0-1.0-507.0","0","0","62307","","null","","","null","56","NaN","","","","","","","","","","","","","","",""
"","S2","","html-keyboard-response","373","410198","0.0-1.0-508.0","0","0","62307","","null","","","null","56","","NaN","","","","","","","","","","","","","",""
"","response","","html-keyboard-response","374","410229","0.0-1.0-509.0-0.0","0","0","62307","","25","","","68","56","","","2","56","training","adjacent","ED","5","4","M.jpg","P.jpg","0","0","1","",""
"","feedback","","html-keyboard-response","375","411245","0.0-1.0-510.0-0.0","0","0","62307","","null","","","null","56","","","","","","","","","","","","","","","",""
"","ITI","","html-keyboard-response","376","412260","0.0-1.0-513.0","0","0","62307","","null","","","null","56","","","","","","","","","","","","","","","NaN",""
"","S1","","html-keyboard-response","377","412525","0.0-1.0-515.0","0","0","62307","","null","","","null","57","","","","","","","","","","","","","","","",""
"","ISI","","html-keyboard-response","378","413542","0.0-1.0-516.0","0","0","62307","","null","","","null","57","NaN","","","","","","","","","","","","","","",""
"","S2","","html-keyboard-response","379","413806","0.0-1.0-517.0","0","0","62307","","null","","","null","57","","NaN","","","","","","","","","","","","","",""
"","response","","html-keyboard-response","380","414671","0.0-1.0-518.0-0.0","0","0","62307","","858","","","75","57","","","2","57","training","adjacent","ED","5","4","M.jpg","P.jpg","1","0","0","",""
"","feedback","","html-keyboard-response","381","415713","0.0-1.0-519.0-0.0","0","0","62307","","null","","","null","57","","","","","","","","","","","","","","","",""
"","time_out","","html-keyboard-response","382","417758","0.0-1.0-521.0-0.0","0","0","62307","","null","","","null","57","","","","","","","","","","","","","","","",""
"","ITI","","html-keyboard-response","383","418773","0.0-1.0-522.0","0","0","62307","","null","","","null","57","","","","","","","","","","","","","","","NaN",""
"","S1","","html-keyboard-response","384","419040","0.0-1.0-524.0","0","0","62307","","null","","","null","58","","","","","","","","","","","","","","","",""
"","ISI","","html-keyboard-response","385","420071","0.0-1.0-525.0","0","0","62307","","null","","","null","58","NaN","","","","","","","","","","","","","","",""
"","S2","","html-keyboard-response","386","420367","0.0-1.0-526.0","0","0","62307","","null","","","null","58","","NaN","","","","","","","","","","","","","",""
"","response","","html-keyboard-response","387","421137","0.0-1.0-527.0-0.0","0","0","62307","","762","","","68","58","","","2","58","training","adjacent","ED","5","4","M.jpg","P.jpg","0","0","1","",""
"","feedback","","html-keyboard-response","388","422148","0.0-1.0-528.0-0.0","0","0","62307","","null","","","null","58","","","","","","","","","","","","","","","",""
"","ITI","","html-keyboard-response","389","423163","0.0-1.0-531.0","0","0","62307","","null","","","null","58","","","","","","","","","","","","","","","NaN",""
"","S1","","html-keyboard-response","390","423428","0.0-1.0-533.0","0","0","62307","","null","","","null","59","","","","","","","","","","","","","","","",""
"","ISI","","html-keyboard-response","391","424443","0.0-1.0-534.0","0","0","62307","","null","","","null","59","NaN","","","","","","","","","","","","","","",""
"","S2","","html-keyboard-response","392","424709","0.0-1.0-535.0","0","0","62307","","null","","","null","59","","NaN","","","","","","","","","","","","","",""
"","response","","html-keyboard-response","393","425861","0.0-1.0-536.0-0.0","0","0","62307","","1145","","","75","59","","","2","59","training","adjacent","EF","5","6","M.jpg","Q.jpg","1","1","1","",""
"","feedback","","html-keyboard-response","394","426880","0.0-1.0-537.0-0.0","0","0","62307","","null","","","null","59","","","","","","","","","","","","","","","",""
"","ITI","","html-keyboard-response","395","427896","0.0-1.0-540.0","0","0","62307","","null","","","null","59","","","","","","","","","","","","","","","NaN",""
"","S1","","html-keyboard-response","396","428161","0.0-1.0-542.0","0","0","62307","","null","","","null","60","","","","","","","","","","","","","","","",""
"","ISI","","html-keyboard-response","397","429176","0.0-1.0-543.0","0","0","62307","","null","","","null","60","NaN","","","","","","","","","","","","","","",""
"","S2","","html-keyboard-response","398","429442","0.0-1.0-544.0","0","0","62307","","null","","","null","60","","NaN","","","","","","","","","","","","","",""
"","response","","html-keyboard-response","399","429506","0.0-1.0-545.0-0.0","0","0","62307","","58","","","75","60","","","2","60","training","adjacent","AB","1","2","R.jpg","L.jpg","1","1","1","",""
"","feedback","","html-keyboard-response","400","430521","0.0-1.0-546.0-0.0","0","0","62307","","null","","","null","60","","","","","","","","","","","","","","","",""
"","ITI","","html-keyboard-response","401","431551","0.0-1.0-549.0","0","0","62307","","null","","","null","60","","","","","","","","","","","","","","","NaN",""
"","S1","","html-keyboard-response","402","431816","0.0-1.0-551.0","0","0","62307","","null","","","null","61","","","","","","","","","","","","","","","",""
"","ISI","","html-keyboard-response","403","432847","0.0-1.0-552.0","0","0","62307","","null","","","null","61","NaN","","","","","","","","","","","","","","",""
"","S2","","html-keyboard-response","404","433113","0.0-1.0-553.0","0","0","62307","","null","","","null","61","","NaN","","","","","","","","","","","","","",""
"","response","","html-keyboard-response","405","433548","0.0-1.0-554.0-0.0","0","0","62307","","430","","","75","61","","","2","61","training","adjacent","GF","7","6","O.jpg","Q.jpg","1","0","0","",""
"","feedback","","html-keyboard-response","406","434565","0.0-1.0-555.0-0.0","0","0","62307","","null","","","null","61","","","","","","","","","","","","","","","",""
"","time_out","","html-keyboard-response","407","436580","0.0-1.0-557.0-0.0","0","0","62307","","null","","","null","61","","","","","","","","","","","","","","","",""
"","ITI","","html-keyboard-response","408","437597","0.0-1.0-558.0","0","0","62307","","null","","","null","61","","","","","","","","","","","","","","","NaN",""
"","S1","","html-keyboard-response","409","437861","0.0-1.0-560.0","0","0","62307","","null","","","null","62","","","","","","","","","","","","","","","",""
"","ISI","","html-keyboard-response","410","438907","0.0-1.0-561.0","0","0","62307","","null","","","null","62","NaN","","","","","","","","","","","","","","",""
"","S2","","html-keyboard-response","411","439177","0.0-1.0-562.0","0","0","62307","","null","","","null","62","","NaN","","","","","","","","","","","","","",""
"","response","","html-keyboard-response","412","439899","0.0-1.0-563.0-0.0","0","0","62307","","714","","","68","62","","","2","62","training","adjacent","FE","6","5","Q.jpg","M.jpg","0","0","1","",""
"","feedback","","html-keyboard-response","413","440923","0.0-1.0-564.0-0.0","0","0","62307","","null","","","null","62","","","","","","","","","","","","","","","",""
"","ITI","","html-keyboard-response","414","441937","0.0-1.0-567.0","0","0","62307","","null","","","null","62","","","","","","","","","","","","","","","NaN",""
"","S1","","html-keyboard-response","415","442204","0.0-1.0-569.0","0","0","62307","","null","","","null","63","","","","","","","","","","","","","","","",""
"","ISI","","html-keyboard-response","416","443220","0.0-1.0-570.0","0","0","62307","","null","","","null","63","NaN","","","","","","","","","","","","","","",""
"","S2","","html-keyboard-response","417","443485","0.0-1.0-571.0","0","0","62307","","null","","","null","63","","NaN","","","","","","","","","","","","","",""
"","response","","html-keyboard-response","418","444278","0.0-1.0-572.0-0.0","0","0","62307","","786","","","68","63","","","2","63","training","adjacent","FG","6","7","Q.jpg","O.jpg","0","1","0","",""
"","feedback","","html-keyboard-response","419","445297","0.0-1.0-573.0-0.0","0","0","62307","","null","","","null","63","","","","","","","","","","","","","","","",""
"","time_out","","html-keyboard-response","420","447326","0.0-1.0-575.0-0.0","0","0","62307","","null","","","null","63","","","","","","","","","","","","","","","",""
"","ITI","","html-keyboard-response","421","448357","0.0-1.0-576.0","0","0","62307","","null","","","null","63","","","","","","","","","","","","","","","NaN",""
"","S1","","html-keyboard-response","422","448623","0.0-1.0-578.0","0","0","62307","","null","","","null","64","","","","","","","","","","","","","","","",""
"","ISI","","html-keyboard-response","423","449640","0.0-1.0-579.0","0","0","62307","","null","","","null","64","NaN","","","","","","","","","","","","","","",""
"","S2","","html-keyboard-response","424","449921","0.0-1.0-580.0","0","0","62307","","null","","","null","64","","NaN","","","","","","","","","","","","","",""
"","response","","html-keyboard-response","425","451428","0.0-1.0-581.0-0.0","0","0","62307","","1501","","","75","64","","","2","64","training","adjacent","CB","3","2","N.jpg","L.jpg","1","0","0","",""
"","feedback","","html-keyboard-response","426","452450","0.0-1.0-582.0-0.0","0","0","62307","","null","","","null","64","","","","","","","","","","","","","","","",""
"","time_out","","html-keyboard-response","427","454465","0.0-1.0-584.0-0.0","0","0","62307","","null","","","null","64","","","","","","","","","","","","","","","",""
"","ITI","","html-keyboard-response","428","455481","0.0-1.0-585.0","0","0","62307","","null","","","null","64","","","","","","","","","","","","","","","NaN",""
"","S1","","html-keyboard-response","429","455747","0.0-1.0-587.0","0","0","62307","","null","","","null","65","","","","","","","","","","","","","","","",""
"","ISI","","html-keyboard-response","430","456777","0.0-1.0-588.0","0","0","62307","","null","","","null","65","NaN","","","","","","","","","","","","","","",""
"","S2","","html-keyboard-response","431","457058","0.0-1.0-589.0","0","0","62307","","null","","","null","65","","NaN","","","","","","","","","","","","","",""
"","response","","html-keyboard-response","432","457443","0.0-1.0-590.0-0.0","0","0","62307","","379","","","68","65","","","2","65","training","adjacent","CD","3","4","N.jpg","P.jpg","0","1","0","",""
"","feedback","","html-keyboard-response","433","458464","0.0-1.0-591.0-0.0","0","0","62307","","null","","","null","65","","","","","","","","","","","","","","","",""
"","time_out","","html-keyboard-response","434","460479","0.0-1.0-593.0-0.0","0","0","62307","","null","","","null","65","","","","","","","","","","","","","","","",""
"","ITI","","html-keyboard-response","435","461494","0.0-1.0-594.0","0","0","62307","","null","","","null","65","","","","","","","","","","","","","","","NaN",""
"","S1","","html-keyboard-response","436","461761","0.0-1.0-596.0","0","0","62307","","null","","","null","66","","","","","","","","","","","","","","","",""
"","ISI","","html-keyboard-response","437","462791","0.0-1.0-597.0","0","0","62307","","null","","","null","66","NaN","","","","","","","","","","","","","","",""
"","S2","","html-keyboard-response","438","463089","0.0-1.0-598.0","0","0","62307","","null","","","null","66","","NaN","","","","","","","","","","","","","",""
"","response","","html-keyboard-response","439","464783","0.0-1.0-599.0-0.0","0","0","62307","","1687","","","75","66","","","2","66","training","adjacent","BC","2","3","L.jpg","N.jpg","1","1","1","",""
"","feedback","","html-keyboard-response","440","465805","0.0-1.0-600.0-0.0","0","0","62307","","null","","","null","66","","","","","","","","","","","","","","","",""
"","ITI","","html-keyboard-response","441","466821","0.0-1.0-603.0","0","0","62307","","94","","","9","66","","","","","","","","","","","","","","","tab",""
"","S1","","html-keyboard-response","442","467087","0.0-1.0-605.0","0","0","62307","","null","","","null","67","","","","","","","","","","","","","","","",""
"","ISI","","html-keyboard-response","443","468101","0.0-1.0-606.0","0","0","62307","","null","","","null","67","NaN","","","","","","","","","","","","","","",""
"","S2","","html-keyboard-response","444","468367","0.0-1.0-607.0","0","0","62307","","null","","","null","67","","NaN","","","","","","","","","","","","","",""
"","response","","html-keyboard-response","445","469062","0.0-1.0-608.0-0.0","0","0","62307","","688","","","68","67","","","2","67","training","adjacent","DE","4","5","P.jpg","M.jpg","0","1","0","",""
"","feedback","","html-keyboard-response","446","470101","0.0-1.0-609.0-0.0","0","0","62307","","null","","","null","67","","","","","","","","","","","","","","","",""
"","time_out","","html-keyboard-response","447","472147","0.0-1.0-611.0-0.0","0","0","62307","","null","","","null","67","","","","","","","","","","","","","","","",""
"","ITI","","html-keyboard-response","448","473162","0.0-1.0-612.0","0","0","62307","","null","","","null","67","","","","","","","","","","","","","","","NaN",""
"","S1","","html-keyboard-response","449","473432","0.0-1.0-614.0","0","0","62307","","null","","","null","68","","","","","","","","","","","","","","","",""
"","ISI","","html-keyboard-response","450","474458","0.0-1.0-615.0","0","0","62307","","null","","","null","68","NaN","","","","","","","","","","","","","","",""
"","S2","","html-keyboard-response","451","474724","0.0-1.0-616.0","0","0","62307","","null","","","null","68","","NaN","","","","","","","","","","","","","",""
"","response","","html-keyboard-response","452","475449","0.0-1.0-617.0-0.0","0","0","62307","","715","","","68","68","","","2","68","training","adjacent","EF","5","6","M.jpg","Q.jpg","0","1","0","",""
"","feedback","","html-keyboard-response","453","476474","0.0-1.0-618.0-0.0","0","0","62307","","null","","","null","68","","","","","","","","","","","","","","","",""
"","time_out","","html-keyboard-response","454","478490","0.0-1.0-620.0-0.0","0","0","62307","","null","","","null","68","","","","","","","","","","","","","","","",""
"","ITI","","html-keyboard-response","455","479505","0.0-1.0-621.0","0","0","62307","","null","","","null","68","","","","","","","","","","","","","","","NaN",""
"","S1","","html-keyboard-response","456","479770","0.0-1.0-623.0","0","0","62307","","null","","","null","69","","","","","","","","","","","","","","","",""
"","ISI","","html-keyboard-response","457","480785","0.0-1.0-624.0","0","0","62307","","796","","","75","69","k","","","","","","","","","","","","","","",""
"","S2","","html-keyboard-response","458","481050","0.0-1.0-625.0","0","0","62307","","null","","","null","69","","NaN","","","","","","","","","","","","","",""
"","response","","html-keyboard-response","459","481537","0.0-1.0-626.0-0.0","0","0","62307","","479","","","75","69","","","2","69","training","adjacent","FE","6","5","Q.jpg","M.jpg","1","0","0","",""
"","feedback","","html-keyboard-response","460","482550","0.0-1.0-627.0-0.0","0","0","62307","","null","","","null","69","","","","","","","","","","","","","","","",""
"","time_out","","html-keyboard-response","461","484564","0.0-1.0-629.0-0.0","0","0","62307","","null","","","null","69","","","","","","","","","","","","","","","",""
"","ITI","","html-keyboard-response","462","485580","0.0-1.0-630.0","0","0","62307","","null","","","null","69","","","","","","","","","","","","","","","NaN",""
"","S1","","html-keyboard-response","463","485861","0.0-1.0-632.0","0","0","62307","","null","","","null","70","","","","","","","","","","","","","","","",""
"","ISI","","html-keyboard-response","464","486908","0.0-1.0-633.0","0","0","62307","","null","","","null","70","NaN","","","","","","","","","","","","","","",""
"","S2","","html-keyboard-response","465","487174","0.0-1.0-634.0","0","0","62307","","null","","","null","70","","NaN","","","","","","","","","","","","","",""
"","response","","html-keyboard-response","466","487318","0.0-1.0-635.0-0.0","0","0","62307","","138","","","75","70","","","2","70","training","adjacent","GF","7","6","O.jpg","Q.jpg","1","0","0","",""
"","feedback","","html-keyboard-response","467","488329","0.0-1.0-636.0-0.0","0","0","62307","","null","","","null","70","","","","","","","","","","","","","","","",""
"","time_out","","html-keyboard-response","468","490345","0.0-1.0-638.0-0.0","0","0","62307","","null","","","null","70","","","","","","","","","","","","","","","",""
"","ITI","","html-keyboard-response","469","491359","0.0-1.0-639.0","0","0","62307","","null","","","null","70","","","","","","","","","","","","","","","NaN",""
"","S1","","html-keyboard-response","470","491625","0.0-1.0-641.0","0","0","62307","","null","","","null","71","","","","","","","","","","","","","","","",""
"","ISI","","html-keyboard-response","471","492673","0.0-1.0-642.0","0","0","62307","","null","","","null","71","NaN","","","","","","","","","","","","","","",""
"","S2","","html-keyboard-response","472","492969","0.0-1.0-643.0","0","0","62307","","null","","","null","71","","NaN","","","","","","","","","","","","","",""
"","response","","html-keyboard-response","473","494019","0.0-1.0-644.0-0.0","0","0","62307","","1043","","","68","71","","","2","71","training","adjacent","DC","4","3","P.jpg","N.jpg","0","0","1","",""
"","feedback","","html-keyboard-response","474","495030","0.0-1.0-645.0-0.0","0","0","62307","","null","","","null","71","","","","","","","","","","","","","","","",""
"","ITI","","html-keyboard-response","475","496047","0.0-1.0-648.0","0","0","62307","","null","","","null","71","","","","","","","","","","","","","","","NaN",""
"","S1","","html-keyboard-response","476","496311","0.0-1.0-650.0","0","0","62307","","null","","","null","72","","","","","","","","","","","","","","","",""
"","ISI","","html-keyboard-response","477","497327","0.0-1.0-651.0","0","0","62307","","null","","","null","72","NaN","","","","","","","","","","","","","","",""
"","S2","","html-keyboard-response","478","497594","0.0-1.0-652.0","0","0","62307","","null","","","null","72","","NaN","","","","","","","","","","","","","",""
"","response","","html-keyboard-response","479","497743","0.0-1.0-653.0-0.0","0","0","62307","","142","","","75","72","","","2","72","training","adjacent","AB","1","2","R.jpg","L.jpg","1","1","1","",""
"","feedback","","html-keyboard-response","480","498764","0.0-1.0-654.0-0.0","0","0","62307","","null","","","null","72","","","","","","","","","","","","","","","",""
"","ITI","","html-keyboard-response","481","499810","0.0-1.0-657.0","0","0","62307","","null","","","null","72","","","","","","","","","","","","","","","NaN",""
"","S1","","html-keyboard-response","482","500108","0.0-1.0-659.0","0","0","62307","","null","","","null","73","","","","","","","","","","","","","","","",""
"","ISI","","html-keyboard-response","483","501123","0.0-1.0-660.0","0","0","62307","","null","","","null","73","NaN","","","","","","","","","","","","","","",""
"","S2","","html-keyboard-response","484","501389","0.0-1.0-661.0","0","0","62307","","null","","","null","73","","NaN","","","","","","","","","","","","","",""
"","response","","html-keyboard-response","485","501633","0.0-1.0-662.0-0.0","0","0","62307","","237","","","68","73","","","2","73","training","adjacent","CB","3","2","N.jpg","L.jpg","0","0","1","",""
"","feedback","","html-keyboard-response","486","502654","0.0-1.0-663.0-0.0","0","0","62307","","null","","","null","73","","","","","","","","","","","","","","","",""
"","ITI","","html-keyboard-response","487","503668","0.0-1.0-666.0","0","0","62307","","null","","","null","73","","","","","","","","","","","","","","","NaN",""
"","S1","","html-keyboard-response","488","503934","0.0-1.0-668.0","0","0","62307","","null","","","null","74","","","","","","","","","","","","","","","",""
"","ISI","","html-keyboard-response","489","504949","0.0-1.0-669.0","0","0","62307","","null","","","null","74","NaN","","","","","","","","","","","","","","",""
"","S2","","html-keyboard-response","490","505215","0.0-1.0-670.0","0","0","62307","","null","","","null","74","","NaN","","","","","","","","","","","","","",""
"","response","","html-keyboard-response","491","505723","0.0-1.0-671.0-0.0","0","0","62307","","499","","","75","74","","","2","74","training","adjacent","DC","4","3","P.jpg","N.jpg","1","0","0","",""
"","feedback","","html-keyboard-response","492","506761","0.0-1.0-672.0-0.0","0","0","62307","","null","","","null","74","","","","","","","","","","","","","","","",""
"","time_out","","html-keyboard-response","493","508807","0.0-1.0-674.0-0.0","0","0","62307","","null","","","null","74","","","","","","","","","","","","","","","",""
"","ITI","","html-keyboard-response","494","509825","0.0-1.0-675.0","0","0","62307","","null","","","null","74","","","","","","","","","","","","","","","NaN",""
"","S1","","html-keyboard-response","495","510091","0.0-1.0-677.0","0","0","62307","","null","","","null","75","","","","","","","","","","","","","","","",""
"","ISI","","html-keyboard-response","496","511120","0.0-1.0-678.0","0","0","62307","","null","","","null","75","NaN","","","","","","","","","","","","","","",""
"","S2","","html-keyboard-response","497","511417","0.0-1.0-679.0","0","0","62307","","null","","","null","75","","NaN","","","","","","","","","","","","","",""
"","response","","html-keyboard-response","498","512399","0.0-1.0-680.0-0.0","0","0","62307","","975","","","75","75","","","2","75","training","adjacent","AB","1","2","R.jpg","L.jpg","1","1","1","",""
"","feedback","","html-keyboard-response","499","513416","0.0-1.0-681.0-0.0","0","0","62307","","null","","","null","75","","","","","","","","","","","","","","","",""
"","ITI","","html-keyboard-response","500","514431","0.0-1.0-684.0","0","0","62307","","null","","","null","75","","","","","","","","","","","","","","","NaN",""
"","S1","","html-keyboard-response","501","514697","0.0-1.0-686.0","0","0","62307","","null","","","null","76","","","","","","","","","","","","","","","",""
"","ISI","","html-keyboard-response","502","515712","0.0-1.0-687.0","0","0","62307","","null","","","null","76","NaN","","","","","","","","","","","","","","",""
"","S2","","html-keyboard-response","503","515978","0.0-1.0-688.0","0","0","62307","","null","","","null","76","","NaN","","","","","","","","","","","","","",""
"","response","","html-keyboard-response","504","516249","0.0-1.0-689.0-0.0","0","0","62307","","264","","","68","76","","","2","76","training","adjacent","BA","2","1","L.jpg","R.jpg","0","0","1","",""
"","feedback","","html-keyboard-response","505","517258","0.0-1.0-690.0-0.0","0","0","62307","","null","","","null","76","","","","","","","","","","","","","","","",""
"","ITI","","html-keyboard-response","506","518291","0.0-1.0-693.0","0","0","62307","","null","","","null","76","","","","","","","","","","","","","","","NaN",""
"","S1","","html-keyboard-response","507","518588","0.0-1.0-695.0","0","0","62307","","null","","","null","77","","","","","","","","","","","","","","","",""
"","ISI","","html-keyboard-response","508","519601","0.0-1.0-696.0","0","0","62307","","null","","","null","77","NaN","","","","","","","","","","","","","","",""
"","S2","","html-keyboard-response","509","519867","0.0-1.0-697.0","0","0","62307","","null","","","null","77","","NaN","","","","","","","","","","","","","",""
"","response","","html-keyboard-response","510","520198","0.0-1.0-698.0-0.0","0","0","62307","","324","","","68","77","","","2","77","training","adjacent","CB","3","2","N.jpg","L.jpg","0","0","1","",""
"","feedback","","html-keyboard-response","511","521210","0.0-1.0-699.0-0.0","0","0","62307","","null","","","null","77","","","","","","","","","","","","","","","",""
"","ITI","","html-keyboard-response","512","522225","0.0-1.0-702.0","0","0","62307","","null","","","null","77","","","","","","","","","","","","","","","NaN",""
"","S1","","html-keyboard-response","513","522492","0.0-1.0-704.0","0","0","62307","","null","","","null","78","","","","","","","","","","","","","","","",""
"","ISI","","html-keyboard-response","514","523507","0.0-1.0-705.0","0","0","62307","","null","","","null","78","NaN","","","","","","","","","","","","","","",""
"","S2","","html-keyboard-response","515","523773","0.0-1.0-706.0","0","0","62307","","null","","","null","78","","NaN","","","","","","","","","","","","","",""
"","response","","html-keyboard-response","516","524806","0.0-1.0-707.0-0.0","0","0","62307","","1026","","","75","78","","","2","78","training","adjacent","AB","1","2","R.jpg","L.jpg","1","1","1","",""
"","feedback","","html-keyboard-response","517","525851","0.0-1.0-708.0-0.0","0","0","62307","","null","","","null","78","","","","","","","","","","","","","","","",""
"","ITI","","html-keyboard-response","518","526897","0.0-1.0-711.0","0","0","62307","","null","","","null","78","","","","","","","","","","","","","","","NaN",""
"","S1","","html-keyboard-response","519","527161","0.0-1.0-713.0","0","0","62307","","null","","","null","79","","","","","","","","","","","","","","","",""
"","ISI","","html-keyboard-response","520","528176","0.0-1.0-714.0","0","0","62307","","null","","","null","79","NaN","","","","","","","","","","","","","","",""
"","S2","","html-keyboard-response","521","528458","0.0-1.0-715.0","0","0","62307","","null","","","null","79","","NaN","","","","","","","","","","","","","",""
"","response","","html-keyboard-response","522","529856","0.0-1.0-716.0-0.0","0","0","62307","","1390","","","75","79","","","2","79","training","adjacent","BC","2","3","L.jpg","N.jpg","1","1","1","",""
"","feedback","","html-keyboard-response","523","530879","0.0-1.0-717.0-0.0","0","0","62307","","null","","","null","79","","","","","","","","","","","","","","","",""
"","ITI","","html-keyboard-response","524","531895","0.0-1.0-720.0","0","0","62307","","null","","","null","79","","","","","","","","","","","","","","","NaN",""
"","S1","","html-keyboard-response","525","532160","0.0-1.0-722.0","0","0","62307","","null","","","null","80","","","","","","","","","","","","","","","",""
"","ISI","","html-keyboard-response","526","533175","0.0-1.0-723.0","0","0","62307","","null","","","null","80","NaN","","","","","","","","","","","","","","",""
"","S2","","html-keyboard-response","527","533442","0.0-1.0-724.0","0","0","62307","","null","","","null","80","","NaN","","","","","","","","","","","","","",""
"","response","","html-keyboard-response","528","533488","0.0-1.0-725.0-0.0","0","0","62307","","40","","","68","80","","","2","80","training","adjacent","FE","6","5","Q.jpg","M.jpg","0","0","1","",""
"","feedback","","html-keyboard-response","529","534503","0.0-1.0-726.0-0.0","0","0","62307","","null","","","null","80","","","","","","","","","","","","","","","",""
"","ITI","","html-keyboard-response","530","535534","0.0-1.0-729.0","0","0","62307","","null","","","null","80","","","","","","","","","","","","","","","NaN",""
"","S1","","html-keyboard-response","531","535800","0.0-1.0-731.0","0","0","62307","","null","","","null","81","","","","","","","","","","","","","","","",""
"","ISI","","html-keyboard-response","532","536830","0.0-1.0-732.0","0","0","62307","","null","","","null","81","NaN","","","","","","","","","","","","","","",""
"","S2","","html-keyboard-response","533","537127","0.0-1.0-733.0","0","0","62307","","null","","","null","81","","NaN","","","","","","","","","","","","","",""
"","response","","html-keyboard-response","534","537194","0.0-1.0-734.0-0.0","0","0","62307","","61","","","75","81","","","2","81","training","adjacent","BA","2","1","L.jpg","R.jpg","1","0","0","",""
"","feedback","","html-keyboard-response","535","538206","0.0-1.0-735.0-0.0","0","0","62307","","null","","","null","81","","","","","","","","","","","","","","","",""
"","time_out","","html-keyboard-response","536","540220","0.0-1.0-737.0-0.0","0","0","62307","","null","","","null","81","","","","","","","","","","","","","","","",""
"","ITI","","html-keyboard-response","537","541236","0.0-1.0-738.0","0","0","62307","","null","","","null","81","","","","","","","","","","","","","","","NaN",""
"","S1","","html-keyboard-response","538","541501","0.0-1.0-740.0","0","0","62307","","null","","","null","82","","","","","","","","","","","","","","","",""
"","ISI","","html-keyboard-response","539","542531","0.0-1.0-741.0","0","0","62307","","null","","","null","82","NaN","","","","","","","","","","","","","","",""
"","S2","","html-keyboard-response","540","542829","0.0-1.0-742.0","0","0","62307","","null","","","null","82","","NaN","","","","","","","","","","","","","",""
"","response","","html-keyboard-response","541","543914","0.0-1.0-743.0-0.0","0","0","62307","","1079","","","75","82","","","2","82","training","adjacent","CD","3","4","N.jpg","P.jpg","1","1","1","",""
"","feedback","","html-keyboard-response","542","544939","0.0-1.0-744.0-0.0","0","0","62307","","null","","","null","82","","","","","","","","","","","","","","","",""
"","ITI","","html-keyboard-response","543","545957","0.0-1.0-747.0","0","0","62307","","null","","","null","82","","","","","","","","","","","","","","","NaN",""
"","S1","","html-keyboard-response","544","546218","0.0-1.0-749.0","0","0","62307","","null","","","null","83","","","","","","","","","","","","","","","",""
"","ISI","","html-keyboard-response","545","547231","0.0-1.0-750.0","0","0","62307","","null","","","null","83","NaN","","","","","","","","","","","","","","",""
"","S2","","html-keyboard-response","546","547497","0.0-1.0-751.0","0","0","62307","","null","","","null","83","","NaN","","","","","","","","","","","","","",""
"","response","","html-keyboard-response","547","547578","0.0-1.0-752.0-0.0","0","0","62307","","77","","","68","83","","","2","83","training","adjacent","BC","2","3","L.jpg","N.jpg","0","1","0","",""
"","feedback","","html-keyboard-response","548","548590","0.0-1.0-753.0-0.0","0","0","62307","","null","","","null","83","","","","","","","","","","","","","","","",""
"","time_out","","html-keyboard-response","549","550624","0.0-1.0-755.0-0.0","0","0","62307","","null","","","null","83","","","","","","","","","","","","","","","",""
"","ITI","","html-keyboard-response","550","551640","0.0-1.0-756.0","0","0","62307","","null","","","null","83","","","","","","","","","","","","","","","NaN",""
"","S1","","html-keyboard-response","551","551919","0.0-1.0-758.0","0","0","62307","","null","","","null","84","","","","","","","","","","","","","","","",""
"","ISI","","html-keyboard-response","552","552935","0.0-1.0-759.0","0","0","62307","","null","","","null","84","NaN","","","","","","","","","","","","","","",""
"","S2","","html-keyboard-response","553","553201","0.0-1.0-760.0","0","0","62307","","null","","","null","84","","NaN","","","","","","","","","","","","","",""
"","response","","html-keyboard-response","554","553451","0.0-1.0-761.0-0.0","0","0","62307","","243","","","75","84","","","2","84","training","adjacent","ED","5","4","M.jpg","P.jpg","1","0","0","",""
"","feedback","","html-keyboard-response","555","554466","0.0-1.0-762.0-0.0","0","0","62307","","null","","","null","84","","","","","","","","","","","","","","","",""
"","time_out","","html-keyboard-response","556","556481","0.0-1.0-764.0-0.0","0","0","62307","","null","","","null","84","","","","","","","","","","","","","","","",""
"","ITI","","html-keyboard-response","557","557496","0.0-1.0-765.0","0","0","62307","","null","","","null","84","","","","","","","","","","","","","","","NaN",""
"","S1","","html-keyboard-response","558","557761","0.0-1.0-767.0","0","0","62307","","null","","","null","85","","","","","","","","","","","","","","","",""
"","ISI","","html-keyboard-response","559","558792","0.0-1.0-768.0","0","0","62307","","null","","","null","85","NaN","","","","","","","","","","","","","","",""
"","S2","","html-keyboard-response","560","559091","0.0-1.0-769.0","0","0","62307","","null","","","null","85","","NaN","","","","","","","","","","","","","",""
"","response","","html-keyboard-response","561","559697","0.0-1.0-770.0-0.0","0","0","62307","","599","","","75","85","","","2","85","training","adjacent","CB","3","2","N.jpg","L.jpg","1","0","0","",""
"","feedback","","html-keyboard-response","562","560713","0.0-1.0-771.0-0.0","0","0","62307","","null","","","null","85","","","","","","","","","","","","","","","",""
"","time_out","","html-keyboard-response","563","562728","0.0-1.0-773.0-0.0","0","0","62307","","null","","","null","85","","","","","","","","","","","","","","","",""
"","ITI","","html-keyboard-response","564","563744","0.0-1.0-774.0","0","0","62307","","null","","","null","85","","","","","","","","","","","","","","","NaN",""
"","S1","","html-keyboard-response","565","564010","0.0-1.0-776.0","0","0","62307","","null","","","null","86","","","","","","","","","","","","","","","",""
"","ISI","","html-keyboard-response","566","565057","0.0-1.0-777.0","0","0","62307","","null","","","null","86","NaN","","","","","","","","","","","","","","",""
"","S2","","html-keyboard-response","567","565286","0.0-1.0-778.0","0","0","62307","","222","","","68","86","","d","2","86","training","adjacent","EF","5","6","M.jpg","Q.jpg","0","1","0","",""
"","feedback","","html-keyboard-response","568","566306","0.0-1.0-780.0-0.0","0","0","62307","","null","","","null","86","","","","","","","","","","","","","","","",""
"","time_out","","html-keyboard-response","569","568320","0.0-1.0-782.0-0.0","0","0","62307","","null","","","null","86","","","","","","","","","","","","","","","",""
"","ITI","","html-keyboard-response","570","569336","0.0-1.0-783.0","0","0","62307","","null","","","null","86","","","","","","","","","","","","","","","NaN",""
"","S1","","html-keyboard-response","571","569601","0.0-1.0-785.0","0","0","62307","","null","","","null","87","","","","","","","","","","","","","","","",""
"","ISI","","html-keyboard-response","572","570632","0.0-1.0-786.0","0","0","62307","","null","","","null","87","NaN","","","","","","","","","","","","","","",""
"","S2","","html-keyboard-response","573","570900","0.0-1.0-787.0","0","0","62307","","null","","","null","87","","NaN","","","","","","","","","","","","","",""
"","response","","html-keyboard-response","574","570907","0.0-1.0-788.0-0.0","0","0","62307","","1","","","75","87","","","2","87","training","adjacent","DE","4","5","P.jpg","M.jpg","1","1","1","",""
"","feedback","","html-keyboard-response","575","571929","0.0-1.0-789.0-0.0","0","0","62307","","null","","","null","87","","","","","","","","","","","","","","","",""
"","ITI","","html-keyboard-response","576","572945","0.0-1.0-792.0","0","0","62307","","null","","","null","87","","","","","","","","","","","","","","","NaN",""
"","S1","","html-keyboard-response","577","573210","0.0-1.0-794.0","0","0","62307","","null","","","null","88","","","","","","","","","","","","","","","",""
"","ISI","","html-keyboard-response","578","574226","0.0-1.0-795.0","0","0","62307","","null","","","null","88","NaN","","","","","","","","","","","","","","",""
"","S2","","html-keyboard-response","579","574492","0.0-1.0-796.0","0","0","62307","","null","","","null","88","","NaN","","","","","","","","","","","","","",""
"","response","","html-keyboard-response","580","576271","0.0-1.0-797.0-0.0","0","0","62307","","null","","","null","88","","","2","88","training","adjacent","CD","3","4","N.jpg","P.jpg","NaN","1","0","",""
"","too_slow_prompt","","html-keyboard-response","581","577286","0.0-1.0-799.0-0.0","1","0","62307","","null","","","null","","","","","","","","","","","","","","","","",""
"","time_out","","html-keyboard-response","582","579301","0.0-1.0-800.0-0.0","0","0","62307","","null","","","null","88","","","","","","","","","","","","","","","",""
