"success","ttype","start_time","trial_type","trial_index","time_elapsed","internal_node_id","warning","missed_checkup","PID","view_history","rt","responses","repeat_instructions","key_press","index","keypress_isi","keypress_S2","block","trial_num","phase","group_type","pair_type","S1_stim","S2_stim","S1_img","S2_img","S1_chosen","S1_higher","accuracy","keypress_iti","total_bonus_tally"
"true","full_screen","d04062023hr1744","fullscreen","0","10734","0.0-0.0","0","0","88515","","","","","","","","","","","","","","","","","","","","","",""
"","instructions","","instructions","1","64412","0.0-1.0-0.0-0.0","0","0","88515","[{""page_index"":0,""viewing_time"":5888},{""page_index"":1,""viewing_time"":22002},{""page_index"":2,""viewing_time"":3783},{""page_index"":1,""viewing_time"":7718},{""page_index"":2,""viewing_time"":11601},{""page_index"":3,""viewing_time"":2684}]","53676","","","","","","","","","","","","","","","","","","","",""
"","comprehension_check","","survey-multi-choice","2","87187","0.0-1.0-0.0-1.0","0","0","88515","","22769","{""Q0"":""True"",""Q1"":""D"",""Q2"":""Only when the screen 'MAKE A CHOICE' is shown"",""Q3"":""Green mark"",""Q4"":""either D or K""}","1","","","","","","","","","","","","","","","","","",""
"","missed_instruction_checkup","","html-keyboard-response","3","90013","0.0-1.0-0.0-2.0-0.0","0","1","88515","","2816","","","32","","","","","","","","","","","","","","","","",""
"","instructions","","instructions","4","109466","0.0-1.0-0.1-0.1","0","0","88515","[{""page_index"":0,""viewing_time"":5416},{""page_index"":1,""viewing_time"":10735},{""page_index"":2,""viewing_time"":2350},{""page_index"":3,""viewing_time"":950}]","19451","","","","","","","","","","","","","","","","","","","",""
"","comprehension_check","","survey-multi-choice","5","122084","0.0-1.0-0.1-1.1","0","0","88515","","12614","{""Q0"":""True"",""Q1"":""K"",""Q2"":""Once the second image appears and while the screen 'MAKE A CHOICE' is shown"",""Q3"":""Green mark"",""Q4"":""either D or K""}","0","","","","","","","","","","","","","","","","","",""
"","start_exp","","html-keyboard-response","6","123817","0.0-1.0-1.0","0","0","88515","","1731","","","32","","","","","","","","","","","","","","","","",""
"","S1","","html-keyboard-response","7","123982","0.0-1.0-2.0","0","0","88515","","null","","","null","0","","","","","","","","","","","","","","","",""
"","ISI","","html-keyboard-response","8","125990","0.0-1.0-3.0","0","0","88515","","null","","","null","0","NaN","","","","","","","","","","","","","","",""
"","S2","","html-keyboard-response","9","126153","0.0-1.0-4.0","0","0","88515","","null","","","null","0","","NaN","","","","","","","","","","","","","",""
"","response","","html-keyboard-response","10","127247","0.0-1.0-5.0-0.0","0","0","88515","","1093","","","75","0","","","1","0","training","adjacent","ED","5","4","M.jpg","L.jpg","1","0","0","",""
"","feedback","","html-keyboard-response","11","128254","0.0-1.0-6.0-0.0","0","0","88515","","null","","","null","0","","","","","","","","","","","","","","","",""
"","time_out","","html-keyboard-response","12","130263","0.0-1.0-8.0-0.0","0","0","88515","","null","","","null","0","","","","","","","","","","","","","","","",""
"","ITI","","html-keyboard-response","13","131273","0.0-1.0-9.0","0","0","88515","","null","","","null","0","","","","","","","","","","","","","","","NaN",""
"","S1","","html-keyboard-response","14","131430","0.0-1.0-11.0","0","0","88515","","null","","","null","1","","","","","","","","","","","","","","","",""
"","ISI","","html-keyboard-response","15","133438","0.0-1.0-12.0","0","0","88515","","null","","","null","1","NaN","","","","","","","","","","","","","","",""
"","S2","","html-keyboard-response","16","133601","0.0-1.0-13.0","0","0","88515","","null","","","null","1","","NaN","","","","","","","","","","","","","",""
"","response","","html-keyboard-response","17","134477","0.0-1.0-14.0-0.0","0","0","88515","","875","","","75","1","","","1","1","training","adjacent","CD","3","4","N.jpg","L.jpg","1","1","1","",""
"","feedback","","html-keyboard-response","18","135487","0.0-1.0-15.0-0.0","0","0","88515","","null","","","null","1","","","","","","","","","","","","","","","",""
"","ITI","","html-keyboard-response","19","136497","0.0-1.0-18.0","0","0","88515","","null","","","null","1","","","","","","","","","","","","","","","NaN",""
"","S1","","html-keyboard-response","20","136654","0.0-1.0-20.0","0","0","88515","","null","","","null","2","","","","","","","","","","","","","","","",""
"","ISI","","html-keyboard-response","21","138663","0.0-1.0-21.0","0","0","88515","","null","","","null","2","NaN","","","","","","","","","","","","","","",""
"","S2","","html-keyboard-response","22","138826","0.0-1.0-22.0","0","0","88515","","null","","","null","2","","NaN","","","","","","","","","","","","","",""
"","response","","html-keyboard-response","23","140120","0.0-1.0-23.0-0.0","0","0","88515","","1292","","","68","2","","","1","2","training","adjacent","EF","5","6","M.jpg","Q.jpg","0","1","0","",""
"","feedback","","html-keyboard-response","24","141130","0.0-1.0-24.0-0.0","0","0","88515","","null","","","null","2","","","","","","","","","","","","","","","",""
"","time_out","","html-keyboard-response","25","143138","0.0-1.0-26.0-0.0","0","0","88515","","null","","","null","2","","","","","","","","","","","","","","","",""
"","ITI","","html-keyboard-response","26","144143","0.0-1.0-27.0","0","0","88515","","null","","","null","2","","","","","","","","","","","","","","","NaN",""
"","S1","","html-keyboard-response","27","144306","0.0-1.0-29.0","0","0","88515","","null","","","null","3","","","","","","","","","","","","","","","",""
"","ISI","","html-keyboard-response","28","146314","0.0-1.0-30.0","0","0","88515","","null","","","null","3","NaN","","","","","","","","","","","","","","",""
"","S2","","html-keyboard-response","29","146473","0.0-1.0-31.0","0","0","88515","","null","","","null","3","","NaN","","","","","","","","","","","","","",""
"","response","","html-keyboard-response","30","146873","0.0-1.0-32.0-0.0","0","0","88515","","399","","","75","3","","","1","3","training","adjacent","CD","3","4","N.jpg","L.jpg","1","1","1","",""
"","feedback","","html-keyboard-response","31","147882","0.0-1.0-33.0-0.0","0","0","88515","","null","","","null","3","","","","","","","","","","","","","","","",""
"","ITI","","html-keyboard-response","32","148887","0.0-1.0-36.0","0","0","88515","","null","","","null","3","","","","","","","","","","","","","","","NaN",""
"","S1","","html-keyboard-response","33","149048","0.0-1.0-38.0","0","0","88515","","null","","","null","4","","","","","","","","","","","","","","","",""
"","ISI","","html-keyboard-response","34","151057","0.0-1.0-39.0","0","0","88515","","null","","","null","4","NaN","","","","","","","","","","","","","","",""
"","S2","","html-keyboard-response","35","151217","0.0-1.0-40.0","0","0","88515","","null","","","null","4","","NaN","","","","","","","","","","","","","",""
"","response","","html-keyboard-response","36","152087","0.0-1.0-41.0-0.0","0","0","88515","","868","","","68","4","","","1","4","training","adjacent","CB","3","2","N.jpg","P.jpg","0","0","1","",""
"","feedback","","html-keyboard-response","37","153095","0.0-1.0-42.0-0.0","0","0","88515","","null","","","null","4","","","","","","","","","","","","","","","",""
"","ITI","","html-keyboard-response","38","154105","0.0-1.0-45.0","0","0","88515","","null","","","null","4","","","","","","","","","","","","","","","NaN",""
"","S1","","html-keyboard-response","39","154266","0.0-1.0-47.0","0","0","88515","","null","","","null","5","","","","","","","","","","","","","","","",""
"","ISI","","html-keyboard-response","40","156271","0.0-1.0-48.0","0","0","88515","","null","","","null","5","NaN","","","","","","","","","","","","","","",""
"","S2","","html-keyboard-response","41","156432","0.0-1.0-49.0","0","0","88515","","null","","","null","5","","NaN","","","","","","","","","","","","","",""
"","response","","html-keyboard-response","42","157224","0.0-1.0-50.0-0.0","0","0","88515","","789","","","75","5","","","1","5","training","adjacent","EF","5","6","M.jpg","Q.jpg","1","1","1","",""
"","feedback","","html-keyboard-response","43","158232","0.0-1.0-51.0-0.0","0","0","88515","","null","","","null","5","","","","","","","","","","","","","","","",""
"","ITI","","html-keyboard-response","44","159239","0.0-1.0-54.0","0","0","88515","","null","","","null","5","","","","","","","","","","","","","","","NaN",""
"","S1","","html-keyboard-response","45","159399","0.0-1.0-56.0","0","0","88515","","null","","","null","6","","","","","","","","","","","","","","","",""
"","ISI","","html-keyboard-response","46","161407","0.0-1.0-57.0","0","0","88515","","null","","","null","6","NaN","","","","","","","","","","","","","","",""
"","S2","","html-keyboard-response","47","161570","0.0-1.0-58.0","0","0","88515","","null","","","null","6","","NaN","","","","","","","","","","","","","",""
"","response","","html-keyboard-response","48","161831","0.0-1.0-59.0-0.0","0","0","88515","","260","","","75","6","","","1","6","training","adjacent","DC","4","3","L.jpg","N.jpg","1","0","0","",""
"","feedback","","html-keyboard-response","49","162841","0.0-1.0-60.0-0.0","0","0","88515","","null","","","null","6","","","","","","","","","","","","","","","",""
"","time_out","","html-keyboard-response","50","164850","0.0-1.0-62.0-0.0","0","0","88515","","null","","","null","6","","","","","","","","","","","","","","","",""
"","ITI","","html-keyboard-response","51","165855","0.0-1.0-63.0","0","0","88515","","null","","","null","6","","","","","","","","","","","","","","","NaN",""
"","S1","","html-keyboard-response","52","166017","0.0-1.0-65.0","0","0","88515","","null","","","null","7","","","","","","","","","","","","","","","",""
"","ISI","","html-keyboard-response","53","168025","0.0-1.0-66.0","0","0","88515","","null","","","null","7","NaN","","","","","","","","","","","","","","",""
"","S2","","html-keyboard-response","54","168186","0.0-1.0-67.0","0","0","88515","","null","","","null","7","","NaN","","","","","","","","","","","","","",""
"","response","","html-keyboard-response","55","168526","0.0-1.0-68.0-0.0","0","0","88515","","339","","","75","7","","","1","7","training","adjacent","DE","4","5","L.jpg","M.jpg","1","1","1","",""
"","feedback","","html-keyboard-response","56","169535","0.0-1.0-69.0-0.0","0","0","88515","","null","","","null","7","","","","","","","","","","","","","","","",""
"","ITI","","html-keyboard-response","57","170546","0.0-1.0-72.0","0","0","88515","","null","","","null","7","","","","","","","","","","","","","","","NaN",""
"","S1","","html-keyboard-response","58","170706","0.0-1.0-74.0","0","0","88515","","null","","","null","8","","","","","","","","","","","","","","","",""
"","ISI","","html-keyboard-response","59","172713","0.0-1.0-75.0","0","0","88515","","null","","","null","8","NaN","","","","","","","","","","","","","","",""
"","S2","","html-keyboard-response","60","172872","0.0-1.0-76.0","0","0","88515","","null","","","null","8","","NaN","","","","","","","","","","","","","",""
"","response","","html-keyboard-response","61","173898","0.0-1.0-77.0-0.0","0","0","88515","","1024","","","68","8","","","1","8","training","adjacent","BA","2","1","P.jpg","O.jpg","0","0","1","",""
"","feedback","","html-keyboard-response","62","174904","0.0-1.0-78.0-0.0","0","0","88515","","null","","","null","8","","","","","","","","","","","","","","","",""
"","ITI","","html-keyboard-response","63","175915","0.0-1.0-81.0","0","0","88515","","null","","","null","8","","","","","","","","","","","","","","","NaN",""
"","S1","","html-keyboard-response","64","176072","0.0-1.0-83.0","0","0","88515","","null","","","null","9","","","","","","","","","","","","","","","",""
"","ISI","","html-keyboard-response","65","178080","0.0-1.0-84.0","0","0","88515","","null","","","null","9","NaN","","","","","","","","","","","","","","",""
"","S2","","html-keyboard-response","66","178240","0.0-1.0-85.0","0","0","88515","","null","","","null","9","","NaN","","","","","","","","","","","","","",""
"","response","","html-keyboard-response","67","178658","0.0-1.0-86.0-0.0","0","0","88515","","417","","","68","9","","","1","9","training","adjacent","BC","2","3","P.jpg","N.jpg","0","1","0","",""
"","feedback","","html-keyboard-response","68","179665","0.0-1.0-87.0-0.0","0","0","88515","","null","","","null","9","","","","","","","","","","","","","","","",""
"","time_out","","html-keyboard-response","69","181673","0.0-1.0-89.0-0.0","0","0","88515","","null","","","null","9","","","","","","","","","","","","","","","",""
"","ITI","","html-keyboard-response","70","182682","0.0-1.0-90.0","0","0","88515","","null","","","null","9","","","","","","","","","","","","","","","NaN",""
"","S1","","html-keyboard-response","71","182840","0.0-1.0-92.0","0","0","88515","","null","","","null","10","","","","","","","","","","","","","","","",""
"","ISI","","html-keyboard-response","72","184848","0.0-1.0-93.0","0","0","88515","","null","","","null","10","NaN","","","","","","","","","","","","","","",""
"","S2","","html-keyboard-response","73","185011","0.0-1.0-94.0","0","0","88515","","null","","","null","10","","NaN","","","","","","","","","","","","","",""
"","response","","html-keyboard-response","74","185626","0.0-1.0-95.0-0.0","0","0","88515","","613","","","68","10","","","1","10","training","adjacent","FE","6","5","Q.jpg","M.jpg","0","0","1","",""
"","feedback","","html-keyboard-response","75","186632","0.0-1.0-96.0-0.0","0","0","88515","","null","","","null","10","","","","","","","","","","","","","","","",""
"","ITI","","html-keyboard-response","76","187641","0.0-1.0-99.0","0","0","88515","","null","","","null","10","","","","","","","","","","","","","","","NaN",""
"","S1","","html-keyboard-response","77","187803","0.0-1.0-101.0","0","0","88515","","null","","","null","11","","","","","","","","","","","","","","","",""
"","ISI","","html-keyboard-response","78","189811","0.0-1.0-102.0","0","0","88515","","null","","","null","11","NaN","","","","","","","","","","","","","","",""
"","S2","","html-keyboard-response","79","189969","0.0-1.0-103.0","0","0","88515","","null","","","null","11","","NaN","","","","","","","","","","","","","",""
"","response","","html-keyboard-response","80","190822","0.0-1.0-104.0-0.0","0","0","88515","","850","","","75","11","","","1","11","training","adjacent","DE","4","5","L.jpg","M.jpg","1","1","1","",""
"","feedback","","html-keyboard-response","81","191826","0.0-1.0-105.0-0.0","0","0","88515","","null","","","null","11","","","","","","","","","","","","","","","",""
"","ITI","","html-keyboard-response","82","192833","0.0-1.0-108.0","0","0","88515","","null","","","null","11","","","","","","","","","","","","","","","NaN",""
"","S1","","html-keyboard-response","83","192993","0.0-1.0-110.0","0","0","88515","","null","","","null","12","","","","","","","","","","","","","","","",""
"","ISI","","html-keyboard-response","84","195002","0.0-1.0-111.0","0","0","88515","","null","","","null","12","NaN","","","","","","","","","","","","","","",""
"","S2","","html-keyboard-response","85","195160","0.0-1.0-112.0","0","0","88515","","null","","","null","12","","NaN","","","","","","","","","","","","","",""
"","response","","html-keyboard-response","86","195714","0.0-1.0-113.0-0.0","0","0","88515","","553","","","75","12","","","1","12","training","adjacent","DE","4","5","L.jpg","M.jpg","1","1","1","",""
"","feedback","","html-keyboard-response","87","196721","0.0-1.0-114.0-0.0","0","0","88515","","null","","","null","12","","","","","","","","","","","","","","","",""
"","ITI","","html-keyboard-response","88","197730","0.0-1.0-117.0","0","0","88515","","null","","","null","12","","","","","","","","","","","","","","","NaN",""
"","S1","","html-keyboard-response","89","197888","0.0-1.0-119.0","0","0","88515","","null","","","null","13","","","","","","","","","","","","","","","",""
"","ISI","","html-keyboard-response","90","199896","0.0-1.0-120.0","0","0","88515","","null","","","null","13","NaN","","","","","","","","","","","","","","",""
"","S2","","html-keyboard-response","91","200058","0.0-1.0-121.0","0","0","88515","","null","","","null","13","","NaN","","","","","","","","","","","","","",""
"","response","","html-keyboard-response","92","201011","0.0-1.0-122.0-0.0","0","0","88515","","951","","","68","13","","","1","13","training","adjacent","EF","5","6","M.jpg","Q.jpg","0","1","0","",""
"","feedback","","html-keyboard-response","93","202020","0.0-1.0-123.0-0.0","0","0","88515","","null","","","null","13","","","","","","","","","","","","","","","",""
"","time_out","","html-keyboard-response","94","204025","0.0-1.0-125.0-0.0","0","0","88515","","null","","","null","13","","","","","","","","","","","","","","","",""
"","ITI","","html-keyboard-response","95","205033","0.0-1.0-126.0","0","0","88515","","null","","","null","13","","","","","","","","","","","","","","","NaN",""
"","S1","","html-keyboard-response","96","205195","0.0-1.0-128.0","0","0","88515","","null","","","null","14","","","","","","","","","","","","","","","",""
"","ISI","","html-keyboard-response","97","207203","0.0-1.0-129.0","0","0","88515","","null","","","null","14","NaN","","","","","","","","","","","","","","",""
"","S2","","html-keyboard-response","98","207361","0.0-1.0-130.0","0","0","88515","","null","","","null","14","","NaN","","","","","","","","","","","","","",""
"","response","","html-keyboard-response","99","208163","0.0-1.0-131.0-0.0","0","0","88515","","799","","","75","14","","","1","14","training","adjacent","FG","6","7","Q.jpg","R.jpg","1","1","1","",""
"","feedback","","html-keyboard-response","100","209172","0.0-1.0-132.0-0.0","0","0","88515","","null","","","null","14","","","","","","","","","","","","","","","",""
"","ITI","","html-keyboard-response","101","210179","0.0-1.0-135.0","0","0","88515","","null","","","null","14","","","","","","","","","","","","","","","NaN",""
"","S1","","html-keyboard-response","102","210340","0.0-1.0-137.0","0","0","88515","","null","","","null","15","","","","","","","","","","","","","","","",""
"","ISI","","html-keyboard-response","103","212347","0.0-1.0-138.0","0","0","88515","","null","","","null","15","NaN","","","","","","","","","","","","","","",""
"","S2","","html-keyboard-response","104","212505","0.0-1.0-139.0","0","0","88515","","null","","","null","15","","NaN","","","","","","","","","","","","","",""
"","response","","html-keyboard-response","105","213499","0.0-1.0-140.0-0.0","0","0","88515","","992","","","75","15","","","1","15","training","adjacent","BC","2","3","P.jpg","N.jpg","1","1","1","",""
"","feedback","","html-keyboard-response","106","214507","0.0-1.0-141.0-0.0","0","0","88515","","null","","","null","15","","","","","","","","","","","","","","","",""
"","ITI","","html-keyboard-response","107","215515","0.0-1.0-144.0","0","0","88515","","null","","","null","15","","","","","","","","","","","","","","","NaN",""
"","S1","","html-keyboard-response","108","215674","0.0-1.0-146.0","0","0","88515","","null","","","null","16","","","","","","","","","","","","","","","",""
"","ISI","","html-keyboard-response","109","217683","0.0-1.0-147.0","0","0","88515","","null","","","null","16","NaN","","","","","","","","","","","","","","",""
"","S2","","html-keyboard-response","110","217841","0.0-1.0-148.0","0","0","88515","","null","","","null","16","","NaN","","","","","","","","","","","","","",""
"","response","","html-keyboard-response","111","218128","0.0-1.0-149.0-0.0","0","0","88515","","286","","","68","16","","","1","16","training","adjacent","AB","1","2","O.jpg","P.jpg","0","1","0","",""
"","feedback","","html-keyboard-response","112","219140","0.0-1.0-150.0-0.0","0","0","88515","","null","","","null","16","","","","","","","","","","","","","","","",""
"","time_out","","html-keyboard-response","113","221148","0.0-1.0-152.0-0.0","0","0","88515","","null","","","null","16","","","","","","","","","","","","","","","",""
"","ITI","","html-keyboard-response","114","222152","0.0-1.0-153.0","0","0","88515","","null","","","null","16","","","","","","","","","","","","","","","NaN",""
"","S1","","html-keyboard-response","115","222307","0.0-1.0-155.0","0","0","88515","","null","","","null","17","","","","","","","","","","","","","","","",""
"","ISI","","html-keyboard-response","116","224314","0.0-1.0-156.0","0","0","88515","","null","","","null","17","NaN","","","","","","","","","","","","","","",""
"","S2","","html-keyboard-response","117","224475","0.0-1.0-157.0","0","0","88515","","null","","","null","17","","NaN","","","","","","","","","","","","","",""
"","response","","html-keyboard-response","118","225218","0.0-1.0-158.0-0.0","0","0","88515","","742","","","75","17","","","1","17","training","adjacent","CB","3","2","N.jpg","P.jpg","1","0","0","",""
"","feedback","","html-keyboard-response","119","226228","0.0-1.0-159.0-0.0","0","0","88515","","null","","","null","17","","","","","","","","","","","","","","","",""
"","time_out","","html-keyboard-response","120","228236","0.0-1.0-161.0-0.0","0","0","88515","","null","","","null","17","","","","","","","","","","","","","","","",""
"","ITI","","html-keyboard-response","121","229241","0.0-1.0-162.0","0","0","88515","","null","","","null","17","","","","","","","","","","","","","","","NaN",""
"","S1","","html-keyboard-response","122","229393","0.0-1.0-164.0","0","0","88515","","null","","","null","18","","","","","","","","","","","","","","","",""
"","ISI","","html-keyboard-response","123","231402","0.0-1.0-165.0","0","0","88515","","null","","","null","18","NaN","","","","","","","","","","","","","","",""
"","S2","","html-keyboard-response","124","231562","0.0-1.0-166.0","0","0","88515","","null","","","null","18","","NaN","","","","","","","","","","","","","",""
"","response","","html-keyboard-response","125","232163","0.0-1.0-167.0-0.0","0","0","88515","","599","","","68","18","","","1","18","training","adjacent","GF","7","6","R.jpg","Q.jpg","0","0","1","",""
"","feedback","","html-keyboard-response","126","233171","0.0-1.0-168.0-0.0","0","0","88515","","null","","","null","18","","","","","","","","","","","","","","","",""
"","ITI","","html-keyboard-response","127","234185","0.0-1.0-171.0","0","0","88515","","null","","","null","18","","","","","","","","","","","","","","","NaN",""
"","S1","","html-keyboard-response","128","234338","0.0-1.0-173.0","0","0","88515","","null","","","null","19","","","","","","","","","","","","","","","",""
"","ISI","","html-keyboard-response","129","236346","0.0-1.0-174.0","0","0","88515","","null","","","null","19","NaN","","","","","","","","","","","","","","",""
"","S2","","html-keyboard-response","130","236509","0.0-1.0-175.0","0","0","88515","","null","","","null","19","","NaN","","","","","","","","","","","","","",""
"","response","","html-keyboard-response","131","236840","0.0-1.0-176.0-0.0","0","0","88515","","330","","","75","19","","","1","19","training","adjacent","FE","6","5","Q.jpg","M.jpg","1","0","0","",""
"","feedback","","html-keyboard-response","132","237850","0.0-1.0-177.0-0.0","0","0","88515","","null","","","null","19","","","","","","","","","","","","","","","",""
"","time_out","","html-keyboard-response","133","239858","0.0-1.0-179.0-0.0","0","0","88515","","null","","","null","19","","","","","","","","","","","","","","","",""
"","ITI","","html-keyboard-response","134","240869","0.0-1.0-180.0","0","0","88515","","null","","","null","19","","","","","","","","","","","","","","","NaN",""
"","S1","","html-keyboard-response","135","241025","0.0-1.0-182.0","0","0","88515","","null","","","null","20","","","","","","","","","","","","","","","",""
"","ISI","","html-keyboard-response","136","243034","0.0-1.0-183.0","0","0","88515","","257","","","68","20","d","","","","","","","","","","","","","","",""
"","S2","","html-keyboard-response","137","243123","0.0-1.0-184.0","0","0","88515","","86","","","75","20","","k","1","20","training","adjacent","DC","4","3","L.jpg","N.jpg","1","0","0","",""
"","feedback","","html-keyboard-response","138","244131","0.0-1.0-186.0-0.0","0","0","88515","","null","","","null","20","","","","","","","","","","","","","","","",""
"","time_out","","html-keyboard-response","139","246140","0.0-1.0-188.0-0.0","0","0","88515","","null","","","null","20","","","","","","","","","","","","","","","",""
"","ITI","","html-keyboard-response","140","247149","0.0-1.0-189.0","0","0","88515","","null","","","null","20","","","","","","","","","","","","","","","NaN",""
"","S1","","html-keyboard-response","141","247306","0.0-1.0-191.0","0","0","88515","","null","","","null","21","","","","","","","","","","","","","","","",""
"","ISI","","html-keyboard-response","142","249315","0.0-1.0-192.0","0","0","88515","","null","","","null","21","NaN","","","","","","","","","","","","","","",""
"","S2","","html-keyboard-response","143","249476","0.0-1.0-193.0","0","0","88515","","null","","","null","21","","NaN","","","","","","","","","","","","","",""
"","response","","html-keyboard-response","144","250313","0.0-1.0-194.0-0.0","0","0","88515","","835","","","68","21","","","1","21","training","adjacent","AB","1","2","O.jpg","P.jpg","0","1","0","",""
"","feedback","","html-keyboard-response","145","251323","0.0-1.0-195.0-0.0","0","0","88515","","null","","","null","21","","","","","","","","","","","","","","","",""
"","time_out","","html-keyboard-response","146","253332","0.0-1.0-197.0-0.0","0","0","88515","","null","","","null","21","","","","","","","","","","","","","","","",""
"","ITI","","html-keyboard-response","147","254338","0.0-1.0-198.0","0","0","88515","","null","","","null","21","","","","","","","","","","","","","","","NaN",""
"","S1","","html-keyboard-response","148","254499","0.0-1.0-200.0","0","0","88515","","null","","","null","22","","","","","","","","","","","","","","","",""
"","ISI","","html-keyboard-response","149","256508","0.0-1.0-201.0","0","0","88515","","null","","","null","22","NaN","","","","","","","","","","","","","","",""
"","S2","","html-keyboard-response","150","256665","0.0-1.0-202.0","0","0","88515","","null","","","null","22","","NaN","","","","","","","","","","","","","",""
"","response","","html-keyboard-response","151","257164","0.0-1.0-203.0-0.0","0","0","88515","","496","","","75","22","","","1","22","training","adjacent","CB","3","2","N.jpg","P.jpg","1","0","0","",""
"","feedback","","html-keyboard-response","152","258173","0.0-1.0-204.0-0.0","0","0","88515","","null","","","null","22","","","","","","","","","","","","","","","",""
"","time_out","","html-keyboard-response","153","260178","0.0-1.0-206.0-0.0","0","0","88515","","null","","","null","22","","","","","","","","","","","","","","","",""
"","ITI","","html-keyboard-response","154","261187","0.0-1.0-207.0","0","0","88515","","null","","","null","22","","","","","","","","","","","","","","","NaN",""
"","S1","","html-keyboard-response","155","261349","0.0-1.0-209.0","0","0","88515","","null","","","null","23","","","","","","","","","","","","","","","",""
"","ISI","","html-keyboard-response","156","263357","0.0-1.0-210.0","0","0","88515","","null","","","null","23","NaN","","","","","","","","","","","","","","",""
"","S2","","html-keyboard-response","157","263514","0.0-1.0-211.0","0","0","88515","","null","","","null","23","","NaN","","","","","","","","","","","","","",""
"","response","","html-keyboard-response","158","264619","0.0-1.0-212.0-0.0","0","0","88515","","1102","","","68","23","","","1","23","training","adjacent","BA","2","1","P.jpg","O.jpg","0","0","1","",""
"","feedback","","html-keyboard-response","159","265627","0.0-1.0-213.0-0.0","0","0","88515","","null","","","null","23","","","","","","","","","","","","","","","",""
"","ITI","","html-keyboard-response","160","266638","0.0-1.0-216.0","0","0","88515","","null","","","null","23","","","","","","","","","","","","","","","NaN",""
"","S1","","html-keyboard-response","161","266794","0.0-1.0-218.0","0","0","88515","","null","","","null","24","","","","","","","","","","","","","","","",""
"","ISI","","html-keyboard-response","162","268803","0.0-1.0-219.0","0","0","88515","","null","","","null","24","NaN","","","","","","","","","","","","","","",""
"","S2","","html-keyboard-response","163","268966","0.0-1.0-220.0","0","0","88515","","null","","","null","24","","NaN","","","","","","","","","","","","","",""
"","response","","html-keyboard-response","164","270061","0.0-1.0-221.0-0.0","0","0","88515","","1094","","","68","24","","","1","24","training","adjacent","FG","6","7","Q.jpg","R.jpg","0","1","0","",""
"","feedback","","html-keyboard-response","165","271068","0.0-1.0-222.0-0.0","0","0","88515","","null","","","null","24","","","","","","","","","","","","","","","",""
"","time_out","","html-keyboard-response","166","273076","0.0-1.0-224.0-0.0","0","0","88515","","null","","","null","24","","","","","","","","","","","","","","","",""
"","ITI","","html-keyboard-response","167","274085","0.0-1.0-225.0","0","0","88515","","null","","","null","24","","","","","","","","","","","","","","","NaN",""
"","S1","","html-keyboard-response","168","274242","0.0-1.0-227.0","0","0","88515","","null","","","null","25","","","","","","","","","","","","","","","",""
"","ISI","","html-keyboard-response","169","276251","0.0-1.0-228.0","0","0","88515","","null","","","null","25","NaN","","","","","","","","","","","","","","",""
"","S2","","html-keyboard-response","170","276411","0.0-1.0-229.0","0","0","88515","","null","","","null","25","","NaN","","","","","","","","","","","","","",""
"","response","","html-keyboard-response","171","277213","0.0-1.0-230.0-0.0","0","0","88515","","801","","","75","25","","","1","25","training","adjacent","BC","2","3","P.jpg","N.jpg","1","1","1","",""
"","feedback","","html-keyboard-response","172","278219","0.0-1.0-231.0-0.0","0","0","88515","","null","","","null","25","","","","","","","","","","","","","","","",""
"","ITI","","html-keyboard-response","173","279229","0.0-1.0-234.0","0","0","88515","","null","","","null","25","","","","","","","","","","","","","","","NaN",""
"","S1","","html-keyboard-response","174","279389","0.0-1.0-236.0","0","0","88515","","null","","","null","26","","","","","","","","","","","","","","","",""
"","ISI","","html-keyboard-response","175","281394","0.0-1.0-237.0","0","0","88515","","null","","","null","26","NaN","","","","","","","","","","","","","","",""
"","S2","","html-keyboard-response","176","281557","0.0-1.0-238.0","0","0","88515","","null","","","null","26","","NaN","","","","","","","","","","","","","",""
"","response","","html-keyboard-response","177","281793","0.0-1.0-239.0-0.0","0","0","88515","","234","","","75","26","","","1","26","training","adjacent","DC","4","3","L.jpg","N.jpg","1","0","0","",""
"","feedback","","html-keyboard-response","178","282805","0.0-1.0-240.0-0.0","0","0","88515","","null","","","null","26","","","","","","","","","","","","","","","",""
"","time_out","","html-keyboard-response","179","284813","0.0-1.0-242.0-0.0","0","0","88515","","null","","","null","26","","","","","","","","","","","","","","","",""
"","ITI","","html-keyboard-response","180","285819","0.0-1.0-243.0","0","0","88515","","null","","","null","26","","","","","","","","","","","","","","","NaN",""
"","S1","","html-keyboard-response","181","285985","0.0-1.0-245.0","0","0","88515","","null","","","null","27","","","","","","","","","","","","","","","",""
"","ISI","","html-keyboard-response","182","287998","0.0-1.0-246.0","0","0","88515","","null","","","null","27","NaN","","","","","","","","","","","","","","",""
"","S2","","html-keyboard-response","183","288157","0.0-1.0-247.0","0","0","88515","","null","","","null","27","","NaN","","","","","","","","","","","","","",""
"","response","","html-keyboard-response","184","288675","0.0-1.0-248.0-0.0","0","0","88515","","516","","","68","27","","","1","27","training","adjacent","AB","1","2","O.jpg","P.jpg","0","1","0","",""
"","feedback","","html-keyboard-response","185","289685","0.0-1.0-249.0-0.0","0","0","88515","","null","","","null","27","","","","","","","","","","","","","","","",""
"","time_out","","html-keyboard-response","186","291692","0.0-1.0-251.0-0.0","0","0","88515","","null","","","null","27","","","","","","","","","","","","","","","",""
"","ITI","","html-keyboard-response","187","292703","0.0-1.0-252.0","0","0","88515","","null","","","null","27","","","","","","","","","","","","","","","NaN",""
"","S1","","html-keyboard-response","188","292859","0.0-1.0-254.0","0","0","88515","","null","","","null","28","","","","","","","","","","","","","","","",""
"","ISI","","html-keyboard-response","189","294868","0.0-1.0-255.0","0","0","88515","","null","","","null","28","NaN","","","","","","","","","","","","","","",""
"","S2","","html-keyboard-response","190","295030","0.0-1.0-256.0","0","0","88515","","null","","","null","28","","NaN","","","","","","","","","","","","","",""
"","response","","html-keyboard-response","191","295217","0.0-1.0-257.0-0.0","0","0","88515","","186","","","75","28","","","1","28","training","adjacent","CD","3","4","N.jpg","L.jpg","1","1","1","",""
"","feedback","","html-keyboard-response","192","296229","0.0-1.0-258.0-0.0","0","0","88515","","null","","","null","28","","","","","","","","","","","","","","","",""
"","ITI","","html-keyboard-response","193","297237","0.0-1.0-261.0","0","0","88515","","null","","","null","28","","","","","","","","","","","","","","","NaN",""
"","S1","","html-keyboard-response","194","297398","0.0-1.0-263.0","0","0","88515","","null","","","null","29","","","","","","","","","","","","","","","",""
"","ISI","","html-keyboard-response","195","299403","0.0-1.0-264.0","0","0","88515","","null","","","null","29","NaN","","","","","","","","","","","","","","",""
"","S2","","html-keyboard-response","196","299564","0.0-1.0-265.0","0","0","88515","","null","","","null","29","","NaN","","","","","","","","","","","","","",""
"","response","","html-keyboard-response","197","300112","0.0-1.0-266.0-0.0","0","0","88515","","546","","","75","29","","","1","29","training","adjacent","AB","1","2","O.jpg","P.jpg","1","1","1","",""
"","feedback","","html-keyboard-response","198","301117","0.0-1.0-267.0-0.0","0","0","88515","","null","","","null","29","","","","","","","","","","","","","","","",""
"","ITI","","html-keyboard-response","199","302124","0.0-1.0-270.0","0","0","88515","","null","","","null","29","","","","","","","","","","","","","","","NaN",""
"","S1","","html-keyboard-response","200","302286","0.0-1.0-272.0","0","0","88515","","null","","","null","30","","","","","","","","","","","","","","","",""
"","ISI","","html-keyboard-response","201","304291","0.0-1.0-273.0","0","0","88515","","null","","","null","30","NaN","","","","","","","","","","","","","","",""
"","S2","","html-keyboard-response","202","304453","0.0-1.0-274.0","0","0","88515","","null","","","null","30","","NaN","","","","","","","","","","","","","",""
"","response","","html-keyboard-response","203","304792","0.0-1.0-275.0-0.0","0","0","88515","","338","","","68","30","","","1","30","training","adjacent","FE","6","5","Q.jpg","M.jpg","0","0","1","",""
"","feedback","","html-keyboard-response","204","305798","0.0-1.0-276.0-0.0","0","0","88515","","null","","","null","30","","","","","","","","","","","","","","","",""
"","ITI","","html-keyboard-response","205","306803","0.0-1.0-279.0","0","0","88515","","null","","","null","30","","","","","","","","","","","","","","","NaN",""
"","S1","","html-keyboard-response","206","306966","0.0-1.0-281.0","0","0","88515","","null","","","null","31","","","","","","","","","","","","","","","",""
"","ISI","","html-keyboard-response","207","308975","0.0-1.0-282.0","0","0","88515","","null","","","null","31","NaN","","","","","","","","","","","","","","",""
"","S2","","html-keyboard-response","208","309131","0.0-1.0-283.0","0","0","88515","","null","","","null","31","","NaN","","","","","","","","","","","","","",""
"","response","","html-keyboard-response","209","309532","0.0-1.0-284.0-0.0","0","0","88515","","399","","","75","31","","","1","31","training","adjacent","DC","4","3","L.jpg","N.jpg","1","0","0","",""
"","feedback","","html-keyboard-response","210","310541","0.0-1.0-285.0-0.0","0","0","88515","","null","","","null","31","","","","","","","","","","","","","","","",""
"","time_out","","html-keyboard-response","211","312547","0.0-1.0-287.0-0.0","0","0","88515","","null","","","null","31","","","","","","","","","","","","","","","",""
"","ITI","","html-keyboard-response","212","313555","0.0-1.0-288.0","0","0","88515","","null","","","null","31","","","","","","","","","","","","","","","NaN",""
"","S1","","html-keyboard-response","213","313718","0.0-1.0-290.0","0","0","88515","","null","","","null","32","","","","","","","","","","","","","","","",""
"","ISI","","html-keyboard-response","214","315726","0.0-1.0-291.0","0","0","88515","","null","","","null","32","NaN","","","","","","","","","","","","","","",""
"","S2","","html-keyboard-response","215","315884","0.0-1.0-292.0","0","0","88515","","null","","","null","32","","NaN","","","","","","","","","","","","","",""
"","response","","html-keyboard-response","216","316192","0.0-1.0-293.0-0.0","0","0","88515","","307","","","75","32","","","1","32","training","adjacent","ED","5","4","M.jpg","L.jpg","1","0","0","",""
"","feedback","","html-keyboard-response","217","317198","0.0-1.0-294.0-0.0","0","0","88515","","null","","","null","32","","","","","","","","","","","","","","","",""
"","time_out","","html-keyboard-response","218","319204","0.0-1.0-296.0-0.0","0","0","88515","","null","","","null","32","","","","","","","","","","","","","","","",""
"","ITI","","html-keyboard-response","219","320213","0.0-1.0-297.0","0","0","88515","","null","","","null","32","","","","","","","","","","","","","","","NaN",""
"","S1","","html-keyboard-response","220","320376","0.0-1.0-299.0","0","0","88515","","null","","","null","33","","","","","","","","","","","","","","","",""
"","ISI","","html-keyboard-response","221","322384","0.0-1.0-300.0","0","0","88515","","null","","","null","33","NaN","","","","","","","","","","","","","","",""
"","S2","","html-keyboard-response","222","322542","0.0-1.0-301.0","0","0","88515","","null","","","null","33","","NaN","","","","","","","","","","","","","",""
"","response","","html-keyboard-response","223","323257","0.0-1.0-302.0-0.0","0","0","88515","","714","","","68","33","","","1","33","training","adjacent","FE","6","5","Q.jpg","M.jpg","0","0","1","",""
"","feedback","","html-keyboard-response","224","324260","0.0-1.0-303.0-0.0","0","0","88515","","null","","","null","33","","","","","","","","","","","","","","","",""
"","ITI","","html-keyboard-response","225","325270","0.0-1.0-306.0","0","0","88515","","null","","","null","33","","","","","","","","","","","","","","","NaN",""
"","S1","","html-keyboard-response","226","325429","0.0-1.0-308.0","0","0","88515","","null","","","null","34","","","","","","","","","","","","","","","",""
"","ISI","","html-keyboard-response","227","327436","0.0-1.0-309.0","0","0","88515","","null","","","null","34","NaN","","","","","","","","","","","","","","",""
"","S2","","html-keyboard-response","228","327598","0.0-1.0-310.0","0","0","88515","","null","","","null","34","","NaN","","","","","","","","","","","","","",""
"","response","","html-keyboard-response","229","328648","0.0-1.0-311.0-0.0","0","0","88515","","1049","","","75","34","","","1","34","training","adjacent","EF","5","6","M.jpg","Q.jpg","1","1","1","",""
"","feedback","","html-keyboard-response","230","329652","0.0-1.0-312.0-0.0","0","0","88515","","null","","","null","34","","","","","","","","","","","","","","","",""
"","ITI","","html-keyboard-response","231","330663","0.0-1.0-315.0","0","0","88515","","null","","","null","34","","","","","","","","","","","","","","","NaN",""
"","S1","","html-keyboard-response","232","330820","0.0-1.0-317.0","0","0","88515","","null","","","null","35","","","","","","","","","","","","","","","",""
"","ISI","","html-keyboard-response","233","332828","0.0-1.0-318.0","0","0","88515","","null","","","null","35","NaN","","","","","","","","","","","","","","",""
"","S2","","html-keyboard-response","234","332986","0.0-1.0-319.0","0","0","88515","","null","","","null","35","","NaN","","","","","","","","","","","","","",""
"","response","","html-keyboard-response","235","334427","0.0-1.0-320.0-0.0","0","0","88515","","1439","","","68","35","","","1","35","training","adjacent","GF","7","6","R.jpg","Q.jpg","0","0","1","",""
"","feedback","","html-keyboard-response","236","335439","0.0-1.0-321.0-0.0","0","0","88515","","null","","","null","35","","","","","","","","","","","","","","","",""
"","ITI","","html-keyboard-response","237","336444","0.0-1.0-324.0","0","0","88515","","null","","","null","35","","","","","","","","","","","","","","","NaN",""
"","S1","","html-keyboard-response","238","336607","0.0-1.0-326.0","0","0","88515","","null","","","null","36","","","","","","","","","","","","","","","",""
"","ISI","","html-keyboard-response","239","338616","0.0-1.0-327.0","0","0","88515","","null","","","null","36","NaN","","","","","","","","","","","","","","",""
"","S2","","html-keyboard-response","240","338772","0.0-1.0-328.0","0","0","88515","","null","","","null","36","","NaN","","","","","","","","","","","","","",""
"","response","","html-keyboard-response","241","340516","0.0-1.0-329.0-0.0","0","0","88515","","1742","","","75","36","","","1","36","training","adjacent","GF","7","6","R.jpg","Q.jpg","1","0","0","",""
"","feedback","","html-keyboard-response","242","341527","0.0-1.0-330.0-0.0","0","0","88515","","null","","","null","36","","","","","","","","","","","","","","","",""
"","time_out","","html-keyboard-response","243","343533","0.0-1.0-332.0-0.0","0","0","88515","","null","","","null","36","","","","","","","","","","","","","","","",""
"","ITI","","html-keyboard-response","244","344543","0.0-1.0-333.0","0","0","88515","","null","","","null","36","","","","","","","","","","","","","","","NaN",""
"","S1","","html-keyboard-response","245","344701","0.0-1.0-335.0","0","0","88515","","null","","","null","37","","","","","","","","","","","","","","","",""
"","ISI","","html-keyboard-response","246","346708","0.0-1.0-336.0","0","0","88515","","null","","","null","37","NaN","","","","","","","","","","","","","","",""
"","S2","","html-keyboard-response","247","346861","0.0-1.0-337.0","0","0","88515","","null","","","null","37","","NaN","","","","","","","","","","","","","",""
"","response","","html-keyboard-response","248","347542","0.0-1.0-338.0-0.0","0","0","88515","","680","","","75","37","","","1","37","training","adjacent","CB","3","2","N.jpg","P.jpg","1","0","0","",""
"","feedback","","html-keyboard-response","249","348549","0.0-1.0-339.0-0.0","0","0","88515","","null","","","null","37","","","","","","","","","","","","","","","",""
"","time_out","","html-keyboard-response","250","350557","0.0-1.0-341.0-0.0","0","0","88515","","null","","","null","37","","","","","","","","","","","","","","","",""
"","ITI","","html-keyboard-response","251","351567","0.0-1.0-342.0","0","0","88515","","null","","","null","37","","","","","","","","","","","","","","","NaN",""
"","S1","","html-keyboard-response","252","351725","0.0-1.0-344.0","0","0","88515","","null","","","null","38","","","","","","","","","","","","","","","",""
"","ISI","","html-keyboard-response","253","353733","0.0-1.0-345.0","0","0","88515","","null","","","null","38","NaN","","","","","","","","","","","","","","",""
"","S2","","html-keyboard-response","254","353895","0.0-1.0-346.0","0","0","88515","","null","","","null","38","","NaN","","","","","","","","","","","","","",""
"","response","","html-keyboard-response","255","354370","0.0-1.0-347.0-0.0","0","0","88515","","473","","","75","38","","","1","38","training","adjacent","ED","5","4","M.jpg","L.jpg","1","0","0","",""
"","feedback","","html-keyboard-response","256","355376","0.0-1.0-348.0-0.0","0","0","88515","","null","","","null","38","","","","","","","","","","","","","","","",""
"","time_out","","html-keyboard-response","257","357389","0.0-1.0-350.0-0.0","0","0","88515","","null","","","null","38","","","","","","","","","","","","","","","",""
"","ITI","","html-keyboard-response","258","358401","0.0-1.0-351.0","0","0","88515","","null","","","null","38","","","","","","","","","","","","","","","NaN",""
"","S1","","html-keyboard-response","259","358557","0.0-1.0-353.0","0","0","88515","","null","","","null","39","","","","","","","","","","","","","","","",""
"","ISI","","html-keyboard-response","260","360565","0.0-1.0-354.0","0","0","88515","","579","","","75","39","k","","","","","","","","","","","","","","",""
"","S2","","html-keyboard-response","261","360721","0.0-1.0-355.0","0","0","88515","","null","","","null","39","","NaN","","","","","","","","","","","","","",""
"","response","","html-keyboard-response","262","360822","0.0-1.0-356.0-0.0","0","0","88515","","100","","","75","39","","","1","39","training","adjacent","DE","4","5","L.jpg","M.jpg","1","1","1","",""
"","feedback","","html-keyboard-response","263","361831","0.0-1.0-357.0-0.0","0","0","88515","","null","","","null","39","","","","","","","","","","","","","","","",""
"","ITI","","html-keyboard-response","264","362840","0.0-1.0-360.0","0","0","88515","","null","","","null","39","","","","","","","","","","","","","","","NaN",""
"","S1","","html-keyboard-response","265","362997","0.0-1.0-362.0","0","0","88515","","null","","","null","40","","","","","","","","","","","","","","","",""
"","ISI","","html-keyboard-response","266","365006","0.0-1.0-363.0","0","0","88515","","null","","","null","40","NaN","","","","","","","","","","","","","","",""
"","S2","","html-keyboard-response","267","365170","0.0-1.0-364.0","0","0","88515","","null","","","null","40","","NaN","","","","","","","","","","","","","",""
"","response","","html-keyboard-response","268","366904","0.0-1.0-365.0-0.0","0","0","88515","","1732","","","68","40","","","1","40","training","adjacent","BA","2","1","P.jpg","O.jpg","0","0","1","",""
"","feedback","","html-keyboard-response","269","367909","0.0-1.0-366.0-0.0","0","0","88515","","null","","","null","40","","","","","","","","","","","","","","","",""
"","ITI","","html-keyboard-response","270","368919","0.0-1.0-369.0","0","0","88515","","null","","","null","40","","","","","","","","","","","","","","","NaN",""
"","S1","","html-keyboard-response","271","369080","0.0-1.0-371.0","0","0","88515","","null","","","null","41","","","","","","","","","","","","","","","",""
"","ISI","","html-keyboard-response","272","371085","0.0-1.0-372.0","0","0","88515","","null","","","null","41","NaN","","","","","","","","","","","","","","",""
"","S2","","html-keyboard-response","273","371241","0.0-1.0-373.0","0","0","88515","","null","","","null","41","","NaN","","","","","","","","","","","","","",""
"","response","","html-keyboard-response","274","372447","0.0-1.0-374.0-0.0","0","0","88515","","1205","","","75","41","","","1","41","training","adjacent","GF","7","6","R.jpg","Q.jpg","1","0","0","",""
"","feedback","","html-keyboard-response","275","373454","0.0-1.0-375.0-0.0","0","0","88515","","null","","","null","41","","","","","","","","","","","","","","","",""
"","time_out","","html-keyboard-response","276","375461","0.0-1.0-377.0-0.0","0","0","88515","","null","","","null","41","","","","","","","","","","","","","","","",""
"","ITI","","html-keyboard-response","277","376471","0.0-1.0-378.0","0","0","88515","","null","","","null","41","","","","","","","","","","","","","","","NaN",""
"","S1","","html-keyboard-response","278","376630","0.0-1.0-380.0","0","0","88515","","null","","","null","42","","","","","","","","","","","","","","","",""
"","ISI","","html-keyboard-response","279","378639","0.0-1.0-381.0","0","0","88515","","null","","","null","42","NaN","","","","","","","","","","","","","","",""
"","S2","","html-keyboard-response","280","378799","0.0-1.0-382.0","0","0","88515","","null","","","null","42","","NaN","","","","","","","","","","","","","",""
"","response","","html-keyboard-response","281","379597","0.0-1.0-383.0-0.0","0","0","88515","","796","","","75","42","","","1","42","training","adjacent","BC","2","3","P.jpg","N.jpg","1","1","1","",""
"","feedback","","html-keyboard-response","282","380606","0.0-1.0-384.0-0.0","0","0","88515","","null","","","null","42","","","","","","","","","","","","","","","",""
"","ITI","","html-keyboard-response","283","381615","0.0-1.0-387.0","0","0","88515","","null","","","null","42","","","","","","","","","","","","","","","NaN",""
"","S1","","html-keyboard-response","284","381776","0.0-1.0-389.0","0","0","88515","","null","","","null","43","","","","","","","","","","","","","","","",""
"","ISI","","html-keyboard-response","285","383787","0.0-1.0-390.0","0","0","88515","","null","","","null","43","NaN","","","","","","","","","","","","","","",""
"","S2","","html-keyboard-response","286","383942","0.0-1.0-391.0","0","0","88515","","null","","","null","43","","NaN","","","","","","","","","","","","","",""
"","response","","html-keyboard-response","287","384995","0.0-1.0-392.0-0.0","0","0","88515","","1051","","","75","43","","","1","43","training","adjacent","CD","3","4","N.jpg","L.jpg","1","1","1","",""
"","feedback","","html-keyboard-response","288","385998","0.0-1.0-393.0-0.0","0","0","88515","","null","","","null","43","","","","","","","","","","","","","","","",""
"","ITI","","html-keyboard-response","289","387008","0.0-1.0-396.0","0","0","88515","","null","","","null","43","","","","","","","","","","","","","","","NaN",""
"","S1","","html-keyboard-response","290","387169","0.0-1.0-398.0","0","0","88515","","null","","","null","44","","","","","","","","","","","","","","","",""
"","ISI","","html-keyboard-response","291","389173","0.0-1.0-399.0","0","0","88515","","null","","","null","44","NaN","","","","","","","","","","","","","","",""
"","S2","","html-keyboard-response","292","389329","0.0-1.0-400.0","0","0","88515","","null","","","null","44","","NaN","","","","","","","","","","","","","",""
"","response","","html-keyboard-response","293","390335","0.0-1.0-401.0-0.0","0","0","88515","","1005","","","68","44","","","1","44","training","adjacent","FG","6","7","Q.jpg","R.jpg","0","1","0","",""
"","feedback","","html-keyboard-response","294","391344","0.0-1.0-402.0-0.0","0","0","88515","","null","","","null","44","","","","","","","","","","","","","","","",""
"","time_out","","html-keyboard-response","295","393352","0.0-1.0-404.0-0.0","0","0","88515","","null","","","null","44","","","","","","","","","","","","","","","",""
"","ITI","","html-keyboard-response","296","394360","0.0-1.0-405.0","0","0","88515","","null","","","null","44","","","","","","","","","","","","","","","NaN",""
"","S1","","html-keyboard-response","297","394520","0.0-1.0-407.0","0","0","88515","","null","","","null","45","","","","","","","","","","","","","","","",""
"","ISI","","html-keyboard-response","298","396529","0.0-1.0-408.0","0","0","88515","","null","","","null","45","NaN","","","","","","","","","","","","","","",""
"","S2","","html-keyboard-response","299","396690","0.0-1.0-409.0","0","0","88515","","null","","","null","45","","NaN","","","","","","","","","","","","","",""
"","response","","html-keyboard-response","300","397276","0.0-1.0-410.0-0.0","0","0","88515","","585","","","68","45","","","1","45","training","adjacent","BA","2","1","P.jpg","O.jpg","0","0","1","",""
"","feedback","","html-keyboard-response","301","398287","0.0-1.0-411.0-0.0","0","0","88515","","null","","","null","45","","","","","","","","","","","","","","","",""
"","ITI","","html-keyboard-response","302","399297","0.0-1.0-414.0","0","0","88515","","null","","","null","45","","","","","","","","","","","","","","","NaN",""
"","S1","","html-keyboard-response","303","399454","0.0-1.0-416.0","0","0","88515","","null","","","null","46","","","","","","","","","","","","","","","",""
"","ISI","","html-keyboard-response","304","401462","0.0-1.0-417.0","0","0","88515","","null","","","null","46","NaN","","","","","","","","","","","","","","",""
"","S2","","html-keyboard-response","305","401625","0.0-1.0-418.0","0","0","88515","","null","","","null","46","","NaN","","","","","","","","","","","","","",""
"","response","","html-keyboard-response","306","402236","0.0-1.0-419.0-0.0","0","0","88515","","610","","","75","46","","","1","46","training","adjacent","FG","6","7","Q.jpg","R.jpg","1","1","1","",""
"","feedback","","html-keyboard-response","307","403239","0.0-1.0-420.0-0.0","0","0","88515","","null","","","null","46","","","","","","","","","","","","","","","",""
"","ITI","","html-keyboard-response","308","404242","0.0-1.0-423.0","0","0","88515","","null","","","null","46","","","","","","","","","","","","","","","NaN",""
"","S1","","html-keyboard-response","309","404400","0.0-1.0-425.0","0","0","88515","","null","","","null","47","","","","","","","","","","","","","","","",""
"","ISI","","html-keyboard-response","310","406409","0.0-1.0-426.0","0","0","88515","","null","","","null","47","NaN","","","","","","","","","","","","","","",""
"","S2","","html-keyboard-response","311","406569","0.0-1.0-427.0","0","0","88515","","null","","","null","47","","NaN","","","","","","","","","","","","","",""
"","response","","html-keyboard-response","312","407460","0.0-1.0-428.0-0.0","0","0","88515","","889","","","68","47","","","1","47","training","adjacent","ED","5","4","M.jpg","L.jpg","0","0","1","",""
"","feedback","","html-keyboard-response","313","408474","0.0-1.0-429.0-0.0","0","0","88515","","null","","","null","47","","","","","","","","","","","","","","","",""
"","ITI","","html-keyboard-response","314","409480","0.0-1.0-432.0","0","0","88515","","null","","","null","47","","","","","","","","","","","","","","","NaN",""
"","block_over","","html-keyboard-response","315","443466","0.0-1.0-433.0-0.0","0","0","88515","","33984","","","32","47","","","","","","","","","","","","","","","",""
"","S1","","html-keyboard-response","316","443625","0.0-1.0-434.0","0","0","88515","","null","","","null","48","","","","","","","","","","","","","","","",""
"","ISI","","html-keyboard-response","317","445634","0.0-1.0-435.0","0","0","88515","","null","","","null","48","NaN","","","","","","","","","","","","","","",""
"","S2","","html-keyboard-response","318","445795","0.0-1.0-436.0","0","0","88515","","null","","","null","48","","NaN","","","","","","","","","","","","","",""
"","response","","html-keyboard-response","319","446965","0.0-1.0-437.0-0.0","0","0","88515","","1168","","","75","48","","","2","48","training","adjacent","DE","4","5","L.jpg","M.jpg","1","1","1","",""
"","feedback","","html-keyboard-response","320","447968","0.0-1.0-438.0-0.0","0","0","88515","","null","","","null","48","","","","","","","","","","","","","","","",""
"","ITI","","html-keyboard-response","321","448978","0.0-1.0-441.0","0","0","88515","","null","","","null","48","","","","","","","","","","","","","","","NaN",""
"","S1","","html-keyboard-response","322","449137","0.0-1.0-443.0","0","0","88515","","null","","","null","49","","","","","","","","","","","","","","","",""
"","ISI","","html-keyboard-response","323","451147","0.0-1.0-444.0","0","0","88515","","null","","","null","49","NaN","","","","","","","","","","","","","","",""
"","S2","","html-keyboard-response","324","451305","0.0-1.0-445.0","0","0","88515","","null","","","null","49","","NaN","","","","","","","","","","","","","",""
"","response","","html-keyboard-response","325","452322","0.0-1.0-446.0-0.0","0","0","88515","","1015","","","68","49","","","2","49","training","adjacent","BC","2","3","P.jpg","N.jpg","0","1","0","",""
"","feedback","","html-keyboard-response","326","453331","0.0-1.0-447.0-0.0","0","0","88515","","null","","","null","49","","","","","","","","","","","","","","","",""
"","time_out","","html-keyboard-response","327","455336","0.0-1.0-449.0-0.0","0","0","88515","","null","","","null","49","","","","","","","","","","","","","","","",""
"","ITI","","html-keyboard-response","328","456345","0.0-1.0-450.0","0","0","88515","","null","","","null","49","","","","","","","","","","","","","","","NaN",""
"","S1","","html-keyboard-response","329","456507","0.0-1.0-452.0","0","0","88515","","null","","","null","50","","","","","","","","","","","","","","","",""
"","ISI","","html-keyboard-response","330","458515","0.0-1.0-453.0","0","0","88515","","null","","","null","50","NaN","","","","","","","","","","","","","","",""
"","S2","","html-keyboard-response","331","458673","0.0-1.0-454.0","0","0","88515","","null","","","null","50","","NaN","","","","","","","","","","","","","",""
"","response","","html-keyboard-response","332","459399","0.0-1.0-455.0-0.0","0","0","88515","","724","","","75","50","","","2","50","training","adjacent","EF","5","6","M.jpg","Q.jpg","1","1","1","",""
"","feedback","","html-keyboard-response","333","460421","0.0-1.0-456.0-0.0","0","0","88515","","null","","","null","50","","","","","","","","","","","","","","","",""
"","ITI","","html-keyboard-response","334","461426","0.0-1.0-459.0","0","0","88515","","null","","","null","50","","","","","","","","","","","","","","","NaN",""
"","S1","","html-keyboard-response","335","461591","0.0-1.0-461.0","0","0","88515","","null","","","null","51","","","","","","","","","","","","","","","",""
"","ISI","","html-keyboard-response","336","463601","0.0-1.0-462.0","0","0","88515","","null","","","null","51","NaN","","","","","","","","","","","","","","",""
"","S2","","html-keyboard-response","337","463760","0.0-1.0-463.0","0","0","88515","","null","","","null","51","","NaN","","","","","","","","","","","","","",""
"","response","","html-keyboard-response","338","464932","0.0-1.0-464.0-0.0","0","0","88515","","1171","","","75","51","","","2","51","training","adjacent","FE","6","5","Q.jpg","M.jpg","1","0","0","",""
"","feedback","","html-keyboard-response","339","465940","0.0-1.0-465.0-0.0","0","0","88515","","null","","","null","51","","","","","","","","","","","","","","","",""
"","time_out","","html-keyboard-response","340","467944","0.0-1.0-467.0-0.0","0","0","88515","","null","","","null","51","","","","","","","","","","","","","","","",""
"","ITI","","html-keyboard-response","341","468953","0.0-1.0-468.0","0","0","88515","","null","","","null","51","","","","","","","","","","","","","","","NaN",""
"","S1","","html-keyboard-response","342","469115","0.0-1.0-470.0","0","0","88515","","null","","","null","52","","","","","","","","","","","","","","","",""
"","ISI","","html-keyboard-response","343","471123","0.0-1.0-471.0","0","0","88515","","null","","","null","52","NaN","","","","","","","","","","","","","","",""
"","S2","","html-keyboard-response","344","471281","0.0-1.0-472.0","0","0","88515","","null","","","null","52","","NaN","","","","","","","","","","","","","",""
"","response","","html-keyboard-response","345","471906","0.0-1.0-473.0-0.0","0","0","88515","","624","","","68","52","","","2","52","training","adjacent","AB","1","2","O.jpg","P.jpg","0","1","0","",""
"","feedback","","html-keyboard-response","346","472912","0.0-1.0-474.0-0.0","0","0","88515","","null","","","null","52","","","","","","","","","","","","","","","",""
"","time_out","","html-keyboard-response","347","474921","0.0-1.0-476.0-0.0","0","0","88515","","null","","","null","52","","","","","","","","","","","","","","","",""
"","ITI","","html-keyboard-response","348","475931","0.0-1.0-477.0","0","0","88515","","null","","","null","52","","","","","","","","","","","","","","","NaN",""
"","S1","","html-keyboard-response","349","476092","0.0-1.0-479.0","0","0","88515","","null","","","null","53","","","","","","","","","","","","","","","",""
"","ISI","","html-keyboard-response","350","478097","0.0-1.0-480.0","0","0","88515","","null","","","null","53","NaN","","","","","","","","","","","","","","",""
"","S2","","html-keyboard-response","351","478258","0.0-1.0-481.0","0","0","88515","","null","","","null","53","","NaN","","","","","","","","","","","","","",""
"","response","","html-keyboard-response","352","478573","0.0-1.0-482.0-0.0","0","0","88515","","313","","","75","53","","","2","53","training","adjacent","FG","6","7","Q.jpg","R.jpg","1","1","1","",""
"","feedback","","html-keyboard-response","353","479577","0.0-1.0-483.0-0.0","0","0","88515","","null","","","null","53","","","","","","","","","","","","","","","",""
"","ITI","","html-keyboard-response","354","480593","0.0-1.0-486.0","0","0","88515","","null","","","null","53","","","","","","","","","","","","","","","NaN",""
"","S1","","html-keyboard-response","355","480752","0.0-1.0-488.0","0","0","88515","","null","","","null","54","","","","","","","","","","","","","","","",""
"","ISI","","html-keyboard-response","356","482761","0.0-1.0-489.0","0","0","88515","","null","","","null","54","NaN","","","","","","","","","","","","","","",""
"","S2","","html-keyboard-response","357","482920","0.0-1.0-490.0","0","0","88515","","null","","","null","54","","NaN","","","","","","","","","","","","","",""
"","response","","html-keyboard-response","358","483398","0.0-1.0-491.0-0.0","0","0","88515","","476","","","75","54","","","2","54","training","adjacent","FE","6","5","Q.jpg","M.jpg","1","0","0","",""
"","feedback","","html-keyboard-response","359","484411","0.0-1.0-492.0-0.0","0","0","88515","","null","","","null","54","","","","","","","","","","","","","","","",""
"","time_out","","html-keyboard-response","360","486420","0.0-1.0-494.0-0.0","0","0","88515","","null","","","null","54","","","","","","","","","","","","","","","",""
"","ITI","","html-keyboard-response","361","487425","0.0-1.0-495.0","0","0","88515","","null","","","null","54","","","","","","","","","","","","","","","NaN",""
"","S1","","html-keyboard-response","362","487588","0.0-1.0-497.0","0","0","88515","","null","","","null","55","","","","","","","","","","","","","","","",""
"","ISI","","html-keyboard-response","363","489597","0.0-1.0-498.0","0","0","88515","","null","","","null","55","NaN","","","","","","","","","","","","","","",""
"","S2","","html-keyboard-response","364","489752","0.0-1.0-499.0","0","0","88515","","null","","","null","55","","NaN","","","","","","","","","","","","","",""
"","response","","html-keyboard-response","365","490744","0.0-1.0-500.0-0.0","0","0","88515","","990","","","75","55","","","2","55","training","adjacent","AB","1","2","O.jpg","P.jpg","1","1","1","",""
"","feedback","","html-keyboard-response","366","491754","0.0-1.0-501.0-0.0","0","0","88515","","null","","","null","55","","","","","","","","","","","","","","","",""
"","ITI","","html-keyboard-response","367","492761","0.0-1.0-504.0","0","0","88515","","null","","","null","55","","","","","","","","","","","","","","","NaN",""
"","S1","","html-keyboard-response","368","492923","0.0-1.0-506.0","0","0","88515","","null","","","null","56","","","","","","","","","","","","","","","",""
"","ISI","","html-keyboard-response","369","494932","0.0-1.0-507.0","0","0","88515","","null","","","null","56","NaN","","","","","","","","","","","","","","",""
"","S2","","html-keyboard-response","370","495093","0.0-1.0-508.0","0","0","88515","","null","","","null","56","","NaN","","","","","","","","","","","","","",""
"","response","","html-keyboard-response","371","495838","0.0-1.0-509.0-0.0","0","0","88515","","743","","","75","56","","","2","56","training","adjacent","BA","2","1","P.jpg","O.jpg","1","0","0","",""
"","feedback","","html-keyboard-response","372","496841","0.0-1.0-510.0-0.0","0","0","88515","","null","","","null","56","","","","","","","","","","","","","","","",""
"","time_out","","html-keyboard-response","373","498850","0.0-1.0-512.0-0.0","0","0","88515","","null","","","null","56","","","","","","","","","","","","","","","",""
"","ITI","","html-keyboard-response","374","499860","0.0-1.0-513.0","0","0","88515","","null","","","null","56","","","","","","","","","","","","","","","NaN",""
"","S1","","html-keyboard-response","375","500017","0.0-1.0-515.0","0","0","88515","","null","","","null","57","","","","","","","","","","","","","","","",""
"","ISI","","html-keyboard-response","376","502025","0.0-1.0-516.0","0","0","88515","","null","","","null","57","NaN","","","","","","","","","","","","","","",""
"","S2","","html-keyboard-response","377","502194","0.0-1.0-517.0","0","0","88515","","null","","","null","57","","NaN","","","","","","","","","","","","","",""
"","response","","html-keyboard-response","378","502862","0.0-1.0-518.0-0.0","0","0","88515","","667","","","68","57","","","2","57","training","adjacent","BC","2","3","P.jpg","N.jpg","0","1","0","",""
"","feedback","","html-keyboard-response","379","503866","0.0-1.0-519.0-0.0","0","0","88515","","null","","","null","57","","","","","","","","","","","","","","","",""
"","time_out","","html-keyboard-response","380","505874","0.0-1.0-521.0-0.0","0","0","88515","","null","","","null","57","","","","","","","","","","","","","","","",""
"","ITI","","html-keyboard-response","381","506884","0.0-1.0-522.0","0","0","88515","","null","","","null","57","","","","","","","","","","","","","","","NaN",""
"","S1","","html-keyboard-response","382","507041","0.0-1.0-524.0","0","0","88515","","null","","","null","58","","","","","","","","","","","","","","","",""
"","ISI","","html-keyboard-response","383","509050","0.0-1.0-525.0","0","0","88515","","null","","","null","58","NaN","","","","","","","","","","","","","","",""
"","S2","","html-keyboard-response","384","509212","0.0-1.0-526.0","0","0","88515","","null","","","null","58","","NaN","","","","","","","","","","","","","",""
"","response","","html-keyboard-response","385","509735","0.0-1.0-527.0-0.0","0","0","88515","","522","","","75","58","","","2","58","training","adjacent","ED","5","4","M.jpg","L.jpg","1","0","0","",""
"","feedback","","html-keyboard-response","386","510740","0.0-1.0-528.0-0.0","0","0","88515","","null","","","null","58","","","","","","","","","","","","","","","",""
"","time_out","","html-keyboard-response","387","512747","0.0-1.0-530.0-0.0","0","0","88515","","null","","","null","58","","","","","","","","","","","","","","","",""
"","ITI","","html-keyboard-response","388","513754","0.0-1.0-531.0","0","0","88515","","null","","","null","58","","","","","","","","","","","","","","","NaN",""
"","S1","","html-keyboard-response","389","513917","0.0-1.0-533.0","0","0","88515","","null","","","null","59","","","","","","","","","","","","","","","",""
"","ISI","","html-keyboard-response","390","515923","0.0-1.0-534.0","0","0","88515","","null","","","null","59","NaN","","","","","","","","","","","","","","",""
"","S2","","html-keyboard-response","391","516085","0.0-1.0-535.0","0","0","88515","","null","","","null","59","","NaN","","","","","","","","","","","","","",""
"","response","","html-keyboard-response","392","516511","0.0-1.0-536.0-0.0","0","0","88515","","425","","","75","59","","","2","59","training","adjacent","DC","4","3","L.jpg","N.jpg","1","0","0","",""
"","feedback","","html-keyboard-response","393","517513","0.0-1.0-537.0-0.0","0","0","88515","","null","","","null","59","","","","","","","","","","","","","","","",""
"","time_out","","html-keyboard-response","394","519522","0.0-1.0-539.0-0.0","0","0","88515","","null","","","null","59","","","","","","","","","","","","","","","",""
"","ITI","","html-keyboard-response","395","520532","0.0-1.0-540.0","0","0","88515","","null","","","null","59","","","","","","","","","","","","","","","NaN",""
"","S1","","html-keyboard-response","396","520690","0.0-1.0-542.0","0","0","88515","","null","","","null","60","","","","","","","","","","","","","","","",""
"","ISI","","html-keyboard-response","397","522698","0.0-1.0-543.0","0","0","88515","","null","","","null","60","NaN","","","","","","","","","","","","","","",""
"","S2","","html-keyboard-response","398","522860","0.0-1.0-544.0","0","0","88515","","null","","","null","60","","NaN","","","","","","","","","","","","","",""
"","response","","html-keyboard-response","399","524054","0.0-1.0-545.0-0.0","0","0","88515","","1192","","","68","60","","","2","60","training","adjacent","CD","3","4","N.jpg","L.jpg","0","1","0","",""
"","feedback","","html-keyboard-response","400","525060","0.0-1.0-546.0-0.0","0","0","88515","","null","","","null","60","","","","","","","","","","","","","","","",""
"","time_out","","html-keyboard-response","401","527069","0.0-1.0-548.0-0.0","0","0","88515","","null","","","null","60","","","","","","","","","","","","","","","",""
"","ITI","","html-keyboard-response","402","528074","0.0-1.0-549.0","0","0","88515","","null","","","null","60","","","","","","","","","","","","","","","NaN",""
"","S1","","html-keyboard-response","403","528235","0.0-1.0-551.0","0","0","88515","","null","","","null","61","","","","","","","","","","","","","","","",""
"","ISI","","html-keyboard-response","404","530244","0.0-1.0-552.0","0","0","88515","","null","","","null","61","NaN","","","","","","","","","","","","","","",""
"","S2","","html-keyboard-response","405","530402","0.0-1.0-553.0","0","0","88515","","null","","","null","61","","NaN","","","","","","","","","","","","","",""
"","response","","html-keyboard-response","406","531261","0.0-1.0-554.0-0.0","0","0","88515","","857","","","68","61","","","2","61","training","adjacent","ED","5","4","M.jpg","L.jpg","0","0","1","",""
"","feedback","","html-keyboard-response","407","532266","0.0-1.0-555.0-0.0","0","0","88515","","null","","","null","61","","","","","","","","","","","","","","","",""
"","ITI","","html-keyboard-response","408","533269","0.0-1.0-558.0","0","0","88515","","null","","","null","61","","","","","","","","","","","","","","","NaN",""
"","S1","","html-keyboard-response","409","533426","0.0-1.0-560.0","0","0","88515","","null","","","null","62","","","","","","","","","","","","","","","",""
"","ISI","","html-keyboard-response","410","535434","0.0-1.0-561.0","0","0","88515","","null","","","null","62","NaN","","","","","","","","","","","","","","",""
"","S2","","html-keyboard-response","411","535596","0.0-1.0-562.0","0","0","88515","","null","","","null","62","","NaN","","","","","","","","","","","","","",""
"","response","","html-keyboard-response","412","536940","0.0-1.0-563.0-0.0","0","0","88515","","1343","","","75","62","","","2","62","training","adjacent","FG","6","7","Q.jpg","R.jpg","1","1","1","",""
"","feedback","","html-keyboard-response","413","537948","0.0-1.0-564.0-0.0","0","0","88515","","null","","","null","62","","","","","","","","","","","","","","","",""
"","ITI","","html-keyboard-response","414","538958","0.0-1.0-567.0","0","0","88515","","null","","","null","62","","","","","","","","","","","","","","","NaN",""
"","S1","","html-keyboard-response","415","539115","0.0-1.0-569.0","0","0","88515","","null","","","null","63","","","","","","","","","","","","","","","",""
"","ISI","","html-keyboard-response","416","541123","0.0-1.0-570.0","0","0","88515","","null","","","null","63","NaN","","","","","","","","","","","","","","",""
"","S2","","html-keyboard-response","417","541285","0.0-1.0-571.0","0","0","88515","","null","","","null","63","","NaN","","","","","","","","","","","","","",""
"","response","","html-keyboard-response","418","542144","0.0-1.0-572.0-0.0","0","0","88515","","857","","","68","63","","","2","63","training","adjacent","GF","7","6","R.jpg","Q.jpg","0","0","1","",""
"","feedback","","html-keyboard-response","419","543155","0.0-1.0-573.0-0.0","0","0","88515","","null","","","null","63","","","","","","","","","","","","","","","",""
"","ITI","","html-keyboard-response","420","544164","0.0-1.0-576.0","0","0","88515","","null","","","null","63","","","","","","","","","","","","","","","NaN",""
"","S1","","html-keyboard-response","421","544324","0.0-1.0-578.0","0","0","88515","","null","","","null","64","","","","","","","","","","","","","","","",""
"","ISI","","html-keyboard-response","422","546330","0.0-1.0-579.0","0","0","88515","","null","","","null","64","NaN","","","","","","","","","","","","","","",""
"","S2","","html-keyboard-response","423","546482","0.0-1.0-580.0","0","0","88515","","null","","","null","64","","NaN","","","","","","","","","","","","","",""
"","response","","html-keyboard-response","424","547401","0.0-1.0-581.0-0.0","0","0","88515","","916","","","68","64","","","2","64","training","adjacent","DC","4","3","L.jpg","N.jpg","0","0","1","",""
"","feedback","","html-keyboard-response","425","548413","0.0-1.0-582.0-0.0","0","0","88515","","null","","","null","64","","","","","","","","","","","","","","","",""
"","ITI","","html-keyboard-response","426","549418","0.0-1.0-585.0","0","0","88515","","null","","","null","64","","","","","","","","","","","","","","","NaN",""
"","S1","","html-keyboard-response","427","549582","0.0-1.0-587.0","0","0","88515","","null","","","null","65","","","","","","","","","","","","","","","",""
"","ISI","","html-keyboard-response","428","551591","0.0-1.0-588.0","0","0","88515","","null","","","null","65","NaN","","","","","","","","","","","","","","",""
"","S2","","html-keyboard-response","429","551746","0.0-1.0-589.0","0","0","88515","","null","","","null","65","","NaN","","","","","","","","","","","","","",""
"","response","","html-keyboard-response","430","552600","0.0-1.0-590.0-0.0","0","0","88515","","852","","","68","65","","","2","65","training","adjacent","EF","5","6","M.jpg","Q.jpg","0","1","0","",""
"","feedback","","html-keyboard-response","431","553611","0.0-1.0-591.0-0.0","0","0","88515","","null","","","null","65","","","","","","","","","","","","","","","",""
"","time_out","","html-keyboard-response","432","555619","0.0-1.0-593.0-0.0","0","0","88515","","null","","","null","65","","","","","","","","","","","","","","","",""
"","ITI","","html-keyboard-response","433","556628","0.0-1.0-594.0","0","0","88515","","null","","","null","65","","","","","","","","","","","","","","","NaN",""
"","S1","","html-keyboard-response","434","556793","0.0-1.0-596.0","0","0","88515","","null","","","null","66","","","","","","","","","","","","","","","",""
"","ISI","","html-keyboard-response","435","558805","0.0-1.0-597.0","0","0","88515","","null","","","null","66","NaN","","","","","","","","","","","","","","",""
"","S2","","html-keyboard-response","436","558965","0.0-1.0-598.0","0","0","88515","","null","","","null","66","","NaN","","","","","","","","","","","","","",""
"","response","","html-keyboard-response","437","559554","0.0-1.0-599.0-0.0","0","0","88515","","584","","","75","66","","","2","66","training","adjacent","DE","4","5","L.jpg","M.jpg","1","1","1","",""
"","feedback","","html-keyboard-response","438","560564","0.0-1.0-600.0-0.0","0","0","88515","","null","","","null","66","","","","","","","","","","","","","","","",""
"","ITI","","html-keyboard-response","439","561575","0.0-1.0-603.0","0","0","88515","","null","","","null","66","","","","","","","","","","","","","","","NaN",""
"","S1","","html-keyboard-response","440","561731","0.0-1.0-605.0","0","0","88515","","null","","","null","67","","","","","","","","","","","","","","","",""
"","ISI","","html-keyboard-response","441","563740","0.0-1.0-606.0","0","0","88515","","null","","","null","67","NaN","","","","","","","","","","","","","","",""
"","S2","","html-keyboard-response","442","563903","0.0-1.0-607.0","0","0","88515","","null","","","null","67","","NaN","","","","","","","","","","","","","",""
"","response","","html-keyboard-response","443","564562","0.0-1.0-608.0-0.0","0","0","88515","","658","","","68","67","","","2","67","training","adjacent","BC","2","3","P.jpg","N.jpg","0","1","0","",""
"","feedback","","html-keyboard-response","444","565574","0.0-1.0-609.0-0.0","0","0","88515","","null","","","null","67","","","","","","","","","","","","","","","",""
"","time_out","","html-keyboard-response","445","567585","0.0-1.0-611.0-0.0","0","0","88515","","null","","","null","67","","","","","","","","","","","","","","","",""
"","ITI","","html-keyboard-response","446","568598","0.0-1.0-612.0","0","0","88515","","null","","","null","67","","","","","","","","","","","","","","","NaN",""
"","S1","","html-keyboard-response","447","568755","0.0-1.0-614.0","0","0","88515","","null","","","null","68","","","","","","","","","","","","","","","",""
"","ISI","","html-keyboard-response","448","570764","0.0-1.0-615.0","0","0","88515","","null","","","null","68","NaN","","","","","","","","","","","","","","",""
"","S2","","html-keyboard-response","449","570926","0.0-1.0-616.0","0","0","88515","","null","","","null","68","","NaN","","","","","","","","","","","","","",""
"","response","","html-keyboard-response","450","571441","0.0-1.0-617.0-0.0","0","0","88515","","514","","","75","68","","","2","68","training","adjacent","ED","5","4","M.jpg","L.jpg","1","0","0","",""
"","feedback","","html-keyboard-response","451","572454","0.0-1.0-618.0-0.0","0","0","88515","","null","","","null","68","","","","","","","","","","","","","","","",""
"","time_out","","html-keyboard-response","452","574462","0.0-1.0-620.0-0.0","0","0","88515","","null","","","null","68","","","","","","","","","","","","","","","",""
"","ITI","","html-keyboard-response","453","575467","0.0-1.0-621.0","0","0","88515","","null","","","null","68","","","","","","","","","","","","","","","NaN",""
"","S1","","html-keyboard-response","454","575629","0.0-1.0-623.0","0","0","88515","","null","","","null","69","","","","","","","","","","","","","","","",""
"","ISI","","html-keyboard-response","455","577637","0.0-1.0-624.0","0","0","88515","","null","","","null","69","NaN","","","","","","","","","","","","","","",""
"","S2","","html-keyboard-response","456","577797","0.0-1.0-625.0","0","0","88515","","null","","","null","69","","NaN","","","","","","","","","","","","","",""
"","response","","html-keyboard-response","457","578734","0.0-1.0-626.0-0.0","0","0","88515","","935","","","68","69","","","2","69","training","adjacent","DE","4","5","L.jpg","M.jpg","0","1","0","",""
"","feedback","","html-keyboard-response","458","579740","0.0-1.0-627.0-0.0","0","0","88515","","null","","","null","69","","","","","","","","","","","","","","","",""
"","time_out","","html-keyboard-response","459","581748","0.0-1.0-629.0-0.0","0","0","88515","","null","","","null","69","","","","","","","","","","","","","","","",""
"","ITI","","html-keyboard-response","460","582756","0.0-1.0-630.0","0","0","88515","","null","","","null","69","","","","","","","","","","","","","","","NaN",""
"","S1","","html-keyboard-response","461","582916","0.0-1.0-632.0","0","0","88515","","null","","","null","70","","","","","","","","","","","","","","","",""
"","ISI","","html-keyboard-response","462","584925","0.0-1.0-633.0","0","0","88515","","null","","","null","70","NaN","","","","","","","","","","","","","","",""
"","S2","","html-keyboard-response","463","585085","0.0-1.0-634.0","0","0","88515","","null","","","null","70","","NaN","","","","","","","","","","","","","",""
"","response","","html-keyboard-response","464","586101","0.0-1.0-635.0-0.0","0","0","88515","","1014","","","75","70","","","2","70","training","adjacent","FG","6","7","Q.jpg","R.jpg","1","1","1","",""
"","feedback","","html-keyboard-response","465","587110","0.0-1.0-636.0-0.0","0","0","88515","","null","","","null","70","","","","","","","","","","","","","","","",""
"","ITI","","html-keyboard-response","466","588116","0.0-1.0-639.0","0","0","88515","","null","","","null","70","","","","","","","","","","","","","","","NaN",""
"","S1","","html-keyboard-response","467","588278","0.0-1.0-641.0","0","0","88515","","null","","","null","71","","","","","","","","","","","","","","","",""
"","ISI","","html-keyboard-response","468","590287","0.0-1.0-642.0","0","0","88515","","null","","","null","71","NaN","","","","","","","","","","","","","","",""
"","S2","","html-keyboard-response","469","590444","0.0-1.0-643.0","0","0","88515","","null","","","null","71","","NaN","","","","","","","","","","","","","",""
"","response","","html-keyboard-response","470","591234","0.0-1.0-644.0-0.0","0","0","88515","","788","","","68","71","","","2","71","training","adjacent","GF","7","6","R.jpg","Q.jpg","0","0","1","",""
"","feedback","","html-keyboard-response","471","592243","0.0-1.0-645.0-0.0","0","0","88515","","null","","","null","71","","","","","","","","","","","","","","","",""
"","ITI","","html-keyboard-response","472","593247","0.0-1.0-648.0","0","0","88515","","null","","","null","71","","","","","","","","","","","","","","","NaN",""
"","S1","","html-keyboard-response","473","593408","0.0-1.0-650.0","0","0","88515","","null","","","null","72","","","","","","","","","","","","","","","",""
"","ISI","","html-keyboard-response","474","595413","0.0-1.0-651.0","0","0","88515","","null","","","null","72","NaN","","","","","","","","","","","","","","",""
"","S2","","html-keyboard-response","475","595575","0.0-1.0-652.0","0","0","88515","","null","","","null","72","","NaN","","","","","","","","","","","","","",""
"","response","","html-keyboard-response","476","595897","0.0-1.0-653.0-0.0","0","0","88515","","320","","","75","72","","","2","72","training","adjacent","GF","7","6","R.jpg","Q.jpg","1","0","0","",""
"","feedback","","html-keyboard-response","477","596900","0.0-1.0-654.0-0.0","0","0","88515","","null","","","null","72","","","","","","","","","","","","","","","",""
"","time_out","","html-keyboard-response","478","598908","0.0-1.0-656.0-0.0","0","0","88515","","null","","","null","72","","","","","","","","","","","","","","","",""
"","ITI","","html-keyboard-response","479","599917","0.0-1.0-657.0","0","0","88515","","null","","","null","72","","","","","","","","","","","","","","","NaN",""
"","S1","","html-keyboard-response","480","600076","0.0-1.0-659.0","0","0","88515","","null","","","null","73","","","","","","","","","","","","","","","",""
"","ISI","","html-keyboard-response","481","602085","0.0-1.0-660.0","0","0","88515","","null","","","null","73","NaN","","","","","","","","","","","","","","",""
"","S2","","html-keyboard-response","482","602245","0.0-1.0-661.0","0","0","88515","","null","","","null","73","","NaN","","","","","","","","","","","","","",""
"","response","","html-keyboard-response","483","603235","0.0-1.0-662.0-0.0","0","0","88515","","988","","","68","73","","","2","73","training","adjacent","CD","3","4","N.jpg","L.jpg","0","1","0","",""
"","feedback","","html-keyboard-response","484","604248","0.0-1.0-663.0-0.0","0","0","88515","","null","","","null","73","","","","","","","","","","","","","","","",""
"","time_out","","html-keyboard-response","485","606253","0.0-1.0-665.0-0.0","0","0","88515","","null","","","null","73","","","","","","","","","","","","","","","",""
"","ITI","","html-keyboard-response","486","607261","0.0-1.0-666.0","0","0","88515","","null","","","null","73","","","","","","","","","","","","","","","NaN",""
"","S1","","html-keyboard-response","487","607424","0.0-1.0-668.0","0","0","88515","","null","","","null","74","","","","","","","","","","","","","","","",""
"","ISI","","html-keyboard-response","488","609431","0.0-1.0-669.0","0","0","88515","","null","","","null","74","NaN","","","","","","","","","","","","","","",""
"","S2","","html-keyboard-response","489","609596","0.0-1.0-670.0","0","0","88515","","null","","","null","74","","NaN","","","","","","","","","","","","","",""
"","response","","html-keyboard-response","490","610048","0.0-1.0-671.0-0.0","0","0","88515","","451","","","75","74","","","2","74","training","adjacent","DC","4","3","L.jpg","N.jpg","1","0","0","",""
"","feedback","","html-keyboard-response","491","611053","0.0-1.0-672.0-0.0","0","0","88515","","null","","","null","74","","","","","","","","","","","","","","","",""
"","time_out","","html-keyboard-response","492","613060","0.0-1.0-674.0-0.0","0","0","88515","","null","","","null","74","","","","","","","","","","","","","","","",""
"","ITI","","html-keyboard-response","493","614071","0.0-1.0-675.0","0","0","88515","","null","","","null","74","","","","","","","","","","","","","","","NaN",""
"","S1","","html-keyboard-response","494","614231","0.0-1.0-677.0","0","0","88515","","null","","","null","75","","","","","","","","","","","","","","","",""
"","ISI","","html-keyboard-response","495","616236","0.0-1.0-678.0","0","0","88515","","null","","","null","75","NaN","","","","","","","","","","","","","","",""
"","S2","","html-keyboard-response","496","616398","0.0-1.0-679.0","0","0","88515","","null","","","null","75","","NaN","","","","","","","","","","","","","",""
"","response","","html-keyboard-response","497","617219","0.0-1.0-680.0-0.0","0","0","88515","","819","","","75","75","","","2","75","training","adjacent","CB","3","2","N.jpg","P.jpg","1","0","0","",""
"","feedback","","html-keyboard-response","498","618229","0.0-1.0-681.0-0.0","0","0","88515","","null","","","null","75","","","","","","","","","","","","","","","",""
"","time_out","","html-keyboard-response","499","620239","0.0-1.0-683.0-0.0","0","0","88515","","null","","","null","75","","","","","","","","","","","","","","","",""
"","ITI","","html-keyboard-response","500","621246","0.0-1.0-684.0","0","0","88515","","null","","","null","75","","","","","","","","","","","","","","","NaN",""
"","S1","","html-keyboard-response","501","621408","0.0-1.0-686.0","0","0","88515","","null","","","null","76","","","","","","","","","","","","","","","",""
"","ISI","","html-keyboard-response","502","623417","0.0-1.0-687.0","0","0","88515","","null","","","null","76","NaN","","","","","","","","","","","","","","",""
"","S2","","html-keyboard-response","503","623574","0.0-1.0-688.0","0","0","88515","","null","","","null","76","","NaN","","","","","","","","","","","","","",""
"","response","","html-keyboard-response","504","624448","0.0-1.0-689.0-0.0","0","0","88515","","873","","","68","76","","","2","76","training","adjacent","CB","3","2","N.jpg","P.jpg","0","0","1","",""
"","feedback","","html-keyboard-response","505","625455","0.0-1.0-690.0-0.0","0","0","88515","","null","","","null","76","","","","","","","","","","","","","","","",""
"","ITI","","html-keyboard-response","506","626463","0.0-1.0-693.0","0","0","88515","","null","","","null","76","","","","","","","","","","","","","","","NaN",""
"","S1","","html-keyboard-response","507","626621","0.0-1.0-695.0","0","0","88515","","null","","","null","77","","","","","","","","","","","","","","","",""
"","ISI","","html-keyboard-response","508","628630","0.0-1.0-696.0","0","0","88515","","null","","","null","77","NaN","","","","","","","","","","","","","","",""
"","S2","","html-keyboard-response","509","628795","0.0-1.0-697.0","0","0","88515","","null","","","null","77","","NaN","","","","","","","","","","","","","",""
"","response","","html-keyboard-response","510","630202","0.0-1.0-698.0-0.0","0","0","88515","","1404","","","75","77","","","2","77","training","adjacent","CB","3","2","N.jpg","P.jpg","1","0","0","",""
"","feedback","","html-keyboard-response","511","631209","0.0-1.0-699.0-0.0","0","0","88515","","null","","","null","77","","","","","","","","","","","","","","","",""
"","time_out","","html-keyboard-response","512","633216","0.0-1.0-701.0-0.0","0","0","88515","","null","","","null","77","","","","","","","","","","","","","","","",""
"","ITI","","html-keyboard-response","513","634221","0.0-1.0-702.0","0","0","88515","","null","","","null","77","","","","","","","","","","","","","","","NaN",""
"","S1","","html-keyboard-response","514","634383","0.0-1.0-704.0","0","0","88515","","null","","","null","78","","","","","","","","","","","","","","","",""
"","ISI","","html-keyboard-response","515","636394","0.0-1.0-705.0","0","0","88515","","null","","","null","78","NaN","","","","","","","","","","","","","","",""
"","S2","","html-keyboard-response","516","636554","0.0-1.0-706.0","0","0","88515","","null","","","null","78","","NaN","","","","","","","","","","","","","",""
"","response","","html-keyboard-response","517","637092","0.0-1.0-707.0-0.0","0","0","88515","","535","","","68","78","","","2","78","training","adjacent","AB","1","2","O.jpg","P.jpg","0","1","0","",""
"","feedback","","html-keyboard-response","518","638104","0.0-1.0-708.0-0.0","0","0","88515","","null","","","null","78","","","","","","","","","","","","","","","",""
"","time_out","","html-keyboard-response","519","640114","0.0-1.0-710.0-0.0","0","0","88515","","null","","","null","78","","","","","","","","","","","","","","","",""
"","ITI","","html-keyboard-response","520","641117","0.0-1.0-711.0","0","0","88515","","null","","","null","78","","","","","","","","","","","","","","","NaN",""
"","S1","","html-keyboard-response","521","641270","0.0-1.0-713.0","0","0","88515","","null","","","null","79","","","","","","","","","","","","","","","",""
"","ISI","","html-keyboard-response","522","643278","0.0-1.0-714.0","0","0","88515","","null","","","null","79","NaN","","","","","","","","","","","","","","",""
"","S2","","html-keyboard-response","523","643439","0.0-1.0-715.0","0","0","88515","","null","","","null","79","","NaN","","","","","","","","","","","","","",""
"","response","","html-keyboard-response","524","644220","0.0-1.0-716.0-0.0","0","0","88515","","780","","","75","79","","","2","79","training","adjacent","EF","5","6","M.jpg","Q.jpg","1","1","1","",""
"","feedback","","html-keyboard-response","525","645233","0.0-1.0-717.0-0.0","0","0","88515","","null","","","null","79","","","","","","","","","","","","","","","",""
"","ITI","","html-keyboard-response","526","646237","0.0-1.0-720.0","0","0","88515","","null","","","null","79","","","","","","","","","","","","","","","NaN",""
"","S1","","html-keyboard-response","527","646397","0.0-1.0-722.0","0","0","88515","","null","","","null","80","","","","","","","","","","","","","","","",""
"","ISI","","html-keyboard-response","528","648408","0.0-1.0-723.0","0","0","88515","","null","","","null","80","NaN","","","","","","","","","","","","","","",""
"","S2","","html-keyboard-response","529","648569","0.0-1.0-724.0","0","0","88515","","null","","","null","80","","NaN","","","","","","","","","","","","","",""
"","response","","html-keyboard-response","530","649458","0.0-1.0-725.0-0.0","0","0","88515","","888","","","68","80","","","2","80","training","adjacent","GF","7","6","R.jpg","Q.jpg","0","0","1","",""
"","feedback","","html-keyboard-response","531","650463","0.0-1.0-726.0-0.0","0","0","88515","","null","","","null","80","","","","","","","","","","","","","","","",""
"","ITI","","html-keyboard-response","532","651472","0.0-1.0-729.0","0","0","88515","","null","","","null","80","","","","","","","","","","","","","","","NaN",""
"","S1","","html-keyboard-response","533","651630","0.0-1.0-731.0","0","0","88515","","null","","","null","81","","","","","","","","","","","","","","","",""
"","ISI","","html-keyboard-response","534","653639","0.0-1.0-732.0","0","0","88515","","null","","","null","81","NaN","","","","","","","","","","","","","","",""
"","S2","","html-keyboard-response","535","653801","0.0-1.0-733.0","0","0","88515","","null","","","null","81","","NaN","","","","","","","","","","","","","",""
"","response","","html-keyboard-response","536","654805","0.0-1.0-734.0-0.0","0","0","88515","","1001","","","75","81","","","2","81","training","adjacent","FG","6","7","Q.jpg","R.jpg","1","1","1","",""
"","feedback","","html-keyboard-response","537","655816","0.0-1.0-735.0-0.0","0","0","88515","","null","","","null","81","","","","","","","","","","","","","","","",""
"","ITI","","html-keyboard-response","538","656825","0.0-1.0-738.0","0","0","88515","","null","","","null","81","","","","","","","","","","","","","","","NaN",""
"","S1","","html-keyboard-response","539","656982","0.0-1.0-740.0","0","0","88515","","null","","","null","82","","","","","","","","","","","","","","","",""
"","ISI","","html-keyboard-response","540","659000","0.0-1.0-741.0","0","0","88515","","null","","","null","82","NaN","","","","","","","","","","","","","","",""
"","S2","","html-keyboard-response","541","659159","0.0-1.0-742.0","0","0","88515","","null","","","null","82","","NaN","","","","","","","","","","","","","",""
"","response","","html-keyboard-response","542","660025","0.0-1.0-743.0-0.0","0","0","88515","","864","","","68","82","","","2","82","training","adjacent","CB","3","2","N.jpg","P.jpg","0","0","1","",""
"","feedback","","html-keyboard-response","543","661030","0.0-1.0-744.0-0.0","0","0","88515","","null","","","null","82","","","","","","","","","","","","","","","",""
"","ITI","","html-keyboard-response","544","662033","0.0-1.0-747.0","0","0","88515","","null","","","null","82","","","","","","","","","","","","","","","NaN",""
"","S1","","html-keyboard-response","545","662194","0.0-1.0-749.0","0","0","88515","","null","","","null","83","","","","","","","","","","","","","","","",""
"","ISI","","html-keyboard-response","546","664199","0.0-1.0-750.0","0","0","88515","","null","","","null","83","NaN","","","","","","","","","","","","","","",""
"","S2","","html-keyboard-response","547","664361","0.0-1.0-751.0","0","0","88515","","null","","","null","83","","NaN","","","","","","","","","","","","","",""
"","response","","html-keyboard-response","548","665339","0.0-1.0-752.0-0.0","0","0","88515","","976","","","75","83","","","2","83","training","adjacent","DE","4","5","L.jpg","M.jpg","1","1","1","",""
"","feedback","","html-keyboard-response","549","666345","0.0-1.0-753.0-0.0","0","0","88515","","null","","","null","83","","","","","","","","","","","","","","","",""
"","ITI","","html-keyboard-response","550","667350","0.0-1.0-756.0","0","0","88515","","null","","","null","83","","","","","","","","","","","","","","","NaN",""
"","S1","","html-keyboard-response","551","667513","0.0-1.0-758.0","0","0","88515","","null","","","null","84","","","","","","","","","","","","","","","",""
"","ISI","","html-keyboard-response","552","669522","0.0-1.0-759.0","0","0","88515","","null","","","null","84","NaN","","","","","","","","","","","","","","",""
"","S2","","html-keyboard-response","553","669678","0.0-1.0-760.0","0","0","88515","","null","","","null","84","","NaN","","","","","","","","","","","","","",""
"","response","","html-keyboard-response","554","670448","0.0-1.0-761.0-0.0","0","0","88515","","768","","","75","84","","","2","84","training","adjacent","EF","5","6","M.jpg","Q.jpg","1","1","1","",""
"","feedback","","html-keyboard-response","555","671455","0.0-1.0-762.0-0.0","0","0","88515","","null","","","null","84","","","","","","","","","","","","","","","",""
"","ITI","","html-keyboard-response","556","672465","0.0-1.0-765.0","0","0","88515","","null","","","null","84","","","","","","","","","","","","","","","NaN",""
"","S1","","html-keyboard-response","557","672622","0.0-1.0-767.0","0","0","88515","","null","","","null","85","","","","","","","","","","","","","","","",""
"","ISI","","html-keyboard-response","558","674630","0.0-1.0-768.0","0","0","88515","","null","","","null","85","NaN","","","","","","","","","","","","","","",""
"","S2","","html-keyboard-response","559","674797","0.0-1.0-769.0","0","0","88515","","null","","","null","85","","NaN","","","","","","","","","","","","","",""
"","response","","html-keyboard-response","560","675581","0.0-1.0-770.0-0.0","0","0","88515","","779","","","68","85","","","2","85","training","adjacent","FE","6","5","Q.jpg","M.jpg","0","0","1","",""
"","feedback","","html-keyboard-response","561","676594","0.0-1.0-771.0-0.0","0","0","88515","","null","","","null","85","","","","","","","","","","","","","","","",""
"","ITI","","html-keyboard-response","562","677602","0.0-1.0-774.0","0","0","88515","","null","","","null","85","","","","","","","","","","","","","","","NaN",""
"","S1","","html-keyboard-response","563","677758","0.0-1.0-776.0","0","0","88515","","null","","","null","86","","","","","","","","","","","","","","","",""
"","ISI","","html-keyboard-response","564","679768","0.0-1.0-777.0","0","0","88515","","null","","","null","86","NaN","","","","","","","","","","","","","","",""
"","S2","","html-keyboard-response","565","679925","0.0-1.0-778.0","0","0","88515","","null","","","null","86","","NaN","","","","","","","","","","","","","",""
"","response","","html-keyboard-response","566","680868","0.0-1.0-779.0-0.0","0","0","88515","","942","","","68","86","","","2","86","training","adjacent","ED","5","4","M.jpg","L.jpg","0","0","1","",""
"","feedback","","html-keyboard-response","567","681881","0.0-1.0-780.0-0.0","0","0","88515","","null","","","null","86","","","","","","","","","","","","","","","",""
"","ITI","","html-keyboard-response","568","682890","0.0-1.0-783.0","0","0","88515","","null","","","null","86","","","","","","","","","","","","","","","NaN",""
"","S1","","html-keyboard-response","569","683048","0.0-1.0-785.0","0","0","88515","","null","","","null","87","","","","","","","","","","","","","","","",""
"","ISI","","html-keyboard-response","570","685056","0.0-1.0-786.0","0","0","88515","","null","","","null","87","NaN","","","","","","","","","","","","","","",""
"","S2","","html-keyboard-response","571","685218","0.0-1.0-787.0","0","0","88515","","null","","","null","87","","NaN","","","","","","","","","","","","","",""
"","response","","html-keyboard-response","572","685781","0.0-1.0-788.0-0.0","0","0","88515","","561","","","75","87","","","2","87","training","adjacent","AB","1","2","O.jpg","P.jpg","1","1","1","",""
"","feedback","","html-keyboard-response","573","686795","0.0-1.0-789.0-0.0","0","0","88515","","null","","","null","87","","","","","","","","","","","","","","","",""
"","ITI","","html-keyboard-response","574","687802","0.0-1.0-792.0","0","0","88515","","null","","","null","87","","","","","","","","","","","","","","","NaN",""
"","S1","","html-keyboard-response","575","687959","0.0-1.0-794.0","0","0","88515","","null","","","null","88","","","","","","","","","","","","","","","",""
"","ISI","","html-keyboard-response","576","689967","0.0-1.0-795.0","0","0","88515","","null","","","null","88","NaN","","","","","","","","","","","","","","",""
"","S2","","html-keyboard-response","577","690130","0.0-1.0-796.0","0","0","88515","","null","","","null","88","","NaN","","","","","","","","","","","","","",""
"","response","","html-keyboard-response","578","690383","0.0-1.0-797.0-0.0","0","0","88515","","251","","","68","88","","","2","88","training","adjacent","BA","2","1","P.jpg","O.jpg","0","0","1","",""
"","feedback","","html-keyboard-response","579","691394","0.0-1.0-798.0-0.0","0","0","88515","","null","","","null","88","","","","","","","","","","","","","","","",""
"","ITI","","html-keyboard-response","580","692400","0.0-1.0-801.0","0","0","88515","","null","","","null","88","","","","","","","","","","","","","","","NaN",""
