"success","ttype","start_time","trial_type","trial_index","time_elapsed","internal_node_id","warning","missed_checkup","PID","view_history","rt","responses","repeat_instructions","key_press","index","keypress_isi","keypress_S2","block","trial_num","phase","group_type","pair_type","S1_stim","S2_stim","S1_img","S2_img","S1_chosen","S1_higher","accuracy","keypress_iti","total_bonus_tally"
"true","full_screen","d04062023hr2033","fullscreen","0","4936","0.0-0.0","0","0","65289","","","","","","","","","","","","","","","","","","","","","",""
"","instructions","","instructions","1","113329","0.0-1.0-0.0-0.0","0","0","65289","[{""page_index"":0,""viewing_time"":6283},{""page_index"":1,""viewing_time"":78661},{""page_index"":2,""viewing_time"":19404},{""page_index"":3,""viewing_time"":4036}]","108387","","","","","","","","","","","","","","","","","","","",""
"","comprehension_check","","survey-multi-choice","2","161542","0.0-1.0-0.0-1.0","0","0","65289","","48203","{""Q0"":""True"",""Q1"":""K"",""Q2"":""Once the second image appears and while the screen 'MAKE A CHOICE' is shown"",""Q3"":""Green mark"",""Q4"":""either D or K""}","0","","","","","","","","","","","","","","","","","",""
"","start_exp","","html-keyboard-response","3","164038","0.0-1.0-1.0","0","0","65289","","2487","","","32","","","","","","","","","","","","","","","","",""
"","S1","","html-keyboard-response","4","164199","0.0-1.0-2.0","0","0","65289","","null","","","null","0","","","","","","","","","","","","","","","",""
"","ISI","","html-keyboard-response","5","166207","0.0-1.0-3.0","0","0","65289","","null","","","null","0","NaN","","","","","","","","","","","","","","",""
"","S2","","html-keyboard-response","6","166367","0.0-1.0-4.0","0","0","65289","","null","","","null","0","","NaN","","","","","","","","","","","","","",""
"","response","","html-keyboard-response","7","167764","0.0-1.0-5.0-0.0","0","0","65289","","1392","","","75","0","","","1","0","training","adjacent","DC","4","3","R.jpg","Q.jpg","1","0","0","",""
"","feedback","","html-keyboard-response","8","168775","0.0-1.0-6.0-0.0","0","0","65289","","null","","","null","0","","","","","","","","","","","","","","","",""
"","time_out","","html-keyboard-response","9","170783","0.0-1.0-8.0-0.0","0","0","65289","","null","","","null","0","","","","","","","","","","","","","","","",""
"","ITI","","html-keyboard-response","10","171792","0.0-1.0-9.0","0","0","65289","","null","","","null","0","","","","","","","","","","","","","","","NaN",""
"","S1","","html-keyboard-response","11","171951","0.0-1.0-11.0","0","0","65289","","null","","","null","1","","","","","","","","","","","","","","","",""
"","ISI","","html-keyboard-response","12","173959","0.0-1.0-12.0","0","0","65289","","null","","","null","1","NaN","","","","","","","","","","","","","","",""
"","S2","","html-keyboard-response","13","174120","0.0-1.0-13.0","0","0","65289","","null","","","null","1","","NaN","","","","","","","","","","","","","",""
"","response","","html-keyboard-response","14","174627","0.0-1.0-14.0-0.0","0","0","65289","","502","","","68","1","","","1","1","training","adjacent","CB","3","2","Q.jpg","O.jpg","0","0","1","",""
"","feedback","","html-keyboard-response","15","175640","0.0-1.0-15.0-0.0","0","0","65289","","null","","","null","1","","","","","","","","","","","","","","","",""
"","ITI","","html-keyboard-response","16","176648","0.0-1.0-18.0","0","0","65289","","null","","","null","1","","","","","","","","","","","","","","","NaN",""
"","S1","","html-keyboard-response","17","176808","0.0-1.0-20.0","0","0","65289","","null","","","null","2","","","","","","","","","","","","","","","",""
"","ISI","","html-keyboard-response","18","178816","0.0-1.0-21.0","0","0","65289","","1766","","","75","2","k","","","","","","","","","","","","","","",""
"","S2","","html-keyboard-response","19","178975","0.0-1.0-22.0","0","0","65289","","null","","","null","2","","NaN","","","","","","","","","","","","","",""
"","response","","html-keyboard-response","20","180055","0.0-1.0-23.0-0.0","0","0","65289","","1075","","","75","2","","","1","2","training","adjacent","EF","5","6","P.jpg","M.jpg","1","1","1","",""
"","feedback","","html-keyboard-response","21","181064","0.0-1.0-24.0-0.0","0","0","65289","","null","","","null","2","","","","","","","","","","","","","","","",""
"","ITI","","html-keyboard-response","22","182071","0.0-1.0-27.0","0","0","65289","","null","","","null","2","","","","","","","","","","","","","","","NaN",""
"","S1","","html-keyboard-response","23","182232","0.0-1.0-29.0","0","0","65289","","null","","","null","3","","","","","","","","","","","","","","","",""
"","ISI","","html-keyboard-response","24","184239","0.0-1.0-30.0","0","0","65289","","null","","","null","3","NaN","","","","","","","","","","","","","","",""
"","S2","","html-keyboard-response","25","184399","0.0-1.0-31.0","0","0","65289","","null","","","null","3","","NaN","","","","","","","","","","","","","",""
"","response","","html-keyboard-response","26","185016","0.0-1.0-32.0-0.0","0","0","65289","","612","","","75","3","","","1","3","training","adjacent","CD","3","4","Q.jpg","R.jpg","1","1","1","",""
"","feedback","","html-keyboard-response","27","186023","0.0-1.0-33.0-0.0","0","0","65289","","null","","","null","3","","","","","","","","","","","","","","","",""
"","ITI","","html-keyboard-response","28","187032","0.0-1.0-36.0","0","0","65289","","null","","","null","3","","","","","","","","","","","","","","","NaN",""
"","S1","","html-keyboard-response","29","187191","0.0-1.0-38.0","0","0","65289","","null","","","null","4","","","","","","","","","","","","","","","",""
"","ISI","","html-keyboard-response","30","189199","0.0-1.0-39.0","0","0","65289","","null","","","null","4","NaN","","","","","","","","","","","","","","",""
"","S2","","html-keyboard-response","31","189359","0.0-1.0-40.0","0","0","65289","","null","","","null","4","","NaN","","","","","","","","","","","","","",""
"","response","","html-keyboard-response","32","189941","0.0-1.0-41.0-0.0","0","0","65289","","577","","","75","4","","","1","4","training","adjacent","CD","3","4","Q.jpg","R.jpg","1","1","1","",""
"","feedback","","html-keyboard-response","33","190951","0.0-1.0-42.0-0.0","0","0","65289","","null","","","null","4","","","","","","","","","","","","","","","",""
"","ITI","","html-keyboard-response","34","191959","0.0-1.0-45.0","0","0","65289","","null","","","null","4","","","","","","","","","","","","","","","NaN",""
"","S1","","html-keyboard-response","35","192119","0.0-1.0-47.0","0","0","65289","","null","","","null","5","","","","","","","","","","","","","","","",""
"","ISI","","html-keyboard-response","36","194127","0.0-1.0-48.0","0","0","65289","","null","","","null","5","NaN","","","","","","","","","","","","","","",""
"","S2","","html-keyboard-response","37","194287","0.0-1.0-49.0","0","0","65289","","null","","","null","5","","NaN","","","","","","","","","","","","","",""
"","response","","html-keyboard-response","38","195252","0.0-1.0-50.0-0.0","0","0","65289","","960","","","68","5","","","1","5","training","adjacent","EF","5","6","P.jpg","M.jpg","0","1","0","",""
"","feedback","","html-keyboard-response","39","196264","0.0-1.0-51.0-0.0","0","0","65289","","null","","","null","5","","","","","","","","","","","","","","","",""
"","time_out","","html-keyboard-response","40","198271","0.0-1.0-53.0-0.0","0","0","65289","","null","","","null","5","","","","","","","","","","","","","","","",""
"","ITI","","html-keyboard-response","41","199279","0.0-1.0-54.0","0","0","65289","","316","","","75","5","","","","","","","","","","","","","","","k",""
"","S1","","html-keyboard-response","42","199439","0.0-1.0-56.0","0","0","65289","","null","","","null","6","","","","","","","","","","","","","","","",""
"","ISI","","html-keyboard-response","43","201449","0.0-1.0-57.0","0","0","65289","","null","","","null","6","NaN","","","","","","","","","","","","","","",""
"","S2","","html-keyboard-response","44","201607","0.0-1.0-58.0","0","0","65289","","null","","","null","6","","NaN","","","","","","","","","","","","","",""
"","response","","html-keyboard-response","45","202245","0.0-1.0-59.0-0.0","0","0","65289","","633","","","75","6","","","1","6","training","adjacent","FE","6","5","M.jpg","P.jpg","1","0","0","",""
"","feedback","","html-keyboard-response","46","203255","0.0-1.0-60.0-0.0","0","0","65289","","null","","","null","6","","","","","","","","","","","","","","","",""
"","time_out","","html-keyboard-response","47","205263","0.0-1.0-62.0-0.0","0","0","65289","","null","","","null","6","","","","","","","","","","","","","","","",""
"","ITI","","html-keyboard-response","48","206273","0.0-1.0-63.0","0","0","65289","","null","","","null","6","","","","","","","","","","","","","","","NaN",""
"","S1","","html-keyboard-response","49","206432","0.0-1.0-65.0","0","0","65289","","null","","","null","7","","","","","","","","","","","","","","","",""
"","ISI","","html-keyboard-response","50","208440","0.0-1.0-66.0","0","0","65289","","null","","","null","7","NaN","","","","","","","","","","","","","","",""
"","S2","","html-keyboard-response","51","208600","0.0-1.0-67.0","0","0","65289","","null","","","null","7","","NaN","","","","","","","","","","","","","",""
"","response","","html-keyboard-response","52","209263","0.0-1.0-68.0-0.0","0","0","65289","","657","","","75","7","","","1","7","training","adjacent","ED","5","4","P.jpg","R.jpg","1","0","0","",""
"","feedback","","html-keyboard-response","53","210272","0.0-1.0-69.0-0.0","0","0","65289","","null","","","null","7","","","","","","","","","","","","","","","",""
"","time_out","","html-keyboard-response","54","212279","0.0-1.0-71.0-0.0","0","0","65289","","null","","","null","7","","","","","","","","","","","","","","","",""
"","ITI","","html-keyboard-response","55","213288","0.0-1.0-72.0","0","0","65289","","null","","","null","7","","","","","","","","","","","","","","","NaN",""
"","S1","","html-keyboard-response","56","213448","0.0-1.0-74.0","0","0","65289","","null","","","null","8","","","","","","","","","","","","","","","",""
"","ISI","","html-keyboard-response","57","215455","0.0-1.0-75.0","0","0","65289","","255","","","68","8","d","","","","","","","","","","","","","","",""
"","S2","","html-keyboard-response","58","215616","0.0-1.0-76.0","0","0","65289","","null","","","null","8","","NaN","","","","","","","","","","","","","",""
"","response","","html-keyboard-response","59","216148","0.0-1.0-77.0-0.0","0","0","65289","","527","","","68","8","","","1","8","training","adjacent","DE","4","5","R.jpg","P.jpg","0","1","0","",""
"","feedback","","html-keyboard-response","60","217160","0.0-1.0-78.0-0.0","0","0","65289","","null","","","null","8","","","","","","","","","","","","","","","",""
"","time_out","","html-keyboard-response","61","219168","0.0-1.0-80.0-0.0","0","0","65289","","null","","","null","8","","","","","","","","","","","","","","","",""
"","ITI","","html-keyboard-response","62","220175","0.0-1.0-81.0","0","0","65289","","null","","","null","8","","","","","","","","","","","","","","","NaN",""
"","S1","","html-keyboard-response","63","220335","0.0-1.0-83.0","0","0","65289","","null","","","null","9","","","","","","","","","","","","","","","",""
"","ISI","","html-keyboard-response","64","222343","0.0-1.0-84.0","0","0","65289","","null","","","null","9","NaN","","","","","","","","","","","","","","",""
"","S2","","html-keyboard-response","65","222503","0.0-1.0-85.0","0","0","65289","","null","","","null","9","","NaN","","","","","","","","","","","","","",""
"","response","","html-keyboard-response","66","224359","0.0-1.0-86.0-0.0","0","0","65289","","null","","","null","9","","","1","9","training","adjacent","BC","2","3","O.jpg","Q.jpg","NaN","1","0","",""
"","too_slow_prompt","","html-keyboard-response","67","225368","0.0-1.0-88.0-0.0","1","0","65289","","null","","","null","","","","","","","","","","","","","","","","",""
"","time_out","","html-keyboard-response","68","227376","0.0-1.0-89.0-0.0","0","0","65289","","null","","","null","9","","","","","","","","","","","","","","","",""
"","ITI","","html-keyboard-response","69","228384","0.0-1.0-90.0","0","0","65289","","null","","","null","9","","","","","","","","","","","","","","","NaN",""
"","S1","","html-keyboard-response","70","228544","0.0-1.0-92.0","0","0","65289","","null","","","null","10","","","","","","","","","","","","","","","",""
"","ISI","","html-keyboard-response","71","230552","0.0-1.0-93.0","0","0","65289","","null","","","null","10","NaN","","","","","","","","","","","","","","",""
"","S2","","html-keyboard-response","72","230711","0.0-1.0-94.0","0","0","65289","","null","","","null","10","","NaN","","","","","","","","","","","","","",""
"","response","","html-keyboard-response","73","231937","0.0-1.0-95.0-0.0","0","0","65289","","1221","","","75","10","","","1","10","training","adjacent","GF","7","6","L.jpg","M.jpg","1","0","0","",""
"","feedback","","html-keyboard-response","74","232943","0.0-1.0-96.0-0.0","0","0","65289","","null","","","null","10","","","","","","","","","","","","","","","",""
"","time_out","","html-keyboard-response","75","234952","0.0-1.0-98.0-0.0","0","0","65289","","null","","","null","10","","","","","","","","","","","","","","","",""
"","ITI","","html-keyboard-response","76","235960","0.0-1.0-99.0","0","0","65289","","null","","","null","10","","","","","","","","","","","","","","","NaN",""
"","S1","","html-keyboard-response","77","236120","0.0-1.0-101.0","0","0","65289","","null","","","null","11","","","","","","","","","","","","","","","",""
"","ISI","","html-keyboard-response","78","238128","0.0-1.0-102.0","0","0","65289","","1152","","","68","11","d","","","","","","","","","","","","","","",""
"","S2","","html-keyboard-response","79","238287","0.0-1.0-103.0","0","0","65289","","null","","","null","11","","NaN","","","","","","","","","","","","","",""
"","response","","html-keyboard-response","80","238409","0.0-1.0-104.0-0.0","0","0","65289","","117","","","68","11","","","1","11","training","adjacent","DC","4","3","R.jpg","Q.jpg","0","0","1","",""
"","feedback","","html-keyboard-response","81","239416","0.0-1.0-105.0-0.0","0","0","65289","","null","","","null","11","","","","","","","","","","","","","","","",""
"","ITI","","html-keyboard-response","82","240423","0.0-1.0-108.0","0","0","65289","","null","","","null","11","","","","","","","","","","","","","","","NaN",""
"","S1","","html-keyboard-response","83","240585","0.0-1.0-110.0","0","0","65289","","null","","","null","12","","","","","","","","","","","","","","","",""
"","ISI","","html-keyboard-response","84","242592","0.0-1.0-111.0","0","0","65289","","null","","","null","12","NaN","","","","","","","","","","","","","","",""
"","S2","","html-keyboard-response","85","242752","0.0-1.0-112.0","0","0","65289","","null","","","null","12","","NaN","","","","","","","","","","","","","",""
"","response","","html-keyboard-response","86","244607","0.0-1.0-113.0-0.0","0","0","65289","","null","","","null","12","","","1","12","training","adjacent","FE","6","5","M.jpg","P.jpg","NaN","0","0","",""
"","too_slow_prompt","","html-keyboard-response","87","245615","0.0-1.0-115.0-0.0","1","0","65289","","null","","","null","","","","","","","","","","","","","","","","",""
"","time_out","","html-keyboard-response","88","247623","0.0-1.0-116.0-0.0","0","0","65289","","null","","","null","12","","","","","","","","","","","","","","","",""
"","ITI","","html-keyboard-response","89","248631","0.0-1.0-117.0","0","0","65289","","null","","","null","12","","","","","","","","","","","","","","","NaN",""
"","S1","","html-keyboard-response","90","248791","0.0-1.0-119.0","0","0","65289","","null","","","null","13","","","","","","","","","","","","","","","",""
"","ISI","","html-keyboard-response","91","250799","0.0-1.0-120.0","0","0","65289","","null","","","null","13","NaN","","","","","","","","","","","","","","",""
"","S2","","html-keyboard-response","92","250959","0.0-1.0-121.0","0","0","65289","","null","","","null","13","","NaN","","","","","","","","","","","","","",""
"","response","","html-keyboard-response","93","251860","0.0-1.0-122.0-0.0","0","0","65289","","895","","","75","13","","","1","13","training","adjacent","EF","5","6","P.jpg","M.jpg","1","1","1","",""
"","feedback","","html-keyboard-response","94","252871","0.0-1.0-123.0-0.0","0","0","65289","","null","","","null","13","","","","","","","","","","","","","","","",""
"","ITI","","html-keyboard-response","95","253880","0.0-1.0-126.0","0","0","65289","","null","","","null","13","","","","","","","","","","","","","","","NaN",""
"","S1","","html-keyboard-response","96","254039","0.0-1.0-128.0","0","0","65289","","null","","","null","14","","","","","","","","","","","","","","","",""
"","ISI","","html-keyboard-response","97","256047","0.0-1.0-129.0","0","0","65289","","null","","","null","14","NaN","","","","","","","","","","","","","","",""
"","S2","","html-keyboard-response","98","256207","0.0-1.0-130.0","0","0","65289","","null","","","null","14","","NaN","","","","","","","","","","","","","",""
"","response","","html-keyboard-response","99","257168","0.0-1.0-131.0-0.0","0","0","65289","","956","","","75","14","","","1","14","training","adjacent","FG","6","7","M.jpg","L.jpg","1","1","1","",""
"","feedback","","html-keyboard-response","100","258175","0.0-1.0-132.0-0.0","0","0","65289","","null","","","null","14","","","","","","","","","","","","","","","",""
"","ITI","","html-keyboard-response","101","259184","0.0-1.0-135.0","0","0","65289","","null","","","null","14","","","","","","","","","","","","","","","NaN",""
"","S1","","html-keyboard-response","102","259343","0.0-1.0-137.0","0","0","65289","","null","","","null","15","","","","","","","","","","","","","","","",""
"","ISI","","html-keyboard-response","103","261352","0.0-1.0-138.0","0","0","65289","","null","","","null","15","NaN","","","","","","","","","","","","","","",""
"","S2","","html-keyboard-response","104","261511","0.0-1.0-139.0","0","0","65289","","null","","","null","15","","NaN","","","","","","","","","","","","","",""
"","response","","html-keyboard-response","105","262264","0.0-1.0-140.0-0.0","0","0","65289","","749","","","75","15","","","1","15","training","adjacent","CB","3","2","Q.jpg","O.jpg","1","0","0","",""
"","feedback","","html-keyboard-response","106","263271","0.0-1.0-141.0-0.0","0","0","65289","","null","","","null","15","","","","","","","","","","","","","","","",""
"","time_out","","html-keyboard-response","107","265280","0.0-1.0-143.0-0.0","0","0","65289","","null","","","null","15","","","","","","","","","","","","","","","",""
"","ITI","","html-keyboard-response","108","266287","0.0-1.0-144.0","0","0","65289","","null","","","null","15","","","","","","","","","","","","","","","NaN",""
"","S1","","html-keyboard-response","109","266447","0.0-1.0-146.0","0","0","65289","","null","","","null","16","","","","","","","","","","","","","","","",""
"","ISI","","html-keyboard-response","110","268455","0.0-1.0-147.0","0","0","65289","","null","","","null","16","NaN","","","","","","","","","","","","","","",""
"","S2","","html-keyboard-response","111","268616","0.0-1.0-148.0","0","0","65289","","null","","","null","16","","NaN","","","","","","","","","","","","","",""
"","response","","html-keyboard-response","112","268937","0.0-1.0-149.0-0.0","0","0","65289","","316","","","68","16","","","1","16","training","adjacent","DE","4","5","R.jpg","P.jpg","0","1","0","",""
"","feedback","","html-keyboard-response","113","269943","0.0-1.0-150.0-0.0","0","0","65289","","null","","","null","16","","","","","","","","","","","","","","","",""
"","time_out","","html-keyboard-response","114","271951","0.0-1.0-152.0-0.0","0","0","65289","","null","","","null","16","","","","","","","","","","","","","","","",""
"","ITI","","html-keyboard-response","115","272960","0.0-1.0-153.0","0","0","65289","","null","","","null","16","","","","","","","","","","","","","","","NaN",""
"","S1","","html-keyboard-response","116","273120","0.0-1.0-155.0","0","0","65289","","null","","","null","17","","","","","","","","","","","","","","","",""
"","ISI","","html-keyboard-response","117","275127","0.0-1.0-156.0","0","0","65289","","null","","","null","17","NaN","","","","","","","","","","","","","","",""
"","S2","","html-keyboard-response","118","275288","0.0-1.0-157.0","0","0","65289","","null","","","null","17","","NaN","","","","","","","","","","","","","",""
"","response","","html-keyboard-response","119","276260","0.0-1.0-158.0-0.0","0","0","65289","","968","","","75","17","","","1","17","training","adjacent","BC","2","3","O.jpg","Q.jpg","1","1","1","",""
"","feedback","","html-keyboard-response","120","277271","0.0-1.0-159.0-0.0","0","0","65289","","null","","","null","17","","","","","","","","","","","","","","","",""
"","ITI","","html-keyboard-response","121","278279","0.0-1.0-162.0","0","0","65289","","null","","","null","17","","","","","","","","","","","","","","","NaN",""
"","S1","","html-keyboard-response","122","278439","0.0-1.0-164.0","0","0","65289","","null","","","null","18","","","","","","","","","","","","","","","",""
"","ISI","","html-keyboard-response","123","280447","0.0-1.0-165.0","0","0","65289","","null","","","null","18","NaN","","","","","","","","","","","","","","",""
"","S2","","html-keyboard-response","124","280608","0.0-1.0-166.0","0","0","65289","","null","","","null","18","","NaN","","","","","","","","","","","","","",""
"","response","","html-keyboard-response","125","281003","0.0-1.0-167.0-0.0","0","0","65289","","391","","","68","18","","","1","18","training","adjacent","GF","7","6","L.jpg","M.jpg","0","0","1","",""
"","feedback","","html-keyboard-response","126","282015","0.0-1.0-168.0-0.0","0","0","65289","","null","","","null","18","","","","","","","","","","","","","","","",""
"","ITI","","html-keyboard-response","127","283023","0.0-1.0-171.0","0","0","65289","","null","","","null","18","","","","","","","","","","","","","","","NaN",""
"","S1","","html-keyboard-response","128","283183","0.0-1.0-173.0","0","0","65289","","null","","","null","19","","","","","","","","","","","","","","","",""
"","ISI","","html-keyboard-response","129","285192","0.0-1.0-174.0","0","0","65289","","null","","","null","19","NaN","","","","","","","","","","","","","","",""
"","S2","","html-keyboard-response","130","285352","0.0-1.0-175.0","0","0","65289","","null","","","null","19","","NaN","","","","","","","","","","","","","",""
"","response","","html-keyboard-response","131","286092","0.0-1.0-176.0-0.0","0","0","65289","","735","","","68","19","","","1","19","training","adjacent","FE","6","5","M.jpg","P.jpg","0","0","1","",""
"","feedback","","html-keyboard-response","132","287104","0.0-1.0-177.0-0.0","0","0","65289","","null","","","null","19","","","","","","","","","","","","","","","",""
"","ITI","","html-keyboard-response","133","288112","0.0-1.0-180.0","0","0","65289","","null","","","null","19","","","","","","","","","","","","","","","NaN",""
"","S1","","html-keyboard-response","134","288272","0.0-1.0-182.0","0","0","65289","","null","","","null","20","","","","","","","","","","","","","","","",""
"","ISI","","html-keyboard-response","135","290279","0.0-1.0-183.0","0","0","65289","","null","","","null","20","NaN","","","","","","","","","","","","","","",""
"","S2","","html-keyboard-response","136","290439","0.0-1.0-184.0","0","0","65289","","null","","","null","20","","NaN","","","","","","","","","","","","","",""
"","response","","html-keyboard-response","137","292296","0.0-1.0-185.0-0.0","0","0","65289","","null","","","null","20","","","1","20","training","adjacent","DE","4","5","R.jpg","P.jpg","NaN","1","0","",""
"","too_slow_prompt","","html-keyboard-response","138","293306","0.0-1.0-187.0-0.0","1","0","65289","","null","","","null","","","","","","","","","","","","","","","","",""
"","time_out","","html-keyboard-response","139","295312","0.0-1.0-188.0-0.0","0","0","65289","","null","","","null","20","","","","","","","","","","","","","","","",""
"","ITI","","html-keyboard-response","140","296319","0.0-1.0-189.0","0","0","65289","","null","","","null","20","","","","","","","","","","","","","","","NaN",""
"","S1","","html-keyboard-response","141","296480","0.0-1.0-191.0","0","0","65289","","null","","","null","21","","","","","","","","","","","","","","","",""
"","ISI","","html-keyboard-response","142","298488","0.0-1.0-192.0","0","0","65289","","null","","","null","21","NaN","","","","","","","","","","","","","","",""
"","S2","","html-keyboard-response","143","298647","0.0-1.0-193.0","0","0","65289","","null","","","null","21","","NaN","","","","","","","","","","","","","",""
"","response","","html-keyboard-response","144","298895","0.0-1.0-194.0-0.0","0","0","65289","","243","","","75","21","","","1","21","training","adjacent","EF","5","6","P.jpg","M.jpg","1","1","1","",""
"","feedback","","html-keyboard-response","145","299904","0.0-1.0-195.0-0.0","0","0","65289","","null","","","null","21","","","","","","","","","","","","","","","",""
"","ITI","","html-keyboard-response","146","300911","0.0-1.0-198.0","0","0","65289","","null","","","null","21","","","","","","","","","","","","","","","NaN",""
"","S1","","html-keyboard-response","147","301073","0.0-1.0-200.0","0","0","65289","","null","","","null","22","","","","","","","","","","","","","","","",""
"","ISI","","html-keyboard-response","148","303080","0.0-1.0-201.0","0","0","65289","","null","","","null","22","NaN","","","","","","","","","","","","","","",""
"","S2","","html-keyboard-response","149","303239","0.0-1.0-202.0","0","0","65289","","null","","","null","22","","NaN","","","","","","","","","","","","","",""
"","response","","html-keyboard-response","150","304367","0.0-1.0-203.0-0.0","0","0","65289","","1123","","","75","22","","","1","22","training","adjacent","FG","6","7","M.jpg","L.jpg","1","1","1","",""
"","feedback","","html-keyboard-response","151","305375","0.0-1.0-204.0-0.0","0","0","65289","","null","","","null","22","","","","","","","","","","","","","","","",""
"","ITI","","html-keyboard-response","152","306383","0.0-1.0-207.0","0","0","65289","","null","","","null","22","","","","","","","","","","","","","","","NaN",""
"","S1","","html-keyboard-response","153","306544","0.0-1.0-209.0","0","0","65289","","null","","","null","23","","","","","","","","","","","","","","","",""
"","ISI","","html-keyboard-response","154","308551","0.0-1.0-210.0","0","0","65289","","null","","","null","23","NaN","","","","","","","","","","","","","","",""
"","S2","","html-keyboard-response","155","308711","0.0-1.0-211.0","0","0","65289","","null","","","null","23","","NaN","","","","","","","","","","","","","",""
"","response","","html-keyboard-response","156","310352","0.0-1.0-212.0-0.0","0","0","65289","","1636","","","75","23","","","1","23","training","adjacent","ED","5","4","P.jpg","R.jpg","1","0","0","",""
"","feedback","","html-keyboard-response","157","311360","0.0-1.0-213.0-0.0","0","0","65289","","null","","","null","23","","","","","","","","","","","","","","","",""
"","time_out","","html-keyboard-response","158","313367","0.0-1.0-215.0-0.0","0","0","65289","","null","","","null","23","","","","","","","","","","","","","","","",""
"","ITI","","html-keyboard-response","159","314375","0.0-1.0-216.0","0","0","65289","","null","","","null","23","","","","","","","","","","","","","","","NaN",""
"","S1","","html-keyboard-response","160","314535","0.0-1.0-218.0","0","0","65289","","null","","","null","24","","","","","","","","","","","","","","","",""
"","ISI","","html-keyboard-response","161","316543","0.0-1.0-219.0","0","0","65289","","null","","","null","24","NaN","","","","","","","","","","","","","","",""
"","S2","","html-keyboard-response","162","316704","0.0-1.0-220.0","0","0","65289","","null","","","null","24","","NaN","","","","","","","","","","","","","",""
"","response","","html-keyboard-response","163","317299","0.0-1.0-221.0-0.0","0","0","65289","","590","","","68","24","","","1","24","training","adjacent","GF","7","6","L.jpg","M.jpg","0","0","1","",""
"","feedback","","html-keyboard-response","164","318311","0.0-1.0-222.0-0.0","0","0","65289","","null","","","null","24","","","","","","","","","","","","","","","",""
"","ITI","","html-keyboard-response","165","319319","0.0-1.0-225.0","0","0","65289","","null","","","null","24","","","","","","","","","","","","","","","NaN",""
"","S1","","html-keyboard-response","166","319480","0.0-1.0-227.0","0","0","65289","","null","","","null","25","","","","","","","","","","","","","","","",""
"","ISI","","html-keyboard-response","167","321488","0.0-1.0-228.0","0","0","65289","","null","","","null","25","NaN","","","","","","","","","","","","","","",""
"","S2","","html-keyboard-response","168","321647","0.0-1.0-229.0","0","0","65289","","null","","","null","25","","NaN","","","","","","","","","","","","","",""
"","response","","html-keyboard-response","169","322340","0.0-1.0-230.0-0.0","0","0","65289","","687","","","68","25","","","1","25","training","adjacent","AB","1","2","N.jpg","O.jpg","0","1","0","",""
"","feedback","","html-keyboard-response","170","323351","0.0-1.0-231.0-0.0","0","0","65289","","null","","","null","25","","","","","","","","","","","","","","","",""
"","time_out","","html-keyboard-response","171","325359","0.0-1.0-233.0-0.0","0","0","65289","","null","","","null","25","","","","","","","","","","","","","","","",""
"","ITI","","html-keyboard-response","172","326368","0.0-1.0-234.0","0","0","65289","","null","","","null","25","","","","","","","","","","","","","","","NaN",""
"","S1","","html-keyboard-response","173","326528","0.0-1.0-236.0","0","0","65289","","null","","","null","26","","","","","","","","","","","","","","","",""
"","ISI","","html-keyboard-response","174","328535","0.0-1.0-237.0","0","0","65289","","903","","","75","26","k","","","","","","","","","","","","","","",""
"","S2","","html-keyboard-response","175","328695","0.0-1.0-238.0","0","0","65289","","null","","","null","26","","NaN","","","","","","","","","","","","","",""
"","response","","html-keyboard-response","176","329257","0.0-1.0-239.0-0.0","0","0","65289","","556","","","75","26","","","1","26","training","adjacent","AB","1","2","N.jpg","O.jpg","1","1","1","",""
"","feedback","","html-keyboard-response","177","330263","0.0-1.0-240.0-0.0","0","0","65289","","null","","","null","26","","","","","","","","","","","","","","","",""
"","ITI","","html-keyboard-response","178","331273","0.0-1.0-243.0","0","0","65289","","null","","","null","26","","","","","","","","","","","","","","","NaN",""
"","S1","","html-keyboard-response","179","331433","0.0-1.0-245.0","0","0","65289","","null","","","null","27","","","","","","","","","","","","","","","",""
"","ISI","","html-keyboard-response","180","333440","0.0-1.0-246.0","0","0","65289","","null","","","null","27","NaN","","","","","","","","","","","","","","",""
"","S2","","html-keyboard-response","181","333600","0.0-1.0-247.0","0","0","65289","","null","","","null","27","","NaN","","","","","","","","","","","","","",""
"","response","","html-keyboard-response","182","333769","0.0-1.0-248.0-0.0","0","0","65289","","165","","","75","27","","","1","27","training","adjacent","DC","4","3","R.jpg","Q.jpg","1","0","0","",""
"","feedback","","html-keyboard-response","183","334775","0.0-1.0-249.0-0.0","0","0","65289","","null","","","null","27","","","","","","","","","","","","","","","",""
"","time_out","","html-keyboard-response","184","336784","0.0-1.0-251.0-0.0","0","0","65289","","null","","","null","27","","","","","","","","","","","","","","","",""
"","ITI","","html-keyboard-response","185","337792","0.0-1.0-252.0","0","0","65289","","null","","","null","27","","","","","","","","","","","","","","","NaN",""
"","S1","","html-keyboard-response","186","337951","0.0-1.0-254.0","0","0","65289","","null","","","null","28","","","","","","","","","","","","","","","",""
"","ISI","","html-keyboard-response","187","339959","0.0-1.0-255.0","0","0","65289","","null","","","null","28","NaN","","","","","","","","","","","","","","",""
"","S2","","html-keyboard-response","188","340120","0.0-1.0-256.0","0","0","65289","","null","","","null","28","","NaN","","","","","","","","","","","","","",""
"","response","","html-keyboard-response","189","340660","0.0-1.0-257.0-0.0","0","0","65289","","536","","","68","28","","","1","28","training","adjacent","BA","2","1","O.jpg","N.jpg","0","0","1","",""
"","feedback","","html-keyboard-response","190","341673","0.0-1.0-258.0-0.0","0","0","65289","","null","","","null","28","","","","","","","","","","","","","","","",""
"","ITI","","html-keyboard-response","191","342679","0.0-1.0-261.0","0","0","65289","","null","","","null","28","","","","","","","","","","","","","","","NaN",""
"","S1","","html-keyboard-response","192","342840","0.0-1.0-263.0","0","0","65289","","null","","","null","29","","","","","","","","","","","","","","","",""
"","ISI","","html-keyboard-response","193","344847","0.0-1.0-264.0","0","0","65289","","null","","","null","29","NaN","","","","","","","","","","","","","","",""
"","S2","","html-keyboard-response","194","345008","0.0-1.0-265.0","0","0","65289","","null","","","null","29","","NaN","","","","","","","","","","","","","",""
"","response","","html-keyboard-response","195","346323","0.0-1.0-266.0-0.0","0","0","65289","","1310","","","75","29","","","1","29","training","adjacent","DE","4","5","R.jpg","P.jpg","1","1","1","",""
"","feedback","","html-keyboard-response","196","347336","0.0-1.0-267.0-0.0","0","0","65289","","null","","","null","29","","","","","","","","","","","","","","","",""
"","ITI","","html-keyboard-response","197","348343","0.0-1.0-270.0","0","0","65289","","null","","","null","29","","","","","","","","","","","","","","","NaN",""
"","S1","","html-keyboard-response","198","348503","0.0-1.0-272.0","0","0","65289","","null","","","null","30","","","","","","","","","","","","","","","",""
"","ISI","","html-keyboard-response","199","350512","0.0-1.0-273.0","0","0","65289","","null","","","null","30","NaN","","","","","","","","","","","","","","",""
"","S2","","html-keyboard-response","200","350671","0.0-1.0-274.0","0","0","65289","","null","","","null","30","","NaN","","","","","","","","","","","","","",""
"","response","","html-keyboard-response","201","352152","0.0-1.0-275.0-0.0","0","0","65289","","1476","","","75","30","","","1","30","training","adjacent","BA","2","1","O.jpg","N.jpg","1","0","0","",""
"","feedback","","html-keyboard-response","202","353159","0.0-1.0-276.0-0.0","0","0","65289","","null","","","null","30","","","","","","","","","","","","","","","",""
"","time_out","","html-keyboard-response","203","355168","0.0-1.0-278.0-0.0","0","0","65289","","null","","","null","30","","","","","","","","","","","","","","","",""
"","ITI","","html-keyboard-response","204","356175","0.0-1.0-279.0","0","0","65289","","null","","","null","30","","","","","","","","","","","","","","","NaN",""
"","S1","","html-keyboard-response","205","356335","0.0-1.0-281.0","0","0","65289","","null","","","null","31","","","","","","","","","","","","","","","",""
"","ISI","","html-keyboard-response","206","358343","0.0-1.0-282.0","0","0","65289","","null","","","null","31","NaN","","","","","","","","","","","","","","",""
"","S2","","html-keyboard-response","207","358503","0.0-1.0-283.0","0","0","65289","","null","","","null","31","","NaN","","","","","","","","","","","","","",""
"","response","","html-keyboard-response","208","358986","0.0-1.0-284.0-0.0","0","0","65289","","478","","","68","31","","","1","31","training","adjacent","BC","2","3","O.jpg","Q.jpg","0","1","0","",""
"","feedback","","html-keyboard-response","209","359992","0.0-1.0-285.0-0.0","0","0","65289","","null","","","null","31","","","","","","","","","","","","","","","",""
"","time_out","","html-keyboard-response","210","362000","0.0-1.0-287.0-0.0","0","0","65289","","null","","","null","31","","","","","","","","","","","","","","","",""
"","ITI","","html-keyboard-response","211","363008","0.0-1.0-288.0","0","0","65289","","null","","","null","31","","","","","","","","","","","","","","","NaN",""
"","S1","","html-keyboard-response","212","363168","0.0-1.0-290.0","0","0","65289","","null","","","null","32","","","","","","","","","","","","","","","",""
"","ISI","","html-keyboard-response","213","365175","0.0-1.0-291.0","0","0","65289","","1269","","","68","32","d","","","","","","","","","","","","","","",""
"","S2","","html-keyboard-response","214","365335","0.0-1.0-292.0","0","0","65289","","null","","","null","32","","NaN","","","","","","","","","","","","","",""
"","response","","html-keyboard-response","215","365760","0.0-1.0-293.0-0.0","0","0","65289","","421","","","68","32","","","1","32","training","adjacent","CB","3","2","Q.jpg","O.jpg","0","0","1","",""
"","feedback","","html-keyboard-response","216","366767","0.0-1.0-294.0-0.0","0","0","65289","","null","","","null","32","","","","","","","","","","","","","","","",""
"","ITI","","html-keyboard-response","217","367776","0.0-1.0-297.0","0","0","65289","","null","","","null","32","","","","","","","","","","","","","","","NaN",""
"","S1","","html-keyboard-response","218","367936","0.0-1.0-299.0","0","0","65289","","null","","","null","33","","","","","","","","","","","","","","","",""
"","ISI","","html-keyboard-response","219","369943","0.0-1.0-300.0","0","0","65289","","null","","","null","33","NaN","","","","","","","","","","","","","","",""
"","S2","","html-keyboard-response","220","370103","0.0-1.0-301.0","0","0","65289","","null","","","null","33","","NaN","","","","","","","","","","","","","",""
"","response","","html-keyboard-response","221","370735","0.0-1.0-302.0-0.0","0","0","65289","","627","","","68","33","","","1","33","training","adjacent","DC","4","3","R.jpg","Q.jpg","0","0","1","",""
"","feedback","","html-keyboard-response","222","371743","0.0-1.0-303.0-0.0","0","0","65289","","null","","","null","33","","","","","","","","","","","","","","","",""
"","ITI","","html-keyboard-response","223","372752","0.0-1.0-306.0","0","0","65289","","null","","","null","33","","","","","","","","","","","","","","","NaN",""
"","S1","","html-keyboard-response","224","372912","0.0-1.0-308.0","0","0","65289","","null","","","null","34","","","","","","","","","","","","","","","",""
"","ISI","","html-keyboard-response","225","374920","0.0-1.0-309.0","0","0","65289","","null","","","null","34","NaN","","","","","","","","","","","","","","",""
"","S2","","html-keyboard-response","226","375080","0.0-1.0-310.0","0","0","65289","","null","","","null","34","","NaN","","","","","","","","","","","","","",""
"","response","","html-keyboard-response","227","375544","0.0-1.0-311.0-0.0","0","0","65289","","460","","","75","34","","","1","34","training","adjacent","CB","3","2","Q.jpg","O.jpg","1","0","0","",""
"","feedback","","html-keyboard-response","228","376551","0.0-1.0-312.0-0.0","0","0","65289","","null","","","null","34","","","","","","","","","","","","","","","",""
"","time_out","","html-keyboard-response","229","378560","0.0-1.0-314.0-0.0","0","0","65289","","null","","","null","34","","","","","","","","","","","","","","","",""
"","ITI","","html-keyboard-response","230","379567","0.0-1.0-315.0","0","0","65289","","null","","","null","34","","","","","","","","","","","","","","","NaN",""
"","S1","","html-keyboard-response","231","379728","0.0-1.0-317.0","0","0","65289","","null","","","null","35","","","","","","","","","","","","","","","",""
"","ISI","","html-keyboard-response","232","381735","0.0-1.0-318.0","0","0","65289","","null","","","null","35","NaN","","","","","","","","","","","","","","",""
"","S2","","html-keyboard-response","233","381895","0.0-1.0-319.0","0","0","65289","","null","","","null","35","","NaN","","","","","","","","","","","","","",""
"","response","","html-keyboard-response","234","382972","0.0-1.0-320.0-0.0","0","0","65289","","1072","","","68","35","","","1","35","training","adjacent","FE","6","5","M.jpg","P.jpg","0","0","1","",""
"","feedback","","html-keyboard-response","235","383983","0.0-1.0-321.0-0.0","0","0","65289","","null","","","null","35","","","","","","","","","","","","","","","",""
"","ITI","","html-keyboard-response","236","384993","0.0-1.0-324.0","0","0","65289","","null","","","null","35","","","","","","","","","","","","","","","NaN",""
"","S1","","html-keyboard-response","237","385152","0.0-1.0-326.0","0","0","65289","","null","","","null","36","","","","","","","","","","","","","","","",""
"","ISI","","html-keyboard-response","238","387160","0.0-1.0-327.0","0","0","65289","","null","","","null","36","NaN","","","","","","","","","","","","","","",""
"","S2","","html-keyboard-response","239","387319","0.0-1.0-328.0","0","0","65289","","null","","","null","36","","NaN","","","","","","","","","","","","","",""
"","response","","html-keyboard-response","240","388760","0.0-1.0-329.0-0.0","0","0","65289","","1436","","","75","36","","","1","36","training","adjacent","FG","6","7","M.jpg","L.jpg","1","1","1","",""
"","feedback","","html-keyboard-response","241","389768","0.0-1.0-330.0-0.0","0","0","65289","","null","","","null","36","","","","","","","","","","","","","","","",""
"","ITI","","html-keyboard-response","242","390774","0.0-1.0-333.0","0","0","65289","","null","","","null","36","","","","","","","","","","","","","","","NaN",""
"","S1","","html-keyboard-response","243","390935","0.0-1.0-335.0","0","0","65289","","null","","","null","37","","","","","","","","","","","","","","","",""
"","ISI","","html-keyboard-response","244","392944","0.0-1.0-336.0","0","0","65289","","null","","","null","37","NaN","","","","","","","","","","","","","","",""
"","S2","","html-keyboard-response","245","393103","0.0-1.0-337.0","0","0","65289","","null","","","null","37","","NaN","","","","","","","","","","","","","",""
"","response","","html-keyboard-response","246","393558","0.0-1.0-338.0-0.0","0","0","65289","","450","","","75","37","","","1","37","training","adjacent","CD","3","4","Q.jpg","R.jpg","1","1","1","",""
"","feedback","","html-keyboard-response","247","394567","0.0-1.0-339.0-0.0","0","0","65289","","null","","","null","37","","","","","","","","","","","","","","","",""
"","ITI","","html-keyboard-response","248","395575","0.0-1.0-342.0","0","0","65289","","null","","","null","37","","","","","","","","","","","","","","","NaN",""
"","S1","","html-keyboard-response","249","395736","0.0-1.0-344.0","0","0","65289","","null","","","null","38","","","","","","","","","","","","","","","",""
"","ISI","","html-keyboard-response","250","397744","0.0-1.0-345.0","0","0","65289","","null","","","null","38","NaN","","","","","","","","","","","","","","",""
"","S2","","html-keyboard-response","251","397903","0.0-1.0-346.0","0","0","65289","","null","","","null","38","","NaN","","","","","","","","","","","","","",""
"","response","","html-keyboard-response","252","398932","0.0-1.0-347.0-0.0","0","0","65289","","1024","","","75","38","","","1","38","training","adjacent","ED","5","4","P.jpg","R.jpg","1","0","0","",""
"","feedback","","html-keyboard-response","253","399943","0.0-1.0-348.0-0.0","0","0","65289","","null","","","null","38","","","","","","","","","","","","","","","",""
"","time_out","","html-keyboard-response","254","401952","0.0-1.0-350.0-0.0","0","0","65289","","null","","","null","38","","","","","","","","","","","","","","","",""
"","ITI","","html-keyboard-response","255","402960","0.0-1.0-351.0","0","0","65289","","null","","","null","38","","","","","","","","","","","","","","","NaN",""
"","S1","","html-keyboard-response","256","403119","0.0-1.0-353.0","0","0","65289","","null","","","null","39","","","","","","","","","","","","","","","",""
"","ISI","","html-keyboard-response","257","405130","0.0-1.0-354.0","0","0","65289","","null","","","null","39","NaN","","","","","","","","","","","","","","",""
"","S2","","html-keyboard-response","258","405288","0.0-1.0-355.0","0","0","65289","","null","","","null","39","","NaN","","","","","","","","","","","","","",""
"","response","","html-keyboard-response","259","405688","0.0-1.0-356.0-0.0","0","0","65289","","394","","","75","39","","","1","39","training","adjacent","BA","2","1","O.jpg","N.jpg","1","0","0","",""
"","feedback","","html-keyboard-response","260","406696","0.0-1.0-357.0-0.0","0","0","65289","","null","","","null","39","","","","","","","","","","","","","","","",""
"","time_out","","html-keyboard-response","261","408703","0.0-1.0-359.0-0.0","0","0","65289","","null","","","null","39","","","","","","","","","","","","","","","",""
"","ITI","","html-keyboard-response","262","409712","0.0-1.0-360.0","0","0","65289","","null","","","null","39","","","","","","","","","","","","","","","NaN",""
"","S1","","html-keyboard-response","263","409871","0.0-1.0-362.0","0","0","65289","","null","","","null","40","","","","","","","","","","","","","","","",""
"","ISI","","html-keyboard-response","264","411879","0.0-1.0-363.0","0","0","65289","","null","","","null","40","NaN","","","","","","","","","","","","","","",""
"","S2","","html-keyboard-response","265","412040","0.0-1.0-364.0","0","0","65289","","null","","","null","40","","NaN","","","","","","","","","","","","","",""
"","response","","html-keyboard-response","266","412476","0.0-1.0-365.0-0.0","0","0","65289","","432","","","68","40","","","1","40","training","adjacent","FG","6","7","M.jpg","L.jpg","0","1","0","",""
"","feedback","","html-keyboard-response","267","413487","0.0-1.0-366.0-0.0","0","0","65289","","null","","","null","40","","","","","","","","","","","","","","","",""
"","time_out","","html-keyboard-response","268","415495","0.0-1.0-368.0-0.0","0","0","65289","","null","","","null","40","","","","","","","","","","","","","","","",""
"","ITI","","html-keyboard-response","269","416503","0.0-1.0-369.0","0","0","65289","","null","","","null","40","","","","","","","","","","","","","","","NaN",""
"","S1","","html-keyboard-response","270","416663","0.0-1.0-371.0","0","0","65289","","null","","","null","41","","","","","","","","","","","","","","","",""
"","ISI","","html-keyboard-response","271","418671","0.0-1.0-372.0","0","0","65289","","null","","","null","41","NaN","","","","","","","","","","","","","","",""
"","S2","","html-keyboard-response","272","418831","0.0-1.0-373.0","0","0","65289","","null","","","null","41","","NaN","","","","","","","","","","","","","",""
"","response","","html-keyboard-response","273","419463","0.0-1.0-374.0-0.0","0","0","65289","","627","","","75","41","","","1","41","training","adjacent","AB","1","2","N.jpg","O.jpg","1","1","1","",""
"","feedback","","html-keyboard-response","274","420471","0.0-1.0-375.0-0.0","0","0","65289","","null","","","null","41","","","","","","","","","","","","","","","",""
"","ITI","","html-keyboard-response","275","421480","0.0-1.0-378.0","0","0","65289","","null","","","null","41","","","","","","","","","","","","","","","NaN",""
"","S1","","html-keyboard-response","276","421639","0.0-1.0-380.0","0","0","65289","","null","","","null","42","","","","","","","","","","","","","","","",""
"","ISI","","html-keyboard-response","277","423647","0.0-1.0-381.0","0","0","65289","","null","","","null","42","NaN","","","","","","","","","","","","","","",""
"","S2","","html-keyboard-response","278","423807","0.0-1.0-382.0","0","0","65289","","null","","","null","42","","NaN","","","","","","","","","","","","","",""
"","response","","html-keyboard-response","279","424439","0.0-1.0-383.0-0.0","0","0","65289","","627","","","68","42","","","1","42","training","adjacent","GF","7","6","L.jpg","M.jpg","0","0","1","",""
"","feedback","","html-keyboard-response","280","425447","0.0-1.0-384.0-0.0","0","0","65289","","null","","","null","42","","","","","","","","","","","","","","","",""
"","ITI","","html-keyboard-response","281","426455","0.0-1.0-387.0","0","0","65289","","null","","","null","42","","","","","","","","","","","","","","","NaN",""
"","S1","","html-keyboard-response","282","426615","0.0-1.0-389.0","0","0","65289","","null","","","null","43","","","","","","","","","","","","","","","",""
"","ISI","","html-keyboard-response","283","428624","0.0-1.0-390.0","0","0","65289","","null","","","null","43","NaN","","","","","","","","","","","","","","",""
"","S2","","html-keyboard-response","284","428784","0.0-1.0-391.0","0","0","65289","","null","","","null","43","","NaN","","","","","","","","","","","","","",""
"","response","","html-keyboard-response","285","429394","0.0-1.0-392.0-0.0","0","0","65289","","605","","","75","43","","","1","43","training","adjacent","ED","5","4","P.jpg","R.jpg","1","0","0","",""
"","feedback","","html-keyboard-response","286","430399","0.0-1.0-393.0-0.0","0","0","65289","","null","","","null","43","","","","","","","","","","","","","","","",""
"","time_out","","html-keyboard-response","287","432407","0.0-1.0-395.0-0.0","0","0","65289","","null","","","null","43","","","","","","","","","","","","","","","",""
"","ITI","","html-keyboard-response","288","433416","0.0-1.0-396.0","0","0","65289","","null","","","null","43","","","","","","","","","","","","","","","NaN",""
"","S1","","html-keyboard-response","289","433575","0.0-1.0-398.0","0","0","65289","","null","","","null","44","","","","","","","","","","","","","","","",""
"","ISI","","html-keyboard-response","290","435584","0.0-1.0-399.0","0","0","65289","","677","","","68","44","d","","","","","","","","","","","","","","",""
"","S2","","html-keyboard-response","291","435744","0.0-1.0-400.0","0","0","65289","","null","","","null","44","","NaN","","","","","","","","","","","","","",""
"","response","","html-keyboard-response","292","436216","0.0-1.0-401.0-0.0","0","0","65289","","467","","","68","44","","","1","44","training","adjacent","BA","2","1","O.jpg","N.jpg","0","0","1","",""
"","feedback","","html-keyboard-response","293","437224","0.0-1.0-402.0-0.0","0","0","65289","","null","","","null","44","","","","","","","","","","","","","","","",""
"","ITI","","html-keyboard-response","294","438234","0.0-1.0-405.0","0","0","65289","","null","","","null","44","","","","","","","","","","","","","","","NaN",""
"","S1","","html-keyboard-response","295","438391","0.0-1.0-407.0","0","0","65289","","null","","","null","45","","","","","","","","","","","","","","","",""
"","ISI","","html-keyboard-response","296","440399","0.0-1.0-408.0","0","0","65289","","null","","","null","45","NaN","","","","","","","","","","","","","","",""
"","S2","","html-keyboard-response","297","440559","0.0-1.0-409.0","0","0","65289","","null","","","null","45","","NaN","","","","","","","","","","","","","",""
"","response","","html-keyboard-response","298","440798","0.0-1.0-410.0-0.0","0","0","65289","","233","","","75","45","","","1","45","training","adjacent","CD","3","4","Q.jpg","R.jpg","1","1","1","",""
"","feedback","","html-keyboard-response","299","441807","0.0-1.0-411.0-0.0","0","0","65289","","null","","","null","45","","","","","","","","","","","","","","","",""
"","ITI","","html-keyboard-response","300","442815","0.0-1.0-414.0","0","0","65289","","101","","","75","45","","","","","","","","","","","","","","","k",""
"","S1","","html-keyboard-response","301","442975","0.0-1.0-416.0","0","0","65289","","null","","","null","46","","","","","","","","","","","","","","","",""
"","ISI","","html-keyboard-response","302","444984","0.0-1.0-417.0","0","0","65289","","null","","","null","46","NaN","","","","","","","","","","","","","","",""
"","S2","","html-keyboard-response","303","445143","0.0-1.0-418.0","0","0","65289","","null","","","null","46","","NaN","","","","","","","","","","","","","",""
"","response","","html-keyboard-response","304","446222","0.0-1.0-419.0-0.0","0","0","65289","","1074","","","68","46","","","1","46","training","adjacent","AB","1","2","N.jpg","O.jpg","0","1","0","",""
"","feedback","","html-keyboard-response","305","447232","0.0-1.0-420.0-0.0","0","0","65289","","null","","","null","46","","","","","","","","","","","","","","","",""
"","time_out","","html-keyboard-response","306","449240","0.0-1.0-422.0-0.0","0","0","65289","","null","","","null","46","","","","","","","","","","","","","","","",""
"","ITI","","html-keyboard-response","307","450248","0.0-1.0-423.0","0","0","65289","","null","","","null","46","","","","","","","","","","","","","","","NaN",""
"","S1","","html-keyboard-response","308","450407","0.0-1.0-425.0","0","0","65289","","null","","","null","47","","","","","","","","","","","","","","","",""
"","ISI","","html-keyboard-response","309","452415","0.0-1.0-426.0","0","0","65289","","1846","","","75","47","k","","","","","","","","","","","","","","",""
"","S2","","html-keyboard-response","310","452576","0.0-1.0-427.0","0","0","65289","","null","","","null","47","","NaN","","","","","","","","","","","","","",""
"","response","","html-keyboard-response","311","452970","0.0-1.0-428.0-0.0","0","0","65289","","389","","","75","47","","","1","47","training","adjacent","BC","2","3","O.jpg","Q.jpg","1","1","1","",""
"","feedback","","html-keyboard-response","312","453975","0.0-1.0-429.0-0.0","0","0","65289","","null","","","null","47","","","","","","","","","","","","","","","",""
"","ITI","","html-keyboard-response","313","454984","0.0-1.0-432.0","0","0","65289","","null","","","null","47","","","","","","","","","","","","","","","NaN",""
"","block_over","","html-keyboard-response","314","5936829","0.0-1.0-433.0-0.0","0","0","65289","","5481840","","","32","47","","","","","","","","","","","","","","","",""
"","S1","","html-keyboard-response","315","5936985","0.0-1.0-434.0","0","0","65289","","null","","","null","48","","","","","","","","","","","","","","","",""
"","ISI","","html-keyboard-response","316","5938992","0.0-1.0-435.0","0","0","65289","","1566","","","68","48","d","","","","","","","","","","","","","","",""
"","S2","","html-keyboard-response","317","5939153","0.0-1.0-436.0","0","0","65289","","null","","","null","48","","NaN","","","","","","","","","","","","","",""
"","response","","html-keyboard-response","318","5939600","0.0-1.0-437.0-0.0","0","0","65289","","442","","","68","48","","","2","48","training","adjacent","CD","3","4","Q.jpg","R.jpg","0","1","0","",""
"","feedback","","html-keyboard-response","319","5940608","0.0-1.0-438.0-0.0","0","0","65289","","null","","","null","48","","","","","","","","","","","","","","","",""
"","time_out","","html-keyboard-response","320","5942616","0.0-1.0-440.0-0.0","0","0","65289","","null","","","null","48","","","","","","","","","","","","","","","",""
"","ITI","","html-keyboard-response","321","5943625","0.0-1.0-441.0","0","0","65289","","null","","","null","48","","","","","","","","","","","","","","","NaN",""
"","S1","","html-keyboard-response","322","5943785","0.0-1.0-443.0","0","0","65289","","null","","","null","49","","","","","","","","","","","","","","","",""
"","ISI","","html-keyboard-response","323","5945792","0.0-1.0-444.0","0","0","65289","","null","","","null","49","NaN","","","","","","","","","","","","","","",""
"","S2","","html-keyboard-response","324","5945953","0.0-1.0-445.0","0","0","65289","","null","","","null","49","","NaN","","","","","","","","","","","","","",""
"","response","","html-keyboard-response","325","5946471","0.0-1.0-446.0-0.0","0","0","65289","","513","","","75","49","","","2","49","training","adjacent","BC","2","3","O.jpg","Q.jpg","1","1","1","",""
"","feedback","","html-keyboard-response","326","5947482","0.0-1.0-447.0-0.0","0","0","65289","","null","","","null","49","","","","","","","","","","","","","","","",""
"","ITI","","html-keyboard-response","327","5948489","0.0-1.0-450.0","0","0","65289","","null","","","null","49","","","","","","","","","","","","","","","NaN",""
"","S1","","html-keyboard-response","328","5948649","0.0-1.0-452.0","0","0","65289","","null","","","null","50","","","","","","","","","","","","","","","",""
"","ISI","","html-keyboard-response","329","5950656","0.0-1.0-453.0","0","0","65289","","null","","","null","50","NaN","","","","","","","","","","","","","","",""
"","S2","","html-keyboard-response","330","5950817","0.0-1.0-454.0","0","0","65289","","null","","","null","50","","NaN","","","","","","","","","","","","","",""
"","response","","html-keyboard-response","331","5951306","0.0-1.0-455.0-0.0","0","0","65289","","485","","","68","50","","","2","50","training","adjacent","GF","7","6","L.jpg","M.jpg","0","0","1","",""
"","feedback","","html-keyboard-response","332","5952312","0.0-1.0-456.0-0.0","0","0","65289","","null","","","null","50","","","","","","","","","","","","","","","",""
"","ITI","","html-keyboard-response","333","5953321","0.0-1.0-459.0","0","0","65289","","null","","","null","50","","","","","","","","","","","","","","","NaN",""
"","S1","","html-keyboard-response","334","5953482","0.0-1.0-461.0","0","0","65289","","null","","","null","51","","","","","","","","","","","","","","","",""
"","ISI","","html-keyboard-response","335","5955489","0.0-1.0-462.0","0","0","65289","","null","","","null","51","NaN","","","","","","","","","","","","","","",""
"","S2","","html-keyboard-response","336","5955649","0.0-1.0-463.0","0","0","65289","","null","","","null","51","","NaN","","","","","","","","","","","","","",""
"","response","","html-keyboard-response","337","5955961","0.0-1.0-464.0-0.0","0","0","65289","","307","","","75","51","","","2","51","training","adjacent","CB","3","2","Q.jpg","O.jpg","1","0","0","",""
"","feedback","","html-keyboard-response","338","5956969","0.0-1.0-465.0-0.0","0","0","65289","","null","","","null","51","","","","","","","","","","","","","","","",""
"","time_out","","html-keyboard-response","339","5958977","0.0-1.0-467.0-0.0","0","0","65289","","null","","","null","51","","","","","","","","","","","","","","","",""
"","ITI","","html-keyboard-response","340","5959984","0.0-1.0-468.0","0","0","65289","","null","","","null","51","","","","","","","","","","","","","","","NaN",""
"","S1","","html-keyboard-response","341","5960145","0.0-1.0-470.0","0","0","65289","","null","","","null","52","","","","","","","","","","","","","","","",""
"","ISI","","html-keyboard-response","342","5962153","0.0-1.0-471.0","0","0","65289","","null","","","null","52","NaN","","","","","","","","","","","","","","",""
"","S2","","html-keyboard-response","343","5962312","0.0-1.0-472.0","0","0","65289","","null","","","null","52","","NaN","","","","","","","","","","","","","",""
"","response","","html-keyboard-response","344","5962909","0.0-1.0-473.0-0.0","0","0","65289","","592","","","68","52","","","2","52","training","adjacent","ED","5","4","P.jpg","R.jpg","0","0","1","",""
"","feedback","","html-keyboard-response","345","5963922","0.0-1.0-474.0-0.0","0","0","65289","","null","","","null","52","","","","","","","","","","","","","","","",""
"","ITI","","html-keyboard-response","346","5964929","0.0-1.0-477.0","0","0","65289","","null","","","null","52","","","","","","","","","","","","","","","NaN",""
"","S1","","html-keyboard-response","347","5965089","0.0-1.0-479.0","0","0","65289","","null","","","null","53","","","","","","","","","","","","","","","",""
"","ISI","","html-keyboard-response","348","5967096","0.0-1.0-480.0","0","0","65289","","null","","","null","53","NaN","","","","","","","","","","","","","","",""
"","S2","","html-keyboard-response","349","5967257","0.0-1.0-481.0","0","0","65289","","null","","","null","53","","NaN","","","","","","","","","","","","","",""
"","response","","html-keyboard-response","350","5967716","0.0-1.0-482.0-0.0","0","0","65289","","453","","","75","53","","","2","53","training","adjacent","GF","7","6","L.jpg","M.jpg","1","0","0","",""
"","feedback","","html-keyboard-response","351","5968729","0.0-1.0-483.0-0.0","0","0","65289","","null","","","null","53","","","","","","","","","","","","","","","",""
"","time_out","","html-keyboard-response","352","5970736","0.0-1.0-485.0-0.0","0","0","65289","","null","","","null","53","","","","","","","","","","","","","","","",""
"","ITI","","html-keyboard-response","353","5971744","0.0-1.0-486.0","0","0","65289","","null","","","null","53","","","","","","","","","","","","","","","NaN",""
"","S1","","html-keyboard-response","354","5971904","0.0-1.0-488.0","0","0","65289","","null","","","null","54","","","","","","","","","","","","","","","",""
"","ISI","","html-keyboard-response","355","5973913","0.0-1.0-489.0","0","0","65289","","373","","","75","54","k","","","","","","","","","","","","","","",""
"","S2","","html-keyboard-response","356","5974072","0.0-1.0-490.0","0","0","65289","","null","","","null","54","","NaN","","","","","","","","","","","","","",""
"","response","","html-keyboard-response","357","5974591","0.0-1.0-491.0-0.0","0","0","65289","","514","","","75","54","","","2","54","training","adjacent","DE","4","5","R.jpg","P.jpg","1","1","1","",""
"","feedback","","html-keyboard-response","358","5975601","0.0-1.0-492.0-0.0","0","0","65289","","null","","","null","54","","","","","","","","","","","","","","","",""
"","ITI","","html-keyboard-response","359","5976608","0.0-1.0-495.0","0","0","65289","","null","","","null","54","","","","","","","","","","","","","","","NaN",""
"","S1","","html-keyboard-response","360","5976768","0.0-1.0-497.0","0","0","65289","","null","","","null","55","","","","","","","","","","","","","","","",""
"","ISI","","html-keyboard-response","361","5978776","0.0-1.0-498.0","0","0","65289","","null","","","null","55","NaN","","","","","","","","","","","","","","",""
"","S2","","html-keyboard-response","362","5978936","0.0-1.0-499.0","0","0","65289","","null","","","null","55","","NaN","","","","","","","","","","","","","",""
"","response","","html-keyboard-response","363","5979513","0.0-1.0-500.0-0.0","0","0","65289","","573","","","68","55","","","2","55","training","adjacent","BA","2","1","O.jpg","N.jpg","0","0","1","",""
"","feedback","","html-keyboard-response","364","5980521","0.0-1.0-501.0-0.0","0","0","65289","","null","","","null","55","","","","","","","","","","","","","","","",""
"","ITI","","html-keyboard-response","365","5981528","0.0-1.0-504.0","0","0","65289","","null","","","null","55","","","","","","","","","","","","","","","NaN",""
"","S1","","html-keyboard-response","366","5981688","0.0-1.0-506.0","0","0","65289","","null","","","null","56","","","","","","","","","","","","","","","",""
"","ISI","","html-keyboard-response","367","5983696","0.0-1.0-507.0","0","0","65289","","1287","","","75","56","k","","","","","","","","","","","","","","",""
"","S2","","html-keyboard-response","368","5983857","0.0-1.0-508.0","0","0","65289","","null","","","null","56","","NaN","","","","","","","","","","","","","",""
"","response","","html-keyboard-response","369","5985713","0.0-1.0-509.0-0.0","0","0","65289","","null","","","null","56","","","2","56","training","adjacent","EF","5","6","P.jpg","M.jpg","NaN","1","0","",""
"","too_slow_prompt","","html-keyboard-response","370","5986721","0.0-1.0-511.0-0.0","1","0","65289","","null","","","null","","","","","","","","","","","","","","","","",""
"","time_out","","html-keyboard-response","371","5988729","0.0-1.0-512.0-0.0","0","0","65289","","null","","","null","56","","","","","","","","","","","","","","","",""
"","ITI","","html-keyboard-response","372","5989737","0.0-1.0-513.0","0","0","65289","","null","","","null","56","","","","","","","","","","","","","","","NaN",""
"","S1","","html-keyboard-response","373","5989897","0.0-1.0-515.0","0","0","65289","","null","","","null","57","","","","","","","","","","","","","","","",""
"","ISI","","html-keyboard-response","374","5991904","0.0-1.0-516.0","0","0","65289","","null","","","null","57","NaN","","","","","","","","","","","","","","",""
"","S2","","html-keyboard-response","375","5992065","0.0-1.0-517.0","0","0","65289","","null","","","null","57","","NaN","","","","","","","","","","","","","",""
"","response","","html-keyboard-response","376","5992536","0.0-1.0-518.0-0.0","0","0","65289","","467","","","68","57","","","2","57","training","adjacent","DE","4","5","R.jpg","P.jpg","0","1","0","",""
"","feedback","","html-keyboard-response","377","5993545","0.0-1.0-519.0-0.0","0","0","65289","","null","","","null","57","","","","","","","","","","","","","","","",""
"","time_out","","html-keyboard-response","378","5995552","0.0-1.0-521.0-0.0","0","0","65289","","null","","","null","57","","","","","","","","","","","","","","","",""
"","ITI","","html-keyboard-response","379","5996562","0.0-1.0-522.0","0","0","65289","","null","","","null","57","","","","","","","","","","","","","","","NaN",""
"","S1","","html-keyboard-response","380","5996721","0.0-1.0-524.0","0","0","65289","","null","","","null","58","","","","","","","","","","","","","","","",""
"","ISI","","html-keyboard-response","381","5998729","0.0-1.0-525.0","0","0","65289","","null","","","null","58","NaN","","","","","","","","","","","","","","",""
"","S2","","html-keyboard-response","382","5998889","0.0-1.0-526.0","0","0","65289","","null","","","null","58","","NaN","","","","","","","","","","","","","",""
"","response","","html-keyboard-response","383","5999394","0.0-1.0-527.0-0.0","0","0","65289","","500","","","75","58","","","2","58","training","adjacent","FE","6","5","M.jpg","P.jpg","1","0","0","",""
"","feedback","","html-keyboard-response","384","6000401","0.0-1.0-528.0-0.0","0","0","65289","","null","","","null","58","","","","","","","","","","","","","","","",""
"","time_out","","html-keyboard-response","385","6002409","0.0-1.0-530.0-0.0","0","0","65289","","null","","","null","58","","","","","","","","","","","","","","","",""
"","ITI","","html-keyboard-response","386","6003417","0.0-1.0-531.0","0","0","65289","","null","","","null","58","","","","","","","","","","","","","","","NaN",""
"","S1","","html-keyboard-response","387","6003578","0.0-1.0-533.0","0","0","65289","","null","","","null","59","","","","","","","","","","","","","","","",""
"","ISI","","html-keyboard-response","388","6005585","0.0-1.0-534.0","0","0","65289","","null","","","null","59","NaN","","","","","","","","","","","","","","",""
"","S2","","html-keyboard-response","389","6005745","0.0-1.0-535.0","0","0","65289","","null","","","null","59","","NaN","","","","","","","","","","","","","",""
"","response","","html-keyboard-response","390","6006376","0.0-1.0-536.0-0.0","0","0","65289","","626","","","75","59","","","2","59","training","adjacent","AB","1","2","N.jpg","O.jpg","1","1","1","",""
"","feedback","","html-keyboard-response","391","6007385","0.0-1.0-537.0-0.0","0","0","65289","","null","","","null","59","","","","","","","","","","","","","","","",""
"","ITI","","html-keyboard-response","392","6008393","0.0-1.0-540.0","0","0","65289","","null","","","null","59","","","","","","","","","","","","","","","NaN",""
"","S1","","html-keyboard-response","393","6008553","0.0-1.0-542.0","0","0","65289","","null","","","null","60","","","","","","","","","","","","","","","",""
"","ISI","","html-keyboard-response","394","6010561","0.0-1.0-543.0","0","0","65289","","null","","","null","60","NaN","","","","","","","","","","","","","","",""
"","S2","","html-keyboard-response","395","6010720","0.0-1.0-544.0","0","0","65289","","null","","","null","60","","NaN","","","","","","","","","","","","","",""
"","response","","html-keyboard-response","396","6011506","0.0-1.0-545.0-0.0","0","0","65289","","782","","","75","60","","","2","60","training","adjacent","CB","3","2","Q.jpg","O.jpg","1","0","0","",""
"","feedback","","html-keyboard-response","397","6012513","0.0-1.0-546.0-0.0","0","0","65289","","null","","","null","60","","","","","","","","","","","","","","","",""
"","time_out","","html-keyboard-response","398","6014520","0.0-1.0-548.0-0.0","0","0","65289","","null","","","null","60","","","","","","","","","","","","","","","",""
"","ITI","","html-keyboard-response","399","6015528","0.0-1.0-549.0","0","0","65289","","null","","","null","60","","","","","","","","","","","","","","","NaN",""
"","S1","","html-keyboard-response","400","6015689","0.0-1.0-551.0","0","0","65289","","null","","","null","61","","","","","","","","","","","","","","","",""
"","ISI","","html-keyboard-response","401","6017696","0.0-1.0-552.0","0","0","65289","","null","","","null","61","NaN","","","","","","","","","","","","","","",""
"","S2","","html-keyboard-response","402","6017856","0.0-1.0-553.0","0","0","65289","","null","","","null","61","","NaN","","","","","","","","","","","","","",""
"","response","","html-keyboard-response","403","6018430","0.0-1.0-554.0-0.0","0","0","65289","","569","","","68","61","","","2","61","training","adjacent","CD","3","4","Q.jpg","R.jpg","0","1","0","",""
"","feedback","","html-keyboard-response","404","6019440","0.0-1.0-555.0-0.0","0","0","65289","","null","","","null","61","","","","","","","","","","","","","","","",""
"","time_out","","html-keyboard-response","405","6021448","0.0-1.0-557.0-0.0","0","0","65289","","null","","","null","61","","","","","","","","","","","","","","","",""
"","ITI","","html-keyboard-response","406","6022457","0.0-1.0-558.0","0","0","65289","","null","","","null","61","","","","","","","","","","","","","","","NaN",""
"","S1","","html-keyboard-response","407","6022616","0.0-1.0-560.0","0","0","65289","","null","","","null","62","","","","","","","","","","","","","","","",""
"","ISI","","html-keyboard-response","408","6024625","0.0-1.0-561.0","0","0","65289","","1725","","","75","62","k","","","","","","","","","","","","","","",""
"","S2","","html-keyboard-response","409","6024785","0.0-1.0-562.0","0","0","65289","","null","","","null","62","","NaN","","","","","","","","","","","","","",""
"","response","","html-keyboard-response","410","6025005","0.0-1.0-563.0-0.0","0","0","65289","","215","","","75","62","","","2","62","training","adjacent","EF","5","6","P.jpg","M.jpg","1","1","1","",""
"","feedback","","html-keyboard-response","411","6026018","0.0-1.0-564.0-0.0","0","0","65289","","null","","","null","62","","","","","","","","","","","","","","","",""
"","ITI","","html-keyboard-response","412","6027025","0.0-1.0-567.0","0","0","65289","","null","","","null","62","","","","","","","","","","","","","","","NaN",""
"","S1","","html-keyboard-response","413","6027185","0.0-1.0-569.0","0","0","65289","","null","","","null","63","","","","","","","","","","","","","","","",""
"","ISI","","html-keyboard-response","414","6029192","0.0-1.0-570.0","0","0","65289","","null","","","null","63","NaN","","","","","","","","","","","","","","",""
"","S2","","html-keyboard-response","415","6029353","0.0-1.0-571.0","0","0","65289","","null","","","null","63","","NaN","","","","","","","","","","","","","",""
"","response","","html-keyboard-response","416","6030883","0.0-1.0-572.0-0.0","0","0","65289","","1525","","","68","63","","","2","63","training","adjacent","BA","2","1","O.jpg","N.jpg","0","0","1","",""
"","feedback","","html-keyboard-response","417","6031888","0.0-1.0-573.0-0.0","0","0","65289","","null","","","null","63","","","","","","","","","","","","","","","",""
"","ITI","","html-keyboard-response","418","6032896","0.0-1.0-576.0","0","0","65289","","null","","","null","63","","","","","","","","","","","","","","","NaN",""
"","S1","","html-keyboard-response","419","6033056","0.0-1.0-578.0","0","0","65289","","null","","","null","64","","","","","","","","","","","","","","","",""
"","ISI","","html-keyboard-response","420","6035064","0.0-1.0-579.0","0","0","65289","","null","","","null","64","NaN","","","","","","","","","","","","","","",""
"","S2","","html-keyboard-response","421","6035225","0.0-1.0-580.0","0","0","65289","","null","","","null","64","","NaN","","","","","","","","","","","","","",""
"","response","","html-keyboard-response","422","6035981","0.0-1.0-581.0-0.0","0","0","65289","","751","","","75","64","","","2","64","training","adjacent","DE","4","5","R.jpg","P.jpg","1","1","1","",""
"","feedback","","html-keyboard-response","423","6036992","0.0-1.0-582.0-0.0","0","0","65289","","null","","","null","64","","","","","","","","","","","","","","","",""
"","ITI","","html-keyboard-response","424","6038001","0.0-1.0-585.0","0","0","65289","","null","","","null","64","","","","","","","","","","","","","","","NaN",""
"","S1","","html-keyboard-response","425","6038161","0.0-1.0-587.0","0","0","65289","","null","","","null","65","","","","","","","","","","","","","","","",""
"","ISI","","html-keyboard-response","426","6040169","0.0-1.0-588.0","0","0","65289","","null","","","null","65","NaN","","","","","","","","","","","","","","",""
"","S2","","html-keyboard-response","427","6040329","0.0-1.0-589.0","0","0","65289","","null","","","null","65","","NaN","","","","","","","","","","","","","",""
"","response","","html-keyboard-response","428","6040965","0.0-1.0-590.0-0.0","0","0","65289","","631","","","68","65","","","2","65","training","adjacent","DC","4","3","R.jpg","Q.jpg","0","0","1","",""
"","feedback","","html-keyboard-response","429","6041977","0.0-1.0-591.0-0.0","0","0","65289","","null","","","null","65","","","","","","","","","","","","","","","",""
"","ITI","","html-keyboard-response","430","6042985","0.0-1.0-594.0","0","0","65289","","null","","","null","65","","","","","","","","","","","","","","","NaN",""
"","S1","","html-keyboard-response","431","6043145","0.0-1.0-596.0","0","0","65289","","null","","","null","66","","","","","","","","","","","","","","","",""
"","ISI","","html-keyboard-response","432","6045153","0.0-1.0-597.0","0","0","65289","","null","","","null","66","NaN","","","","","","","","","","","","","","",""
"","S2","","html-keyboard-response","433","6045312","0.0-1.0-598.0","0","0","65289","","null","","","null","66","","NaN","","","","","","","","","","","","","",""
"","response","","html-keyboard-response","434","6046354","0.0-1.0-599.0-0.0","0","0","65289","","1036","","","68","66","","","2","66","training","adjacent","FG","6","7","M.jpg","L.jpg","0","1","0","",""
"","feedback","","html-keyboard-response","435","6047360","0.0-1.0-600.0-0.0","0","0","65289","","null","","","null","66","","","","","","","","","","","","","","","",""
"","time_out","","html-keyboard-response","436","6049370","0.0-1.0-602.0-0.0","0","0","65289","","null","","","null","66","","","","","","","","","","","","","","","",""
"","ITI","","html-keyboard-response","437","6050377","0.0-1.0-603.0","0","0","65289","","null","","","null","66","","","","","","","","","","","","","","","NaN",""
"","S1","","html-keyboard-response","438","6050539","0.0-1.0-605.0","0","0","65289","","null","","","null","67","","","","","","","","","","","","","","","",""
"","ISI","","html-keyboard-response","439","6052544","0.0-1.0-606.0","0","0","65289","","null","","","null","67","NaN","","","","","","","","","","","","","","",""
"","S2","","html-keyboard-response","440","6052705","0.0-1.0-607.0","0","0","65289","","null","","","null","67","","NaN","","","","","","","","","","","","","",""
"","response","","html-keyboard-response","441","6053223","0.0-1.0-608.0-0.0","0","0","65289","","512","","","75","67","","","2","67","training","adjacent","DC","4","3","R.jpg","Q.jpg","1","0","0","",""
"","feedback","","html-keyboard-response","442","6054233","0.0-1.0-609.0-0.0","0","0","65289","","null","","","null","67","","","","","","","","","","","","","","","",""
"","time_out","","html-keyboard-response","443","6056241","0.0-1.0-611.0-0.0","0","0","65289","","null","","","null","67","","","","","","","","","","","","","","","",""
"","ITI","","html-keyboard-response","444","6057249","0.0-1.0-612.0","0","0","65289","","null","","","null","67","","","","","","","","","","","","","","","NaN",""
"","S1","","html-keyboard-response","445","6057409","0.0-1.0-614.0","0","0","65289","","null","","","null","68","","","","","","","","","","","","","","","",""
"","ISI","","html-keyboard-response","446","6059417","0.0-1.0-615.0","0","0","65289","","null","","","null","68","NaN","","","","","","","","","","","","","","",""
"","S2","","html-keyboard-response","447","6059576","0.0-1.0-616.0","0","0","65289","","null","","","null","68","","NaN","","","","","","","","","","","","","",""
"","response","","html-keyboard-response","448","6060008","0.0-1.0-617.0-0.0","0","0","65289","","427","","","75","68","","","2","68","training","adjacent","CB","3","2","Q.jpg","O.jpg","1","0","0","",""
"","feedback","","html-keyboard-response","449","6061017","0.0-1.0-618.0-0.0","0","0","65289","","null","","","null","68","","","","","","","","","","","","","","","",""
"","time_out","","html-keyboard-response","450","6063025","0.0-1.0-620.0-0.0","0","0","65289","","null","","","null","68","","","","","","","","","","","","","","","",""
"","ITI","","html-keyboard-response","451","6064033","0.0-1.0-621.0","0","0","65289","","null","","","null","68","","","","","","","","","","","","","","","NaN",""
"","S1","","html-keyboard-response","452","6064193","0.0-1.0-623.0","0","0","65289","","null","","","null","69","","","","","","","","","","","","","","","",""
"","ISI","","html-keyboard-response","453","6066201","0.0-1.0-624.0","0","0","65289","","null","","","null","69","NaN","","","","","","","","","","","","","","",""
"","S2","","html-keyboard-response","454","6066361","0.0-1.0-625.0","0","0","65289","","null","","","null","69","","NaN","","","","","","","","","","","","","",""
"","response","","html-keyboard-response","455","6066918","0.0-1.0-626.0-0.0","0","0","65289","","552","","","68","69","","","2","69","training","adjacent","DC","4","3","R.jpg","Q.jpg","0","0","1","",""
"","feedback","","html-keyboard-response","456","6067929","0.0-1.0-627.0-0.0","0","0","65289","","null","","","null","69","","","","","","","","","","","","","","","",""
"","ITI","","html-keyboard-response","457","6068937","0.0-1.0-630.0","0","0","65289","","null","","","null","69","","","","","","","","","","","","","","","NaN",""
"","S1","","html-keyboard-response","458","6069096","0.0-1.0-632.0","0","0","65289","","null","","","null","70","","","","","","","","","","","","","","","",""
"","ISI","","html-keyboard-response","459","6071105","0.0-1.0-633.0","0","0","65289","","null","","","null","70","NaN","","","","","","","","","","","","","","",""
"","S2","","html-keyboard-response","460","6071264","0.0-1.0-634.0","0","0","65289","","null","","","null","70","","NaN","","","","","","","","","","","","","",""
"","response","","html-keyboard-response","461","6071776","0.0-1.0-635.0-0.0","0","0","65289","","508","","","68","70","","","2","70","training","adjacent","FE","6","5","M.jpg","P.jpg","0","0","1","",""
"","feedback","","html-keyboard-response","462","6072785","0.0-1.0-636.0-0.0","0","0","65289","","null","","","null","70","","","","","","","","","","","","","","","",""
"","ITI","","html-keyboard-response","463","6073792","0.0-1.0-639.0","0","0","65289","","null","","","null","70","","","","","","","","","","","","","","","NaN",""
"","S1","","html-keyboard-response","464","6073953","0.0-1.0-641.0","0","0","65289","","null","","","null","71","","","","","","","","","","","","","","","",""
"","ISI","","html-keyboard-response","465","6075960","0.0-1.0-642.0","0","0","65289","","null","","","null","71","NaN","","","","","","","","","","","","","","",""
"","S2","","html-keyboard-response","466","6076121","0.0-1.0-643.0","0","0","65289","","null","","","null","71","","NaN","","","","","","","","","","","","","",""
"","response","","html-keyboard-response","467","6076721","0.0-1.0-644.0-0.0","0","0","65289","","594","","","68","71","","","2","71","training","adjacent","BC","2","3","O.jpg","Q.jpg","0","1","0","",""
"","feedback","","html-keyboard-response","468","6077729","0.0-1.0-645.0-0.0","0","0","65289","","null","","","null","71","","","","","","","","","","","","","","","",""
"","time_out","","html-keyboard-response","469","6079737","0.0-1.0-647.0-0.0","0","0","65289","","null","","","null","71","","","","","","","","","","","","","","","",""
"","ITI","","html-keyboard-response","470","6080745","0.0-1.0-648.0","0","0","65289","","null","","","null","71","","","","","","","","","","","","","","","NaN",""
"","S1","","html-keyboard-response","471","6080905","0.0-1.0-650.0","0","0","65289","","null","","","null","72","","","","","","","","","","","","","","","",""
"","ISI","","html-keyboard-response","472","6082913","0.0-1.0-651.0","0","0","65289","","257","","","75","72","k","","","","","","","","","","","","","","",""
"","S2","","html-keyboard-response","473","6083073","0.0-1.0-652.0","0","0","65289","","null","","","null","72","","NaN","","","","","","","","","","","","","",""
"","response","","html-keyboard-response","474","6083651","0.0-1.0-653.0-0.0","0","0","65289","","573","","","75","72","","","2","72","training","adjacent","CD","3","4","Q.jpg","R.jpg","1","1","1","",""
"","feedback","","html-keyboard-response","475","6084657","0.0-1.0-654.0-0.0","0","0","65289","","null","","","null","72","","","","","","","","","","","","","","","",""
"","ITI","","html-keyboard-response","476","6085666","0.0-1.0-657.0","0","0","65289","","null","","","null","72","","","","","","","","","","","","","","","NaN",""
"","S1","","html-keyboard-response","477","6085824","0.0-1.0-659.0","0","0","65289","","null","","","null","73","","","","","","","","","","","","","","","",""
"","ISI","","html-keyboard-response","478","6087832","0.0-1.0-660.0","0","0","65289","","null","","","null","73","NaN","","","","","","","","","","","","","","",""
"","S2","","html-keyboard-response","479","6087992","0.0-1.0-661.0","0","0","65289","","null","","","null","73","","NaN","","","","","","","","","","","","","",""
"","response","","html-keyboard-response","480","6088623","0.0-1.0-662.0-0.0","0","0","65289","","627","","","75","73","","","2","73","training","adjacent","DE","4","5","R.jpg","P.jpg","1","1","1","",""
"","feedback","","html-keyboard-response","481","6089633","0.0-1.0-663.0-0.0","0","0","65289","","null","","","null","73","","","","","","","","","","","","","","","",""
"","ITI","","html-keyboard-response","482","6090641","0.0-1.0-666.0","0","0","65289","","null","","","null","73","","","","","","","","","","","","","","","NaN",""
"","S1","","html-keyboard-response","483","6090801","0.0-1.0-668.0","0","0","65289","","null","","","null","74","","","","","","","","","","","","","","","",""
"","ISI","","html-keyboard-response","484","6092808","0.0-1.0-669.0","0","0","65289","","null","","","null","74","NaN","","","","","","","","","","","","","","",""
"","S2","","html-keyboard-response","485","6092968","0.0-1.0-670.0","0","0","65289","","null","","","null","74","","NaN","","","","","","","","","","","","","",""
"","response","","html-keyboard-response","486","6093706","0.0-1.0-671.0-0.0","0","0","65289","","733","","","68","74","","","2","74","training","adjacent","FG","6","7","M.jpg","L.jpg","0","1","0","",""
"","feedback","","html-keyboard-response","487","6094712","0.0-1.0-672.0-0.0","0","0","65289","","null","","","null","74","","","","","","","","","","","","","","","",""
"","time_out","","html-keyboard-response","488","6096720","0.0-1.0-674.0-0.0","0","0","65289","","null","","","null","74","","","","","","","","","","","","","","","",""
"","ITI","","html-keyboard-response","489","6097729","0.0-1.0-675.0","0","0","65289","","null","","","null","74","","","","","","","","","","","","","","","NaN",""
"","S1","","html-keyboard-response","490","6097889","0.0-1.0-677.0","0","0","65289","","null","","","null","75","","","","","","","","","","","","","","","",""
"","ISI","","html-keyboard-response","491","6099897","0.0-1.0-678.0","0","0","65289","","null","","","null","75","NaN","","","","","","","","","","","","","","",""
"","S2","","html-keyboard-response","492","6100057","0.0-1.0-679.0","0","0","65289","","null","","","null","75","","NaN","","","","","","","","","","","","","",""
"","response","","html-keyboard-response","493","6100239","0.0-1.0-680.0-0.0","0","0","65289","","177","","","75","75","","","2","75","training","adjacent","CD","3","4","Q.jpg","R.jpg","1","1","1","",""
"","feedback","","html-keyboard-response","494","6101249","0.0-1.0-681.0-0.0","0","0","65289","","null","","","null","75","","","","","","","","","","","","","","","",""
"","ITI","","html-keyboard-response","495","6102257","0.0-1.0-684.0","0","0","65289","","null","","","null","75","","","","","","","","","","","","","","","NaN",""
"","S1","","html-keyboard-response","496","6102416","0.0-1.0-686.0","0","0","65289","","null","","","null","76","","","","","","","","","","","","","","","",""
"","ISI","","html-keyboard-response","497","6104425","0.0-1.0-687.0","0","0","65289","","null","","","null","76","NaN","","","","","","","","","","","","","","",""
"","S2","","html-keyboard-response","498","6104585","0.0-1.0-688.0","0","0","65289","","null","","","null","76","","NaN","","","","","","","","","","","","","",""
"","response","","html-keyboard-response","499","6105471","0.0-1.0-689.0-0.0","0","0","65289","","882","","","75","76","","","2","76","training","adjacent","FG","6","7","M.jpg","L.jpg","1","1","1","",""
"","feedback","","html-keyboard-response","500","6106481","0.0-1.0-690.0-0.0","0","0","65289","","null","","","null","76","","","","","","","","","","","","","","","",""
"","ITI","","html-keyboard-response","501","6107489","0.0-1.0-693.0","0","0","65289","","null","","","null","76","","","","","","","","","","","","","","","NaN",""
"","S1","","html-keyboard-response","502","6107648","0.0-1.0-695.0","0","0","65289","","null","","","null","77","","","","","","","","","","","","","","","",""
"","ISI","","html-keyboard-response","503","6109658","0.0-1.0-696.0","0","0","65289","","null","","","null","77","NaN","","","","","","","","","","","","","","",""
"","S2","","html-keyboard-response","504","6109817","0.0-1.0-697.0","0","0","65289","","null","","","null","77","","NaN","","","","","","","","","","","","","",""
"","response","","html-keyboard-response","505","6110458","0.0-1.0-698.0-0.0","0","0","65289","","637","","","68","77","","","2","77","training","adjacent","FE","6","5","M.jpg","P.jpg","0","0","1","",""
"","feedback","","html-keyboard-response","506","6111464","0.0-1.0-699.0-0.0","0","0","65289","","null","","","null","77","","","","","","","","","","","","","","","",""
"","ITI","","html-keyboard-response","507","6112473","0.0-1.0-702.0","0","0","65289","","null","","","null","77","","","","","","","","","","","","","","","NaN",""
"","S1","","html-keyboard-response","508","6112633","0.0-1.0-704.0","0","0","65289","","null","","","null","78","","","","","","","","","","","","","","","",""
"","ISI","","html-keyboard-response","509","6114641","0.0-1.0-705.0","0","0","65289","","null","","","null","78","NaN","","","","","","","","","","","","","","",""
"","S2","","html-keyboard-response","510","6114801","0.0-1.0-706.0","0","0","65289","","null","","","null","78","","NaN","","","","","","","","","","","","","",""
"","response","","html-keyboard-response","511","6115300","0.0-1.0-707.0-0.0","0","0","65289","","494","","","75","78","","","2","78","training","adjacent","FG","6","7","M.jpg","L.jpg","1","1","1","",""
"","feedback","","html-keyboard-response","512","6116313","0.0-1.0-708.0-0.0","0","0","65289","","null","","","null","78","","","","","","","","","","","","","","","",""
"","ITI","","html-keyboard-response","513","6117320","0.0-1.0-711.0","0","0","65289","","null","","","null","78","","","","","","","","","","","","","","","NaN",""
"","S1","","html-keyboard-response","514","6117481","0.0-1.0-713.0","0","0","65289","","null","","","null","79","","","","","","","","","","","","","","","",""
"","ISI","","html-keyboard-response","515","6119488","0.0-1.0-714.0","0","0","65289","","null","","","null","79","NaN","","","","","","","","","","","","","","",""
"","S2","","html-keyboard-response","516","6119648","0.0-1.0-715.0","0","0","65289","","null","","","null","79","","NaN","","","","","","","","","","","","","",""
"","response","","html-keyboard-response","517","6120587","0.0-1.0-716.0-0.0","0","0","65289","","934","","","75","79","","","2","79","training","adjacent","AB","1","2","N.jpg","O.jpg","1","1","1","",""
"","feedback","","html-keyboard-response","518","6121601","0.0-1.0-717.0-0.0","0","0","65289","","null","","","null","79","","","","","","","","","","","","","","","",""
"","ITI","","html-keyboard-response","519","6122610","0.0-1.0-720.0","0","0","65289","","null","","","null","79","","","","","","","","","","","","","","","NaN",""
"","S1","","html-keyboard-response","520","6122769","0.0-1.0-722.0","0","0","65289","","null","","","null","80","","","","","","","","","","","","","","","",""
"","ISI","","html-keyboard-response","521","6124776","0.0-1.0-723.0","0","0","65289","","null","","","null","80","NaN","","","","","","","","","","","","","","",""
"","S2","","html-keyboard-response","522","6124936","0.0-1.0-724.0","0","0","65289","","null","","","null","80","","NaN","","","","","","","","","","","","","",""
"","response","","html-keyboard-response","523","6125977","0.0-1.0-725.0-0.0","0","0","65289","","1036","","","75","80","","","2","80","training","adjacent","FE","6","5","M.jpg","P.jpg","1","0","0","",""
"","feedback","","html-keyboard-response","524","6126985","0.0-1.0-726.0-0.0","0","0","65289","","null","","","null","80","","","","","","","","","","","","","","","",""
"","time_out","","html-keyboard-response","525","6129001","0.0-1.0-728.0-0.0","0","0","65289","","null","","","null","80","","","","","","","","","","","","","","","",""
"","ITI","","html-keyboard-response","526","6130009","0.0-1.0-729.0","0","0","65289","","null","","","null","80","","","","","","","","","","","","","","","NaN",""
"","S1","","html-keyboard-response","527","6130169","0.0-1.0-731.0","0","0","65289","","null","","","null","81","","","","","","","","","","","","","","","",""
"","ISI","","html-keyboard-response","528","6132176","0.0-1.0-732.0","0","0","65289","","null","","","null","81","NaN","","","","","","","","","","","","","","",""
"","S2","","html-keyboard-response","529","6132337","0.0-1.0-733.0","0","0","65289","","null","","","null","81","","NaN","","","","","","","","","","","","","",""
"","response","","html-keyboard-response","530","6132832","0.0-1.0-734.0-0.0","0","0","65289","","490","","","68","81","","","2","81","training","adjacent","GF","7","6","L.jpg","M.jpg","0","0","1","",""
"","feedback","","html-keyboard-response","531","6133841","0.0-1.0-735.0-0.0","0","0","65289","","null","","","null","81","","","","","","","","","","","","","","","",""
"","ITI","","html-keyboard-response","532","6134849","0.0-1.0-738.0","0","0","65289","","null","","","null","81","","","","","","","","","","","","","","","NaN",""
"","S1","","html-keyboard-response","533","6135009","0.0-1.0-740.0","0","0","65289","","null","","","null","82","","","","","","","","","","","","","","","",""
"","ISI","","html-keyboard-response","534","6137017","0.0-1.0-741.0","0","0","65289","","null","","","null","82","NaN","","","","","","","","","","","","","","",""
"","S2","","html-keyboard-response","535","6137177","0.0-1.0-742.0","0","0","65289","","null","","","null","82","","NaN","","","","","","","","","","","","","",""
"","response","","html-keyboard-response","536","6137836","0.0-1.0-743.0-0.0","0","0","65289","","655","","","68","82","","","2","82","training","adjacent","BA","2","1","O.jpg","N.jpg","0","0","1","",""
"","feedback","","html-keyboard-response","537","6138849","0.0-1.0-744.0-0.0","0","0","65289","","null","","","null","82","","","","","","","","","","","","","","","",""
"","ITI","","html-keyboard-response","538","6139857","0.0-1.0-747.0","0","0","65289","","null","","","null","82","","","","","","","","","","","","","","","NaN",""
"","S1","","html-keyboard-response","539","6140017","0.0-1.0-749.0","0","0","65289","","null","","","null","83","","","","","","","","","","","","","","","",""
"","ISI","","html-keyboard-response","540","6142024","0.0-1.0-750.0","0","0","65289","","null","","","null","83","NaN","","","","","","","","","","","","","","",""
"","S2","","html-keyboard-response","541","6142184","0.0-1.0-751.0","0","0","65289","","null","","","null","83","","NaN","","","","","","","","","","","","","",""
"","response","","html-keyboard-response","542","6142773","0.0-1.0-752.0-0.0","0","0","65289","","584","","","68","83","","","2","83","training","adjacent","BC","2","3","O.jpg","Q.jpg","0","1","0","",""
"","feedback","","html-keyboard-response","543","6143786","0.0-1.0-753.0-0.0","0","0","65289","","null","","","null","83","","","","","","","","","","","","","","","",""
"","time_out","","html-keyboard-response","544","6145792","0.0-1.0-755.0-0.0","0","0","65289","","null","","","null","83","","","","","","","","","","","","","","","",""
"","ITI","","html-keyboard-response","545","6146801","0.0-1.0-756.0","0","0","65289","","null","","","null","83","","","","","","","","","","","","","","","NaN",""
"","S1","","html-keyboard-response","546","6146961","0.0-1.0-758.0","0","0","65289","","null","","","null","84","","","","","","","","","","","","","","","",""
"","ISI","","html-keyboard-response","547","6148969","0.0-1.0-759.0","0","0","65289","","null","","","null","84","NaN","","","","","","","","","","","","","","",""
"","S2","","html-keyboard-response","548","6149128","0.0-1.0-760.0","0","0","65289","","null","","","null","84","","NaN","","","","","","","","","","","","","",""
"","response","","html-keyboard-response","549","6149596","0.0-1.0-761.0-0.0","0","0","65289","","463","","","75","84","","","2","84","training","adjacent","BA","2","1","O.jpg","N.jpg","1","0","0","",""
"","feedback","","html-keyboard-response","550","6150609","0.0-1.0-762.0-0.0","0","0","65289","","null","","","null","84","","","","","","","","","","","","","","","",""
"","time_out","","html-keyboard-response","551","6152618","0.0-1.0-764.0-0.0","0","0","65289","","null","","","null","84","","","","","","","","","","","","","","","",""
"","ITI","","html-keyboard-response","552","6153626","0.0-1.0-765.0","0","0","65289","","null","","","null","84","","","","","","","","","","","","","","","NaN",""
"","S1","","html-keyboard-response","553","6153785","0.0-1.0-767.0","0","0","65289","","null","","","null","85","","","","","","","","","","","","","","","",""
"","ISI","","html-keyboard-response","554","6155793","0.0-1.0-768.0","0","0","65289","","null","","","null","85","NaN","","","","","","","","","","","","","","",""
"","S2","","html-keyboard-response","555","6155953","0.0-1.0-769.0","0","0","65289","","null","","","null","85","","NaN","","","","","","","","","","","","","",""
"","response","","html-keyboard-response","556","6156378","0.0-1.0-770.0-0.0","0","0","65289","","420","","","68","85","","","2","85","training","adjacent","ED","5","4","P.jpg","R.jpg","0","0","1","",""
"","feedback","","html-keyboard-response","557","6157385","0.0-1.0-771.0-0.0","0","0","65289","","null","","","null","85","","","","","","","","","","","","","","","",""
"","ITI","","html-keyboard-response","558","6158393","0.0-1.0-774.0","0","0","65289","","null","","","null","85","","","","","","","","","","","","","","","NaN",""
"","S1","","html-keyboard-response","559","6158552","0.0-1.0-776.0","0","0","65289","","null","","","null","86","","","","","","","","","","","","","","","",""
"","ISI","","html-keyboard-response","560","6160560","0.0-1.0-777.0","0","0","65289","","null","","","null","86","NaN","","","","","","","","","","","","","","",""
"","S2","","html-keyboard-response","561","6160721","0.0-1.0-778.0","0","0","65289","","null","","","null","86","","NaN","","","","","","","","","","","","","",""
"","response","","html-keyboard-response","562","6162577","0.0-1.0-779.0-0.0","0","0","65289","","null","","","null","86","","","2","86","training","adjacent","ED","5","4","P.jpg","R.jpg","NaN","0","0","",""
"","too_slow_prompt","","html-keyboard-response","563","6163585","0.0-1.0-781.0-0.0","1","0","65289","","null","","","null","","","","","","","","","","","","","","","","",""
"","time_out","","html-keyboard-response","564","6165593","0.0-1.0-782.0-0.0","0","0","65289","","null","","","null","86","","","","","","","","","","","","","","","",""
"","ITI","","html-keyboard-response","565","6166600","0.0-1.0-783.0","0","0","65289","","null","","","null","86","","","","","","","","","","","","","","","NaN",""
"","S1","","html-keyboard-response","566","6166761","0.0-1.0-785.0","0","0","65289","","null","","","null","87","","","","","","","","","","","","","","","",""
"","ISI","","html-keyboard-response","567","6168768","0.0-1.0-786.0","0","0","65289","","null","","","null","87","NaN","","","","","","","","","","","","","","",""
"","S2","","html-keyboard-response","568","6168929","0.0-1.0-787.0","0","0","65289","","null","","","null","87","","NaN","","","","","","","","","","","","","",""
"","response","","html-keyboard-response","569","6169169","0.0-1.0-788.0-0.0","0","0","65289","","236","","","68","87","","","2","87","training","adjacent","CB","3","2","Q.jpg","O.jpg","0","0","1","",""
"","feedback","","html-keyboard-response","570","6170177","0.0-1.0-789.0-0.0","0","0","65289","","null","","","null","87","","","","","","","","","","","","","","","",""
"","ITI","","html-keyboard-response","571","6171185","0.0-1.0-792.0","0","0","65289","","null","","","null","87","","","","","","","","","","","","","","","NaN",""
"","S1","","html-keyboard-response","572","6171345","0.0-1.0-794.0","0","0","65289","","null","","","null","88","","","","","","","","","","","","","","","",""
"","ISI","","html-keyboard-response","573","6173353","0.0-1.0-795.0","0","0","65289","","null","","","null","88","NaN","","","","","","","","","","","","","","",""
"","S2","","html-keyboard-response","574","6173512","0.0-1.0-796.0","0","0","65289","","null","","","null","88","","NaN","","","","","","","","","","","","","",""
"","response","","html-keyboard-response","575","6173942","0.0-1.0-797.0-0.0","0","0","65289","","425","","","75","88","","","2","88","training","adjacent","AB","1","2","N.jpg","O.jpg","1","1","1","",""
"","feedback","","html-keyboard-response","576","6174952","0.0-1.0-798.0-0.0","0","0","65289","","null","","","null","88","","","","","","","","","","","","","","","",""
"","ITI","","html-keyboard-response","577","6175961","0.0-1.0-801.0","0","0","65289","","null","","","null","88","","","","","","","","","","","","","","","NaN",""
"","S1","","html-keyboard-response","578","6176120","0.0-1.0-803.0","0","0","65289","","null","","","null","89","","","","","","","","","","","","","","","",""
"","ISI","","html-keyboard-response","579","6178129","0.0-1.0-804.0","0","0","65289","","null","","","null","89","NaN","","","","","","","","","","","","","","",""
"","S2","","html-keyboard-response","580","6178288","0.0-1.0-805.0","0","0","65289","","null","","","null","89","","NaN","","","","","","","","","","","","","",""
