"success","ttype","start_time","trial_type","trial_index","time_elapsed","internal_node_id","warning","missed_checkup","PID","view_history","rt","responses","repeat_instructions","key_press","index","keypress_isi","keypress_S2","block","trial_num","phase","group_type","pair_type","S1_stim","S2_stim","S1_img","S2_img","S1_chosen","S1_higher","accuracy","keypress_iti","total_bonus_tally"
"true","full_screen","d04152023hr0320","fullscreen","0","9120","0.0-0.0","0","0","91769","","","","","","","","","","","","","","","","","","","","","",""
"","instructions","","instructions","1","34329","0.0-1.0-0.0-0.0","0","0","91769","[{""page_index"":0,""viewing_time"":3471},{""page_index"":1,""viewing_time"":9387},{""page_index"":2,""viewing_time"":11229},{""page_index"":3,""viewing_time"":1121}]","25208","","","","","","","","","","","","","","","","","","","",""
"","comprehension_check","","survey-multi-choice","2","61044","0.0-1.0-0.0-1.0","0","0","91769","","26712","{""Q0"":""True"",""Q1"":""K"",""Q2"":""Only when the screen 'MAKE A CHOICE' is shown"",""Q3"":""Green mark"",""Q4"":""either D or K""}","1","","","","","","","","","","","","","","","","","",""
"","missed_instruction_checkup","","html-keyboard-response","3","62888","0.0-1.0-0.0-2.0-0.0","0","1","91769","","1843","","","32","","","","","","","","","","","","","","","","",""
"","instructions","","instructions","4","69609","0.0-1.0-0.1-0.1","0","0","91769","[{""page_index"":0,""viewing_time"":1692},{""page_index"":1,""viewing_time"":3906},{""page_index"":2,""viewing_time"":483},{""page_index"":3,""viewing_time"":638}]","6719","","","","","","","","","","","","","","","","","","","",""
"","comprehension_check","","survey-multi-choice","5","79001","0.0-1.0-0.1-1.1","0","0","91769","","9389","{""Q0"":""True"",""Q1"":""K"",""Q2"":""Once the second image appears and while the screen 'MAKE A CHOICE' is shown"",""Q3"":""Green mark"",""Q4"":""either D or K""}","0","","","","","","","","","","","","","","","","","",""
"","start_exp","","html-keyboard-response","6","80408","0.0-1.0-1.0","0","0","91769","","1406","","","32","","","","","","","","","","","","","","","","",""
"","S1","","html-keyboard-response","7","80661","0.0-1.0-2.0","0","0","91769","","null","","","null","0","","","","","","","","","","","","","","","",""
"","ISI","","html-keyboard-response","8","81663","0.0-1.0-3.0","0","0","91769","","null","","","null","0","NaN","","","","","","","","","","","","","","",""
"","S2","","html-keyboard-response","9","81915","0.0-1.0-4.0","0","0","91769","","null","","","null","0","","NaN","","","","","","","","","","","","","",""
"","response","","html-keyboard-response","10","83667","0.0-1.0-5.0-0.0","0","0","91769","","null","","","null","0","","","1","0","training","adjacent","BA","2","1","L.jpg","R.jpg","NaN","0","0","",""
"","too_slow_prompt","","html-keyboard-response","11","84670","0.0-1.0-7.0-0.0","1","0","91769","","null","","","null","","","","","","","","","","","","","","","","",""
"","time_out","","html-keyboard-response","12","86673","0.0-1.0-8.0-0.0","0","0","91769","","null","","","null","0","","","","","","","","","","","","","","","",""
"","ITI","","html-keyboard-response","13","87674","0.0-1.0-9.0","0","0","91769","","null","","","null","0","","","","","","","","","","","","","","","NaN",""
"","S1","","html-keyboard-response","14","87937","0.0-1.0-11.0","0","0","91769","","null","","","null","1","","","","","","","","","","","","","","","",""
"","ISI","","html-keyboard-response","15","88939","0.0-1.0-12.0","0","0","91769","","null","","","null","1","NaN","","","","","","","","","","","","","","",""
"","S2","","html-keyboard-response","16","89191","0.0-1.0-13.0","0","0","91769","","null","","","null","1","","NaN","","","","","","","","","","","","","",""
"","response","","html-keyboard-response","17","89427","0.0-1.0-14.0-0.0","0","0","91769","","234","","","68","1","","","1","1","training","adjacent","GF","7","6","P.jpg","O.jpg","0","0","1","",""
"","feedback","","html-keyboard-response","18","90430","0.0-1.0-15.0-0.0","0","0","91769","","null","","","null","1","","","","","","","","","","","","","","","",""
"","ITI","","html-keyboard-response","19","91433","0.0-1.0-18.0","0","0","91769","","null","","","null","1","","","","","","","","","","","","","","","NaN",""
"","S1","","html-keyboard-response","20","91686","0.0-1.0-20.0","0","0","91769","","null","","","null","2","","","","","","","","","","","","","","","",""
"","ISI","","html-keyboard-response","21","92688","0.0-1.0-21.0","0","0","91769","","null","","","null","2","NaN","","","","","","","","","","","","","","",""
"","S2","","html-keyboard-response","22","92941","0.0-1.0-22.0","0","0","91769","","null","","","null","2","","NaN","","","","","","","","","","","","","",""
"","response","","html-keyboard-response","23","93277","0.0-1.0-23.0-0.0","0","0","91769","","335","","","75","2","","","1","2","training","adjacent","FG","6","7","O.jpg","P.jpg","1","1","1","",""
"","feedback","","html-keyboard-response","24","94279","0.0-1.0-24.0-0.0","0","0","91769","","null","","","null","2","","","","","","","","","","","","","","","",""
"","ITI","","html-keyboard-response","25","95281","0.0-1.0-27.0","0","0","91769","","null","","","null","2","","","","","","","","","","","","","","","NaN",""
"","S1","","html-keyboard-response","26","95535","0.0-1.0-29.0","0","0","91769","","null","","","null","3","","","","","","","","","","","","","","","",""
"","ISI","","html-keyboard-response","27","96537","0.0-1.0-30.0","0","0","91769","","null","","","null","3","NaN","","","","","","","","","","","","","","",""
"","S2","","html-keyboard-response","28","96789","0.0-1.0-31.0","0","0","91769","","null","","","null","3","","NaN","","","","","","","","","","","","","",""
"","response","","html-keyboard-response","29","97075","0.0-1.0-32.0-0.0","0","0","91769","","285","","","75","3","","","1","3","training","adjacent","EF","5","6","N.jpg","O.jpg","1","1","1","",""
"","feedback","","html-keyboard-response","30","98078","0.0-1.0-33.0-0.0","0","0","91769","","null","","","null","3","","","","","","","","","","","","","","","",""
"","ITI","","html-keyboard-response","31","99080","0.0-1.0-36.0","0","0","91769","","null","","","null","3","","","","","","","","","","","","","","","NaN",""
"","S1","","html-keyboard-response","32","99332","0.0-1.0-38.0","0","0","91769","","null","","","null","4","","","","","","","","","","","","","","","",""
"","ISI","","html-keyboard-response","33","100335","0.0-1.0-39.0","0","0","91769","","null","","","null","4","NaN","","","","","","","","","","","","","","",""
"","S2","","html-keyboard-response","34","100588","0.0-1.0-40.0","0","0","91769","","null","","","null","4","","NaN","","","","","","","","","","","","","",""
"","response","","html-keyboard-response","35","101146","0.0-1.0-41.0-0.0","0","0","91769","","557","","","68","4","","","1","4","training","adjacent","GF","7","6","P.jpg","O.jpg","0","0","1","",""
"","feedback","","html-keyboard-response","36","102153","0.0-1.0-42.0-0.0","0","0","91769","","null","","","null","4","","","","","","","","","","","","","","","",""
"","ITI","","html-keyboard-response","37","103155","0.0-1.0-45.0","0","0","91769","","null","","","null","4","","","","","","","","","","","","","","","NaN",""
"","S1","","html-keyboard-response","38","103407","0.0-1.0-47.0","0","0","91769","","null","","","null","5","","","","","","","","","","","","","","","",""
"","ISI","","html-keyboard-response","39","104409","0.0-1.0-48.0","0","0","91769","","null","","","null","5","NaN","","","","","","","","","","","","","","",""
"","S2","","html-keyboard-response","40","104661","0.0-1.0-49.0","0","0","91769","","null","","","null","5","","NaN","","","","","","","","","","","","","",""
"","response","","html-keyboard-response","41","105159","0.0-1.0-50.0-0.0","0","0","91769","","496","","","68","5","","","1","5","training","adjacent","BA","2","1","L.jpg","R.jpg","0","0","1","",""
"","feedback","","html-keyboard-response","42","106162","0.0-1.0-51.0-0.0","0","0","91769","","null","","","null","5","","","","","","","","","","","","","","","",""
"","ITI","","html-keyboard-response","43","107166","0.0-1.0-54.0","0","0","91769","","null","","","null","5","","","","","","","","","","","","","","","NaN",""
"","S1","","html-keyboard-response","44","107418","0.0-1.0-56.0","0","0","91769","","null","","","null","6","","","","","","","","","","","","","","","",""
"","ISI","","html-keyboard-response","45","108420","0.0-1.0-57.0","0","0","91769","","null","","","null","6","NaN","","","","","","","","","","","","","","",""
"","S2","","html-keyboard-response","46","108672","0.0-1.0-58.0","0","0","91769","","null","","","null","6","","NaN","","","","","","","","","","","","","",""
"","response","","html-keyboard-response","47","109013","0.0-1.0-59.0-0.0","0","0","91769","","339","","","75","6","","","1","6","training","adjacent","EF","5","6","N.jpg","O.jpg","1","1","1","",""
"","feedback","","html-keyboard-response","48","110015","0.0-1.0-60.0-0.0","0","0","91769","","null","","","null","6","","","","","","","","","","","","","","","",""
"","ITI","","html-keyboard-response","49","111018","0.0-1.0-63.0","0","0","91769","","null","","","null","6","","","","","","","","","","","","","","","NaN",""
"","S1","","html-keyboard-response","50","111271","0.0-1.0-65.0","0","0","91769","","null","","","null","7","","","","","","","","","","","","","","","",""
"","ISI","","html-keyboard-response","51","112286","0.0-1.0-66.0","0","0","91769","","null","","","null","7","NaN","","","","","","","","","","","","","","",""
"","S2","","html-keyboard-response","52","112539","0.0-1.0-67.0","0","0","91769","","null","","","null","7","","NaN","","","","","","","","","","","","","",""
"","response","","html-keyboard-response","53","113197","0.0-1.0-68.0-0.0","0","0","91769","","657","","","75","7","","","1","7","training","adjacent","DE","4","5","M.jpg","N.jpg","1","1","1","",""
"","feedback","","html-keyboard-response","54","114199","0.0-1.0-69.0-0.0","0","0","91769","","null","","","null","7","","","","","","","","","","","","","","","",""
"","ITI","","html-keyboard-response","55","115202","0.0-1.0-72.0","0","0","91769","","null","","","null","7","","","","","","","","","","","","","","","NaN",""
"","S1","","html-keyboard-response","56","115454","0.0-1.0-74.0","0","0","91769","","null","","","null","8","","","","","","","","","","","","","","","",""
"","ISI","","html-keyboard-response","57","116455","0.0-1.0-75.0","0","0","91769","","null","","","null","8","NaN","","","","","","","","","","","","","","",""
"","S2","","html-keyboard-response","58","116709","0.0-1.0-76.0","0","0","91769","","null","","","null","8","","NaN","","","","","","","","","","","","","",""
"","response","","html-keyboard-response","59","117266","0.0-1.0-77.0-0.0","0","0","91769","","557","","","68","8","","","1","8","training","adjacent","DC","4","3","M.jpg","Q.jpg","0","0","1","",""
"","feedback","","html-keyboard-response","60","118270","0.0-1.0-78.0-0.0","0","0","91769","","null","","","null","8","","","","","","","","","","","","","","","",""
"","ITI","","html-keyboard-response","61","119281","0.0-1.0-81.0","0","0","91769","","null","","","null","8","","","","","","","","","","","","","","","NaN",""
"","S1","","html-keyboard-response","62","119534","0.0-1.0-83.0","0","0","91769","","null","","","null","9","","","","","","","","","","","","","","","",""
"","ISI","","html-keyboard-response","63","120536","0.0-1.0-84.0","0","0","91769","","null","","","null","9","NaN","","","","","","","","","","","","","","",""
"","S2","","html-keyboard-response","64","120788","0.0-1.0-85.0","0","0","91769","","null","","","null","9","","NaN","","","","","","","","","","","","","",""
"","response","","html-keyboard-response","65","121794","0.0-1.0-86.0-0.0","0","0","91769","","1004","","","75","9","","","1","9","training","adjacent","CD","3","4","Q.jpg","M.jpg","1","1","1","",""
"","feedback","","html-keyboard-response","66","122798","0.0-1.0-87.0-0.0","0","0","91769","","null","","","null","9","","","","","","","","","","","","","","","",""
"","ITI","","html-keyboard-response","67","123800","0.0-1.0-90.0","0","0","91769","","null","","","null","9","","","","","","","","","","","","","","","NaN",""
"","S1","","html-keyboard-response","68","124052","0.0-1.0-92.0","0","0","91769","","null","","","null","10","","","","","","","","","","","","","","","",""
"","ISI","","html-keyboard-response","69","125054","0.0-1.0-93.0","0","0","91769","","null","","","null","10","NaN","","","","","","","","","","","","","","",""
"","S2","","html-keyboard-response","70","125307","0.0-1.0-94.0","0","0","91769","","null","","","null","10","","NaN","","","","","","","","","","","","","",""
"","response","","html-keyboard-response","71","125901","0.0-1.0-95.0-0.0","0","0","91769","","593","","","75","10","","","1","10","training","adjacent","DC","4","3","M.jpg","Q.jpg","1","0","0","",""
"","feedback","","html-keyboard-response","72","126904","0.0-1.0-96.0-0.0","0","0","91769","","null","","","null","10","","","","","","","","","","","","","","","",""
"","time_out","","html-keyboard-response","73","128914","0.0-1.0-98.0-0.0","0","0","91769","","null","","","null","10","","","","","","","","","","","","","","","",""
"","ITI","","html-keyboard-response","74","129916","0.0-1.0-99.0","0","0","91769","","null","","","null","10","","","","","","","","","","","","","","","NaN",""
"","S1","","html-keyboard-response","75","130168","0.0-1.0-101.0","0","0","91769","","null","","","null","11","","","","","","","","","","","","","","","",""
"","ISI","","html-keyboard-response","76","131170","0.0-1.0-102.0","0","0","91769","","null","","","null","11","NaN","","","","","","","","","","","","","","",""
"","S2","","html-keyboard-response","77","131423","0.0-1.0-103.0","0","0","91769","","null","","","null","11","","NaN","","","","","","","","","","","","","",""
"","response","","html-keyboard-response","78","132081","0.0-1.0-104.0-0.0","0","0","91769","","657","","","75","11","","","1","11","training","adjacent","DE","4","5","M.jpg","N.jpg","1","1","1","",""
"","feedback","","html-keyboard-response","79","133084","0.0-1.0-105.0-0.0","0","0","91769","","null","","","null","11","","","","","","","","","","","","","","","",""
"","ITI","","html-keyboard-response","80","134087","0.0-1.0-108.0","0","0","91769","","null","","","null","11","","","","","","","","","","","","","","","NaN",""
"","S1","","html-keyboard-response","81","134356","0.0-1.0-110.0","0","0","91769","","null","","","null","12","","","","","","","","","","","","","","","",""
"","ISI","","html-keyboard-response","82","135358","0.0-1.0-111.0","0","0","91769","","null","","","null","12","NaN","","","","","","","","","","","","","","",""
"","S2","","html-keyboard-response","83","135611","0.0-1.0-112.0","0","0","91769","","null","","","null","12","","NaN","","","","","","","","","","","","","",""
"","response","","html-keyboard-response","84","135891","0.0-1.0-113.0-0.0","0","0","91769","","278","","","68","12","","","1","12","training","adjacent","FE","6","5","O.jpg","N.jpg","0","0","1","",""
"","feedback","","html-keyboard-response","85","136893","0.0-1.0-114.0-0.0","0","0","91769","","null","","","null","12","","","","","","","","","","","","","","","",""
"","ITI","","html-keyboard-response","86","137895","0.0-1.0-117.0","0","0","91769","","null","","","null","12","","","","","","","","","","","","","","","NaN",""
"","S1","","html-keyboard-response","87","138148","0.0-1.0-119.0","0","0","91769","","null","","","null","13","","","","","","","","","","","","","","","",""
"","ISI","","html-keyboard-response","88","139150","0.0-1.0-120.0","0","0","91769","","null","","","null","13","NaN","","","","","","","","","","","","","","",""
"","S2","","html-keyboard-response","89","139403","0.0-1.0-121.0","0","0","91769","","null","","","null","13","","NaN","","","","","","","","","","","","","",""
"","response","","html-keyboard-response","90","139804","0.0-1.0-122.0-0.0","0","0","91769","","400","","","68","13","","","1","13","training","adjacent","CD","3","4","Q.jpg","M.jpg","0","1","0","",""
"","feedback","","html-keyboard-response","91","140806","0.0-1.0-123.0-0.0","0","0","91769","","null","","","null","13","","","","","","","","","","","","","","","",""
"","time_out","","html-keyboard-response","92","142808","0.0-1.0-125.0-0.0","0","0","91769","","null","","","null","13","","","","","","","","","","","","","","","",""
"","ITI","","html-keyboard-response","93","143810","0.0-1.0-126.0","0","0","91769","","null","","","null","13","","","","","","","","","","","","","","","NaN",""
"","S1","","html-keyboard-response","94","144063","0.0-1.0-128.0","0","0","91769","","null","","","null","14","","","","","","","","","","","","","","","",""
"","ISI","","html-keyboard-response","95","145066","0.0-1.0-129.0","0","0","91769","","null","","","null","14","NaN","","","","","","","","","","","","","","",""
"","S2","","html-keyboard-response","96","145318","0.0-1.0-130.0","0","0","91769","","null","","","null","14","","NaN","","","","","","","","","","","","","",""
"","response","","html-keyboard-response","97","145752","0.0-1.0-131.0-0.0","0","0","91769","","433","","","68","14","","","1","14","training","adjacent","ED","5","4","N.jpg","M.jpg","0","0","1","",""
"","feedback","","html-keyboard-response","98","146754","0.0-1.0-132.0-0.0","0","0","91769","","null","","","null","14","","","","","","","","","","","","","","","",""
"","ITI","","html-keyboard-response","99","147756","0.0-1.0-135.0","0","0","91769","","null","","","null","14","","","","","","","","","","","","","","","NaN",""
"","S1","","html-keyboard-response","100","148009","0.0-1.0-137.0","0","0","91769","","null","","","null","15","","","","","","","","","","","","","","","",""
"","ISI","","html-keyboard-response","101","149011","0.0-1.0-138.0","0","0","91769","","null","","","null","15","NaN","","","","","","","","","","","","","","",""
"","S2","","html-keyboard-response","102","149263","0.0-1.0-139.0","0","0","91769","","null","","","null","15","","NaN","","","","","","","","","","","","","",""
"","response","","html-keyboard-response","103","150022","0.0-1.0-140.0-0.0","0","0","91769","","757","","","75","15","","","1","15","training","adjacent","BC","2","3","L.jpg","Q.jpg","1","1","1","",""
"","feedback","","html-keyboard-response","104","151024","0.0-1.0-141.0-0.0","0","0","91769","","null","","","null","15","","","","","","","","","","","","","","","",""
"","ITI","","html-keyboard-response","105","152027","0.0-1.0-144.0","0","0","91769","","null","","","null","15","","","","","","","","","","","","","","","NaN",""
"","S1","","html-keyboard-response","106","152278","0.0-1.0-146.0","0","0","91769","","null","","","null","16","","","","","","","","","","","","","","","",""
"","ISI","","html-keyboard-response","107","153281","0.0-1.0-147.0","0","0","91769","","null","","","null","16","NaN","","","","","","","","","","","","","","",""
"","S2","","html-keyboard-response","108","153534","0.0-1.0-148.0","0","0","91769","","null","","","null","16","","NaN","","","","","","","","","","","","","",""
"","response","","html-keyboard-response","109","153849","0.0-1.0-149.0-0.0","0","0","91769","","315","","","75","16","","","1","16","training","adjacent","DC","4","3","M.jpg","Q.jpg","1","0","0","",""
"","feedback","","html-keyboard-response","110","154852","0.0-1.0-150.0-0.0","0","0","91769","","null","","","null","16","","","","","","","","","","","","","","","",""
"","time_out","","html-keyboard-response","111","156855","0.0-1.0-152.0-0.0","0","0","91769","","null","","","null","16","","","","","","","","","","","","","","","",""
"","ITI","","html-keyboard-response","112","157858","0.0-1.0-153.0","0","0","91769","","null","","","null","16","","","","","","","","","","","","","","","NaN",""
"","S1","","html-keyboard-response","113","158110","0.0-1.0-155.0","0","0","91769","","null","","","null","17","","","","","","","","","","","","","","","",""
"","ISI","","html-keyboard-response","114","159113","0.0-1.0-156.0","0","0","91769","","null","","","null","17","NaN","","","","","","","","","","","","","","",""
"","S2","","html-keyboard-response","115","159365","0.0-1.0-157.0","0","0","91769","","null","","","null","17","","NaN","","","","","","","","","","","","","",""
"","response","","html-keyboard-response","116","159895","0.0-1.0-158.0-0.0","0","0","91769","","529","","","75","17","","","1","17","training","adjacent","CB","3","2","Q.jpg","L.jpg","1","0","0","",""
"","feedback","","html-keyboard-response","117","160898","0.0-1.0-159.0-0.0","0","0","91769","","null","","","null","17","","","","","","","","","","","","","","","",""
"","time_out","","html-keyboard-response","118","162900","0.0-1.0-161.0-0.0","0","0","91769","","null","","","null","17","","","","","","","","","","","","","","","",""
"","ITI","","html-keyboard-response","119","163902","0.0-1.0-162.0","0","0","91769","","null","","","null","17","","","","","","","","","","","","","","","NaN",""
"","S1","","html-keyboard-response","120","164164","0.0-1.0-164.0","0","0","91769","","null","","","null","18","","","","","","","","","","","","","","","",""
"","ISI","","html-keyboard-response","121","165167","0.0-1.0-165.0","0","0","91769","","null","","","null","18","NaN","","","","","","","","","","","","","","",""
"","S2","","html-keyboard-response","122","165419","0.0-1.0-166.0","0","0","91769","","null","","","null","18","","NaN","","","","","","","","","","","","","",""
"","response","","html-keyboard-response","123","165693","0.0-1.0-167.0-0.0","0","0","91769","","272","","","75","18","","","1","18","training","adjacent","AB","1","2","R.jpg","L.jpg","1","1","1","",""
"","feedback","","html-keyboard-response","124","166696","0.0-1.0-168.0-0.0","0","0","91769","","null","","","null","18","","","","","","","","","","","","","","","",""
"","ITI","","html-keyboard-response","125","167699","0.0-1.0-171.0","0","0","91769","","null","","","null","18","","","","","","","","","","","","","","","NaN",""
"","S1","","html-keyboard-response","126","167951","0.0-1.0-173.0","0","0","91769","","null","","","null","19","","","","","","","","","","","","","","","",""
"","ISI","","html-keyboard-response","127","168953","0.0-1.0-174.0","0","0","91769","","null","","","null","19","NaN","","","","","","","","","","","","","","",""
"","S2","","html-keyboard-response","128","169205","0.0-1.0-175.0","0","0","91769","","null","","","null","19","","NaN","","","","","","","","","","","","","",""
"","response","","html-keyboard-response","129","169568","0.0-1.0-176.0-0.0","0","0","91769","","361","","","75","19","","","1","19","training","adjacent","EF","5","6","N.jpg","O.jpg","1","1","1","",""
"","feedback","","html-keyboard-response","130","170579","0.0-1.0-177.0-0.0","0","0","91769","","null","","","null","19","","","","","","","","","","","","","","","",""
"","ITI","","html-keyboard-response","131","171581","0.0-1.0-180.0","0","0","91769","","null","","","null","19","","","","","","","","","","","","","","","NaN",""
"","S1","","html-keyboard-response","132","171833","0.0-1.0-182.0","0","0","91769","","null","","","null","20","","","","","","","","","","","","","","","",""
"","ISI","","html-keyboard-response","133","172836","0.0-1.0-183.0","0","0","91769","","null","","","null","20","NaN","","","","","","","","","","","","","","",""
"","S2","","html-keyboard-response","134","173087","0.0-1.0-184.0","0","0","91769","","null","","","null","20","","NaN","","","","","","","","","","","","","",""
"","response","","html-keyboard-response","135","173353","0.0-1.0-185.0-0.0","0","0","91769","","264","","","68","20","","","1","20","training","adjacent","FE","6","5","O.jpg","N.jpg","0","0","1","",""
"","feedback","","html-keyboard-response","136","174356","0.0-1.0-186.0-0.0","0","0","91769","","null","","","null","20","","","","","","","","","","","","","","","",""
"","ITI","","html-keyboard-response","137","175361","0.0-1.0-189.0","0","0","91769","","null","","","null","20","","","","","","","","","","","","","","","NaN",""
"","S1","","html-keyboard-response","138","175613","0.0-1.0-191.0","0","0","91769","","null","","","null","21","","","","","","","","","","","","","","","",""
"","ISI","","html-keyboard-response","139","176615","0.0-1.0-192.0","0","0","91769","","null","","","null","21","NaN","","","","","","","","","","","","","","",""
"","S2","","html-keyboard-response","140","176867","0.0-1.0-193.0","0","0","91769","","null","","","null","21","","NaN","","","","","","","","","","","","","",""
"","response","","html-keyboard-response","141","177171","0.0-1.0-194.0-0.0","0","0","91769","","302","","","68","21","","","1","21","training","adjacent","BA","2","1","L.jpg","R.jpg","0","0","1","",""
"","feedback","","html-keyboard-response","142","178174","0.0-1.0-195.0-0.0","0","0","91769","","null","","","null","21","","","","","","","","","","","","","","","",""
"","ITI","","html-keyboard-response","143","179175","0.0-1.0-198.0","0","0","91769","","null","","","null","21","","","","","","","","","","","","","","","NaN",""
"","S1","","html-keyboard-response","144","179427","0.0-1.0-200.0","0","0","91769","","null","","","null","22","","","","","","","","","","","","","","","",""
"","ISI","","html-keyboard-response","145","180429","0.0-1.0-201.0","0","0","91769","","null","","","null","22","NaN","","","","","","","","","","","","","","",""
"","S2","","html-keyboard-response","146","180682","0.0-1.0-202.0","0","0","91769","","null","","","null","22","","NaN","","","","","","","","","","","","","",""
"","response","","html-keyboard-response","147","181015","0.0-1.0-203.0-0.0","0","0","91769","","332","","","68","22","","","1","22","training","adjacent","FG","6","7","O.jpg","P.jpg","0","1","0","",""
"","feedback","","html-keyboard-response","148","182016","0.0-1.0-204.0-0.0","0","0","91769","","null","","","null","22","","","","","","","","","","","","","","","",""
"","time_out","","html-keyboard-response","149","184019","0.0-1.0-206.0-0.0","0","0","91769","","null","","","null","22","","","","","","","","","","","","","","","",""
"","ITI","","html-keyboard-response","150","185021","0.0-1.0-207.0","0","0","91769","","null","","","null","22","","","","","","","","","","","","","","","NaN",""
"","S1","","html-keyboard-response","151","185274","0.0-1.0-209.0","0","0","91769","","null","","","null","23","","","","","","","","","","","","","","","",""
"","ISI","","html-keyboard-response","152","186276","0.0-1.0-210.0","0","0","91769","","null","","","null","23","NaN","","","","","","","","","","","","","","",""
"","S2","","html-keyboard-response","153","186528","0.0-1.0-211.0","0","0","91769","","null","","","null","23","","NaN","","","","","","","","","","","","","",""
"","response","","html-keyboard-response","154","186807","0.0-1.0-212.0-0.0","0","0","91769","","278","","","75","23","","","1","23","training","adjacent","CB","3","2","Q.jpg","L.jpg","1","0","0","",""
"","feedback","","html-keyboard-response","155","187810","0.0-1.0-213.0-0.0","0","0","91769","","null","","","null","23","","","","","","","","","","","","","","","",""
"","time_out","","html-keyboard-response","156","189812","0.0-1.0-215.0-0.0","0","0","91769","","null","","","null","23","","","","","","","","","","","","","","","",""
"","ITI","","html-keyboard-response","157","190818","0.0-1.0-216.0","0","0","91769","","null","","","null","23","","","","","","","","","","","","","","","NaN",""
"","S1","","html-keyboard-response","158","191071","0.0-1.0-218.0","0","0","91769","","null","","","null","24","","","","","","","","","","","","","","","",""
"","ISI","","html-keyboard-response","159","192074","0.0-1.0-219.0","0","0","91769","","null","","","null","24","NaN","","","","","","","","","","","","","","",""
"","S2","","html-keyboard-response","160","192326","0.0-1.0-220.0","0","0","91769","","null","","","null","24","","NaN","","","","","","","","","","","","","",""
"","response","","html-keyboard-response","161","193169","0.0-1.0-221.0-0.0","0","0","91769","","842","","","68","24","","","1","24","training","adjacent","GF","7","6","P.jpg","O.jpg","0","0","1","",""
"","feedback","","html-keyboard-response","162","194172","0.0-1.0-222.0-0.0","0","0","91769","","null","","","null","24","","","","","","","","","","","","","","","",""
"","ITI","","html-keyboard-response","163","195174","0.0-1.0-225.0","0","0","91769","","572","","","175","24","","","","","","","","","","","","","","","",""
"","S1","","html-keyboard-response","164","195428","0.0-1.0-227.0","0","0","91769","","null","","","null","25","","","","","","","","","","","","","","","",""
"","ISI","","html-keyboard-response","165","196430","0.0-1.0-228.0","0","0","91769","","null","","","null","25","NaN","","","","","","","","","","","","","","",""
"","S2","","html-keyboard-response","166","196683","0.0-1.0-229.0","0","0","91769","","null","","","null","25","","NaN","","","","","","","","","","","","","",""
"","response","","html-keyboard-response","167","196970","0.0-1.0-230.0-0.0","0","0","91769","","285","","","68","25","","","1","25","training","adjacent","CB","3","2","Q.jpg","L.jpg","0","0","1","",""
"","feedback","","html-keyboard-response","168","197972","0.0-1.0-231.0-0.0","0","0","91769","","null","","","null","25","","","","","","","","","","","","","","","",""
"","ITI","","html-keyboard-response","169","198974","0.0-1.0-234.0","0","0","91769","","null","","","null","25","","","","","","","","","","","","","","","NaN",""
"","S1","","html-keyboard-response","170","199226","0.0-1.0-236.0","0","0","91769","","null","","","null","26","","","","","","","","","","","","","","","",""
"","ISI","","html-keyboard-response","171","200228","0.0-1.0-237.0","0","0","91769","","null","","","null","26","NaN","","","","","","","","","","","","","","",""
"","S2","","html-keyboard-response","172","200480","0.0-1.0-238.0","0","0","91769","","null","","","null","26","","NaN","","","","","","","","","","","","","",""
"","response","","html-keyboard-response","173","200815","0.0-1.0-239.0-0.0","0","0","91769","","334","","","68","26","","","1","26","training","adjacent","ED","5","4","N.jpg","M.jpg","0","0","1","",""
"","feedback","","html-keyboard-response","174","201830","0.0-1.0-240.0-0.0","0","0","91769","","null","","","null","26","","","","","","","","","","","","","","","",""
"","ITI","","html-keyboard-response","175","202832","0.0-1.0-243.0","0","0","91769","","null","","","null","26","","","","","","","","","","","","","","","NaN",""
"","S1","","html-keyboard-response","176","203085","0.0-1.0-245.0","0","0","91769","","null","","","null","27","","","","","","","","","","","","","","","",""
"","ISI","","html-keyboard-response","177","204088","0.0-1.0-246.0","0","0","91769","","null","","","null","27","NaN","","","","","","","","","","","","","","",""
"","S2","","html-keyboard-response","178","204339","0.0-1.0-247.0","0","0","91769","","null","","","null","27","","NaN","","","","","","","","","","","","","",""
"","response","","html-keyboard-response","179","205370","0.0-1.0-248.0-0.0","0","0","91769","","1029","","","75","27","","","1","27","training","adjacent","CD","3","4","Q.jpg","M.jpg","1","1","1","",""
"","feedback","","html-keyboard-response","180","206372","0.0-1.0-249.0-0.0","0","0","91769","","null","","","null","27","","","","","","","","","","","","","","","",""
"","ITI","","html-keyboard-response","181","207373","0.0-1.0-252.0","0","0","91769","","null","","","null","27","","","","","","","","","","","","","","","NaN",""
"","S1","","html-keyboard-response","182","207626","0.0-1.0-254.0","0","0","91769","","null","","","null","28","","","","","","","","","","","","","","","",""
"","ISI","","html-keyboard-response","183","208628","0.0-1.0-255.0","0","0","91769","","null","","","null","28","NaN","","","","","","","","","","","","","","",""
"","S2","","html-keyboard-response","184","208881","0.0-1.0-256.0","0","0","91769","","null","","","null","28","","NaN","","","","","","","","","","","","","",""
"","response","","html-keyboard-response","185","209290","0.0-1.0-257.0-0.0","0","0","91769","","407","","","75","28","","","1","28","training","adjacent","DE","4","5","M.jpg","N.jpg","1","1","1","",""
"","feedback","","html-keyboard-response","186","210293","0.0-1.0-258.0-0.0","0","0","91769","","null","","","null","28","","","","","","","","","","","","","","","",""
"","ITI","","html-keyboard-response","187","211296","0.0-1.0-261.0","0","0","91769","","null","","","null","28","","","","","","","","","","","","","","","NaN",""
"","S1","","html-keyboard-response","188","211549","0.0-1.0-263.0","0","0","91769","","null","","","null","29","","","","","","","","","","","","","","","",""
"","ISI","","html-keyboard-response","189","212551","0.0-1.0-264.0","0","0","91769","","null","","","null","29","NaN","","","","","","","","","","","","","","",""
"","S2","","html-keyboard-response","190","212803","0.0-1.0-265.0","0","0","91769","","null","","","null","29","","NaN","","","","","","","","","","","","","",""
"","response","","html-keyboard-response","191","213461","0.0-1.0-266.0-0.0","0","0","91769","","657","","","68","29","","","1","29","training","adjacent","BC","2","3","L.jpg","Q.jpg","0","1","0","",""
"","feedback","","html-keyboard-response","192","214462","0.0-1.0-267.0-0.0","0","0","91769","","null","","","null","29","","","","","","","","","","","","","","","",""
"","time_out","","html-keyboard-response","193","216464","0.0-1.0-269.0-0.0","0","0","91769","","null","","","null","29","","","","","","","","","","","","","","","",""
"","ITI","","html-keyboard-response","194","217466","0.0-1.0-270.0","0","0","91769","","null","","","null","29","","","","","","","","","","","","","","","NaN",""
"","S1","","html-keyboard-response","195","217718","0.0-1.0-272.0","0","0","91769","","null","","","null","30","","","","","","","","","","","","","","","",""
"","ISI","","html-keyboard-response","196","218720","0.0-1.0-273.0","0","0","91769","","null","","","null","30","NaN","","","","","","","","","","","","","","",""
"","S2","","html-keyboard-response","197","218973","0.0-1.0-274.0","0","0","91769","","null","","","null","30","","NaN","","","","","","","","","","","","","",""
"","response","","html-keyboard-response","198","219321","0.0-1.0-275.0-0.0","0","0","91769","","347","","","75","30","","","1","30","training","adjacent","ED","5","4","N.jpg","M.jpg","1","0","0","",""
"","feedback","","html-keyboard-response","199","220324","0.0-1.0-276.0-0.0","0","0","91769","","null","","","null","30","","","","","","","","","","","","","","","",""
"","time_out","","html-keyboard-response","200","222327","0.0-1.0-278.0-0.0","0","0","91769","","null","","","null","30","","","","","","","","","","","","","","","",""
"","ITI","","html-keyboard-response","201","223329","0.0-1.0-279.0","0","0","91769","","null","","","null","30","","","","","","","","","","","","","","","NaN",""
"","S1","","html-keyboard-response","202","223581","0.0-1.0-281.0","0","0","91769","","null","","","null","31","","","","","","","","","","","","","","","",""
"","ISI","","html-keyboard-response","203","224583","0.0-1.0-282.0","0","0","91769","","null","","","null","31","NaN","","","","","","","","","","","","","","",""
"","S2","","html-keyboard-response","204","224836","0.0-1.0-283.0","0","0","91769","","null","","","null","31","","NaN","","","","","","","","","","","","","",""
"","response","","html-keyboard-response","205","225969","0.0-1.0-284.0-0.0","0","0","91769","","1132","","","75","31","","","1","31","training","adjacent","DE","4","5","M.jpg","N.jpg","1","1","1","",""
"","feedback","","html-keyboard-response","206","226972","0.0-1.0-285.0-0.0","0","0","91769","","null","","","null","31","","","","","","","","","","","","","","","",""
"","ITI","","html-keyboard-response","207","227973","0.0-1.0-288.0","0","0","91769","","null","","","null","31","","","","","","","","","","","","","","","NaN",""
"","S1","","html-keyboard-response","208","228226","0.0-1.0-290.0","0","0","91769","","null","","","null","32","","","","","","","","","","","","","","","",""
"","ISI","","html-keyboard-response","209","229229","0.0-1.0-291.0","0","0","91769","","null","","","null","32","NaN","","","","","","","","","","","","","","",""
"","S2","","html-keyboard-response","210","229482","0.0-1.0-292.0","0","0","91769","","null","","","null","32","","NaN","","","","","","","","","","","","","",""
"","response","","html-keyboard-response","211","229755","0.0-1.0-293.0-0.0","0","0","91769","","271","","","68","32","","","1","32","training","adjacent","FE","6","5","O.jpg","N.jpg","0","0","1","",""
"","feedback","","html-keyboard-response","212","230758","0.0-1.0-294.0-0.0","0","0","91769","","null","","","null","32","","","","","","","","","","","","","","","",""
"","ITI","","html-keyboard-response","213","231760","0.0-1.0-297.0","0","0","91769","","null","","","null","32","","","","","","","","","","","","","","","NaN",""
"","S1","","html-keyboard-response","214","232013","0.0-1.0-299.0","0","0","91769","","null","","","null","33","","","","","","","","","","","","","","","",""
"","ISI","","html-keyboard-response","215","233016","0.0-1.0-300.0","0","0","91769","","null","","","null","33","NaN","","","","","","","","","","","","","","",""
"","S2","","html-keyboard-response","216","233267","0.0-1.0-301.0","0","0","91769","","null","","","null","33","","NaN","","","","","","","","","","","","","",""
"","response","","html-keyboard-response","217","233519","0.0-1.0-302.0-0.0","0","0","91769","","250","","","75","33","","","1","33","training","adjacent","AB","1","2","R.jpg","L.jpg","1","1","1","",""
"","feedback","","html-keyboard-response","218","234521","0.0-1.0-303.0-0.0","0","0","91769","","null","","","null","33","","","","","","","","","","","","","","","",""
"","ITI","","html-keyboard-response","219","235523","0.0-1.0-306.0","0","0","91769","","null","","","null","33","","","","","","","","","","","","","","","NaN",""
"","S1","","html-keyboard-response","220","235775","0.0-1.0-308.0","0","0","91769","","null","","","null","34","","","","","","","","","","","","","","","",""
"","ISI","","html-keyboard-response","221","236776","0.0-1.0-309.0","0","0","91769","","null","","","null","34","NaN","","","","","","","","","","","","","","",""
"","S2","","html-keyboard-response","222","237029","0.0-1.0-310.0","0","0","91769","","null","","","null","34","","NaN","","","","","","","","","","","","","",""
"","response","","html-keyboard-response","223","237399","0.0-1.0-311.0-0.0","0","0","91769","","370","","","68","34","","","1","34","training","adjacent","FE","6","5","O.jpg","N.jpg","0","0","1","",""
"","feedback","","html-keyboard-response","224","238402","0.0-1.0-312.0-0.0","0","0","91769","","null","","","null","34","","","","","","","","","","","","","","","",""
"","ITI","","html-keyboard-response","225","239405","0.0-1.0-315.0","0","0","91769","","null","","","null","34","","","","","","","","","","","","","","","NaN",""
"","S1","","html-keyboard-response","226","239657","0.0-1.0-317.0","0","0","91769","","null","","","null","35","","","","","","","","","","","","","","","",""
"","ISI","","html-keyboard-response","227","240659","0.0-1.0-318.0","0","0","91769","","null","","","null","35","NaN","","","","","","","","","","","","","","",""
"","S2","","html-keyboard-response","228","240912","0.0-1.0-319.0","0","0","91769","","null","","","null","35","","NaN","","","","","","","","","","","","","",""
"","response","","html-keyboard-response","229","241371","0.0-1.0-320.0-0.0","0","0","91769","","457","","","75","35","","","1","35","training","adjacent","FG","6","7","O.jpg","P.jpg","1","1","1","",""
"","feedback","","html-keyboard-response","230","242372","0.0-1.0-321.0-0.0","0","0","91769","","null","","","null","35","","","","","","","","","","","","","","","",""
"","ITI","","html-keyboard-response","231","243374","0.0-1.0-324.0","0","0","91769","","null","","","null","35","","","","","","","","","","","","","","","NaN",""
"","S1","","html-keyboard-response","232","243627","0.0-1.0-326.0","0","0","91769","","null","","","null","36","","","","","","","","","","","","","","","",""
"","ISI","","html-keyboard-response","233","244630","0.0-1.0-327.0","0","0","91769","","null","","","null","36","NaN","","","","","","","","","","","","","","",""
"","S2","","html-keyboard-response","234","244882","0.0-1.0-328.0","0","0","91769","","null","","","null","36","","NaN","","","","","","","","","","","","","",""
"","response","","html-keyboard-response","235","245244","0.0-1.0-329.0-0.0","0","0","91769","","361","","","68","36","","","1","36","training","adjacent","CB","3","2","Q.jpg","L.jpg","0","0","1","",""
"","feedback","","html-keyboard-response","236","246246","0.0-1.0-330.0-0.0","0","0","91769","","null","","","null","36","","","","","","","","","","","","","","","",""
"","ITI","","html-keyboard-response","237","247249","0.0-1.0-333.0","0","0","91769","","null","","","null","36","","","","","","","","","","","","","","","NaN",""
"","S1","","html-keyboard-response","238","247502","0.0-1.0-335.0","0","0","91769","","null","","","null","37","","","","","","","","","","","","","","","",""
"","ISI","","html-keyboard-response","239","248503","0.0-1.0-336.0","0","0","91769","","null","","","null","37","NaN","","","","","","","","","","","","","","",""
"","S2","","html-keyboard-response","240","248756","0.0-1.0-337.0","0","0","91769","","null","","","null","37","","NaN","","","","","","","","","","","","","",""
"","response","","html-keyboard-response","241","249103","0.0-1.0-338.0-0.0","0","0","91769","","346","","","75","37","","","1","37","training","adjacent","DC","4","3","M.jpg","Q.jpg","1","0","0","",""
"","feedback","","html-keyboard-response","242","250106","0.0-1.0-339.0-0.0","0","0","91769","","null","","","null","37","","","","","","","","","","","","","","","",""
"","time_out","","html-keyboard-response","243","252108","0.0-1.0-341.0-0.0","0","0","91769","","null","","","null","37","","","","","","","","","","","","","","","",""
"","ITI","","html-keyboard-response","244","253110","0.0-1.0-342.0","0","0","91769","","null","","","null","37","","","","","","","","","","","","","","","NaN",""
"","S1","","html-keyboard-response","245","253377","0.0-1.0-344.0","0","0","91769","","null","","","null","38","","","","","","","","","","","","","","","",""
"","ISI","","html-keyboard-response","246","254379","0.0-1.0-345.0","0","0","91769","","null","","","null","38","NaN","","","","","","","","","","","","","","",""
"","S2","","html-keyboard-response","247","254631","0.0-1.0-346.0","0","0","91769","","null","","","null","38","","NaN","","","","","","","","","","","","","",""
"","response","","html-keyboard-response","248","255426","0.0-1.0-347.0-0.0","0","0","91769","","795","","","75","38","","","1","38","training","adjacent","BC","2","3","L.jpg","Q.jpg","1","1","1","",""
"","feedback","","html-keyboard-response","249","256438","0.0-1.0-348.0-0.0","0","0","91769","","null","","","null","38","","","","","","","","","","","","","","","",""
"","ITI","","html-keyboard-response","250","257440","0.0-1.0-351.0","0","0","91769","","null","","","null","38","","","","","","","","","","","","","","","NaN",""
"","S1","","html-keyboard-response","251","257693","0.0-1.0-353.0","0","0","91769","","null","","","null","39","","","","","","","","","","","","","","","",""
"","ISI","","html-keyboard-response","252","258695","0.0-1.0-354.0","0","0","91769","","null","","","null","39","NaN","","","","","","","","","","","","","","",""
"","S2","","html-keyboard-response","253","258948","0.0-1.0-355.0","0","0","91769","","null","","","null","39","","NaN","","","","","","","","","","","","","",""
"","response","","html-keyboard-response","254","259379","0.0-1.0-356.0-0.0","0","0","91769","","430","","","75","39","","","1","39","training","adjacent","FG","6","7","O.jpg","P.jpg","1","1","1","",""
"","feedback","","html-keyboard-response","255","260381","0.0-1.0-357.0-0.0","0","0","91769","","null","","","null","39","","","","","","","","","","","","","","","",""
"","ITI","","html-keyboard-response","256","261383","0.0-1.0-360.0","0","0","91769","","null","","","null","39","","","","","","","","","","","","","","","NaN",""
"","S1","","html-keyboard-response","257","261635","0.0-1.0-362.0","0","0","91769","","null","","","null","40","","","","","","","","","","","","","","","",""
"","ISI","","html-keyboard-response","258","262638","0.0-1.0-363.0","0","0","91769","","null","","","null","40","NaN","","","","","","","","","","","","","","",""
"","S2","","html-keyboard-response","259","262890","0.0-1.0-364.0","0","0","91769","","null","","","null","40","","NaN","","","","","","","","","","","","","",""
"","response","","html-keyboard-response","260","263771","0.0-1.0-365.0-0.0","0","0","91769","","881","","","75","40","","","1","40","training","adjacent","EF","5","6","N.jpg","O.jpg","1","1","1","",""
"","feedback","","html-keyboard-response","261","264772","0.0-1.0-366.0-0.0","0","0","91769","","null","","","null","40","","","","","","","","","","","","","","","",""
"","ITI","","html-keyboard-response","262","265775","0.0-1.0-369.0","0","0","91769","","null","","","null","40","","","","","","","","","","","","","","","NaN",""
"","S1","","html-keyboard-response","263","266028","0.0-1.0-371.0","0","0","91769","","null","","","null","41","","","","","","","","","","","","","","","",""
"","ISI","","html-keyboard-response","264","267030","0.0-1.0-372.0","0","0","91769","","null","","","null","41","NaN","","","","","","","","","","","","","","",""
"","S2","","html-keyboard-response","265","267283","0.0-1.0-373.0","0","0","91769","","null","","","null","41","","NaN","","","","","","","","","","","","","",""
"","response","","html-keyboard-response","266","267770","0.0-1.0-374.0-0.0","0","0","91769","","486","","","68","41","","","1","41","training","adjacent","BA","2","1","L.jpg","R.jpg","0","0","1","",""
"","feedback","","html-keyboard-response","267","268773","0.0-1.0-375.0-0.0","0","0","91769","","null","","","null","41","","","","","","","","","","","","","","","",""
"","ITI","","html-keyboard-response","268","269776","0.0-1.0-378.0","0","0","91769","","null","","","null","41","","","","","","","","","","","","","","","NaN",""
"","S1","","html-keyboard-response","269","270029","0.0-1.0-380.0","0","0","91769","","null","","","null","42","","","","","","","","","","","","","","","",""
"","ISI","","html-keyboard-response","270","271031","0.0-1.0-381.0","0","0","91769","","null","","","null","42","NaN","","","","","","","","","","","","","","",""
"","S2","","html-keyboard-response","271","271283","0.0-1.0-382.0","0","0","91769","","null","","","null","42","","NaN","","","","","","","","","","","","","",""
"","response","","html-keyboard-response","272","272191","0.0-1.0-383.0-0.0","0","0","91769","","908","","","75","42","","","1","42","training","adjacent","BC","2","3","L.jpg","Q.jpg","1","1","1","",""
"","feedback","","html-keyboard-response","273","273193","0.0-1.0-384.0-0.0","0","0","91769","","null","","","null","42","","","","","","","","","","","","","","","",""
"","ITI","","html-keyboard-response","274","274195","0.0-1.0-387.0","0","0","91769","","null","","","null","42","","","","","","","","","","","","","","","NaN",""
"","S1","","html-keyboard-response","275","274462","0.0-1.0-389.0","0","0","91769","","null","","","null","43","","","","","","","","","","","","","","","",""
"","ISI","","html-keyboard-response","276","275465","0.0-1.0-390.0","0","0","91769","","null","","","null","43","NaN","","","","","","","","","","","","","","",""
"","S2","","html-keyboard-response","277","275718","0.0-1.0-391.0","0","0","91769","","null","","","null","43","","NaN","","","","","","","","","","","","","",""
"","response","","html-keyboard-response","278","275997","0.0-1.0-392.0-0.0","0","0","91769","","278","","","75","43","","","1","43","training","adjacent","AB","1","2","R.jpg","L.jpg","1","1","1","",""
"","feedback","","html-keyboard-response","279","277000","0.0-1.0-393.0-0.0","0","0","91769","","null","","","null","43","","","","","","","","","","","","","","","",""
"","ITI","","html-keyboard-response","280","278002","0.0-1.0-396.0","0","0","91769","","null","","","null","43","","","","","","","","","","","","","","","NaN",""
"","S1","","html-keyboard-response","281","278254","0.0-1.0-398.0","0","0","91769","","null","","","null","44","","","","","","","","","","","","","","","",""
"","ISI","","html-keyboard-response","282","279256","0.0-1.0-399.0","0","0","91769","","null","","","null","44","NaN","","","","","","","","","","","","","","",""
"","S2","","html-keyboard-response","283","279508","0.0-1.0-400.0","0","0","91769","","null","","","null","44","","NaN","","","","","","","","","","","","","",""
"","response","","html-keyboard-response","284","280001","0.0-1.0-401.0-0.0","0","0","91769","","492","","","68","44","","","1","44","training","adjacent","ED","5","4","N.jpg","M.jpg","0","0","1","",""
"","feedback","","html-keyboard-response","285","281003","0.0-1.0-402.0-0.0","0","0","91769","","null","","","null","44","","","","","","","","","","","","","","","",""
"","ITI","","html-keyboard-response","286","282006","0.0-1.0-405.0","0","0","91769","","null","","","null","44","","","","","","","","","","","","","","","NaN",""
"","S1","","html-keyboard-response","287","282259","0.0-1.0-407.0","0","0","91769","","null","","","null","45","","","","","","","","","","","","","","","",""
"","ISI","","html-keyboard-response","288","283261","0.0-1.0-408.0","0","0","91769","","null","","","null","45","NaN","","","","","","","","","","","","","","",""
"","S2","","html-keyboard-response","289","283514","0.0-1.0-409.0","0","0","91769","","null","","","null","45","","NaN","","","","","","","","","","","","","",""
"","response","","html-keyboard-response","290","283771","0.0-1.0-410.0-0.0","0","0","91769","","256","","","75","45","","","1","45","training","adjacent","AB","1","2","R.jpg","L.jpg","1","1","1","",""
"","feedback","","html-keyboard-response","291","284774","0.0-1.0-411.0-0.0","0","0","91769","","null","","","null","45","","","","","","","","","","","","","","","",""
"","ITI","","html-keyboard-response","292","285777","0.0-1.0-414.0","0","0","91769","","null","","","null","45","","","","","","","","","","","","","","","NaN",""
"","S1","","html-keyboard-response","293","286029","0.0-1.0-416.0","0","0","91769","","null","","","null","46","","","","","","","","","","","","","","","",""
"","ISI","","html-keyboard-response","294","287031","0.0-1.0-417.0","0","0","91769","","null","","","null","46","NaN","","","","","","","","","","","","","","",""
"","S2","","html-keyboard-response","295","287284","0.0-1.0-418.0","0","0","91769","","null","","","null","46","","NaN","","","","","","","","","","","","","",""
"","response","","html-keyboard-response","296","287936","0.0-1.0-419.0-0.0","0","0","91769","","651","","","68","46","","","1","46","training","adjacent","CD","3","4","Q.jpg","M.jpg","0","1","0","",""
"","feedback","","html-keyboard-response","297","288938","0.0-1.0-420.0-0.0","0","0","91769","","null","","","null","46","","","","","","","","","","","","","","","",""
"","time_out","","html-keyboard-response","298","290942","0.0-1.0-422.0-0.0","0","0","91769","","null","","","null","46","","","","","","","","","","","","","","","",""
"","ITI","","html-keyboard-response","299","291944","0.0-1.0-423.0","0","0","91769","","null","","","null","46","","","","","","","","","","","","","","","NaN",""
"","S1","","html-keyboard-response","300","292200","0.0-1.0-425.0","0","0","91769","","null","","","null","47","","","","","","","","","","","","","","","",""
"","ISI","","html-keyboard-response","301","293202","0.0-1.0-426.0","0","0","91769","","null","","","null","47","NaN","","","","","","","","","","","","","","",""
"","S2","","html-keyboard-response","302","293455","0.0-1.0-427.0","0","0","91769","","null","","","null","47","","NaN","","","","","","","","","","","","","",""
"","response","","html-keyboard-response","303","294434","0.0-1.0-428.0-0.0","0","0","91769","","978","","","75","47","","","1","47","training","adjacent","GF","7","6","P.jpg","O.jpg","1","0","0","",""
"","feedback","","html-keyboard-response","304","295437","0.0-1.0-429.0-0.0","0","0","91769","","null","","","null","47","","","","","","","","","","","","","","","",""
"","time_out","","html-keyboard-response","305","297439","0.0-1.0-431.0-0.0","0","0","91769","","null","","","null","47","","","","","","","","","","","","","","","",""
"","ITI","","html-keyboard-response","306","298441","0.0-1.0-432.0","0","0","91769","","null","","","null","47","","","","","","","","","","","","","","","NaN",""
"","block_over","","html-keyboard-response","307","304072","0.0-1.0-433.0-0.0","0","0","91769","","5629","","","32","47","","","","","","","","","","","","","","","",""
"","S1","","html-keyboard-response","308","304324","0.0-1.0-434.0","0","0","91769","","null","","","null","48","","","","","","","","","","","","","","","",""
"","ISI","","html-keyboard-response","309","305327","0.0-1.0-435.0","0","0","91769","","null","","","null","48","NaN","","","","","","","","","","","","","","",""
"","S2","","html-keyboard-response","310","305579","0.0-1.0-436.0","0","0","91769","","null","","","null","48","","NaN","","","","","","","","","","","","","",""
"","response","","html-keyboard-response","311","306027","0.0-1.0-437.0-0.0","0","0","91769","","447","","","75","48","","","2","48","training","adjacent","CD","3","4","Q.jpg","M.jpg","1","1","1","",""
"","feedback","","html-keyboard-response","312","307029","0.0-1.0-438.0-0.0","0","0","91769","","null","","","null","48","","","","","","","","","","","","","","","",""
"","ITI","","html-keyboard-response","313","308032","0.0-1.0-441.0","0","0","91769","","null","","","null","48","","","","","","","","","","","","","","","NaN",""
"","S1","","html-keyboard-response","314","308284","0.0-1.0-443.0","0","0","91769","","null","","","null","49","","","","","","","","","","","","","","","",""
"","ISI","","html-keyboard-response","315","309286","0.0-1.0-444.0","0","0","91769","","null","","","null","49","NaN","","","","","","","","","","","","","","",""
"","S2","","html-keyboard-response","316","309539","0.0-1.0-445.0","0","0","91769","","null","","","null","49","","NaN","","","","","","","","","","","","","",""
"","response","","html-keyboard-response","317","310027","0.0-1.0-446.0-0.0","0","0","91769","","486","","","68","49","","","2","49","training","adjacent","CD","3","4","Q.jpg","M.jpg","0","1","0","",""
"","feedback","","html-keyboard-response","318","311030","0.0-1.0-447.0-0.0","0","0","91769","","null","","","null","49","","","","","","","","","","","","","","","",""
"","time_out","","html-keyboard-response","319","313033","0.0-1.0-449.0-0.0","0","0","91769","","null","","","null","49","","","","","","","","","","","","","","","",""
"","ITI","","html-keyboard-response","320","314035","0.0-1.0-450.0","0","0","91769","","null","","","null","49","","","","","","","","","","","","","","","NaN",""
"","S1","","html-keyboard-response","321","314288","0.0-1.0-452.0","0","0","91769","","null","","","null","50","","","","","","","","","","","","","","","",""
"","ISI","","html-keyboard-response","322","315290","0.0-1.0-453.0","0","0","91769","","null","","","null","50","NaN","","","","","","","","","","","","","","",""
"","S2","","html-keyboard-response","323","315541","0.0-1.0-454.0","0","0","91769","","null","","","null","50","","NaN","","","","","","","","","","","","","",""
"","response","","html-keyboard-response","324","316386","0.0-1.0-455.0-0.0","0","0","91769","","843","","","75","50","","","2","50","training","adjacent","EF","5","6","N.jpg","O.jpg","1","1","1","",""
"","feedback","","html-keyboard-response","325","317387","0.0-1.0-456.0-0.0","0","0","91769","","null","","","null","50","","","","","","","","","","","","","","","",""
"","ITI","","html-keyboard-response","326","318390","0.0-1.0-459.0","0","0","91769","","null","","","null","50","","","","","","","","","","","","","","","NaN",""
"","S1","","html-keyboard-response","327","318643","0.0-1.0-461.0","0","0","91769","","null","","","null","51","","","","","","","","","","","","","","","",""
"","ISI","","html-keyboard-response","328","319645","0.0-1.0-462.0","0","0","91769","","null","","","null","51","NaN","","","","","","","","","","","","","","",""
"","S2","","html-keyboard-response","329","319898","0.0-1.0-463.0","0","0","91769","","null","","","null","51","","NaN","","","","","","","","","","","","","",""
"","response","","html-keyboard-response","330","320279","0.0-1.0-464.0-0.0","0","0","91769","","379","","","75","51","","","2","51","training","adjacent","FG","6","7","O.jpg","P.jpg","1","1","1","",""
"","feedback","","html-keyboard-response","331","321281","0.0-1.0-465.0-0.0","0","0","91769","","null","","","null","51","","","","","","","","","","","","","","","",""
"","ITI","","html-keyboard-response","332","322284","0.0-1.0-468.0","0","0","91769","","null","","","null","51","","","","","","","","","","","","","","","NaN",""
"","S1","","html-keyboard-response","333","322537","0.0-1.0-470.0","0","0","91769","","null","","","null","52","","","","","","","","","","","","","","","",""
"","ISI","","html-keyboard-response","334","323538","0.0-1.0-471.0","0","0","91769","","null","","","null","52","NaN","","","","","","","","","","","","","","",""
"","S2","","html-keyboard-response","335","323790","0.0-1.0-472.0","0","0","91769","","null","","","null","52","","NaN","","","","","","","","","","","","","",""
"","response","","html-keyboard-response","336","324321","0.0-1.0-473.0-0.0","0","0","91769","","529","","","75","52","","","2","52","training","adjacent","FG","6","7","O.jpg","P.jpg","1","1","1","",""
"","feedback","","html-keyboard-response","337","325323","0.0-1.0-474.0-0.0","0","0","91769","","null","","","null","52","","","","","","","","","","","","","","","",""
"","ITI","","html-keyboard-response","338","326325","0.0-1.0-477.0","0","0","91769","","null","","","null","52","","","","","","","","","","","","","","","NaN",""
"","S1","","html-keyboard-response","339","326578","0.0-1.0-479.0","0","0","91769","","null","","","null","53","","","","","","","","","","","","","","","",""
"","ISI","","html-keyboard-response","340","327579","0.0-1.0-480.0","0","0","91769","","null","","","null","53","NaN","","","","","","","","","","","","","","",""
"","S2","","html-keyboard-response","341","327832","0.0-1.0-481.0","0","0","91769","","null","","","null","53","","NaN","","","","","","","","","","","","","",""
"","response","","html-keyboard-response","342","328523","0.0-1.0-482.0-0.0","0","0","91769","","689","","","68","53","","","2","53","training","adjacent","ED","5","4","N.jpg","M.jpg","0","0","1","",""
"","feedback","","html-keyboard-response","343","329525","0.0-1.0-483.0-0.0","0","0","91769","","null","","","null","53","","","","","","","","","","","","","","","",""
"","ITI","","html-keyboard-response","344","330528","0.0-1.0-486.0","0","0","91769","","null","","","null","53","","","","","","","","","","","","","","","NaN",""
"","S1","","html-keyboard-response","345","330781","0.0-1.0-488.0","0","0","91769","","null","","","null","54","","","","","","","","","","","","","","","",""
"","ISI","","html-keyboard-response","346","331784","0.0-1.0-489.0","0","0","91769","","null","","","null","54","NaN","","","","","","","","","","","","","","",""
"","S2","","html-keyboard-response","347","332036","0.0-1.0-490.0","0","0","91769","","null","","","null","54","","NaN","","","","","","","","","","","","","",""
"","response","","html-keyboard-response","348","332579","0.0-1.0-491.0-0.0","0","0","91769","","543","","","68","54","","","2","54","training","adjacent","FE","6","5","O.jpg","N.jpg","0","0","1","",""
"","feedback","","html-keyboard-response","349","333582","0.0-1.0-492.0-0.0","0","0","91769","","null","","","null","54","","","","","","","","","","","","","","","",""
"","ITI","","html-keyboard-response","350","334584","0.0-1.0-495.0","0","0","91769","","null","","","null","54","","","","","","","","","","","","","","","NaN",""
"","S1","","html-keyboard-response","351","334838","0.0-1.0-497.0","0","0","91769","","null","","","null","55","","","","","","","","","","","","","","","",""
"","ISI","","html-keyboard-response","352","335840","0.0-1.0-498.0","0","0","91769","","null","","","null","55","NaN","","","","","","","","","","","","","","",""
"","S2","","html-keyboard-response","353","336093","0.0-1.0-499.0","0","0","91769","","null","","","null","55","","NaN","","","","","","","","","","","","","",""
"","response","","html-keyboard-response","354","336652","0.0-1.0-500.0-0.0","0","0","91769","","558","","","75","55","","","2","55","training","adjacent","CB","3","2","Q.jpg","L.jpg","1","0","0","",""
"","feedback","","html-keyboard-response","355","337655","0.0-1.0-501.0-0.0","0","0","91769","","null","","","null","55","","","","","","","","","","","","","","","",""
"","time_out","","html-keyboard-response","356","339658","0.0-1.0-503.0-0.0","0","0","91769","","null","","","null","55","","","","","","","","","","","","","","","",""
"","ITI","","html-keyboard-response","357","340660","0.0-1.0-504.0","0","0","91769","","null","","","null","55","","","","","","","","","","","","","","","NaN",""
"","S1","","html-keyboard-response","358","340912","0.0-1.0-506.0","0","0","91769","","null","","","null","56","","","","","","","","","","","","","","","",""
"","ISI","","html-keyboard-response","359","341915","0.0-1.0-507.0","0","0","91769","","null","","","null","56","NaN","","","","","","","","","","","","","","",""
"","S2","","html-keyboard-response","360","342167","0.0-1.0-508.0","0","0","91769","","null","","","null","56","","NaN","","","","","","","","","","","","","",""
"","response","","html-keyboard-response","361","343174","0.0-1.0-509.0-0.0","0","0","91769","","1005","","","75","56","","","2","56","training","adjacent","FG","6","7","O.jpg","P.jpg","1","1","1","",""
"","feedback","","html-keyboard-response","362","344176","0.0-1.0-510.0-0.0","0","0","91769","","null","","","null","56","","","","","","","","","","","","","","","",""
"","ITI","","html-keyboard-response","363","345179","0.0-1.0-513.0","0","0","91769","","null","","","null","56","","","","","","","","","","","","","","","NaN",""
"","S1","","html-keyboard-response","364","345432","0.0-1.0-515.0","0","0","91769","","null","","","null","57","","","","","","","","","","","","","","","",""
"","ISI","","html-keyboard-response","365","346435","0.0-1.0-516.0","0","0","91769","","null","","","null","57","NaN","","","","","","","","","","","","","","",""
"","S2","","html-keyboard-response","366","346687","0.0-1.0-517.0","0","0","91769","","null","","","null","57","","NaN","","","","","","","","","","","","","",""
"","response","","html-keyboard-response","367","347003","0.0-1.0-518.0-0.0","0","0","91769","","314","","","68","57","","","2","57","training","adjacent","FE","6","5","O.jpg","N.jpg","0","0","1","",""
"","feedback","","html-keyboard-response","368","348006","0.0-1.0-519.0-0.0","0","0","91769","","null","","","null","57","","","","","","","","","","","","","","","",""
"","ITI","","html-keyboard-response","369","349008","0.0-1.0-522.0","0","0","91769","","null","","","null","57","","","","","","","","","","","","","","","NaN",""
"","S1","","html-keyboard-response","370","349261","0.0-1.0-524.0","0","0","91769","","null","","","null","58","","","","","","","","","","","","","","","",""
"","ISI","","html-keyboard-response","371","350263","0.0-1.0-525.0","0","0","91769","","null","","","null","58","NaN","","","","","","","","","","","","","","",""
"","S2","","html-keyboard-response","372","350515","0.0-1.0-526.0","0","0","91769","","null","","","null","58","","NaN","","","","","","","","","","","","","",""
"","response","","html-keyboard-response","373","350958","0.0-1.0-527.0-0.0","0","0","91769","","442","","","68","58","","","2","58","training","adjacent","BA","2","1","L.jpg","R.jpg","0","0","1","",""
"","feedback","","html-keyboard-response","374","351960","0.0-1.0-528.0-0.0","0","0","91769","","null","","","null","58","","","","","","","","","","","","","","","",""
"","ITI","","html-keyboard-response","375","352963","0.0-1.0-531.0","0","0","91769","","null","","","null","58","","","","","","","","","","","","","","","NaN",""
"","S1","","html-keyboard-response","376","353215","0.0-1.0-533.0","0","0","91769","","null","","","null","59","","","","","","","","","","","","","","","",""
"","ISI","","html-keyboard-response","377","354217","0.0-1.0-534.0","0","0","91769","","null","","","null","59","NaN","","","","","","","","","","","","","","",""
"","S2","","html-keyboard-response","378","354469","0.0-1.0-535.0","0","0","91769","","null","","","null","59","","NaN","","","","","","","","","","","","","",""
"","response","","html-keyboard-response","379","354882","0.0-1.0-536.0-0.0","0","0","91769","","412","","","68","59","","","2","59","training","adjacent","BA","2","1","L.jpg","R.jpg","0","0","1","",""
"","feedback","","html-keyboard-response","380","355884","0.0-1.0-537.0-0.0","0","0","91769","","null","","","null","59","","","","","","","","","","","","","","","",""
"","ITI","","html-keyboard-response","381","356886","0.0-1.0-540.0","0","0","91769","","null","","","null","59","","","","","","","","","","","","","","","NaN",""
"","S1","","html-keyboard-response","382","357139","0.0-1.0-542.0","0","0","91769","","null","","","null","60","","","","","","","","","","","","","","","",""
"","ISI","","html-keyboard-response","383","358142","0.0-1.0-543.0","0","0","91769","","null","","","null","60","NaN","","","","","","","","","","","","","","",""
"","S2","","html-keyboard-response","384","358394","0.0-1.0-544.0","0","0","91769","","null","","","null","60","","NaN","","","","","","","","","","","","","",""
"","response","","html-keyboard-response","385","358850","0.0-1.0-545.0-0.0","0","0","91769","","455","","","68","60","","","2","60","training","adjacent","GF","7","6","P.jpg","O.jpg","0","0","1","",""
"","feedback","","html-keyboard-response","386","359853","0.0-1.0-546.0-0.0","0","0","91769","","null","","","null","60","","","","","","","","","","","","","","","",""
"","ITI","","html-keyboard-response","387","360857","0.0-1.0-549.0","0","0","91769","","null","","","null","60","","","","","","","","","","","","","","","NaN",""
"","S1","","html-keyboard-response","388","361110","0.0-1.0-551.0","0","0","91769","","null","","","null","61","","","","","","","","","","","","","","","",""
"","ISI","","html-keyboard-response","389","362114","0.0-1.0-552.0","0","0","91769","","null","","","null","61","NaN","","","","","","","","","","","","","","",""
"","S2","","html-keyboard-response","390","362366","0.0-1.0-553.0","0","0","91769","","null","","","null","61","","NaN","","","","","","","","","","","","","",""
"","response","","html-keyboard-response","391","362797","0.0-1.0-554.0-0.0","0","0","91769","","430","","","68","61","","","2","61","training","adjacent","GF","7","6","P.jpg","O.jpg","0","0","1","",""
"","feedback","","html-keyboard-response","392","363799","0.0-1.0-555.0-0.0","0","0","91769","","null","","","null","61","","","","","","","","","","","","","","","",""
"","ITI","","html-keyboard-response","393","364801","0.0-1.0-558.0","0","0","91769","","null","","","null","61","","","","","","","","","","","","","","","NaN",""
"","S1","","html-keyboard-response","394","365054","0.0-1.0-560.0","0","0","91769","","null","","","null","62","","","","","","","","","","","","","","","",""
"","ISI","","html-keyboard-response","395","366056","0.0-1.0-561.0","0","0","91769","","null","","","null","62","NaN","","","","","","","","","","","","","","",""
"","S2","","html-keyboard-response","396","366309","0.0-1.0-562.0","0","0","91769","","null","","","null","62","","NaN","","","","","","","","","","","","","",""
"","response","","html-keyboard-response","397","366647","0.0-1.0-563.0-0.0","0","0","91769","","336","","","68","62","","","2","62","training","adjacent","DC","4","3","M.jpg","Q.jpg","0","0","1","",""
"","feedback","","html-keyboard-response","398","367650","0.0-1.0-564.0-0.0","0","0","91769","","null","","","null","62","","","","","","","","","","","","","","","",""
"","ITI","","html-keyboard-response","399","368653","0.0-1.0-567.0","0","0","91769","","null","","","null","62","","","","","","","","","","","","","","","NaN",""
"","S1","","html-keyboard-response","400","368904","0.0-1.0-569.0","0","0","91769","","null","","","null","63","","","","","","","","","","","","","","","",""
"","ISI","","html-keyboard-response","401","369907","0.0-1.0-570.0","0","0","91769","","null","","","null","63","NaN","","","","","","","","","","","","","","",""
"","S2","","html-keyboard-response","402","370159","0.0-1.0-571.0","0","0","91769","","null","","","null","63","","NaN","","","","","","","","","","","","","",""
"","response","","html-keyboard-response","403","370547","0.0-1.0-572.0-0.0","0","0","91769","","386","","","68","63","","","2","63","training","adjacent","FE","6","5","O.jpg","N.jpg","0","0","1","",""
"","feedback","","html-keyboard-response","404","371548","0.0-1.0-573.0-0.0","0","0","91769","","null","","","null","63","","","","","","","","","","","","","","","",""
"","ITI","","html-keyboard-response","405","372550","0.0-1.0-576.0","0","0","91769","","null","","","null","63","","","","","","","","","","","","","","","NaN",""
"","S1","","html-keyboard-response","406","372803","0.0-1.0-578.0","0","0","91769","","null","","","null","64","","","","","","","","","","","","","","","",""
"","ISI","","html-keyboard-response","407","373805","0.0-1.0-579.0","0","0","91769","","null","","","null","64","NaN","","","","","","","","","","","","","","",""
"","S2","","html-keyboard-response","408","374058","0.0-1.0-580.0","0","0","91769","","null","","","null","64","","NaN","","","","","","","","","","","","","",""
"","response","","html-keyboard-response","409","374352","0.0-1.0-581.0-0.0","0","0","91769","","292","","","68","64","","","2","64","training","adjacent","BA","2","1","L.jpg","R.jpg","0","0","1","",""
"","feedback","","html-keyboard-response","410","375355","0.0-1.0-582.0-0.0","0","0","91769","","null","","","null","64","","","","","","","","","","","","","","","",""
"","ITI","","html-keyboard-response","411","376357","0.0-1.0-585.0","0","0","91769","","null","","","null","64","","","","","","","","","","","","","","","NaN",""
"","S1","","html-keyboard-response","412","376609","0.0-1.0-587.0","0","0","91769","","null","","","null","65","","","","","","","","","","","","","","","",""
"","ISI","","html-keyboard-response","413","377610","0.0-1.0-588.0","0","0","91769","","null","","","null","65","NaN","","","","","","","","","","","","","","",""
"","S2","","html-keyboard-response","414","377862","0.0-1.0-589.0","0","0","91769","","null","","","null","65","","NaN","","","","","","","","","","","","","",""
"","response","","html-keyboard-response","415","378066","0.0-1.0-590.0-0.0","0","0","91769","","202","","","68","65","","","2","65","training","adjacent","GF","7","6","P.jpg","O.jpg","0","0","1","",""
"","feedback","","html-keyboard-response","416","379070","0.0-1.0-591.0-0.0","0","0","91769","","null","","","null","65","","","","","","","","","","","","","","","",""
"","ITI","","html-keyboard-response","417","380073","0.0-1.0-594.0","0","0","91769","","null","","","null","65","","","","","","","","","","","","","","","NaN",""
"","S1","","html-keyboard-response","418","380326","0.0-1.0-596.0","0","0","91769","","null","","","null","66","","","","","","","","","","","","","","","",""
"","ISI","","html-keyboard-response","419","381328","0.0-1.0-597.0","0","0","91769","","null","","","null","66","NaN","","","","","","","","","","","","","","",""
"","S2","","html-keyboard-response","420","381580","0.0-1.0-598.0","0","0","91769","","null","","","null","66","","NaN","","","","","","","","","","","","","",""
"","response","","html-keyboard-response","421","382356","0.0-1.0-599.0-0.0","0","0","91769","","774","","","75","66","","","2","66","training","adjacent","BC","2","3","L.jpg","Q.jpg","1","1","1","",""
"","feedback","","html-keyboard-response","422","383359","0.0-1.0-600.0-0.0","0","0","91769","","null","","","null","66","","","","","","","","","","","","","","","",""
"","ITI","","html-keyboard-response","423","384362","0.0-1.0-603.0","0","0","91769","","null","","","null","66","","","","","","","","","","","","","","","NaN",""
"","S1","","html-keyboard-response","424","384614","0.0-1.0-605.0","0","0","91769","","null","","","null","67","","","","","","","","","","","","","","","",""
"","ISI","","html-keyboard-response","425","385617","0.0-1.0-606.0","0","0","91769","","null","","","null","67","NaN","","","","","","","","","","","","","","",""
"","S2","","html-keyboard-response","426","385870","0.0-1.0-607.0","0","0","91769","","null","","","null","67","","NaN","","","","","","","","","","","","","",""
"","response","","html-keyboard-response","427","386182","0.0-1.0-608.0-0.0","0","0","91769","","311","","","75","67","","","2","67","training","adjacent","AB","1","2","R.jpg","L.jpg","1","1","1","",""
"","feedback","","html-keyboard-response","428","387185","0.0-1.0-609.0-0.0","0","0","91769","","null","","","null","67","","","","","","","","","","","","","","","",""
"","ITI","","html-keyboard-response","429","388188","0.0-1.0-612.0","0","0","91769","","null","","","null","67","","","","","","","","","","","","","","","NaN",""
"","S1","","html-keyboard-response","430","388441","0.0-1.0-614.0","0","0","91769","","null","","","null","68","","","","","","","","","","","","","","","",""
"","ISI","","html-keyboard-response","431","389444","0.0-1.0-615.0","0","0","91769","","null","","","null","68","NaN","","","","","","","","","","","","","","",""
"","S2","","html-keyboard-response","432","389697","0.0-1.0-616.0","0","0","91769","","null","","","null","68","","NaN","","","","","","","","","","","","","",""
"","response","","html-keyboard-response","433","389872","0.0-1.0-617.0-0.0","0","0","91769","","173","","","75","68","","","2","68","training","adjacent","EF","5","6","N.jpg","O.jpg","1","1","1","",""
"","feedback","","html-keyboard-response","434","390875","0.0-1.0-618.0-0.0","0","0","91769","","null","","","null","68","","","","","","","","","","","","","","","",""
"","ITI","","html-keyboard-response","435","391877","0.0-1.0-621.0","0","0","91769","","null","","","null","68","","","","","","","","","","","","","","","NaN",""
"","S1","","html-keyboard-response","436","392129","0.0-1.0-623.0","0","0","91769","","null","","","null","69","","","","","","","","","","","","","","","",""
"","ISI","","html-keyboard-response","437","393131","0.0-1.0-624.0","0","0","91769","","null","","","null","69","NaN","","","","","","","","","","","","","","",""
"","S2","","html-keyboard-response","438","393383","0.0-1.0-625.0","0","0","91769","","null","","","null","69","","NaN","","","","","","","","","","","","","",""
"","response","","html-keyboard-response","439","393913","0.0-1.0-626.0-0.0","0","0","91769","","529","","","75","69","","","2","69","training","adjacent","CD","3","4","Q.jpg","M.jpg","1","1","1","",""
"","feedback","","html-keyboard-response","440","394915","0.0-1.0-627.0-0.0","0","0","91769","","null","","","null","69","","","","","","","","","","","","","","","",""
"","ITI","","html-keyboard-response","441","395918","0.0-1.0-630.0","0","0","91769","","null","","","null","69","","","","","","","","","","","","","","","NaN",""
"","S1","","html-keyboard-response","442","396171","0.0-1.0-632.0","0","0","91769","","null","","","null","70","","","","","","","","","","","","","","","",""
"","ISI","","html-keyboard-response","443","397173","0.0-1.0-633.0","0","0","91769","","null","","","null","70","NaN","","","","","","","","","","","","","","",""
"","S2","","html-keyboard-response","444","397416","0.0-1.0-634.0","0","0","91769","","241","","","75","70","","k","2","70","training","adjacent","AB","1","2","R.jpg","L.jpg","1","1","1","",""
"","feedback","","html-keyboard-response","445","398419","0.0-1.0-636.0-0.0","0","0","91769","","null","","","null","70","","","","","","","","","","","","","","","",""
"","ITI","","html-keyboard-response","446","399420","0.0-1.0-639.0","0","0","91769","","null","","","null","70","","","","","","","","","","","","","","","NaN",""
"","S1","","html-keyboard-response","447","399673","0.0-1.0-641.0","0","0","91769","","null","","","null","71","","","","","","","","","","","","","","","",""
"","ISI","","html-keyboard-response","448","400675","0.0-1.0-642.0","0","0","91769","","null","","","null","71","NaN","","","","","","","","","","","","","","",""
"","S2","","html-keyboard-response","449","400929","0.0-1.0-643.0","0","0","91769","","null","","","null","71","","NaN","","","","","","","","","","","","","",""
"","response","","html-keyboard-response","450","401257","0.0-1.0-644.0-0.0","0","0","91769","","327","","","75","71","","","2","71","training","adjacent","ED","5","4","N.jpg","M.jpg","1","0","0","",""
"","feedback","","html-keyboard-response","451","402260","0.0-1.0-645.0-0.0","0","0","91769","","null","","","null","71","","","","","","","","","","","","","","","",""
"","time_out","","html-keyboard-response","452","404262","0.0-1.0-647.0-0.0","0","0","91769","","null","","","null","71","","","","","","","","","","","","","","","",""
"","ITI","","html-keyboard-response","453","405265","0.0-1.0-648.0","0","0","91769","","null","","","null","71","","","","","","","","","","","","","","","NaN",""
"","S1","","html-keyboard-response","454","405518","0.0-1.0-650.0","0","0","91769","","null","","","null","72","","","","","","","","","","","","","","","",""
"","ISI","","html-keyboard-response","455","406519","0.0-1.0-651.0","0","0","91769","","null","","","null","72","NaN","","","","","","","","","","","","","","",""
"","S2","","html-keyboard-response","456","406772","0.0-1.0-652.0","0","0","91769","","null","","","null","72","","NaN","","","","","","","","","","","","","",""
"","response","","html-keyboard-response","457","407269","0.0-1.0-653.0-0.0","0","0","91769","","495","","","75","72","","","2","72","training","adjacent","BC","2","3","L.jpg","Q.jpg","1","1","1","",""
"","feedback","","html-keyboard-response","458","408271","0.0-1.0-654.0-0.0","0","0","91769","","null","","","null","72","","","","","","","","","","","","","","","",""
"","ITI","","html-keyboard-response","459","409274","0.0-1.0-657.0","0","0","91769","","null","","","null","72","","","","","","","","","","","","","","","NaN",""
"","S1","","html-keyboard-response","460","409526","0.0-1.0-659.0","0","0","91769","","null","","","null","73","","","","","","","","","","","","","","","",""
"","ISI","","html-keyboard-response","461","410528","0.0-1.0-660.0","0","0","91769","","null","","","null","73","NaN","","","","","","","","","","","","","","",""
"","S2","","html-keyboard-response","462","410781","0.0-1.0-661.0","0","0","91769","","null","","","null","73","","NaN","","","","","","","","","","","","","",""
"","response","","html-keyboard-response","463","411246","0.0-1.0-662.0-0.0","0","0","91769","","464","","","68","73","","","2","73","training","adjacent","DE","4","5","M.jpg","N.jpg","0","1","0","",""
"","feedback","","html-keyboard-response","464","412250","0.0-1.0-663.0-0.0","0","0","91769","","null","","","null","73","","","","","","","","","","","","","","","",""
"","time_out","","html-keyboard-response","465","414251","0.0-1.0-665.0-0.0","0","0","91769","","null","","","null","73","","","","","","","","","","","","","","","",""
"","ITI","","html-keyboard-response","466","415254","0.0-1.0-666.0","0","0","91769","","null","","","null","73","","","","","","","","","","","","","","","NaN",""
"","S1","","html-keyboard-response","467","415506","0.0-1.0-668.0","0","0","91769","","null","","","null","74","","","","","","","","","","","","","","","",""
"","ISI","","html-keyboard-response","468","416509","0.0-1.0-669.0","0","0","91769","","null","","","null","74","NaN","","","","","","","","","","","","","","",""
"","S2","","html-keyboard-response","469","416762","0.0-1.0-670.0","0","0","91769","","null","","","null","74","","NaN","","","","","","","","","","","","","",""
"","response","","html-keyboard-response","470","417824","0.0-1.0-671.0-0.0","0","0","91769","","1060","","","68","74","","","2","74","training","adjacent","DC","4","3","M.jpg","Q.jpg","0","0","1","",""
"","feedback","","html-keyboard-response","471","418826","0.0-1.0-672.0-0.0","0","0","91769","","null","","","null","74","","","","","","","","","","","","","","","",""
"","ITI","","html-keyboard-response","472","419829","0.0-1.0-675.0","0","0","91769","","null","","","null","74","","","","","","","","","","","","","","","NaN",""
"","S1","","html-keyboard-response","473","420082","0.0-1.0-677.0","0","0","91769","","null","","","null","75","","","","","","","","","","","","","","","",""
"","ISI","","html-keyboard-response","474","421083","0.0-1.0-678.0","0","0","91769","","null","","","null","75","NaN","","","","","","","","","","","","","","",""
"","S2","","html-keyboard-response","475","421336","0.0-1.0-679.0","0","0","91769","","null","","","null","75","","NaN","","","","","","","","","","","","","",""
"","response","","html-keyboard-response","476","422002","0.0-1.0-680.0-0.0","0","0","91769","","665","","","68","75","","","2","75","training","adjacent","EF","5","6","N.jpg","O.jpg","0","1","0","",""
"","feedback","","html-keyboard-response","477","423004","0.0-1.0-681.0-0.0","0","0","91769","","null","","","null","75","","","","","","","","","","","","","","","",""
"","time_out","","html-keyboard-response","478","425018","0.0-1.0-683.0-0.0","0","0","91769","","null","","","null","75","","","","","","","","","","","","","","","",""
"","ITI","","html-keyboard-response","479","426021","0.0-1.0-684.0","0","0","91769","","null","","","null","75","","","","","","","","","","","","","","","NaN",""
"","S1","","html-keyboard-response","480","426272","0.0-1.0-686.0","0","0","91769","","null","","","null","76","","","","","","","","","","","","","","","",""
"","ISI","","html-keyboard-response","481","427274","0.0-1.0-687.0","0","0","91769","","null","","","null","76","NaN","","","","","","","","","","","","","","",""
"","S2","","html-keyboard-response","482","427526","0.0-1.0-688.0","0","0","91769","","null","","","null","76","","NaN","","","","","","","","","","","","","",""
"","response","","html-keyboard-response","483","428489","0.0-1.0-689.0-0.0","0","0","91769","","961","","","75","76","","","2","76","training","adjacent","DE","4","5","M.jpg","N.jpg","1","1","1","",""
"","feedback","","html-keyboard-response","484","429491","0.0-1.0-690.0-0.0","0","0","91769","","null","","","null","76","","","","","","","","","","","","","","","",""
"","ITI","","html-keyboard-response","485","430494","0.0-1.0-693.0","0","0","91769","","null","","","null","76","","","","","","","","","","","","","","","NaN",""
"","S1","","html-keyboard-response","486","430747","0.0-1.0-695.0","0","0","91769","","null","","","null","77","","","","","","","","","","","","","","","",""
"","ISI","","html-keyboard-response","487","431751","0.0-1.0-696.0","0","0","91769","","null","","","null","77","NaN","","","","","","","","","","","","","","",""
"","S2","","html-keyboard-response","488","432004","0.0-1.0-697.0","0","0","91769","","null","","","null","77","","NaN","","","","","","","","","","","","","",""
"","response","","html-keyboard-response","489","432457","0.0-1.0-698.0-0.0","0","0","91769","","452","","","68","77","","","2","77","training","adjacent","DC","4","3","M.jpg","Q.jpg","0","0","1","",""
"","feedback","","html-keyboard-response","490","433459","0.0-1.0-699.0-0.0","0","0","91769","","null","","","null","77","","","","","","","","","","","","","","","",""
"","ITI","","html-keyboard-response","491","434463","0.0-1.0-702.0","0","0","91769","","null","","","null","77","","","","","","","","","","","","","","","NaN",""
"","S1","","html-keyboard-response","492","434716","0.0-1.0-704.0","0","0","91769","","null","","","null","78","","","","","","","","","","","","","","","",""
"","ISI","","html-keyboard-response","493","435717","0.0-1.0-705.0","0","0","91769","","null","","","null","78","NaN","","","","","","","","","","","","","","",""
"","S2","","html-keyboard-response","494","435970","0.0-1.0-706.0","0","0","91769","","null","","","null","78","","NaN","","","","","","","","","","","","","",""
"","response","","html-keyboard-response","495","436441","0.0-1.0-707.0-0.0","0","0","91769","","470","","","68","78","","","2","78","training","adjacent","GF","7","6","P.jpg","O.jpg","0","0","1","",""
"","feedback","","html-keyboard-response","496","437444","0.0-1.0-708.0-0.0","0","0","91769","","null","","","null","78","","","","","","","","","","","","","","","",""
"","ITI","","html-keyboard-response","497","438446","0.0-1.0-711.0","0","0","91769","","null","","","null","78","","","","","","","","","","","","","","","NaN",""
"","S1","","html-keyboard-response","498","438698","0.0-1.0-713.0","0","0","91769","","null","","","null","79","","","","","","","","","","","","","","","",""
"","ISI","","html-keyboard-response","499","439701","0.0-1.0-714.0","0","0","91769","","null","","","null","79","NaN","","","","","","","","","","","","","","",""
"","S2","","html-keyboard-response","500","439953","0.0-1.0-715.0","0","0","91769","","null","","","null","79","","NaN","","","","","","","","","","","","","",""
"","response","","html-keyboard-response","501","439963","0.0-1.0-716.0-0.0","0","0","91769","","9","","","75","79","","","2","79","training","adjacent","AB","1","2","R.jpg","L.jpg","1","1","1","",""
"","feedback","","html-keyboard-response","502","440966","0.0-1.0-717.0-0.0","0","0","91769","","null","","","null","79","","","","","","","","","","","","","","","",""
"","ITI","","html-keyboard-response","503","441968","0.0-1.0-720.0","0","0","91769","","null","","","null","79","","","","","","","","","","","","","","","NaN",""
"","S1","","html-keyboard-response","504","442221","0.0-1.0-722.0","0","0","91769","","null","","","null","80","","","","","","","","","","","","","","","",""
"","ISI","","html-keyboard-response","505","443223","0.0-1.0-723.0","0","0","91769","","null","","","null","80","NaN","","","","","","","","","","","","","","",""
"","S2","","html-keyboard-response","506","443476","0.0-1.0-724.0","0","0","91769","","null","","","null","80","","NaN","","","","","","","","","","","","","",""
"","response","","html-keyboard-response","507","443876","0.0-1.0-725.0-0.0","0","0","91769","","398","","","75","80","","","2","80","training","adjacent","EF","5","6","N.jpg","O.jpg","1","1","1","",""
"","feedback","","html-keyboard-response","508","444878","0.0-1.0-726.0-0.0","0","0","91769","","null","","","null","80","","","","","","","","","","","","","","","",""
"","ITI","","html-keyboard-response","509","445881","0.0-1.0-729.0","0","0","91769","","null","","","null","80","","","","","","","","","","","","","","","NaN",""
"","S1","","html-keyboard-response","510","446134","0.0-1.0-731.0","0","0","91769","","null","","","null","81","","","","","","","","","","","","","","","",""
"","ISI","","html-keyboard-response","511","447136","0.0-1.0-732.0","0","0","91769","","null","","","null","81","NaN","","","","","","","","","","","","","","",""
"","S2","","html-keyboard-response","512","447389","0.0-1.0-733.0","0","0","91769","","null","","","null","81","","NaN","","","","","","","","","","","","","",""
"","response","","html-keyboard-response","513","447658","0.0-1.0-734.0-0.0","0","0","91769","","269","","","75","81","","","2","81","training","adjacent","DE","4","5","M.jpg","N.jpg","1","1","1","",""
"","feedback","","html-keyboard-response","514","448661","0.0-1.0-735.0-0.0","0","0","91769","","null","","","null","81","","","","","","","","","","","","","","","",""
"","ITI","","html-keyboard-response","515","449665","0.0-1.0-738.0","0","0","91769","","null","","","null","81","","","","","","","","","","","","","","","NaN",""
"","S1","","html-keyboard-response","516","449917","0.0-1.0-740.0","0","0","91769","","null","","","null","82","","","","","","","","","","","","","","","",""
"","ISI","","html-keyboard-response","517","450921","0.0-1.0-741.0","0","0","91769","","null","","","null","82","NaN","","","","","","","","","","","","","","",""
"","S2","","html-keyboard-response","518","451173","0.0-1.0-742.0","0","0","91769","","null","","","null","82","","NaN","","","","","","","","","","","","","",""
"","response","","html-keyboard-response","519","451754","0.0-1.0-743.0-0.0","0","0","91769","","580","","","75","82","","","2","82","training","adjacent","CB","3","2","Q.jpg","L.jpg","1","0","0","",""
"","feedback","","html-keyboard-response","520","452756","0.0-1.0-744.0-0.0","0","0","91769","","null","","","null","82","","","","","","","","","","","","","","","",""
"","time_out","","html-keyboard-response","521","454759","0.0-1.0-746.0-0.0","0","0","91769","","null","","","null","82","","","","","","","","","","","","","","","",""
"","ITI","","html-keyboard-response","522","455760","0.0-1.0-747.0","0","0","91769","","null","","","null","82","","","","","","","","","","","","","","","NaN",""
"","S1","","html-keyboard-response","523","456013","0.0-1.0-749.0","0","0","91769","","null","","","null","83","","","","","","","","","","","","","","","",""
"","ISI","","html-keyboard-response","524","457016","0.0-1.0-750.0","0","0","91769","","null","","","null","83","NaN","","","","","","","","","","","","","","",""
"","S2","","html-keyboard-response","525","457268","0.0-1.0-751.0","0","0","91769","","null","","","null","83","","NaN","","","","","","","","","","","","","",""
"","response","","html-keyboard-response","526","457631","0.0-1.0-752.0-0.0","0","0","91769","","362","","","68","83","","","2","83","training","adjacent","FE","6","5","O.jpg","N.jpg","0","0","1","",""
"","feedback","","html-keyboard-response","527","458634","0.0-1.0-753.0-0.0","0","0","91769","","null","","","null","83","","","","","","","","","","","","","","","",""
"","ITI","","html-keyboard-response","528","459636","0.0-1.0-756.0","0","0","91769","","null","","","null","83","","","","","","","","","","","","","","","NaN",""
"","S1","","html-keyboard-response","529","459889","0.0-1.0-758.0","0","0","91769","","null","","","null","84","","","","","","","","","","","","","","","",""
"","ISI","","html-keyboard-response","530","460891","0.0-1.0-759.0","0","0","91769","","null","","","null","84","NaN","","","","","","","","","","","","","","",""
"","S2","","html-keyboard-response","531","461143","0.0-1.0-760.0","0","0","91769","","null","","","null","84","","NaN","","","","","","","","","","","","","",""
"","response","","html-keyboard-response","532","461817","0.0-1.0-761.0-0.0","0","0","91769","","672","","","68","84","","","2","84","training","adjacent","ED","5","4","N.jpg","M.jpg","0","0","1","",""
"","feedback","","html-keyboard-response","533","462819","0.0-1.0-762.0-0.0","0","0","91769","","null","","","null","84","","","","","","","","","","","","","","","",""
"","ITI","","html-keyboard-response","534","463836","0.0-1.0-765.0","0","0","91769","","null","","","null","84","","","","","","","","","","","","","","","NaN",""
"","S1","","html-keyboard-response","535","464089","0.0-1.0-767.0","0","0","91769","","null","","","null","85","","","","","","","","","","","","","","","",""
"","ISI","","html-keyboard-response","536","465091","0.0-1.0-768.0","0","0","91769","","null","","","null","85","NaN","","","","","","","","","","","","","","",""
"","S2","","html-keyboard-response","537","465344","0.0-1.0-769.0","0","0","91769","","null","","","null","85","","NaN","","","","","","","","","","","","","",""
"","response","","html-keyboard-response","538","465662","0.0-1.0-770.0-0.0","0","0","91769","","317","","","75","85","","","2","85","training","adjacent","BA","2","1","L.jpg","R.jpg","1","0","0","",""
"","feedback","","html-keyboard-response","539","466665","0.0-1.0-771.0-0.0","0","0","91769","","null","","","null","85","","","","","","","","","","","","","","","",""
"","time_out","","html-keyboard-response","540","468668","0.0-1.0-773.0-0.0","0","0","91769","","null","","","null","85","","","","","","","","","","","","","","","",""
"","ITI","","html-keyboard-response","541","469671","0.0-1.0-774.0","0","0","91769","","null","","","null","85","","","","","","","","","","","","","","","NaN",""
"","S1","","html-keyboard-response","542","469924","0.0-1.0-776.0","0","0","91769","","null","","","null","86","","","","","","","","","","","","","","","",""
"","ISI","","html-keyboard-response","543","470927","0.0-1.0-777.0","0","0","91769","","null","","","null","86","NaN","","","","","","","","","","","","","","",""
"","S2","","html-keyboard-response","544","471180","0.0-1.0-778.0","0","0","91769","","null","","","null","86","","NaN","","","","","","","","","","","","","",""
"","response","","html-keyboard-response","545","471596","0.0-1.0-779.0-0.0","0","0","91769","","415","","","68","86","","","2","86","training","adjacent","ED","5","4","N.jpg","M.jpg","0","0","1","",""
"","feedback","","html-keyboard-response","546","472598","0.0-1.0-780.0-0.0","0","0","91769","","null","","","null","86","","","","","","","","","","","","","","","",""
"","ITI","","html-keyboard-response","547","473600","0.0-1.0-783.0","0","0","91769","","null","","","null","86","","","","","","","","","","","","","","","NaN",""
"","S1","","html-keyboard-response","548","473853","0.0-1.0-785.0","0","0","91769","","null","","","null","87","","","","","","","","","","","","","","","",""
"","ISI","","html-keyboard-response","549","474854","0.0-1.0-786.0","0","0","91769","","null","","","null","87","NaN","","","","","","","","","","","","","","",""
"","S2","","html-keyboard-response","550","475107","0.0-1.0-787.0","0","0","91769","","null","","","null","87","","NaN","","","","","","","","","","","","","",""
"","response","","html-keyboard-response","551","475476","0.0-1.0-788.0-0.0","0","0","91769","","366","","","75","87","","","2","87","training","adjacent","FG","6","7","O.jpg","P.jpg","1","1","1","",""
"","feedback","","html-keyboard-response","552","476478","0.0-1.0-789.0-0.0","0","0","91769","","null","","","null","87","","","","","","","","","","","","","","","",""
"","ITI","","html-keyboard-response","553","477480","0.0-1.0-792.0","0","0","91769","","null","","","null","87","","","","","","","","","","","","","","","NaN",""
"","S1","","html-keyboard-response","554","477732","0.0-1.0-794.0","0","0","91769","","null","","","null","88","","","","","","","","","","","","","","","",""
"","ISI","","html-keyboard-response","555","478734","0.0-1.0-795.0","0","0","91769","","null","","","null","88","NaN","","","","","","","","","","","","","","",""
"","S2","","html-keyboard-response","556","478996","0.0-1.0-796.0","0","0","91769","","null","","","null","88","","NaN","","","","","","","","","","","","","",""
"","response","","html-keyboard-response","557","479556","0.0-1.0-797.0-0.0","0","0","91769","","559","","","68","88","","","2","88","training","adjacent","BC","2","3","L.jpg","Q.jpg","0","1","0","",""
"","feedback","","html-keyboard-response","558","480558","0.0-1.0-798.0-0.0","0","0","91769","","null","","","null","88","","","","","","","","","","","","","","","",""
"","time_out","","html-keyboard-response","559","482560","0.0-1.0-800.0-0.0","0","0","91769","","null","","","null","88","","","","","","","","","","","","","","","",""
"","ITI","","html-keyboard-response","560","483563","0.0-1.0-801.0","0","0","91769","","null","","","null","88","","","","","","","","","","","","","","","NaN",""
"","S1","","html-keyboard-response","561","483816","0.0-1.0-803.0","0","0","91769","","null","","","null","89","","","","","","","","","","","","","","","",""
"","ISI","","html-keyboard-response","562","484818","0.0-1.0-804.0","0","0","91769","","null","","","null","89","NaN","","","","","","","","","","","","","","",""
"","S2","","html-keyboard-response","563","485071","0.0-1.0-805.0","0","0","91769","","null","","","null","89","","NaN","","","","","","","","","","","","","",""
"","response","","html-keyboard-response","564","485407","0.0-1.0-806.0-0.0","0","0","91769","","335","","","75","89","","","2","89","training","adjacent","BC","2","3","L.jpg","Q.jpg","1","1","1","",""
"","feedback","","html-keyboard-response","565","486409","0.0-1.0-807.0-0.0","0","0","91769","","null","","","null","89","","","","","","","","","","","","","","","",""
"","ITI","","html-keyboard-response","566","487411","0.0-1.0-810.0","0","0","91769","","null","","","null","89","","","","","","","","","","","","","","","NaN",""
"","S1","","html-keyboard-response","567","487664","0.0-1.0-812.0","0","0","91769","","null","","","null","90","","","","","","","","","","","","","","","",""
"","ISI","","html-keyboard-response","568","488666","0.0-1.0-813.0","0","0","91769","","null","","","null","90","NaN","","","","","","","","","","","","","","",""
"","S2","","html-keyboard-response","569","488917","0.0-1.0-814.0","0","0","91769","","null","","","null","90","","NaN","","","","","","","","","","","","","",""
"","response","","html-keyboard-response","570","489582","0.0-1.0-815.0-0.0","0","0","91769","","664","","","68","90","","","2","90","training","adjacent","DE","4","5","M.jpg","N.jpg","0","1","0","",""
"","feedback","","html-keyboard-response","571","490584","0.0-1.0-816.0-0.0","0","0","91769","","null","","","null","90","","","","","","","","","","","","","","","",""
"","time_out","","html-keyboard-response","572","492587","0.0-1.0-818.0-0.0","0","0","91769","","null","","","null","90","","","","","","","","","","","","","","","",""
"","ITI","","html-keyboard-response","573","493590","0.0-1.0-819.0","0","0","91769","","null","","","null","90","","","","","","","","","","","","","","","NaN",""
"","S1","","html-keyboard-response","574","493842","0.0-1.0-821.0","0","0","91769","","null","","","null","91","","","","","","","","","","","","","","","",""
"","ISI","","html-keyboard-response","575","494844","0.0-1.0-822.0","0","0","91769","","null","","","null","91","NaN","","","","","","","","","","","","","","",""
"","S2","","html-keyboard-response","576","495098","0.0-1.0-823.0","0","0","91769","","null","","","null","91","","NaN","","","","","","","","","","","","","",""
"","response","","html-keyboard-response","577","496038","0.0-1.0-824.0-0.0","0","0","91769","","939","","","68","91","","","2","91","training","adjacent","DC","4","3","M.jpg","Q.jpg","0","0","1","",""
"","feedback","","html-keyboard-response","578","497040","0.0-1.0-825.0-0.0","0","0","91769","","null","","","null","91","","","","","","","","","","","","","","","",""
"","ITI","","html-keyboard-response","579","498043","0.0-1.0-828.0","0","0","91769","","null","","","null","91","","","","","","","","","","","","","","","NaN",""
"","S1","","html-keyboard-response","580","498295","0.0-1.0-830.0","0","0","91769","","null","","","null","92","","","","","","","","","","","","","","","",""
"","ISI","","html-keyboard-response","581","499298","0.0-1.0-831.0","0","0","91769","","null","","","null","92","NaN","","","","","","","","","","","","","","",""
