"success","ttype","start_time","trial_type","trial_index","time_elapsed","internal_node_id","warning","missed_checkup","PID","view_history","rt","responses","repeat_instructions","key_press","index","keypress_isi","keypress_S2","block","trial_num","phase","group_type","pair_type","S1_stim","S2_stim","S1_img","S2_img","S1_chosen","S1_higher","accuracy","keypress_iti","total_bonus_tally"
"true","full_screen","d08052022hr1249","fullscreen","0","20302","0.0-0.0","0","0","97277","","","","","","","","","","","","","","","","","","","","","",""
"","instructions","","instructions","1","182673","0.0-1.0-0.0-0.0","0","0","97277","[{""page_index"":0,""viewing_time"":5218},{""page_index"":1,""viewing_time"":141978},{""page_index"":2,""viewing_time"":12534},{""page_index"":3,""viewing_time"":2638}]","162369","","","","","","","","","","","","","","","","","","","",""
"","comprehension_check","","survey-multi-choice","2","220594","0.0-1.0-0.0-1.0","0","0","97277","","37912","{""Q0"":""True"",""Q1"":""K"",""Q2"":""Once the second image appears and while the screen 'MAKE A CHOICE' is shown"",""Q3"":""Green mark"",""Q4"":""either D or K""}","0","","","","","","","","","","","","","","","","","",""
"","start_exp","","html-keyboard-response","3","223382","0.0-1.0-1.0","0","0","97277","","2783","","","32","","","","","","","","","","","","","","","","",""
"","S1","","html-keyboard-response","4","223637","0.0-1.0-2.0","0","0","97277","","null","","","null","0","","","","","","","","","","","","","","","",""
"","ISI","","html-keyboard-response","5","225640","0.0-1.0-3.0","0","0","97277","","null","","","null","0","NaN","","","","","","","","","","","","","","",""
"","S2","","html-keyboard-response","6","225895","0.0-1.0-4.0","0","0","97277","","null","","","null","0","","NaN","","","","","","","","","","","","","",""
"","response","","html-keyboard-response","7","227120","0.0-1.0-5.0-0.0","0","0","97277","","1223","","","75","0","","","1","0","training","adjacent","FE","6","5","L.jpg","O.jpg","1","0","0","",""
"","feedback","","html-keyboard-response","8","228124","0.0-1.0-6.0-0.0","0","0","97277","","null","","","null","0","","","","","","","","","","","","","","","",""
"","time_out","","html-keyboard-response","9","230132","0.0-1.0-8.0-0.0","0","0","97277","","null","","","null","0","","","","","","","","","","","","","","","",""
"","ITI","","html-keyboard-response","10","231136","0.0-1.0-9.0","0","0","97277","","null","","","null","0","","","","","","","","","","","","","","","NaN",""
"","S1","","html-keyboard-response","11","231392","0.0-1.0-11.0","0","0","97277","","null","","","null","1","","","","","","","","","","","","","","","",""
"","ISI","","html-keyboard-response","12","233395","0.0-1.0-12.0","0","0","97277","","null","","","null","1","NaN","","","","","","","","","","","","","","",""
"","S2","","html-keyboard-response","13","233652","0.0-1.0-13.0","0","0","97277","","null","","","null","1","","NaN","","","","","","","","","","","","","",""
"","response","","html-keyboard-response","14","234245","0.0-1.0-14.0-0.0","0","0","97277","","590","","","75","1","","","1","1","training","adjacent","FG","6","7","L.jpg","N.jpg","1","1","1","",""
"","feedback","","html-keyboard-response","15","235254","0.0-1.0-15.0-0.0","0","0","97277","","null","","","null","1","","","","","","","","","","","","","","","",""
"","ITI","","html-keyboard-response","16","236258","0.0-1.0-18.0","0","0","97277","","null","","","null","1","","","","","","","","","","","","","","","NaN",""
"","S1","","html-keyboard-response","17","236514","0.0-1.0-20.0","0","0","97277","","null","","","null","2","","","","","","","","","","","","","","","",""
"","ISI","","html-keyboard-response","18","238520","0.0-1.0-21.0","0","0","97277","","null","","","null","2","NaN","","","","","","","","","","","","","","",""
"","S2","","html-keyboard-response","19","238775","0.0-1.0-22.0","0","0","97277","","null","","","null","2","","NaN","","","","","","","","","","","","","",""
"","response","","html-keyboard-response","20","239488","0.0-1.0-23.0-0.0","0","0","97277","","711","","","68","2","","","1","2","training","adjacent","AB","1","2","Q.jpg","P.jpg","0","1","0","",""
"","feedback","","html-keyboard-response","21","240493","0.0-1.0-24.0-0.0","0","0","97277","","null","","","null","2","","","","","","","","","","","","","","","",""
"","time_out","","html-keyboard-response","22","242498","0.0-1.0-26.0-0.0","0","0","97277","","null","","","null","2","","","","","","","","","","","","","","","",""
"","ITI","","html-keyboard-response","23","243506","0.0-1.0-27.0","0","0","97277","","null","","","null","2","","","","","","","","","","","","","","","NaN",""
"","S1","","html-keyboard-response","24","243764","0.0-1.0-29.0","0","0","97277","","null","","","null","3","","","","","","","","","","","","","","","",""
"","ISI","","html-keyboard-response","25","245772","0.0-1.0-30.0","0","0","97277","","null","","","null","3","NaN","","","","","","","","","","","","","","",""
"","S2","","html-keyboard-response","26","246028","0.0-1.0-31.0","0","0","97277","","null","","","null","3","","NaN","","","","","","","","","","","","","",""
"","response","","html-keyboard-response","27","247045","0.0-1.0-32.0-0.0","0","0","97277","","1014","","","75","3","","","1","3","training","adjacent","GF","7","6","N.jpg","L.jpg","1","0","0","",""
"","feedback","","html-keyboard-response","28","248051","0.0-1.0-33.0-0.0","0","0","97277","","null","","","null","3","","","","","","","","","","","","","","","",""
"","time_out","","html-keyboard-response","29","250054","0.0-1.0-35.0-0.0","0","0","97277","","null","","","null","3","","","","","","","","","","","","","","","",""
"","ITI","","html-keyboard-response","30","251058","0.0-1.0-36.0","0","0","97277","","null","","","null","3","","","","","","","","","","","","","","","NaN",""
"","S1","","html-keyboard-response","31","251313","0.0-1.0-38.0","0","0","97277","","null","","","null","4","","","","","","","","","","","","","","","",""
"","ISI","","html-keyboard-response","32","253316","0.0-1.0-39.0","0","0","97277","","null","","","null","4","NaN","","","","","","","","","","","","","","",""
"","S2","","html-keyboard-response","33","253574","0.0-1.0-40.0","0","0","97277","","null","","","null","4","","NaN","","","","","","","","","","","","","",""
"","response","","html-keyboard-response","34","254106","0.0-1.0-41.0-0.0","0","0","97277","","530","","","75","4","","","1","4","training","adjacent","FG","6","7","L.jpg","N.jpg","1","1","1","",""
"","feedback","","html-keyboard-response","35","255114","0.0-1.0-42.0-0.0","0","0","97277","","null","","","null","4","","","","","","","","","","","","","","","",""
"","ITI","","html-keyboard-response","36","256120","0.0-1.0-45.0","0","0","97277","","null","","","null","4","","","","","","","","","","","","","","","NaN",""
"","S1","","html-keyboard-response","37","256375","0.0-1.0-47.0","0","0","97277","","null","","","null","5","","","","","","","","","","","","","","","",""
"","ISI","","html-keyboard-response","38","258380","0.0-1.0-48.0","0","0","97277","","null","","","null","5","NaN","","","","","","","","","","","","","","",""
"","S2","","html-keyboard-response","39","258634","0.0-1.0-49.0","0","0","97277","","null","","","null","5","","NaN","","","","","","","","","","","","","",""
"","response","","html-keyboard-response","40","259318","0.0-1.0-50.0-0.0","0","0","97277","","681","","","68","5","","","1","5","training","adjacent","DC","4","3","R.jpg","M.jpg","0","0","1","",""
"","feedback","","html-keyboard-response","41","260322","0.0-1.0-51.0-0.0","0","0","97277","","null","","","null","5","","","","","","","","","","","","","","","",""
"","ITI","","html-keyboard-response","42","261329","0.0-1.0-54.0","0","0","97277","","null","","","null","5","","","","","","","","","","","","","","","NaN",""
"","S1","","html-keyboard-response","43","261583","0.0-1.0-56.0","0","0","97277","","null","","","null","6","","","","","","","","","","","","","","","",""
"","ISI","","html-keyboard-response","44","263587","0.0-1.0-57.0","0","0","97277","","null","","","null","6","NaN","","","","","","","","","","","","","","",""
"","S2","","html-keyboard-response","45","263848","0.0-1.0-58.0","0","0","97277","","null","","","null","6","","NaN","","","","","","","","","","","","","",""
"","response","","html-keyboard-response","46","264428","0.0-1.0-59.0-0.0","0","0","97277","","577","","","68","6","","","1","6","training","adjacent","ED","5","4","O.jpg","R.jpg","0","0","1","",""
"","feedback","","html-keyboard-response","47","265432","0.0-1.0-60.0-0.0","0","0","97277","","null","","","null","6","","","","","","","","","","","","","","","",""
"","ITI","","html-keyboard-response","48","266442","0.0-1.0-63.0","0","0","97277","","null","","","null","6","","","","","","","","","","","","","","","NaN",""
"","S1","","html-keyboard-response","49","266696","0.0-1.0-65.0","0","0","97277","","null","","","null","7","","","","","","","","","","","","","","","",""
"","ISI","","html-keyboard-response","50","268704","0.0-1.0-66.0","0","0","97277","","null","","","null","7","NaN","","","","","","","","","","","","","","",""
"","S2","","html-keyboard-response","51","268960","0.0-1.0-67.0","0","0","97277","","null","","","null","7","","NaN","","","","","","","","","","","","","",""
"","response","","html-keyboard-response","52","269989","0.0-1.0-68.0-0.0","0","0","97277","","1026","","","75","7","","","1","7","training","adjacent","AB","1","2","Q.jpg","P.jpg","1","1","1","",""
"","feedback","","html-keyboard-response","53","270995","0.0-1.0-69.0-0.0","0","0","97277","","null","","","null","7","","","","","","","","","","","","","","","",""
"","ITI","","html-keyboard-response","54","272002","0.0-1.0-72.0","0","0","97277","","null","","","null","7","","","","","","","","","","","","","","","NaN",""
"","S1","","html-keyboard-response","55","272257","0.0-1.0-74.0","0","0","97277","","null","","","null","8","","","","","","","","","","","","","","","",""
"","ISI","","html-keyboard-response","56","274262","0.0-1.0-75.0","0","0","97277","","null","","","null","8","NaN","","","","","","","","","","","","","","",""
"","S2","","html-keyboard-response","57","274523","0.0-1.0-76.0","0","0","97277","","null","","","null","8","","NaN","","","","","","","","","","","","","",""
"","response","","html-keyboard-response","58","275327","0.0-1.0-77.0-0.0","0","0","97277","","801","","","68","8","","","1","8","training","adjacent","DE","4","5","R.jpg","O.jpg","0","1","0","",""
"","feedback","","html-keyboard-response","59","276332","0.0-1.0-78.0-0.0","0","0","97277","","null","","","null","8","","","","","","","","","","","","","","","",""
"","time_out","","html-keyboard-response","60","278337","0.0-1.0-80.0-0.0","0","0","97277","","null","","","null","8","","","","","","","","","","","","","","","",""
"","ITI","","html-keyboard-response","61","279346","0.0-1.0-81.0","0","0","97277","","null","","","null","8","","","","","","","","","","","","","","","NaN",""
"","S1","","html-keyboard-response","62","279602","0.0-1.0-83.0","0","0","97277","","null","","","null","9","","","","","","","","","","","","","","","",""
"","ISI","","html-keyboard-response","63","281611","0.0-1.0-84.0","0","0","97277","","null","","","null","9","NaN","","","","","","","","","","","","","","",""
"","S2","","html-keyboard-response","64","281870","0.0-1.0-85.0","0","0","97277","","null","","","null","9","","NaN","","","","","","","","","","","","","",""
"","response","","html-keyboard-response","65","282772","0.0-1.0-86.0-0.0","0","0","97277","","899","","","68","9","","","1","9","training","adjacent","ED","5","4","O.jpg","R.jpg","0","0","1","",""
"","feedback","","html-keyboard-response","66","283781","0.0-1.0-87.0-0.0","0","0","97277","","null","","","null","9","","","","","","","","","","","","","","","",""
"","ITI","","html-keyboard-response","67","284788","0.0-1.0-90.0","0","0","97277","","null","","","null","9","","","","","","","","","","","","","","","NaN",""
"","S1","","html-keyboard-response","68","285047","0.0-1.0-92.0","0","0","97277","","null","","","null","10","","","","","","","","","","","","","","","",""
"","ISI","","html-keyboard-response","69","287055","0.0-1.0-93.0","0","0","97277","","null","","","null","10","NaN","","","","","","","","","","","","","","",""
"","S2","","html-keyboard-response","70","287311","0.0-1.0-94.0","0","0","97277","","null","","","null","10","","NaN","","","","","","","","","","","","","",""
"","response","","html-keyboard-response","71","287865","0.0-1.0-95.0-0.0","0","0","97277","","551","","","68","10","","","1","10","training","adjacent","AB","1","2","Q.jpg","P.jpg","0","1","0","",""
"","feedback","","html-keyboard-response","72","288870","0.0-1.0-96.0-0.0","0","0","97277","","null","","","null","10","","","","","","","","","","","","","","","",""
"","time_out","","html-keyboard-response","73","290873","0.0-1.0-98.0-0.0","0","0","97277","","null","","","null","10","","","","","","","","","","","","","","","",""
"","ITI","","html-keyboard-response","74","291879","0.0-1.0-99.0","0","0","97277","","null","","","null","10","","","","","","","","","","","","","","","NaN",""
"","S1","","html-keyboard-response","75","292140","0.0-1.0-101.0","0","0","97277","","null","","","null","11","","","","","","","","","","","","","","","",""
"","ISI","","html-keyboard-response","76","294149","0.0-1.0-102.0","0","0","97277","","null","","","null","11","NaN","","","","","","","","","","","","","","",""
"","S2","","html-keyboard-response","77","294404","0.0-1.0-103.0","0","0","97277","","null","","","null","11","","NaN","","","","","","","","","","","","","",""
"","response","","html-keyboard-response","78","294744","0.0-1.0-104.0-0.0","0","0","97277","","338","","","75","11","","","1","11","training","adjacent","FE","6","5","L.jpg","O.jpg","1","0","0","",""
"","feedback","","html-keyboard-response","79","295748","0.0-1.0-105.0-0.0","0","0","97277","","null","","","null","11","","","","","","","","","","","","","","","",""
"","time_out","","html-keyboard-response","80","297752","0.0-1.0-107.0-0.0","0","0","97277","","null","","","null","11","","","","","","","","","","","","","","","",""
"","ITI","","html-keyboard-response","81","298755","0.0-1.0-108.0","0","0","97277","","null","","","null","11","","","","","","","","","","","","","","","NaN",""
"","S1","","html-keyboard-response","82","299013","0.0-1.0-110.0","0","0","97277","","null","","","null","12","","","","","","","","","","","","","","","",""
"","ISI","","html-keyboard-response","83","301022","0.0-1.0-111.0","0","0","97277","","null","","","null","12","NaN","","","","","","","","","","","","","","",""
"","S2","","html-keyboard-response","84","301277","0.0-1.0-112.0","0","0","97277","","null","","","null","12","","NaN","","","","","","","","","","","","","",""
"","response","","html-keyboard-response","85","301860","0.0-1.0-113.0-0.0","0","0","97277","","580","","","75","12","","","1","12","training","adjacent","ED","5","4","O.jpg","R.jpg","1","0","0","",""
"","feedback","","html-keyboard-response","86","302865","0.0-1.0-114.0-0.0","0","0","97277","","null","","","null","12","","","","","","","","","","","","","","","",""
"","time_out","","html-keyboard-response","87","304869","0.0-1.0-116.0-0.0","0","0","97277","","null","","","null","12","","","","","","","","","","","","","","","",""
"","ITI","","html-keyboard-response","88","305873","0.0-1.0-117.0","0","0","97277","","null","","","null","12","","","","","","","","","","","","","","","NaN",""
"","S1","","html-keyboard-response","89","306127","0.0-1.0-119.0","0","0","97277","","null","","","null","13","","","","","","","","","","","","","","","",""
"","ISI","","html-keyboard-response","90","308130","0.0-1.0-120.0","0","0","97277","","null","","","null","13","NaN","","","","","","","","","","","","","","",""
"","S2","","html-keyboard-response","91","308388","0.0-1.0-121.0","0","0","97277","","null","","","null","13","","NaN","","","","","","","","","","","","","",""
"","response","","html-keyboard-response","92","308879","0.0-1.0-122.0-0.0","0","0","97277","","489","","","68","13","","","1","13","training","adjacent","FE","6","5","L.jpg","O.jpg","0","0","1","",""
"","feedback","","html-keyboard-response","93","309883","0.0-1.0-123.0-0.0","0","0","97277","","null","","","null","13","","","","","","","","","","","","","","","",""
"","ITI","","html-keyboard-response","94","310887","0.0-1.0-126.0","0","0","97277","","null","","","null","13","","","","","","","","","","","","","","","NaN",""
"","S1","","html-keyboard-response","95","311144","0.0-1.0-128.0","0","0","97277","","null","","","null","14","","","","","","","","","","","","","","","",""
"","ISI","","html-keyboard-response","96","313148","0.0-1.0-129.0","0","0","97277","","null","","","null","14","NaN","","","","","","","","","","","","","","",""
"","S2","","html-keyboard-response","97","313408","0.0-1.0-130.0","0","0","97277","","null","","","null","14","","NaN","","","","","","","","","","","","","",""
"","response","","html-keyboard-response","98","313989","0.0-1.0-131.0-0.0","0","0","97277","","579","","","68","14","","","1","14","training","adjacent","AB","1","2","Q.jpg","P.jpg","0","1","0","",""
"","feedback","","html-keyboard-response","99","314998","0.0-1.0-132.0-0.0","0","0","97277","","null","","","null","14","","","","","","","","","","","","","","","",""
"","time_out","","html-keyboard-response","100","317005","0.0-1.0-134.0-0.0","0","0","97277","","null","","","null","14","","","","","","","","","","","","","","","",""
"","ITI","","html-keyboard-response","101","318012","0.0-1.0-135.0","0","0","97277","","null","","","null","14","","","","","","","","","","","","","","","NaN",""
"","S1","","html-keyboard-response","102","318268","0.0-1.0-137.0","0","0","97277","","null","","","null","15","","","","","","","","","","","","","","","",""
"","ISI","","html-keyboard-response","103","320273","0.0-1.0-138.0","0","0","97277","","null","","","null","15","NaN","","","","","","","","","","","","","","",""
"","S2","","html-keyboard-response","104","320531","0.0-1.0-139.0","0","0","97277","","null","","","null","15","","NaN","","","","","","","","","","","","","",""
"","response","","html-keyboard-response","105","321533","0.0-1.0-140.0-0.0","0","0","97277","","1000","","","68","15","","","1","15","training","adjacent","EF","5","6","O.jpg","L.jpg","0","1","0","",""
"","feedback","","html-keyboard-response","106","322538","0.0-1.0-141.0-0.0","0","0","97277","","null","","","null","15","","","","","","","","","","","","","","","",""
"","time_out","","html-keyboard-response","107","324546","0.0-1.0-143.0-0.0","0","0","97277","","null","","","null","15","","","","","","","","","","","","","","","",""
"","ITI","","html-keyboard-response","108","325550","0.0-1.0-144.0","0","0","97277","","null","","","null","15","","","","","","","","","","","","","","","NaN",""
"","S1","","html-keyboard-response","109","325805","0.0-1.0-146.0","0","0","97277","","null","","","null","16","","","","","","","","","","","","","","","",""
"","ISI","","html-keyboard-response","110","327808","0.0-1.0-147.0","0","0","97277","","null","","","null","16","NaN","","","","","","","","","","","","","","",""
"","S2","","html-keyboard-response","111","328064","0.0-1.0-148.0","0","0","97277","","null","","","null","16","","NaN","","","","","","","","","","","","","",""
"","response","","html-keyboard-response","112","328602","0.0-1.0-149.0-0.0","0","0","97277","","535","","","68","16","","","1","16","training","adjacent","CD","3","4","M.jpg","R.jpg","0","1","0","",""
"","feedback","","html-keyboard-response","113","329608","0.0-1.0-150.0-0.0","0","0","97277","","null","","","null","16","","","","","","","","","","","","","","","",""
"","time_out","","html-keyboard-response","114","331618","0.0-1.0-152.0-0.0","0","0","97277","","null","","","null","16","","","","","","","","","","","","","","","",""
"","ITI","","html-keyboard-response","115","332624","0.0-1.0-153.0","0","0","97277","","null","","","null","16","","","","","","","","","","","","","","","NaN",""
"","S1","","html-keyboard-response","116","332884","0.0-1.0-155.0","0","0","97277","","null","","","null","17","","","","","","","","","","","","","","","",""
"","ISI","","html-keyboard-response","117","334890","0.0-1.0-156.0","0","0","97277","","null","","","null","17","NaN","","","","","","","","","","","","","","",""
"","S2","","html-keyboard-response","118","335148","0.0-1.0-157.0","0","0","97277","","null","","","null","17","","NaN","","","","","","","","","","","","","",""
"","response","","html-keyboard-response","119","335496","0.0-1.0-158.0-0.0","0","0","97277","","345","","","75","17","","","1","17","training","adjacent","CD","3","4","M.jpg","R.jpg","1","1","1","",""
"","feedback","","html-keyboard-response","120","336500","0.0-1.0-159.0-0.0","0","0","97277","","null","","","null","17","","","","","","","","","","","","","","","",""
"","ITI","","html-keyboard-response","121","337504","0.0-1.0-162.0","0","0","97277","","null","","","null","17","","","","","","","","","","","","","","","NaN",""
"","S1","","html-keyboard-response","122","337760","0.0-1.0-164.0","0","0","97277","","null","","","null","18","","","","","","","","","","","","","","","",""
"","ISI","","html-keyboard-response","123","339767","0.0-1.0-165.0","0","0","97277","","null","","","null","18","NaN","","","","","","","","","","","","","","",""
"","S2","","html-keyboard-response","124","340022","0.0-1.0-166.0","0","0","97277","","null","","","null","18","","NaN","","","","","","","","","","","","","",""
"","response","","html-keyboard-response","125","340629","0.0-1.0-167.0-0.0","0","0","97277","","605","","","75","18","","","1","18","training","adjacent","DC","4","3","R.jpg","M.jpg","1","0","0","",""
"","feedback","","html-keyboard-response","126","341635","0.0-1.0-168.0-0.0","0","0","97277","","null","","","null","18","","","","","","","","","","","","","","","",""
"","time_out","","html-keyboard-response","127","343643","0.0-1.0-170.0-0.0","0","0","97277","","null","","","null","18","","","","","","","","","","","","","","","",""
"","ITI","","html-keyboard-response","128","344648","0.0-1.0-171.0","0","0","97277","","null","","","null","18","","","","","","","","","","","","","","","NaN",""
"","S1","","html-keyboard-response","129","344905","0.0-1.0-173.0","0","0","97277","","null","","","null","19","","","","","","","","","","","","","","","",""
"","ISI","","html-keyboard-response","130","346912","0.0-1.0-174.0","0","0","97277","","null","","","null","19","NaN","","","","","","","","","","","","","","",""
"","S2","","html-keyboard-response","131","347167","0.0-1.0-175.0","0","0","97277","","null","","","null","19","","NaN","","","","","","","","","","","","","",""
"","response","","html-keyboard-response","132","347990","0.0-1.0-176.0-0.0","0","0","97277","","821","","","75","19","","","1","19","training","adjacent","BA","2","1","P.jpg","Q.jpg","1","0","0","",""
"","feedback","","html-keyboard-response","133","348995","0.0-1.0-177.0-0.0","0","0","97277","","null","","","null","19","","","","","","","","","","","","","","","",""
"","time_out","","html-keyboard-response","134","351005","0.0-1.0-179.0-0.0","0","0","97277","","null","","","null","19","","","","","","","","","","","","","","","",""
"","ITI","","html-keyboard-response","135","352014","0.0-1.0-180.0","0","0","97277","","null","","","null","19","","","","","","","","","","","","","","","NaN",""
"","S1","","html-keyboard-response","136","352269","0.0-1.0-182.0","0","0","97277","","null","","","null","20","","","","","","","","","","","","","","","",""
"","ISI","","html-keyboard-response","137","354274","0.0-1.0-183.0","0","0","97277","","null","","","null","20","NaN","","","","","","","","","","","","","","",""
"","S2","","html-keyboard-response","138","354527","0.0-1.0-184.0","0","0","97277","","null","","","null","20","","NaN","","","","","","","","","","","","","",""
"","response","","html-keyboard-response","139","354870","0.0-1.0-185.0-0.0","0","0","97277","","340","","","68","20","","","1","20","training","adjacent","FG","6","7","L.jpg","N.jpg","0","1","0","",""
"","feedback","","html-keyboard-response","140","355874","0.0-1.0-186.0-0.0","0","0","97277","","null","","","null","20","","","","","","","","","","","","","","","",""
"","time_out","","html-keyboard-response","141","357884","0.0-1.0-188.0-0.0","0","0","97277","","null","","","null","20","","","","","","","","","","","","","","","",""
"","ITI","","html-keyboard-response","142","358892","0.0-1.0-189.0","0","0","97277","","null","","","null","20","","","","","","","","","","","","","","","NaN",""
"","S1","","html-keyboard-response","143","359150","0.0-1.0-191.0","0","0","97277","","null","","","null","21","","","","","","","","","","","","","","","",""
"","ISI","","html-keyboard-response","144","361156","0.0-1.0-192.0","0","0","97277","","null","","","null","21","NaN","","","","","","","","","","","","","","",""
"","S2","","html-keyboard-response","145","361414","0.0-1.0-193.0","0","0","97277","","null","","","null","21","","NaN","","","","","","","","","","","","","",""
"","response","","html-keyboard-response","146","362473","0.0-1.0-194.0-0.0","0","0","97277","","1056","","","75","21","","","1","21","training","adjacent","GF","7","6","N.jpg","L.jpg","1","0","0","",""
"","feedback","","html-keyboard-response","147","363478","0.0-1.0-195.0-0.0","0","0","97277","","null","","","null","21","","","","","","","","","","","","","","","",""
"","time_out","","html-keyboard-response","148","365483","0.0-1.0-197.0-0.0","0","0","97277","","null","","","null","21","","","","","","","","","","","","","","","",""
"","ITI","","html-keyboard-response","149","366493","0.0-1.0-198.0","0","0","97277","","null","","","null","21","","","","","","","","","","","","","","","NaN",""
"","S1","","html-keyboard-response","150","366748","0.0-1.0-200.0","0","0","97277","","null","","","null","22","","","","","","","","","","","","","","","",""
"","ISI","","html-keyboard-response","151","368754","0.0-1.0-201.0","0","0","97277","","null","","","null","22","NaN","","","","","","","","","","","","","","",""
"","S2","","html-keyboard-response","152","369012","0.0-1.0-202.0","0","0","97277","","null","","","null","22","","NaN","","","","","","","","","","","","","",""
"","response","","html-keyboard-response","153","369370","0.0-1.0-203.0-0.0","0","0","97277","","354","","","68","22","","","1","22","training","adjacent","FE","6","5","L.jpg","O.jpg","0","0","1","",""
"","feedback","","html-keyboard-response","154","370374","0.0-1.0-204.0-0.0","0","0","97277","","null","","","null","22","","","","","","","","","","","","","","","",""
"","ITI","","html-keyboard-response","155","371378","0.0-1.0-207.0","0","0","97277","","null","","","null","22","","","","","","","","","","","","","","","NaN",""
"","S1","","html-keyboard-response","156","371634","0.0-1.0-209.0","0","0","97277","","null","","","null","23","","","","","","","","","","","","","","","",""
"","ISI","","html-keyboard-response","157","373644","0.0-1.0-210.0","0","0","97277","","null","","","null","23","NaN","","","","","","","","","","","","","","",""
"","S2","","html-keyboard-response","158","373900","0.0-1.0-211.0","0","0","97277","","null","","","null","23","","NaN","","","","","","","","","","","","","",""
"","response","","html-keyboard-response","159","374343","0.0-1.0-212.0-0.0","0","0","97277","","440","","","68","23","","","1","23","training","adjacent","ED","5","4","O.jpg","R.jpg","0","0","1","",""
"","feedback","","html-keyboard-response","160","375349","0.0-1.0-213.0-0.0","0","0","97277","","null","","","null","23","","","","","","","","","","","","","","","",""
"","ITI","","html-keyboard-response","161","376355","0.0-1.0-216.0","0","0","97277","","null","","","null","23","","","","","","","","","","","","","","","NaN",""
"","S1","","html-keyboard-response","162","376611","0.0-1.0-218.0","0","0","97277","","null","","","null","24","","","","","","","","","","","","","","","",""
"","ISI","","html-keyboard-response","163","378617","0.0-1.0-219.0","0","0","97277","","null","","","null","24","NaN","","","","","","","","","","","","","","",""
"","S2","","html-keyboard-response","164","378874","0.0-1.0-220.0","0","0","97277","","null","","","null","24","","NaN","","","","","","","","","","","","","",""
"","response","","html-keyboard-response","165","379220","0.0-1.0-221.0-0.0","0","0","97277","","344","","","68","24","","","1","24","training","adjacent","DE","4","5","R.jpg","O.jpg","0","1","0","",""
"","feedback","","html-keyboard-response","166","380225","0.0-1.0-222.0-0.0","0","0","97277","","null","","","null","24","","","","","","","","","","","","","","","",""
"","time_out","","html-keyboard-response","167","382230","0.0-1.0-224.0-0.0","0","0","97277","","null","","","null","24","","","","","","","","","","","","","","","",""
"","ITI","","html-keyboard-response","168","383240","0.0-1.0-225.0","0","0","97277","","null","","","null","24","","","","","","","","","","","","","","","NaN",""
"","S1","","html-keyboard-response","169","383500","0.0-1.0-227.0","0","0","97277","","null","","","null","25","","","","","","","","","","","","","","","",""
"","ISI","","html-keyboard-response","170","385503","0.0-1.0-228.0","0","0","97277","","null","","","null","25","NaN","","","","","","","","","","","","","","",""
"","S2","","html-keyboard-response","171","385757","0.0-1.0-229.0","0","0","97277","","null","","","null","25","","NaN","","","","","","","","","","","","","",""
"","response","","html-keyboard-response","172","386214","0.0-1.0-230.0-0.0","0","0","97277","","454","","","75","25","","","1","25","training","adjacent","BC","2","3","P.jpg","M.jpg","1","1","1","",""
"","feedback","","html-keyboard-response","173","387219","0.0-1.0-231.0-0.0","0","0","97277","","null","","","null","25","","","","","","","","","","","","","","","",""
"","ITI","","html-keyboard-response","174","388226","0.0-1.0-234.0","0","0","97277","","null","","","null","25","","","","","","","","","","","","","","","NaN",""
"","S1","","html-keyboard-response","175","388481","0.0-1.0-236.0","0","0","97277","","null","","","null","26","","","","","","","","","","","","","","","",""
"","ISI","","html-keyboard-response","176","390490","0.0-1.0-237.0","0","0","97277","","null","","","null","26","NaN","","","","","","","","","","","","","","",""
"","S2","","html-keyboard-response","177","390750","0.0-1.0-238.0","0","0","97277","","null","","","null","26","","NaN","","","","","","","","","","","","","",""
"","response","","html-keyboard-response","178","391330","0.0-1.0-239.0-0.0","0","0","97277","","578","","","75","26","","","1","26","training","adjacent","DC","4","3","R.jpg","M.jpg","1","0","0","",""
"","feedback","","html-keyboard-response","179","392334","0.0-1.0-240.0-0.0","0","0","97277","","null","","","null","26","","","","","","","","","","","","","","","",""
"","time_out","","html-keyboard-response","180","394344","0.0-1.0-242.0-0.0","0","0","97277","","null","","","null","26","","","","","","","","","","","","","","","",""
"","ITI","","html-keyboard-response","181","395351","0.0-1.0-243.0","0","0","97277","","null","","","null","26","","","","","","","","","","","","","","","NaN",""
"","S1","","html-keyboard-response","182","395608","0.0-1.0-245.0","0","0","97277","","null","","","null","27","","","","","","","","","","","","","","","",""
"","ISI","","html-keyboard-response","183","397612","0.0-1.0-246.0","0","0","97277","","null","","","null","27","NaN","","","","","","","","","","","","","","",""
"","S2","","html-keyboard-response","184","397871","0.0-1.0-247.0","0","0","97277","","null","","","null","27","","NaN","","","","","","","","","","","","","",""
"","response","","html-keyboard-response","185","398147","0.0-1.0-248.0-0.0","0","0","97277","","273","","","68","27","","","1","27","training","adjacent","BA","2","1","P.jpg","Q.jpg","0","0","1","",""
"","feedback","","html-keyboard-response","186","399154","0.0-1.0-249.0-0.0","0","0","97277","","null","","","null","27","","","","","","","","","","","","","","","",""
"","ITI","","html-keyboard-response","187","400160","0.0-1.0-252.0","0","0","97277","","null","","","null","27","","","","","","","","","","","","","","","NaN",""
"","S1","","html-keyboard-response","188","400416","0.0-1.0-254.0","0","0","97277","","null","","","null","28","","","","","","","","","","","","","","","",""
"","ISI","","html-keyboard-response","189","402422","0.0-1.0-255.0","0","0","97277","","null","","","null","28","NaN","","","","","","","","","","","","","","",""
"","S2","","html-keyboard-response","190","402680","0.0-1.0-256.0","0","0","97277","","null","","","null","28","","NaN","","","","","","","","","","","","","",""
"","response","","html-keyboard-response","191","403797","0.0-1.0-257.0-0.0","0","0","97277","","1115","","","68","28","","","1","28","training","adjacent","EF","5","6","O.jpg","L.jpg","0","1","0","",""
"","feedback","","html-keyboard-response","192","404802","0.0-1.0-258.0-0.0","0","0","97277","","null","","","null","28","","","","","","","","","","","","","","","",""
"","time_out","","html-keyboard-response","193","406810","0.0-1.0-260.0-0.0","0","0","97277","","null","","","null","28","","","","","","","","","","","","","","","",""
"","ITI","","html-keyboard-response","194","407817","0.0-1.0-261.0","0","0","97277","","null","","","null","28","","","","","","","","","","","","","","","NaN",""
"","S1","","html-keyboard-response","195","408072","0.0-1.0-263.0","0","0","97277","","null","","","null","29","","","","","","","","","","","","","","","",""
"","ISI","","html-keyboard-response","196","410081","0.0-1.0-264.0","0","0","97277","","null","","","null","29","NaN","","","","","","","","","","","","","","",""
"","S2","","html-keyboard-response","197","410341","0.0-1.0-265.0","0","0","97277","","null","","","null","29","","NaN","","","","","","","","","","","","","",""
"","response","","html-keyboard-response","198","410700","0.0-1.0-266.0-0.0","0","0","97277","","356","","","75","29","","","1","29","training","adjacent","GF","7","6","N.jpg","L.jpg","1","0","0","",""
"","feedback","","html-keyboard-response","199","411704","0.0-1.0-267.0-0.0","0","0","97277","","null","","","null","29","","","","","","","","","","","","","","","",""
"","time_out","","html-keyboard-response","200","413713","0.0-1.0-269.0-0.0","0","0","97277","","null","","","null","29","","","","","","","","","","","","","","","",""
"","ITI","","html-keyboard-response","201","414716","0.0-1.0-270.0","0","0","97277","","null","","","null","29","","","","","","","","","","","","","","","NaN",""
"","S1","","html-keyboard-response","202","414974","0.0-1.0-272.0","0","0","97277","","null","","","null","30","","","","","","","","","","","","","","","",""
"","ISI","","html-keyboard-response","203","416980","0.0-1.0-273.0","0","0","97277","","null","","","null","30","NaN","","","","","","","","","","","","","","",""
"","S2","","html-keyboard-response","204","417238","0.0-1.0-274.0","0","0","97277","","null","","","null","30","","NaN","","","","","","","","","","","","","",""
"","response","","html-keyboard-response","205","417540","0.0-1.0-275.0-0.0","0","0","97277","","300","","","68","30","","","1","30","training","adjacent","BC","2","3","P.jpg","M.jpg","0","1","0","",""
"","feedback","","html-keyboard-response","206","418548","0.0-1.0-276.0-0.0","0","0","97277","","null","","","null","30","","","","","","","","","","","","","","","",""
"","time_out","","html-keyboard-response","207","420558","0.0-1.0-278.0-0.0","0","0","97277","","null","","","null","30","","","","","","","","","","","","","","","",""
"","ITI","","html-keyboard-response","208","421562","0.0-1.0-279.0","0","0","97277","","null","","","null","30","","","","","","","","","","","","","","","NaN",""
"","S1","","html-keyboard-response","209","421816","0.0-1.0-281.0","0","0","97277","","null","","","null","31","","","","","","","","","","","","","","","",""
"","ISI","","html-keyboard-response","210","423820","0.0-1.0-282.0","0","0","97277","","null","","","null","31","NaN","","","","","","","","","","","","","","",""
"","S2","","html-keyboard-response","211","424076","0.0-1.0-283.0","0","0","97277","","null","","","null","31","","NaN","","","","","","","","","","","","","",""
"","response","","html-keyboard-response","212","424493","0.0-1.0-284.0-0.0","0","0","97277","","415","","","75","31","","","1","31","training","adjacent","CB","3","2","M.jpg","P.jpg","1","0","0","",""
"","feedback","","html-keyboard-response","213","425504","0.0-1.0-285.0-0.0","0","0","97277","","null","","","null","31","","","","","","","","","","","","","","","",""
"","time_out","","html-keyboard-response","214","427512","0.0-1.0-287.0-0.0","0","0","97277","","null","","","null","31","","","","","","","","","","","","","","","",""
"","ITI","","html-keyboard-response","215","428520","0.0-1.0-288.0","0","0","97277","","null","","","null","31","","","","","","","","","","","","","","","NaN",""
"","S1","","html-keyboard-response","216","428775","0.0-1.0-290.0","0","0","97277","","null","","","null","32","","","","","","","","","","","","","","","",""
"","ISI","","html-keyboard-response","217","430780","0.0-1.0-291.0","0","0","97277","","null","","","null","32","NaN","","","","","","","","","","","","","","",""
"","S2","","html-keyboard-response","218","431034","0.0-1.0-292.0","0","0","97277","","null","","","null","32","","NaN","","","","","","","","","","","","","",""
"","response","","html-keyboard-response","219","431347","0.0-1.0-293.0-0.0","0","0","97277","","311","","","68","32","","","1","32","training","adjacent","EF","5","6","O.jpg","L.jpg","0","1","0","",""
"","feedback","","html-keyboard-response","220","432351","0.0-1.0-294.0-0.0","0","0","97277","","null","","","null","32","","","","","","","","","","","","","","","",""
"","time_out","","html-keyboard-response","221","434359","0.0-1.0-296.0-0.0","0","0","97277","","null","","","null","32","","","","","","","","","","","","","","","",""
"","ITI","","html-keyboard-response","222","435366","0.0-1.0-297.0","0","0","97277","","null","","","null","32","","","","","","","","","","","","","","","NaN",""
"","S1","","html-keyboard-response","223","435619","0.0-1.0-299.0","0","0","97277","","null","","","null","33","","","","","","","","","","","","","","","",""
"","ISI","","html-keyboard-response","224","437623","0.0-1.0-300.0","0","0","97277","","null","","","null","33","NaN","","","","","","","","","","","","","","",""
"","S2","","html-keyboard-response","225","437878","0.0-1.0-301.0","0","0","97277","","null","","","null","33","","NaN","","","","","","","","","","","","","",""
"","response","","html-keyboard-response","226","438300","0.0-1.0-302.0-0.0","0","0","97277","","420","","","75","33","","","1","33","training","adjacent","CB","3","2","M.jpg","P.jpg","1","0","0","",""
"","feedback","","html-keyboard-response","227","439305","0.0-1.0-303.0-0.0","0","0","97277","","null","","","null","33","","","","","","","","","","","","","","","",""
"","time_out","","html-keyboard-response","228","441316","0.0-1.0-305.0-0.0","0","0","97277","","null","","","null","33","","","","","","","","","","","","","","","",""
"","ITI","","html-keyboard-response","229","442320","0.0-1.0-306.0","0","0","97277","","null","","","null","33","","","","","","","","","","","","","","","NaN",""
"","S1","","html-keyboard-response","230","442581","0.0-1.0-308.0","0","0","97277","","null","","","null","34","","","","","","","","","","","","","","","",""
"","ISI","","html-keyboard-response","231","444584","0.0-1.0-309.0","0","0","97277","","null","","","null","34","NaN","","","","","","","","","","","","","","",""
"","S2","","html-keyboard-response","232","444837","0.0-1.0-310.0","0","0","97277","","null","","","null","34","","NaN","","","","","","","","","","","","","",""
"","response","","html-keyboard-response","233","445130","0.0-1.0-311.0-0.0","0","0","97277","","291","","","68","34","","","1","34","training","adjacent","BA","2","1","P.jpg","Q.jpg","0","0","1","",""
"","feedback","","html-keyboard-response","234","446139","0.0-1.0-312.0-0.0","0","0","97277","","null","","","null","34","","","","","","","","","","","","","","","",""
"","ITI","","html-keyboard-response","235","447144","0.0-1.0-315.0","0","0","97277","","null","","","null","34","","","","","","","","","","","","","","","NaN",""
"","S1","","html-keyboard-response","236","447404","0.0-1.0-317.0","0","0","97277","","null","","","null","35","","","","","","","","","","","","","","","",""
"","ISI","","html-keyboard-response","237","449412","0.0-1.0-318.0","0","0","97277","","null","","","null","35","NaN","","","","","","","","","","","","","","",""
"","S2","","html-keyboard-response","238","449669","0.0-1.0-319.0","0","0","97277","","null","","","null","35","","NaN","","","","","","","","","","","","","",""
"","response","","html-keyboard-response","239","450006","0.0-1.0-320.0-0.0","0","0","97277","","335","","","68","35","","","1","35","training","adjacent","BC","2","3","P.jpg","M.jpg","0","1","0","",""
"","feedback","","html-keyboard-response","240","451015","0.0-1.0-321.0-0.0","0","0","97277","","null","","","null","35","","","","","","","","","","","","","","","",""
"","time_out","","html-keyboard-response","241","453022","0.0-1.0-323.0-0.0","0","0","97277","","null","","","null","35","","","","","","","","","","","","","","","",""
"","ITI","","html-keyboard-response","242","454028","0.0-1.0-324.0","0","0","97277","","null","","","null","35","","","","","","","","","","","","","","","NaN",""
"","S1","","html-keyboard-response","243","454282","0.0-1.0-326.0","0","0","97277","","null","","","null","36","","","","","","","","","","","","","","","",""
"","ISI","","html-keyboard-response","244","456285","0.0-1.0-327.0","0","0","97277","","null","","","null","36","NaN","","","","","","","","","","","","","","",""
"","S2","","html-keyboard-response","245","456539","0.0-1.0-328.0","0","0","97277","","null","","","null","36","","NaN","","","","","","","","","","","","","",""
"","response","","html-keyboard-response","246","456689","0.0-1.0-329.0-0.0","0","0","97277","","147","","","68","36","","","1","36","training","adjacent","DE","4","5","R.jpg","O.jpg","0","1","0","",""
"","feedback","","html-keyboard-response","247","457694","0.0-1.0-330.0-0.0","0","0","97277","","null","","","null","36","","","","","","","","","","","","","","","",""
"","time_out","","html-keyboard-response","248","459705","0.0-1.0-332.0-0.0","0","0","97277","","null","","","null","36","","","","","","","","","","","","","","","",""
"","ITI","","html-keyboard-response","249","460713","0.0-1.0-333.0","0","0","97277","","null","","","null","36","","","","","","","","","","","","","","","NaN",""
"","S1","","html-keyboard-response","250","460969","0.0-1.0-335.0","0","0","97277","","null","","","null","37","","","","","","","","","","","","","","","",""
"","ISI","","html-keyboard-response","251","462979","0.0-1.0-336.0","0","0","97277","","null","","","null","37","NaN","","","","","","","","","","","","","","",""
"","S2","","html-keyboard-response","252","463234","0.0-1.0-337.0","0","0","97277","","null","","","null","37","","NaN","","","","","","","","","","","","","",""
"","response","","html-keyboard-response","253","464615","0.0-1.0-338.0-0.0","0","0","97277","","1378","","","75","37","","","1","37","training","adjacent","BA","2","1","P.jpg","Q.jpg","1","0","0","",""
"","feedback","","html-keyboard-response","254","465622","0.0-1.0-339.0-0.0","0","0","97277","","null","","","null","37","","","","","","","","","","","","","","","",""
"","time_out","","html-keyboard-response","255","467629","0.0-1.0-341.0-0.0","0","0","97277","","null","","","null","37","","","","","","","","","","","","","","","",""
"","ITI","","html-keyboard-response","256","468636","0.0-1.0-342.0","0","0","97277","","null","","","null","37","","","","","","","","","","","","","","","NaN",""
"","S1","","html-keyboard-response","257","468894","0.0-1.0-344.0","0","0","97277","","null","","","null","38","","","","","","","","","","","","","","","",""
"","ISI","","html-keyboard-response","258","470900","0.0-1.0-345.0","0","0","97277","","null","","","null","38","NaN","","","","","","","","","","","","","","",""
"","S2","","html-keyboard-response","259","471158","0.0-1.0-346.0","0","0","97277","","null","","","null","38","","NaN","","","","","","","","","","","","","",""
"","response","","html-keyboard-response","260","471824","0.0-1.0-347.0-0.0","0","0","97277","","664","","","75","38","","","1","38","training","adjacent","CB","3","2","M.jpg","P.jpg","1","0","0","",""
"","feedback","","html-keyboard-response","261","472828","0.0-1.0-348.0-0.0","0","0","97277","","null","","","null","38","","","","","","","","","","","","","","","",""
"","time_out","","html-keyboard-response","262","474832","0.0-1.0-350.0-0.0","0","0","97277","","null","","","null","38","","","","","","","","","","","","","","","",""
"","ITI","","html-keyboard-response","263","475840","0.0-1.0-351.0","0","0","97277","","null","","","null","38","","","","","","","","","","","","","","","NaN",""
"","S1","","html-keyboard-response","264","476098","0.0-1.0-353.0","0","0","97277","","null","","","null","39","","","","","","","","","","","","","","","",""
"","ISI","","html-keyboard-response","265","478106","0.0-1.0-354.0","0","0","97277","","null","","","null","39","NaN","","","","","","","","","","","","","","",""
"","S2","","html-keyboard-response","266","478363","0.0-1.0-355.0","0","0","97277","","null","","","null","39","","NaN","","","","","","","","","","","","","",""
"","response","","html-keyboard-response","267","478744","0.0-1.0-356.0-0.0","0","0","97277","","378","","","68","39","","","1","39","training","adjacent","GF","7","6","N.jpg","L.jpg","0","0","1","",""
"","feedback","","html-keyboard-response","268","479754","0.0-1.0-357.0-0.0","0","0","97277","","null","","","null","39","","","","","","","","","","","","","","","",""
"","ITI","","html-keyboard-response","269","480765","0.0-1.0-360.0","0","0","97277","","null","","","null","39","","","","","","","","","","","","","","","NaN",""
"","S1","","html-keyboard-response","270","481018","0.0-1.0-362.0","0","0","97277","","null","","","null","40","","","","","","","","","","","","","","","",""
"","ISI","","html-keyboard-response","271","483023","0.0-1.0-363.0","0","0","97277","","null","","","null","40","NaN","","","","","","","","","","","","","","",""
"","S2","","html-keyboard-response","272","483284","0.0-1.0-364.0","0","0","97277","","null","","","null","40","","NaN","","","","","","","","","","","","","",""
"","response","","html-keyboard-response","273","484212","0.0-1.0-365.0-0.0","0","0","97277","","925","","","75","40","","","1","40","training","adjacent","CD","3","4","M.jpg","R.jpg","1","1","1","",""
"","feedback","","html-keyboard-response","274","485219","0.0-1.0-366.0-0.0","0","0","97277","","null","","","null","40","","","","","","","","","","","","","","","",""
"","ITI","","html-keyboard-response","275","486227","0.0-1.0-369.0","0","0","97277","","null","","","null","40","","","","","","","","","","","","","","","NaN",""
"","S1","","html-keyboard-response","276","486483","0.0-1.0-371.0","0","0","97277","","null","","","null","41","","","","","","","","","","","","","","","",""
"","ISI","","html-keyboard-response","277","488488","0.0-1.0-372.0","0","0","97277","","null","","","null","41","NaN","","","","","","","","","","","","","","",""
"","S2","","html-keyboard-response","278","488747","0.0-1.0-373.0","0","0","97277","","null","","","null","41","","NaN","","","","","","","","","","","","","",""
"","response","","html-keyboard-response","279","489360","0.0-1.0-374.0-0.0","0","0","97277","","611","","","68","41","","","1","41","training","adjacent","BC","2","3","P.jpg","M.jpg","0","1","0","",""
"","feedback","","html-keyboard-response","280","490364","0.0-1.0-375.0-0.0","0","0","97277","","null","","","null","41","","","","","","","","","","","","","","","",""
"","time_out","","html-keyboard-response","281","492372","0.0-1.0-377.0-0.0","0","0","97277","","null","","","null","41","","","","","","","","","","","","","","","",""
"","ITI","","html-keyboard-response","282","493378","0.0-1.0-378.0","0","0","97277","","null","","","null","41","","","","","","","","","","","","","","","NaN",""
"","S1","","html-keyboard-response","283","493634","0.0-1.0-380.0","0","0","97277","","null","","","null","42","","","","","","","","","","","","","","","",""
"","ISI","","html-keyboard-response","284","495640","0.0-1.0-381.0","0","0","97277","","null","","","null","42","NaN","","","","","","","","","","","","","","",""
"","S2","","html-keyboard-response","285","495895","0.0-1.0-382.0","0","0","97277","","null","","","null","42","","NaN","","","","","","","","","","","","","",""
"","response","","html-keyboard-response","286","496398","0.0-1.0-383.0-0.0","0","0","97277","","500","","","68","42","","","1","42","training","adjacent","FG","6","7","L.jpg","N.jpg","0","1","0","",""
"","feedback","","html-keyboard-response","287","497401","0.0-1.0-384.0-0.0","0","0","97277","","null","","","null","42","","","","","","","","","","","","","","","",""
"","time_out","","html-keyboard-response","288","499407","0.0-1.0-386.0-0.0","0","0","97277","","null","","","null","42","","","","","","","","","","","","","","","",""
"","ITI","","html-keyboard-response","289","500410","0.0-1.0-387.0","0","0","97277","","null","","","null","42","","","","","","","","","","","","","","","NaN",""
"","S1","","html-keyboard-response","290","500667","0.0-1.0-389.0","0","0","97277","","null","","","null","43","","","","","","","","","","","","","","","",""
"","ISI","","html-keyboard-response","291","502671","0.0-1.0-390.0","0","0","97277","","null","","","null","43","NaN","","","","","","","","","","","","","","",""
"","S2","","html-keyboard-response","292","502925","0.0-1.0-391.0","0","0","97277","","null","","","null","43","","NaN","","","","","","","","","","","","","",""
"","response","","html-keyboard-response","293","503882","0.0-1.0-392.0-0.0","0","0","97277","","955","","","75","43","","","1","43","training","adjacent","EF","5","6","O.jpg","L.jpg","1","1","1","",""
"","feedback","","html-keyboard-response","294","504887","0.0-1.0-393.0-0.0","0","0","97277","","null","","","null","43","","","","","","","","","","","","","","","",""
"","ITI","","html-keyboard-response","295","505891","0.0-1.0-396.0","0","0","97277","","null","","","null","43","","","","","","","","","","","","","","","NaN",""
"","S1","","html-keyboard-response","296","506146","0.0-1.0-398.0","0","0","97277","","null","","","null","44","","","","","","","","","","","","","","","",""
"","ISI","","html-keyboard-response","297","508149","0.0-1.0-399.0","0","0","97277","","null","","","null","44","NaN","","","","","","","","","","","","","","",""
"","S2","","html-keyboard-response","298","508407","0.0-1.0-400.0","0","0","97277","","null","","","null","44","","NaN","","","","","","","","","","","","","",""
"","response","","html-keyboard-response","299","509015","0.0-1.0-401.0-0.0","0","0","97277","","605","","","68","44","","","1","44","training","adjacent","CD","3","4","M.jpg","R.jpg","0","1","0","",""
"","feedback","","html-keyboard-response","300","510021","0.0-1.0-402.0-0.0","0","0","97277","","null","","","null","44","","","","","","","","","","","","","","","",""
"","time_out","","html-keyboard-response","301","512029","0.0-1.0-404.0-0.0","0","0","97277","","null","","","null","44","","","","","","","","","","","","","","","",""
"","ITI","","html-keyboard-response","302","513033","0.0-1.0-405.0","0","0","97277","","null","","","null","44","","","","","","","","","","","","","","","NaN",""
"","S1","","html-keyboard-response","303","513287","0.0-1.0-407.0","0","0","97277","","null","","","null","45","","","","","","","","","","","","","","","",""
"","ISI","","html-keyboard-response","304","515295","0.0-1.0-408.0","0","0","97277","","null","","","null","45","NaN","","","","","","","","","","","","","","",""
"","S2","","html-keyboard-response","305","515550","0.0-1.0-409.0","0","0","97277","","null","","","null","45","","NaN","","","","","","","","","","","","","",""
"","response","","html-keyboard-response","306","516235","0.0-1.0-410.0-0.0","0","0","97277","","682","","","68","45","","","1","45","training","adjacent","DE","4","5","R.jpg","O.jpg","0","1","0","",""
"","feedback","","html-keyboard-response","307","517239","0.0-1.0-411.0-0.0","0","0","97277","","null","","","null","45","","","","","","","","","","","","","","","",""
"","time_out","","html-keyboard-response","308","519244","0.0-1.0-413.0-0.0","0","0","97277","","null","","","null","45","","","","","","","","","","","","","","","",""
"","ITI","","html-keyboard-response","309","520252","0.0-1.0-414.0","0","0","97277","","null","","","null","45","","","","","","","","","","","","","","","NaN",""
"","S1","","html-keyboard-response","310","520508","0.0-1.0-416.0","0","0","97277","","null","","","null","46","","","","","","","","","","","","","","","",""
"","ISI","","html-keyboard-response","311","522512","0.0-1.0-417.0","0","0","97277","","null","","","null","46","NaN","","","","","","","","","","","","","","",""
"","S2","","html-keyboard-response","312","522771","0.0-1.0-418.0","0","0","97277","","null","","","null","46","","NaN","","","","","","","","","","","","","",""
"","response","","html-keyboard-response","313","523082","0.0-1.0-419.0-0.0","0","0","97277","","308","","","75","46","","","1","46","training","adjacent","DC","4","3","R.jpg","M.jpg","1","0","0","",""
"","feedback","","html-keyboard-response","314","524085","0.0-1.0-420.0-0.0","0","0","97277","","null","","","null","46","","","","","","","","","","","","","","","",""
"","time_out","","html-keyboard-response","315","526094","0.0-1.0-422.0-0.0","0","0","97277","","null","","","null","46","","","","","","","","","","","","","","","",""
"","ITI","","html-keyboard-response","316","527104","0.0-1.0-423.0","0","0","97277","","null","","","null","46","","","","","","","","","","","","","","","NaN",""
"","S1","","html-keyboard-response","317","527357","0.0-1.0-425.0","0","0","97277","","null","","","null","47","","","","","","","","","","","","","","","",""
"","ISI","","html-keyboard-response","318","529364","0.0-1.0-426.0","0","0","97277","","null","","","null","47","NaN","","","","","","","","","","","","","","",""
"","S2","","html-keyboard-response","319","529622","0.0-1.0-427.0","0","0","97277","","null","","","null","47","","NaN","","","","","","","","","","","","","",""
"","response","","html-keyboard-response","320","530135","0.0-1.0-428.0-0.0","0","0","97277","","511","","","68","47","","","1","47","training","adjacent","CB","3","2","M.jpg","P.jpg","0","0","1","",""
"","feedback","","html-keyboard-response","321","531143","0.0-1.0-429.0-0.0","0","0","97277","","null","","","null","47","","","","","","","","","","","","","","","",""
"","ITI","","html-keyboard-response","322","532148","0.0-1.0-432.0","0","0","97277","","null","","","null","47","","","","","","","","","","","","","","","NaN",""
"","block_over","","html-keyboard-response","323","538254","0.0-1.0-433.0-0.0","0","0","97277","","6102","","","32","47","","","","","","","","","","","","","","","",""
"","S1","","html-keyboard-response","324","538510","0.0-1.0-434.0","0","0","97277","","null","","","null","48","","","","","","","","","","","","","","","",""
"","ISI","","html-keyboard-response","325","540519","0.0-1.0-435.0","0","0","97277","","null","","","null","48","NaN","","","","","","","","","","","","","","",""
"","S2","","html-keyboard-response","326","540772","0.0-1.0-436.0","0","0","97277","","null","","","null","48","","NaN","","","","","","","","","","","","","",""
"","response","","html-keyboard-response","327","541106","0.0-1.0-437.0-0.0","0","0","97277","","332","","","68","48","","","2","48","training","adjacent","AB","1","2","Q.jpg","P.jpg","0","1","0","",""
"","feedback","","html-keyboard-response","328","542115","0.0-1.0-438.0-0.0","0","0","97277","","null","","","null","48","","","","","","","","","","","","","","","",""
"","time_out","","html-keyboard-response","329","544121","0.0-1.0-440.0-0.0","0","0","97277","","null","","","null","48","","","","","","","","","","","","","","","",""
"","ITI","","html-keyboard-response","330","545125","0.0-1.0-441.0","0","0","97277","","null","","","null","48","","","","","","","","","","","","","","","NaN",""
"","S1","","html-keyboard-response","331","545383","0.0-1.0-443.0","0","0","97277","","null","","","null","49","","","","","","","","","","","","","","","",""
"","ISI","","html-keyboard-response","332","547389","0.0-1.0-444.0","0","0","97277","","null","","","null","49","NaN","","","","","","","","","","","","","","",""
"","S2","","html-keyboard-response","333","547645","0.0-1.0-445.0","0","0","97277","","null","","","null","49","","NaN","","","","","","","","","","","","","",""
"","response","","html-keyboard-response","334","548198","0.0-1.0-446.0-0.0","0","0","97277","","551","","","75","49","","","2","49","training","adjacent","CD","3","4","M.jpg","R.jpg","1","1","1","",""
"","feedback","","html-keyboard-response","335","549206","0.0-1.0-447.0-0.0","0","0","97277","","null","","","null","49","","","","","","","","","","","","","","","",""
"","ITI","","html-keyboard-response","336","550212","0.0-1.0-450.0","0","0","97277","","null","","","null","49","","","","","","","","","","","","","","","NaN",""
"","S1","","html-keyboard-response","337","550468","0.0-1.0-452.0","0","0","97277","","null","","","null","50","","","","","","","","","","","","","","","",""
"","ISI","","html-keyboard-response","338","552476","0.0-1.0-453.0","0","0","97277","","null","","","null","50","NaN","","","","","","","","","","","","","","",""
"","S2","","html-keyboard-response","339","552730","0.0-1.0-454.0","0","0","97277","","null","","","null","50","","NaN","","","","","","","","","","","","","",""
"","response","","html-keyboard-response","340","553139","0.0-1.0-455.0-0.0","0","0","97277","","406","","","75","50","","","2","50","training","adjacent","DC","4","3","R.jpg","M.jpg","1","0","0","",""
"","feedback","","html-keyboard-response","341","554146","0.0-1.0-456.0-0.0","0","0","97277","","null","","","null","50","","","","","","","","","","","","","","","",""
"","time_out","","html-keyboard-response","342","556154","0.0-1.0-458.0-0.0","0","0","97277","","null","","","null","50","","","","","","","","","","","","","","","",""
"","ITI","","html-keyboard-response","343","557159","0.0-1.0-459.0","0","0","97277","","null","","","null","50","","","","","","","","","","","","","","","NaN",""
"","S1","","html-keyboard-response","344","557416","0.0-1.0-461.0","0","0","97277","","null","","","null","51","","","","","","","","","","","","","","","",""
"","ISI","","html-keyboard-response","345","559422","0.0-1.0-462.0","0","0","97277","","null","","","null","51","NaN","","","","","","","","","","","","","","",""
"","S2","","html-keyboard-response","346","559679","0.0-1.0-463.0","0","0","97277","","null","","","null","51","","NaN","","","","","","","","","","","","","",""
"","response","","html-keyboard-response","347","560016","0.0-1.0-464.0-0.0","0","0","97277","","334","","","75","51","","","2","51","training","adjacent","CD","3","4","M.jpg","R.jpg","1","1","1","",""
"","feedback","","html-keyboard-response","348","561026","0.0-1.0-465.0-0.0","0","0","97277","","null","","","null","51","","","","","","","","","","","","","","","",""
"","ITI","","html-keyboard-response","349","562031","0.0-1.0-468.0","0","0","97277","","null","","","null","51","","","","","","","","","","","","","","","NaN",""
"","S1","","html-keyboard-response","350","562291","0.0-1.0-470.0","0","0","97277","","null","","","null","52","","","","","","","","","","","","","","","",""
"","ISI","","html-keyboard-response","351","564298","0.0-1.0-471.0","0","0","97277","","null","","","null","52","NaN","","","","","","","","","","","","","","",""
"","S2","","html-keyboard-response","352","564554","0.0-1.0-472.0","0","0","97277","","null","","","null","52","","NaN","","","","","","","","","","","","","",""
"","response","","html-keyboard-response","353","565457","0.0-1.0-473.0-0.0","0","0","97277","","900","","","68","52","","","2","52","training","adjacent","EF","5","6","O.jpg","L.jpg","0","1","0","",""
"","feedback","","html-keyboard-response","354","566463","0.0-1.0-474.0-0.0","0","0","97277","","null","","","null","52","","","","","","","","","","","","","","","",""
"","time_out","","html-keyboard-response","355","568469","0.0-1.0-476.0-0.0","0","0","97277","","null","","","null","52","","","","","","","","","","","","","","","",""
"","ITI","","html-keyboard-response","356","569476","0.0-1.0-477.0","0","0","97277","","null","","","null","52","","","","","","","","","","","","","","","NaN",""
"","S1","","html-keyboard-response","357","569730","0.0-1.0-479.0","0","0","97277","","null","","","null","53","","","","","","","","","","","","","","","",""
"","ISI","","html-keyboard-response","358","571734","0.0-1.0-480.0","0","0","97277","","null","","","null","53","NaN","","","","","","","","","","","","","","",""
"","S2","","html-keyboard-response","359","571990","0.0-1.0-481.0","0","0","97277","","null","","","null","53","","NaN","","","","","","","","","","","","","",""
"","response","","html-keyboard-response","360","572962","0.0-1.0-482.0-0.0","0","0","97277","","970","","","75","53","","","2","53","training","adjacent","FG","6","7","L.jpg","N.jpg","1","1","1","",""
"","feedback","","html-keyboard-response","361","573969","0.0-1.0-483.0-0.0","0","0","97277","","null","","","null","53","","","","","","","","","","","","","","","",""
"","ITI","","html-keyboard-response","362","574973","0.0-1.0-486.0","0","0","97277","","null","","","null","53","","","","","","","","","","","","","","","NaN",""
"","S1","","html-keyboard-response","363","575229","0.0-1.0-488.0","0","0","97277","","null","","","null","54","","","","","","","","","","","","","","","",""
"","ISI","","html-keyboard-response","364","577234","0.0-1.0-489.0","0","0","97277","","null","","","null","54","NaN","","","","","","","","","","","","","","",""
"","S2","","html-keyboard-response","365","577492","0.0-1.0-490.0","0","0","97277","","null","","","null","54","","NaN","","","","","","","","","","","","","",""
"","response","","html-keyboard-response","366","578067","0.0-1.0-491.0-0.0","0","0","97277","","572","","","68","54","","","2","54","training","adjacent","DC","4","3","R.jpg","M.jpg","0","0","1","",""
"","feedback","","html-keyboard-response","367","579071","0.0-1.0-492.0-0.0","0","0","97277","","null","","","null","54","","","","","","","","","","","","","","","",""
"","ITI","","html-keyboard-response","368","580078","0.0-1.0-495.0","0","0","97277","","null","","","null","54","","","","","","","","","","","","","","","NaN",""
"","S1","","html-keyboard-response","369","580338","0.0-1.0-497.0","0","0","97277","","null","","","null","55","","","","","","","","","","","","","","","",""
"","ISI","","html-keyboard-response","370","582341","0.0-1.0-498.0","0","0","97277","","null","","","null","55","NaN","","","","","","","","","","","","","","",""
"","S2","","html-keyboard-response","371","582599","0.0-1.0-499.0","0","0","97277","","null","","","null","55","","NaN","","","","","","","","","","","","","",""
"","response","","html-keyboard-response","372","583896","0.0-1.0-500.0-0.0","0","0","97277","","1295","","","68","55","","","2","55","training","adjacent","CD","3","4","M.jpg","R.jpg","0","1","0","",""
"","feedback","","html-keyboard-response","373","584904","0.0-1.0-501.0-0.0","0","0","97277","","null","","","null","55","","","","","","","","","","","","","","","",""
"","time_out","","html-keyboard-response","374","586910","0.0-1.0-503.0-0.0","0","0","97277","","null","","","null","55","","","","","","","","","","","","","","","",""
"","ITI","","html-keyboard-response","375","587917","0.0-1.0-504.0","0","0","97277","","null","","","null","55","","","","","","","","","","","","","","","NaN",""
"","S1","","html-keyboard-response","376","588173","0.0-1.0-506.0","0","0","97277","","null","","","null","56","","","","","","","","","","","","","","","",""
"","ISI","","html-keyboard-response","377","590176","0.0-1.0-507.0","0","0","97277","","null","","","null","56","NaN","","","","","","","","","","","","","","",""
"","S2","","html-keyboard-response","378","590431","0.0-1.0-508.0","0","0","97277","","null","","","null","56","","NaN","","","","","","","","","","","","","",""
"","response","","html-keyboard-response","379","591545","0.0-1.0-509.0-0.0","0","0","97277","","1112","","","68","56","","","2","56","training","adjacent","CB","3","2","M.jpg","P.jpg","0","0","1","",""
"","feedback","","html-keyboard-response","380","592550","0.0-1.0-510.0-0.0","0","0","97277","","null","","","null","56","","","","","","","","","","","","","","","",""
"","ITI","","html-keyboard-response","381","593554","0.0-1.0-513.0","0","0","97277","","null","","","null","56","","","","","","","","","","","","","","","NaN",""
"","S1","","html-keyboard-response","382","593809","0.0-1.0-515.0","0","0","97277","","null","","","null","57","","","","","","","","","","","","","","","",""
"","ISI","","html-keyboard-response","383","595812","0.0-1.0-516.0","0","0","97277","","null","","","null","57","NaN","","","","","","","","","","","","","","",""
"","S2","","html-keyboard-response","384","596067","0.0-1.0-517.0","0","0","97277","","null","","","null","57","","NaN","","","","","","","","","","","","","",""
"","response","","html-keyboard-response","385","597050","0.0-1.0-518.0-0.0","0","0","97277","","980","","","75","57","","","2","57","training","adjacent","ED","5","4","O.jpg","R.jpg","1","0","0","",""
"","feedback","","html-keyboard-response","386","598058","0.0-1.0-519.0-0.0","0","0","97277","","null","","","null","57","","","","","","","","","","","","","","","",""
"","time_out","","html-keyboard-response","387","600063","0.0-1.0-521.0-0.0","0","0","97277","","null","","","null","57","","","","","","","","","","","","","","","",""
"","ITI","","html-keyboard-response","388","601071","0.0-1.0-522.0","0","0","97277","","null","","","null","57","","","","","","","","","","","","","","","NaN",""
"","S1","","html-keyboard-response","389","601326","0.0-1.0-524.0","0","0","97277","","null","","","null","58","","","","","","","","","","","","","","","",""
"","ISI","","html-keyboard-response","390","603331","0.0-1.0-525.0","0","0","97277","","null","","","null","58","NaN","","","","","","","","","","","","","","",""
"","S2","","html-keyboard-response","391","603587","0.0-1.0-526.0","0","0","97277","","null","","","null","58","","NaN","","","","","","","","","","","","","",""
"","response","","html-keyboard-response","392","604492","0.0-1.0-527.0-0.0","0","0","97277","","903","","","75","58","","","2","58","training","adjacent","FG","6","7","L.jpg","N.jpg","1","1","1","",""
"","feedback","","html-keyboard-response","393","605500","0.0-1.0-528.0-0.0","0","0","97277","","null","","","null","58","","","","","","","","","","","","","","","",""
"","ITI","","html-keyboard-response","394","606506","0.0-1.0-531.0","0","0","97277","","null","","","null","58","","","","","","","","","","","","","","","NaN",""
"","S1","","html-keyboard-response","395","606760","0.0-1.0-533.0","0","0","97277","","null","","","null","59","","","","","","","","","","","","","","","",""
"","ISI","","html-keyboard-response","396","608765","0.0-1.0-534.0","0","0","97277","","null","","","null","59","NaN","","","","","","","","","","","","","","",""
"","S2","","html-keyboard-response","397","609025","0.0-1.0-535.0","0","0","97277","","null","","","null","59","","NaN","","","","","","","","","","","","","",""
"","response","","html-keyboard-response","398","610021","0.0-1.0-536.0-0.0","0","0","97277","","992","","","75","59","","","2","59","training","adjacent","BC","2","3","P.jpg","M.jpg","1","1","1","",""
"","feedback","","html-keyboard-response","399","611026","0.0-1.0-537.0-0.0","0","0","97277","","null","","","null","59","","","","","","","","","","","","","","","",""
"","ITI","","html-keyboard-response","400","612030","0.0-1.0-540.0","0","0","97277","","null","","","null","59","","","","","","","","","","","","","","","NaN",""
"","S1","","html-keyboard-response","401","612286","0.0-1.0-542.0","0","0","97277","","null","","","null","60","","","","","","","","","","","","","","","",""
"","ISI","","html-keyboard-response","402","614291","0.0-1.0-543.0","0","0","97277","","null","","","null","60","NaN","","","","","","","","","","","","","","",""
"","S2","","html-keyboard-response","403","614550","0.0-1.0-544.0","0","0","97277","","null","","","null","60","","NaN","","","","","","","","","","","","","",""
"","response","","html-keyboard-response","404","615816","0.0-1.0-545.0-0.0","0","0","97277","","1264","","","68","60","","","2","60","training","adjacent","CB","3","2","M.jpg","P.jpg","0","0","1","",""
"","feedback","","html-keyboard-response","405","616824","0.0-1.0-546.0-0.0","0","0","97277","","null","","","null","60","","","","","","","","","","","","","","","",""
"","ITI","","html-keyboard-response","406","617832","0.0-1.0-549.0","0","0","97277","","null","","","null","60","","","","","","","","","","","","","","","NaN",""
"","S1","","html-keyboard-response","407","618085","0.0-1.0-551.0","0","0","97277","","null","","","null","61","","","","","","","","","","","","","","","",""
"","ISI","","html-keyboard-response","408","620088","0.0-1.0-552.0","0","0","97277","","null","","","null","61","NaN","","","","","","","","","","","","","","",""
"","S2","","html-keyboard-response","409","620343","0.0-1.0-553.0","0","0","97277","","null","","","null","61","","NaN","","","","","","","","","","","","","",""
"","response","","html-keyboard-response","410","621724","0.0-1.0-554.0-0.0","0","0","97277","","1378","","","75","61","","","2","61","training","adjacent","FE","6","5","L.jpg","O.jpg","1","0","0","",""
"","feedback","","html-keyboard-response","411","622729","0.0-1.0-555.0-0.0","0","0","97277","","null","","","null","61","","","","","","","","","","","","","","","",""
"","time_out","","html-keyboard-response","412","624733","0.0-1.0-557.0-0.0","0","0","97277","","null","","","null","61","","","","","","","","","","","","","","","",""
"","ITI","","html-keyboard-response","413","625743","0.0-1.0-558.0","0","0","97277","","null","","","null","61","","","","","","","","","","","","","","","NaN",""
"","S1","","html-keyboard-response","414","625999","0.0-1.0-560.0","0","0","97277","","null","","","null","62","","","","","","","","","","","","","","","",""
"","ISI","","html-keyboard-response","415","628005","0.0-1.0-561.0","0","0","97277","","null","","","null","62","NaN","","","","","","","","","","","","","","",""
"","S2","","html-keyboard-response","416","628261","0.0-1.0-562.0","0","0","97277","","null","","","null","62","","NaN","","","","","","","","","","","","","",""
"","response","","html-keyboard-response","417","628920","0.0-1.0-563.0-0.0","0","0","97277","","657","","","68","62","","","2","62","training","adjacent","BA","2","1","P.jpg","Q.jpg","0","0","1","",""
"","feedback","","html-keyboard-response","418","629926","0.0-1.0-564.0-0.0","0","0","97277","","null","","","null","62","","","","","","","","","","","","","","","",""
"","ITI","","html-keyboard-response","419","630933","0.0-1.0-567.0","0","0","97277","","null","","","null","62","","","","","","","","","","","","","","","NaN",""
"","S1","","html-keyboard-response","420","631191","0.0-1.0-569.0","0","0","97277","","null","","","null","63","","","","","","","","","","","","","","","",""
"","ISI","","html-keyboard-response","421","633197","0.0-1.0-570.0","0","0","97277","","null","","","null","63","NaN","","","","","","","","","","","","","","",""
"","S2","","html-keyboard-response","422","633451","0.0-1.0-571.0","0","0","97277","","null","","","null","63","","NaN","","","","","","","","","","","","","",""
"","response","","html-keyboard-response","423","634664","0.0-1.0-572.0-0.0","0","0","97277","","1211","","","75","63","","","2","63","training","adjacent","GF","7","6","N.jpg","L.jpg","1","0","0","",""
"","feedback","","html-keyboard-response","424","635672","0.0-1.0-573.0-0.0","0","0","97277","","null","","","null","63","","","","","","","","","","","","","","","",""
"","time_out","","html-keyboard-response","425","637676","0.0-1.0-575.0-0.0","0","0","97277","","null","","","null","63","","","","","","","","","","","","","","","",""
"","ITI","","html-keyboard-response","426","638680","0.0-1.0-576.0","0","0","97277","","null","","","null","63","","","","","","","","","","","","","","","NaN",""
"","S1","","html-keyboard-response","427","638936","0.0-1.0-578.0","0","0","97277","","null","","","null","64","","","","","","","","","","","","","","","",""
"","ISI","","html-keyboard-response","428","640940","0.0-1.0-579.0","0","0","97277","","null","","","null","64","NaN","","","","","","","","","","","","","","",""
"","S2","","html-keyboard-response","429","641196","0.0-1.0-580.0","0","0","97277","","null","","","null","64","","NaN","","","","","","","","","","","","","",""
"","response","","html-keyboard-response","430","642940","0.0-1.0-581.0-0.0","0","0","97277","","1742","","","68","64","","","2","64","training","adjacent","GF","7","6","N.jpg","L.jpg","0","0","1","",""
"","feedback","","html-keyboard-response","431","643944","0.0-1.0-582.0-0.0","0","0","97277","","null","","","null","64","","","","","","","","","","","","","","","",""
"","ITI","","html-keyboard-response","432","644952","0.0-1.0-585.0","0","0","97277","","null","","","null","64","","","","","","","","","","","","","","","NaN",""
"","S1","","html-keyboard-response","433","645210","0.0-1.0-587.0","0","0","97277","","null","","","null","65","","","","","","","","","","","","","","","",""
"","ISI","","html-keyboard-response","434","647221","0.0-1.0-588.0","0","0","97277","","null","","","null","65","NaN","","","","","","","","","","","","","","",""
"","S2","","html-keyboard-response","435","647476","0.0-1.0-589.0","0","0","97277","","null","","","null","65","","NaN","","","","","","","","","","","","","",""
"","response","","html-keyboard-response","436","648950","0.0-1.0-590.0-0.0","0","0","97277","","1471","","","75","65","","","2","65","training","adjacent","DC","4","3","R.jpg","M.jpg","1","0","0","",""
"","feedback","","html-keyboard-response","437","649960","0.0-1.0-591.0-0.0","0","0","97277","","null","","","null","65","","","","","","","","","","","","","","","",""
"","time_out","","html-keyboard-response","438","651967","0.0-1.0-593.0-0.0","0","0","97277","","null","","","null","65","","","","","","","","","","","","","","","",""
"","ITI","","html-keyboard-response","439","652971","0.0-1.0-594.0","0","0","97277","","null","","","null","65","","","","","","","","","","","","","","","NaN",""
"","S1","","html-keyboard-response","440","653229","0.0-1.0-596.0","0","0","97277","","null","","","null","66","","","","","","","","","","","","","","","",""
"","ISI","","html-keyboard-response","441","655237","0.0-1.0-597.0","0","0","97277","","null","","","null","66","NaN","","","","","","","","","","","","","","",""
"","S2","","html-keyboard-response","442","655491","0.0-1.0-598.0","0","0","97277","","null","","","null","66","","NaN","","","","","","","","","","","","","",""
"","response","","html-keyboard-response","443","656672","0.0-1.0-599.0-0.0","0","0","97277","","1179","","","68","66","","","2","66","training","adjacent","CB","3","2","M.jpg","P.jpg","0","0","1","",""
"","feedback","","html-keyboard-response","444","657679","0.0-1.0-600.0-0.0","0","0","97277","","null","","","null","66","","","","","","","","","","","","","","","",""
"","ITI","","html-keyboard-response","445","658685","0.0-1.0-603.0","0","0","97277","","null","","","null","66","","","","","","","","","","","","","","","NaN",""
"","S1","","html-keyboard-response","446","658941","0.0-1.0-605.0","0","0","97277","","null","","","null","67","","","","","","","","","","","","","","","",""
"","ISI","","html-keyboard-response","447","660949","0.0-1.0-606.0","0","0","97277","","null","","","null","67","NaN","","","","","","","","","","","","","","",""
"","S2","","html-keyboard-response","448","661207","0.0-1.0-607.0","0","0","97277","","null","","","null","67","","NaN","","","","","","","","","","","","","",""
"","response","","html-keyboard-response","449","662724","0.0-1.0-608.0-0.0","0","0","97277","","1515","","","75","67","","","2","67","training","adjacent","ED","5","4","O.jpg","R.jpg","1","0","0","",""
"","feedback","","html-keyboard-response","450","663731","0.0-1.0-609.0-0.0","0","0","97277","","null","","","null","67","","","","","","","","","","","","","","","",""
"","time_out","","html-keyboard-response","451","665736","0.0-1.0-611.0-0.0","0","0","97277","","null","","","null","67","","","","","","","","","","","","","","","",""
"","ITI","","html-keyboard-response","452","666740","0.0-1.0-612.0","0","0","97277","","null","","","null","67","","","","","","","","","","","","","","","NaN",""
"","S1","","html-keyboard-response","453","666995","0.0-1.0-614.0","0","0","97277","","null","","","null","68","","","","","","","","","","","","","","","",""
"","ISI","","html-keyboard-response","454","668998","0.0-1.0-615.0","0","0","97277","","null","","","null","68","NaN","","","","","","","","","","","","","","",""
"","S2","","html-keyboard-response","455","669254","0.0-1.0-616.0","0","0","97277","","null","","","null","68","","NaN","","","","","","","","","","","","","",""
"","response","","html-keyboard-response","456","670315","0.0-1.0-617.0-0.0","0","0","97277","","1059","","","68","68","","","2","68","training","adjacent","DE","4","5","R.jpg","O.jpg","0","1","0","",""
"","feedback","","html-keyboard-response","457","671320","0.0-1.0-618.0-0.0","0","0","97277","","null","","","null","68","","","","","","","","","","","","","","","",""
"","time_out","","html-keyboard-response","458","673330","0.0-1.0-620.0-0.0","0","0","97277","","null","","","null","68","","","","","","","","","","","","","","","",""
"","ITI","","html-keyboard-response","459","674335","0.0-1.0-621.0","0","0","97277","","null","","","null","68","","","","","","","","","","","","","","","NaN",""
"","S1","","html-keyboard-response","460","674590","0.0-1.0-623.0","0","0","97277","","null","","","null","69","","","","","","","","","","","","","","","",""
"","ISI","","html-keyboard-response","461","676597","0.0-1.0-624.0","0","0","97277","","null","","","null","69","NaN","","","","","","","","","","","","","","",""
"","S2","","html-keyboard-response","462","676852","0.0-1.0-625.0","0","0","97277","","null","","","null","69","","NaN","","","","","","","","","","","","","",""
"","response","","html-keyboard-response","463","678264","0.0-1.0-626.0-0.0","0","0","97277","","1409","","","68","69","","","2","69","training","adjacent","ED","5","4","O.jpg","R.jpg","0","0","1","",""
"","feedback","","html-keyboard-response","464","679271","0.0-1.0-627.0-0.0","0","0","97277","","null","","","null","69","","","","","","","","","","","","","","","",""
"","ITI","","html-keyboard-response","465","680276","0.0-1.0-630.0","0","0","97277","","null","","","null","69","","","","","","","","","","","","","","","NaN",""
"","S1","","html-keyboard-response","466","680532","0.0-1.0-632.0","0","0","97277","","null","","","null","70","","","","","","","","","","","","","","","",""
"","ISI","","html-keyboard-response","467","682535","0.0-1.0-633.0","0","0","97277","","null","","","null","70","NaN","","","","","","","","","","","","","","",""
"","S2","","html-keyboard-response","468","682790","0.0-1.0-634.0","0","0","97277","","null","","","null","70","","NaN","","","","","","","","","","","","","",""
"","response","","html-keyboard-response","469","684434","0.0-1.0-635.0-0.0","0","0","97277","","1641","","","75","70","","","2","70","training","adjacent","FE","6","5","L.jpg","O.jpg","1","0","0","",""
"","feedback","","html-keyboard-response","470","685441","0.0-1.0-636.0-0.0","0","0","97277","","null","","","null","70","","","","","","","","","","","","","","","",""
"","time_out","","html-keyboard-response","471","687448","0.0-1.0-638.0-0.0","0","0","97277","","null","","","null","70","","","","","","","","","","","","","","","",""
"","ITI","","html-keyboard-response","472","688455","0.0-1.0-639.0","0","0","97277","","null","","","null","70","","","","","","","","","","","","","","","NaN",""
"","S1","","html-keyboard-response","473","688711","0.0-1.0-641.0","0","0","97277","","null","","","null","71","","","","","","","","","","","","","","","",""
"","ISI","","html-keyboard-response","474","690715","0.0-1.0-642.0","0","0","97277","","null","","","null","71","NaN","","","","","","","","","","","","","","",""
"","S2","","html-keyboard-response","475","690969","0.0-1.0-643.0","0","0","97277","","null","","","null","71","","NaN","","","","","","","","","","","","","",""
"","response","","html-keyboard-response","476","691967","0.0-1.0-644.0-0.0","0","0","97277","","996","","","68","71","","","2","71","training","adjacent","AB","1","2","Q.jpg","P.jpg","0","1","0","",""
"","feedback","","html-keyboard-response","477","692972","0.0-1.0-645.0-0.0","0","0","97277","","null","","","null","71","","","","","","","","","","","","","","","",""
"","time_out","","html-keyboard-response","478","694982","0.0-1.0-647.0-0.0","0","0","97277","","null","","","null","71","","","","","","","","","","","","","","","",""
"","ITI","","html-keyboard-response","479","695986","0.0-1.0-648.0","0","0","97277","","null","","","null","71","","","","","","","","","","","","","","","NaN",""
"","S1","","html-keyboard-response","480","696247","0.0-1.0-650.0","0","0","97277","","null","","","null","72","","","","","","","","","","","","","","","",""
"","ISI","","html-keyboard-response","481","698254","0.0-1.0-651.0","0","0","97277","","null","","","null","72","NaN","","","","","","","","","","","","","","",""
"","S2","","html-keyboard-response","482","698509","0.0-1.0-652.0","0","0","97277","","null","","","null","72","","NaN","","","","","","","","","","","","","",""
"","response","","html-keyboard-response","483","700130","0.0-1.0-653.0-0.0","0","0","97277","","1618","","","68","72","","","2","72","training","adjacent","EF","5","6","O.jpg","L.jpg","0","1","0","",""
"","feedback","","html-keyboard-response","484","701138","0.0-1.0-654.0-0.0","0","0","97277","","null","","","null","72","","","","","","","","","","","","","","","",""
"","time_out","","html-keyboard-response","485","703141","0.0-1.0-656.0-0.0","0","0","97277","","null","","","null","72","","","","","","","","","","","","","","","",""
"","ITI","","html-keyboard-response","486","704146","0.0-1.0-657.0","0","0","97277","","null","","","null","72","","","","","","","","","","","","","","","NaN",""
"","S1","","html-keyboard-response","487","704401","0.0-1.0-659.0","0","0","97277","","null","","","null","73","","","","","","","","","","","","","","","",""
"","ISI","","html-keyboard-response","488","706404","0.0-1.0-660.0","0","0","97277","","null","","","null","73","NaN","","","","","","","","","","","","","","",""
"","S2","","html-keyboard-response","489","706659","0.0-1.0-661.0","0","0","97277","","null","","","null","73","","NaN","","","","","","","","","","","","","",""
"","response","","html-keyboard-response","490","707462","0.0-1.0-662.0-0.0","0","0","97277","","799","","","68","73","","","2","73","training","adjacent","FE","6","5","L.jpg","O.jpg","0","0","1","",""
"","feedback","","html-keyboard-response","491","708470","0.0-1.0-663.0-0.0","0","0","97277","","null","","","null","73","","","","","","","","","","","","","","","",""
"","ITI","","html-keyboard-response","492","709474","0.0-1.0-666.0","0","0","97277","","null","","","null","73","","","","","","","","","","","","","","","NaN",""
"","S1","","html-keyboard-response","493","709730","0.0-1.0-668.0","0","0","97277","","null","","","null","74","","","","","","","","","","","","","","","",""
"","ISI","","html-keyboard-response","494","711738","0.0-1.0-669.0","0","0","97277","","null","","","null","74","NaN","","","","","","","","","","","","","","",""
"","S2","","html-keyboard-response","495","711994","0.0-1.0-670.0","0","0","97277","","null","","","null","74","","NaN","","","","","","","","","","","","","",""
"","response","","html-keyboard-response","496","713749","0.0-1.0-671.0-0.0","0","0","97277","","null","","","null","74","","","2","74","training","adjacent","GF","7","6","N.jpg","L.jpg","NaN","0","0","",""
"","too_slow_prompt","","html-keyboard-response","497","714757","0.0-1.0-673.0-0.0","1","0","97277","","null","","","null","","","","","","","","","","","","","","","","",""
"","time_out","","html-keyboard-response","498","716765","0.0-1.0-674.0-0.0","0","0","97277","","null","","","null","74","","","","","","","","","","","","","","","",""
"","ITI","","html-keyboard-response","499","717771","0.0-1.0-675.0","0","0","97277","","null","","","null","74","","","","","","","","","","","","","","","NaN",""
"","S1","","html-keyboard-response","500","718025","0.0-1.0-677.0","0","0","97277","","null","","","null","75","","","","","","","","","","","","","","","",""
"","ISI","","html-keyboard-response","501","720033","0.0-1.0-678.0","0","0","97277","","null","","","null","75","NaN","","","","","","","","","","","","","","",""
"","S2","","html-keyboard-response","502","720289","0.0-1.0-679.0","0","0","97277","","null","","","null","75","","NaN","","","","","","","","","","","","","",""
"","response","","html-keyboard-response","503","721004","0.0-1.0-680.0-0.0","0","0","97277","","713","","","68","75","","","2","75","training","adjacent","DE","4","5","R.jpg","O.jpg","0","1","0","",""
"","feedback","","html-keyboard-response","504","722015","0.0-1.0-681.0-0.0","0","0","97277","","null","","","null","75","","","","","","","","","","","","","","","",""
"","time_out","","html-keyboard-response","505","724021","0.0-1.0-683.0-0.0","0","0","97277","","null","","","null","75","","","","","","","","","","","","","","","",""
"","ITI","","html-keyboard-response","506","725027","0.0-1.0-684.0","0","0","97277","","null","","","null","75","","","","","","","","","","","","","","","NaN",""
"","S1","","html-keyboard-response","507","725284","0.0-1.0-686.0","0","0","97277","","null","","","null","76","","","","","","","","","","","","","","","",""
"","ISI","","html-keyboard-response","508","727289","0.0-1.0-687.0","0","0","97277","","null","","","null","76","NaN","","","","","","","","","","","","","","",""
"","S2","","html-keyboard-response","509","727545","0.0-1.0-688.0","0","0","97277","","null","","","null","76","","NaN","","","","","","","","","","","","","",""
"","response","","html-keyboard-response","510","728228","0.0-1.0-689.0-0.0","0","0","97277","","681","","","75","76","","","2","76","training","adjacent","BA","2","1","P.jpg","Q.jpg","1","0","0","",""
"","feedback","","html-keyboard-response","511","729233","0.0-1.0-690.0-0.0","0","0","97277","","null","","","null","76","","","","","","","","","","","","","","","",""
"","time_out","","html-keyboard-response","512","731242","0.0-1.0-692.0-0.0","0","0","97277","","null","","","null","76","","","","","","","","","","","","","","","",""
"","ITI","","html-keyboard-response","513","732246","0.0-1.0-693.0","0","0","97277","","null","","","null","76","","","","","","","","","","","","","","","NaN",""
"","S1","","html-keyboard-response","514","732502","0.0-1.0-695.0","0","0","97277","","null","","","null","77","","","","","","","","","","","","","","","",""
"","ISI","","html-keyboard-response","515","734505","0.0-1.0-696.0","0","0","97277","","null","","","null","77","NaN","","","","","","","","","","","","","","",""
"","S2","","html-keyboard-response","516","734762","0.0-1.0-697.0","0","0","97277","","null","","","null","77","","NaN","","","","","","","","","","","","","",""
"","response","","html-keyboard-response","517","735382","0.0-1.0-698.0-0.0","0","0","97277","","618","","","68","77","","","2","77","training","adjacent","BA","2","1","P.jpg","Q.jpg","0","0","1","",""
"","feedback","","html-keyboard-response","518","736393","0.0-1.0-699.0-0.0","0","0","97277","","null","","","null","77","","","","","","","","","","","","","","","",""
"","ITI","","html-keyboard-response","519","737403","0.0-1.0-702.0","0","0","97277","","null","","","null","77","","","","","","","","","","","","","","","NaN",""
"","S1","","html-keyboard-response","520","737658","0.0-1.0-704.0","0","0","97277","","null","","","null","78","","","","","","","","","","","","","","","",""
"","ISI","","html-keyboard-response","521","739665","0.0-1.0-705.0","0","0","97277","","null","","","null","78","NaN","","","","","","","","","","","","","","",""
"","S2","","html-keyboard-response","522","739922","0.0-1.0-706.0","0","0","97277","","null","","","null","78","","NaN","","","","","","","","","","","","","",""
"","response","","html-keyboard-response","523","740829","0.0-1.0-707.0-0.0","0","0","97277","","903","","","68","78","","","2","78","training","adjacent","BC","2","3","P.jpg","M.jpg","0","1","0","",""
"","feedback","","html-keyboard-response","524","741836","0.0-1.0-708.0-0.0","0","0","97277","","null","","","null","78","","","","","","","","","","","","","","","",""
"","time_out","","html-keyboard-response","525","743840","0.0-1.0-710.0-0.0","0","0","97277","","null","","","null","78","","","","","","","","","","","","","","","",""
"","ITI","","html-keyboard-response","526","744849","0.0-1.0-711.0","0","0","97277","","null","","","null","78","","","","","","","","","","","","","","","NaN",""
"","S1","","html-keyboard-response","527","745106","0.0-1.0-713.0","0","0","97277","","null","","","null","79","","","","","","","","","","","","","","","",""
"","ISI","","html-keyboard-response","528","747112","0.0-1.0-714.0","0","0","97277","","null","","","null","79","NaN","","","","","","","","","","","","","","",""
"","S2","","html-keyboard-response","529","747367","0.0-1.0-715.0","0","0","97277","","null","","","null","79","","NaN","","","","","","","","","","","","","",""
"","response","","html-keyboard-response","530","748297","0.0-1.0-716.0-0.0","0","0","97277","","927","","","75","79","","","2","79","training","adjacent","AB","1","2","Q.jpg","P.jpg","1","1","1","",""
"","feedback","","html-keyboard-response","531","749303","0.0-1.0-717.0-0.0","0","0","97277","","null","","","null","79","","","","","","","","","","","","","","","",""
"","ITI","","html-keyboard-response","532","750310","0.0-1.0-720.0","0","0","97277","","null","","","null","79","","","","","","","","","","","","","","","NaN",""
"","S1","","html-keyboard-response","533","750568","0.0-1.0-722.0","0","0","97277","","null","","","null","80","","","","","","","","","","","","","","","",""
"","ISI","","html-keyboard-response","534","752575","0.0-1.0-723.0","0","0","97277","","null","","","null","80","NaN","","","","","","","","","","","","","","",""
"","S2","","html-keyboard-response","535","752832","0.0-1.0-724.0","0","0","97277","","null","","","null","80","","NaN","","","","","","","","","","","","","",""
"","response","","html-keyboard-response","536","753904","0.0-1.0-725.0-0.0","0","0","97277","","1070","","","68","80","","","2","80","training","adjacent","BC","2","3","P.jpg","M.jpg","0","1","0","",""
"","feedback","","html-keyboard-response","537","754908","0.0-1.0-726.0-0.0","0","0","97277","","null","","","null","80","","","","","","","","","","","","","","","",""
"","time_out","","html-keyboard-response","538","756918","0.0-1.0-728.0-0.0","0","0","97277","","null","","","null","80","","","","","","","","","","","","","","","",""
"","ITI","","html-keyboard-response","539","757928","0.0-1.0-729.0","0","0","97277","","null","","","null","80","","","","","","","","","","","","","","","NaN",""
"","S1","","html-keyboard-response","540","758184","0.0-1.0-731.0","0","0","97277","","null","","","null","81","","","","","","","","","","","","","","","",""
"","ISI","","html-keyboard-response","541","760190","0.0-1.0-732.0","0","0","97277","","null","","","null","81","NaN","","","","","","","","","","","","","","",""
"","S2","","html-keyboard-response","542","760445","0.0-1.0-733.0","0","0","97277","","null","","","null","81","","NaN","","","","","","","","","","","","","",""
"","response","","html-keyboard-response","543","761086","0.0-1.0-734.0-0.0","0","0","97277","","637","","","75","81","","","2","81","training","adjacent","CB","3","2","M.jpg","P.jpg","1","0","0","",""
"","feedback","","html-keyboard-response","544","762096","0.0-1.0-735.0-0.0","0","0","97277","","null","","","null","81","","","","","","","","","","","","","","","",""
"","time_out","","html-keyboard-response","545","764103","0.0-1.0-737.0-0.0","0","0","97277","","null","","","null","81","","","","","","","","","","","","","","","",""
"","ITI","","html-keyboard-response","546","765109","0.0-1.0-738.0","0","0","97277","","null","","","null","81","","","","","","","","","","","","","","","NaN",""
"","S1","","html-keyboard-response","547","765368","0.0-1.0-740.0","0","0","97277","","null","","","null","82","","","","","","","","","","","","","","","",""
"","ISI","","html-keyboard-response","548","767373","0.0-1.0-741.0","0","0","97277","","null","","","null","82","NaN","","","","","","","","","","","","","","",""
"","S2","","html-keyboard-response","549","767632","0.0-1.0-742.0","0","0","97277","","null","","","null","82","","NaN","","","","","","","","","","","","","",""
"","response","","html-keyboard-response","550","768244","0.0-1.0-743.0-0.0","0","0","97277","","609","","","68","82","","","2","82","training","adjacent","GF","7","6","N.jpg","L.jpg","0","0","1","",""
"","feedback","","html-keyboard-response","551","769253","0.0-1.0-744.0-0.0","0","0","97277","","null","","","null","82","","","","","","","","","","","","","","","",""
"","ITI","","html-keyboard-response","552","770264","0.0-1.0-747.0","0","0","97277","","null","","","null","82","","","","","","","","","","","","","","","NaN",""
"","S1","","html-keyboard-response","553","770524","0.0-1.0-749.0","0","0","97277","","null","","","null","83","","","","","","","","","","","","","","","",""
"","ISI","","html-keyboard-response","554","772531","0.0-1.0-750.0","0","0","97277","","null","","","null","83","NaN","","","","","","","","","","","","","","",""
"","S2","","html-keyboard-response","555","772786","0.0-1.0-751.0","0","0","97277","","null","","","null","83","","NaN","","","","","","","","","","","","","",""
"","response","","html-keyboard-response","556","773345","0.0-1.0-752.0-0.0","0","0","97277","","557","","","68","83","","","2","83","training","adjacent","EF","5","6","O.jpg","L.jpg","0","1","0","",""
"","feedback","","html-keyboard-response","557","774355","0.0-1.0-753.0-0.0","0","0","97277","","null","","","null","83","","","","","","","","","","","","","","","",""
"","time_out","","html-keyboard-response","558","776362","0.0-1.0-755.0-0.0","0","0","97277","","null","","","null","83","","","","","","","","","","","","","","","",""
"","ITI","","html-keyboard-response","559","777368","0.0-1.0-756.0","0","0","97277","","null","","","null","83","","","","","","","","","","","","","","","NaN",""
"","S1","","html-keyboard-response","560","777628","0.0-1.0-758.0","0","0","97277","","null","","","null","84","","","","","","","","","","","","","","","",""
"","ISI","","html-keyboard-response","561","779632","0.0-1.0-759.0","0","0","97277","","null","","","null","84","NaN","","","","","","","","","","","","","","",""
"","S2","","html-keyboard-response","562","779893","0.0-1.0-760.0","0","0","97277","","null","","","null","84","","NaN","","","","","","","","","","","","","",""
"","response","","html-keyboard-response","563","780664","0.0-1.0-761.0-0.0","0","0","97277","","769","","","75","84","","","2","84","training","adjacent","BA","2","1","P.jpg","Q.jpg","1","0","0","",""
"","feedback","","html-keyboard-response","564","781675","0.0-1.0-762.0-0.0","0","0","97277","","null","","","null","84","","","","","","","","","","","","","","","",""
"","time_out","","html-keyboard-response","565","783684","0.0-1.0-764.0-0.0","0","0","97277","","null","","","null","84","","","","","","","","","","","","","","","",""
"","ITI","","html-keyboard-response","566","784692","0.0-1.0-765.0","0","0","97277","","null","","","null","84","","","","","","","","","","","","","","","NaN",""
"","S1","","html-keyboard-response","567","784949","0.0-1.0-767.0","0","0","97277","","null","","","null","85","","","","","","","","","","","","","","","",""
"","ISI","","html-keyboard-response","568","786956","0.0-1.0-768.0","0","0","97277","","null","","","null","85","NaN","","","","","","","","","","","","","","",""
"","S2","","html-keyboard-response","569","787211","0.0-1.0-769.0","0","0","97277","","null","","","null","85","","NaN","","","","","","","","","","","","","",""
"","response","","html-keyboard-response","570","787607","0.0-1.0-770.0-0.0","0","0","97277","","393","","","75","85","","","2","85","training","adjacent","DE","4","5","R.jpg","O.jpg","1","1","1","",""
"","feedback","","html-keyboard-response","571","788618","0.0-1.0-771.0-0.0","0","0","97277","","null","","","null","85","","","","","","","","","","","","","","","",""
"","ITI","","html-keyboard-response","572","789628","0.0-1.0-774.0","0","0","97277","","null","","","null","85","","","","","","","","","","","","","","","NaN",""
"","S1","","html-keyboard-response","573","789884","0.0-1.0-776.0","0","0","97277","","null","","","null","86","","","","","","","","","","","","","","","",""
"","ISI","","html-keyboard-response","574","791890","0.0-1.0-777.0","0","0","97277","","null","","","null","86","NaN","","","","","","","","","","","","","","",""
"","S2","","html-keyboard-response","575","792146","0.0-1.0-778.0","0","0","97277","","null","","","null","86","","NaN","","","","","","","","","","","","","",""
"","response","","html-keyboard-response","576","793412","0.0-1.0-779.0-0.0","0","0","97277","","1264","","","75","86","","","2","86","training","adjacent","CD","3","4","M.jpg","R.jpg","1","1","1","",""
"","feedback","","html-keyboard-response","577","794422","0.0-1.0-780.0-0.0","0","0","97277","","null","","","null","86","","","","","","","","","","","","","","","",""
"","ITI","","html-keyboard-response","578","795431","0.0-1.0-783.0","0","0","97277","","null","","","null","86","","","","","","","","","","","","","","","NaN",""
"","S1","","html-keyboard-response","579","795686","0.0-1.0-785.0","0","0","97277","","null","","","null","87","","","","","","","","","","","","","","","",""
"","ISI","","html-keyboard-response","580","797690","0.0-1.0-786.0","0","0","97277","","null","","","null","87","NaN","","","","","","","","","","","","","","",""
"","S2","","html-keyboard-response","581","797944","0.0-1.0-787.0","0","0","97277","","null","","","null","87","","NaN","","","","","","","","","","","","","",""
"","response","","html-keyboard-response","582","798882","0.0-1.0-788.0-0.0","0","0","97277","","936","","","68","87","","","2","87","training","adjacent","FG","6","7","L.jpg","N.jpg","0","1","0","",""
