"success","ttype","start_time","trial_type","trial_index","time_elapsed","internal_node_id","warning","missed_checkup","PID","view_history","rt","responses","repeat_instructions","key_press","index","keypress_isi","keypress_S2","block","trial_num","phase","group_type","pair_type","S1_stim","S2_stim","S1_img","S2_img","S1_chosen","S1_higher","accuracy","keypress_iti","total_bonus_tally"
"true","full_screen","d04072023hr0234","fullscreen","0","10905","0.0-0.0","0","0","64190","","","","","","","","","","","","","","","","","","","","","",""
"","instructions","","instructions","1","41181","0.0-1.0-0.0-0.0","0","0","64190","[{""page_index"":0,""viewing_time"":4490},{""page_index"":1,""viewing_time"":18701},{""page_index"":2,""viewing_time"":5765},{""page_index"":3,""viewing_time"":1316}]","30273","","","","","","","","","","","","","","","","","","","",""
"","comprehension_check","","survey-multi-choice","2","58813","0.0-1.0-0.0-1.0","0","0","64190","","17626","{""Q0"":""True"",""Q1"":""D"",""Q2"":""Once the second image appears and while the screen 'MAKE A CHOICE' is shown"",""Q3"":""Green mark"",""Q4"":""either D or K""}","0","","","","","","","","","","","","","","","","","",""
"","start_exp","","html-keyboard-response","3","61154","0.0-1.0-1.0","0","0","64190","","2337","","","32","","","","","","","","","","","","","","","","",""
"","S1","","html-keyboard-response","4","61311","0.0-1.0-2.0","0","0","64190","","null","","","null","0","","","","","","","","","","","","","","","",""
"","ISI","","html-keyboard-response","5","63317","0.0-1.0-3.0","0","0","64190","","null","","","null","0","NaN","","","","","","","","","","","","","","",""
"","S2","","html-keyboard-response","6","63483","0.0-1.0-4.0","0","0","64190","","null","","","null","0","","NaN","","","","","","","","","","","","","",""
"","response","","html-keyboard-response","7","64745","0.0-1.0-5.0-0.0","0","0","64190","","1256","","","68","0","","","1","0","training","adjacent","DC","4","3","Q.jpg","L.jpg","1","0","0","",""
"","feedback","","html-keyboard-response","8","65762","0.0-1.0-6.0-0.0","0","0","64190","","null","","","null","0","","","","","","","","","","","","","","","",""
"","time_out","","html-keyboard-response","9","67777","0.0-1.0-8.0-0.0","0","0","64190","","null","","","null","0","","","","","","","","","","","","","","","",""
"","ITI","","html-keyboard-response","10","68785","0.0-1.0-9.0","0","0","64190","","null","","","null","0","","","","","","","","","","","","","","","NaN",""
"","S1","","html-keyboard-response","11","68945","0.0-1.0-11.0","0","0","64190","","null","","","null","1","","","","","","","","","","","","","","","",""
"","ISI","","html-keyboard-response","12","70951","0.0-1.0-12.0","0","0","64190","","null","","","null","1","NaN","","","","","","","","","","","","","","",""
"","S2","","html-keyboard-response","13","71111","0.0-1.0-13.0","0","0","64190","","null","","","null","1","","NaN","","","","","","","","","","","","","",""
"","response","","html-keyboard-response","14","71716","0.0-1.0-14.0-0.0","0","0","64190","","600","","","75","1","","","1","1","training","adjacent","DE","4","5","Q.jpg","M.jpg","0","1","0","",""
"","feedback","","html-keyboard-response","15","72727","0.0-1.0-15.0-0.0","0","0","64190","","null","","","null","1","","","","","","","","","","","","","","","",""
"","time_out","","html-keyboard-response","16","74737","0.0-1.0-17.0-0.0","0","0","64190","","null","","","null","1","","","","","","","","","","","","","","","",""
"","ITI","","html-keyboard-response","17","75745","0.0-1.0-18.0","0","0","64190","","null","","","null","1","","","","","","","","","","","","","","","NaN",""
"","S1","","html-keyboard-response","18","75905","0.0-1.0-20.0","0","0","64190","","null","","","null","2","","","","","","","","","","","","","","","",""
"","ISI","","html-keyboard-response","19","77910","0.0-1.0-21.0","0","0","64190","","null","","","null","2","NaN","","","","","","","","","","","","","","",""
"","S2","","html-keyboard-response","20","78070","0.0-1.0-22.0","0","0","64190","","null","","","null","2","","NaN","","","","","","","","","","","","","",""
"","response","","html-keyboard-response","21","78647","0.0-1.0-23.0-0.0","0","0","64190","","572","","","68","2","","","1","2","training","adjacent","ED","5","4","M.jpg","Q.jpg","1","0","0","",""
"","feedback","","html-keyboard-response","22","79654","0.0-1.0-24.0-0.0","0","0","64190","","null","","","null","2","","","","","","","","","","","","","","","",""
"","time_out","","html-keyboard-response","23","81665","0.0-1.0-26.0-0.0","0","0","64190","","null","","","null","2","","","","","","","","","","","","","","","",""
"","ITI","","html-keyboard-response","24","82673","0.0-1.0-27.0","0","0","64190","","null","","","null","2","","","","","","","","","","","","","","","NaN",""
"","S1","","html-keyboard-response","25","82832","0.0-1.0-29.0","0","0","64190","","null","","","null","3","","","","","","","","","","","","","","","",""
"","ISI","","html-keyboard-response","26","84839","0.0-1.0-30.0","0","0","64190","","null","","","null","3","NaN","","","","","","","","","","","","","","",""
"","S2","","html-keyboard-response","27","84998","0.0-1.0-31.0","0","0","64190","","null","","","null","3","","NaN","","","","","","","","","","","","","",""
"","response","","html-keyboard-response","28","85596","0.0-1.0-32.0-0.0","0","0","64190","","594","","","68","3","","","1","3","training","adjacent","GF","7","6","N.jpg","O.jpg","1","0","0","",""
"","feedback","","html-keyboard-response","29","86609","0.0-1.0-33.0-0.0","0","0","64190","","null","","","null","3","","","","","","","","","","","","","","","",""
"","time_out","","html-keyboard-response","30","88614","0.0-1.0-35.0-0.0","0","0","64190","","null","","","null","3","","","","","","","","","","","","","","","",""
"","ITI","","html-keyboard-response","31","89622","0.0-1.0-36.0","0","0","64190","","null","","","null","3","","","","","","","","","","","","","","","NaN",""
"","S1","","html-keyboard-response","32","89784","0.0-1.0-38.0","0","0","64190","","null","","","null","4","","","","","","","","","","","","","","","",""
"","ISI","","html-keyboard-response","33","91793","0.0-1.0-39.0","0","0","64190","","null","","","null","4","NaN","","","","","","","","","","","","","","",""
"","S2","","html-keyboard-response","34","91953","0.0-1.0-40.0","0","0","64190","","null","","","null","4","","NaN","","","","","","","","","","","","","",""
"","response","","html-keyboard-response","35","92529","0.0-1.0-41.0-0.0","0","0","64190","","572","","","68","4","","","1","4","training","adjacent","ED","5","4","M.jpg","Q.jpg","1","0","0","",""
"","feedback","","html-keyboard-response","36","93542","0.0-1.0-42.0-0.0","0","0","64190","","null","","","null","4","","","","","","","","","","","","","","","",""
"","time_out","","html-keyboard-response","37","95551","0.0-1.0-44.0-0.0","0","0","64190","","null","","","null","4","","","","","","","","","","","","","","","",""
"","ITI","","html-keyboard-response","38","96561","0.0-1.0-45.0","0","0","64190","","null","","","null","4","","","","","","","","","","","","","","","NaN",""
"","S1","","html-keyboard-response","39","96721","0.0-1.0-47.0","0","0","64190","","null","","","null","5","","","","","","","","","","","","","","","",""
"","ISI","","html-keyboard-response","40","98726","0.0-1.0-48.0","0","0","64190","","null","","","null","5","NaN","","","","","","","","","","","","","","",""
"","S2","","html-keyboard-response","41","98886","0.0-1.0-49.0","0","0","64190","","null","","","null","5","","NaN","","","","","","","","","","","","","",""
"","response","","html-keyboard-response","42","99372","0.0-1.0-50.0-0.0","0","0","64190","","481","","","75","5","","","1","5","training","adjacent","EF","5","6","M.jpg","O.jpg","0","1","0","",""
"","feedback","","html-keyboard-response","43","100385","0.0-1.0-51.0-0.0","0","0","64190","","null","","","null","5","","","","","","","","","","","","","","","",""
"","time_out","","html-keyboard-response","44","102390","0.0-1.0-53.0-0.0","0","0","64190","","null","","","null","5","","","","","","","","","","","","","","","",""
"","ITI","","html-keyboard-response","45","103398","0.0-1.0-54.0","0","0","64190","","null","","","null","5","","","","","","","","","","","","","","","NaN",""
"","S1","","html-keyboard-response","46","103556","0.0-1.0-56.0","0","0","64190","","null","","","null","6","","","","","","","","","","","","","","","",""
"","ISI","","html-keyboard-response","47","105568","0.0-1.0-57.0","0","0","64190","","null","","","null","6","NaN","","","","","","","","","","","","","","",""
"","S2","","html-keyboard-response","48","105729","0.0-1.0-58.0","0","0","64190","","null","","","null","6","","NaN","","","","","","","","","","","","","",""
"","response","","html-keyboard-response","49","106207","0.0-1.0-59.0-0.0","0","0","64190","","473","","","68","6","","","1","6","training","adjacent","CD","3","4","L.jpg","Q.jpg","1","1","1","",""
"","feedback","","html-keyboard-response","50","107217","0.0-1.0-60.0-0.0","0","0","64190","","null","","","null","6","","","","","","","","","","","","","","","",""
"","ITI","","html-keyboard-response","51","108225","0.0-1.0-63.0","0","0","64190","","null","","","null","6","","","","","","","","","","","","","","","NaN",""
"","S1","","html-keyboard-response","52","108384","0.0-1.0-65.0","0","0","64190","","null","","","null","7","","","","","","","","","","","","","","","",""
"","ISI","","html-keyboard-response","53","110390","0.0-1.0-66.0","0","0","64190","","null","","","null","7","NaN","","","","","","","","","","","","","","",""
"","S2","","html-keyboard-response","54","110551","0.0-1.0-67.0","0","0","64190","","null","","","null","7","","NaN","","","","","","","","","","","","","",""
"","response","","html-keyboard-response","55","110845","0.0-1.0-68.0-0.0","0","0","64190","","290","","","75","7","","","1","7","training","adjacent","BC","2","3","P.jpg","L.jpg","0","1","0","",""
"","feedback","","html-keyboard-response","56","111858","0.0-1.0-69.0-0.0","0","0","64190","","null","","","null","7","","","","","","","","","","","","","","","",""
"","time_out","","html-keyboard-response","57","113873","0.0-1.0-71.0-0.0","0","0","64190","","null","","","null","7","","","","","","","","","","","","","","","",""
"","ITI","","html-keyboard-response","58","114881","0.0-1.0-72.0","0","0","64190","","null","","","null","7","","","","","","","","","","","","","","","NaN",""
"","S1","","html-keyboard-response","59","115041","0.0-1.0-74.0","0","0","64190","","null","","","null","8","","","","","","","","","","","","","","","",""
"","ISI","","html-keyboard-response","60","117046","0.0-1.0-75.0","0","0","64190","","null","","","null","8","NaN","","","","","","","","","","","","","","",""
"","S2","","html-keyboard-response","61","117206","0.0-1.0-76.0","0","0","64190","","null","","","null","8","","NaN","","","","","","","","","","","","","",""
"","response","","html-keyboard-response","62","117496","0.0-1.0-77.0-0.0","0","0","64190","","284","","","75","8","","","1","8","training","adjacent","DE","4","5","Q.jpg","M.jpg","0","1","0","",""
"","feedback","","html-keyboard-response","63","118502","0.0-1.0-78.0-0.0","0","0","64190","","null","","","null","8","","","","","","","","","","","","","","","",""
"","time_out","","html-keyboard-response","64","120513","0.0-1.0-80.0-0.0","0","0","64190","","null","","","null","8","","","","","","","","","","","","","","","",""
"","ITI","","html-keyboard-response","65","121520","0.0-1.0-81.0","0","0","64190","","null","","","null","8","","","","","","","","","","","","","","","NaN",""
"","S1","","html-keyboard-response","66","121681","0.0-1.0-83.0","0","0","64190","","null","","","null","9","","","","","","","","","","","","","","","",""
"","ISI","","html-keyboard-response","67","123687","0.0-1.0-84.0","0","0","64190","","null","","","null","9","NaN","","","","","","","","","","","","","","",""
"","S2","","html-keyboard-response","68","123846","0.0-1.0-85.0","0","0","64190","","null","","","null","9","","NaN","","","","","","","","","","","","","",""
"","response","","html-keyboard-response","69","124118","0.0-1.0-86.0-0.0","0","0","64190","","266","","","68","9","","","1","9","training","adjacent","BC","2","3","P.jpg","L.jpg","1","1","1","",""
"","feedback","","html-keyboard-response","70","125126","0.0-1.0-87.0-0.0","0","0","64190","","null","","","null","9","","","","","","","","","","","","","","","",""
"","ITI","","html-keyboard-response","71","126135","0.0-1.0-90.0","0","0","64190","","null","","","null","9","","","","","","","","","","","","","","","NaN",""
"","S1","","html-keyboard-response","72","126299","0.0-1.0-92.0","0","0","64190","","null","","","null","10","","","","","","","","","","","","","","","",""
"","ISI","","html-keyboard-response","73","128310","0.0-1.0-93.0","0","0","64190","","null","","","null","10","NaN","","","","","","","","","","","","","","",""
"","S2","","html-keyboard-response","74","128470","0.0-1.0-94.0","0","0","64190","","null","","","null","10","","NaN","","","","","","","","","","","","","",""
"","response","","html-keyboard-response","75","129371","0.0-1.0-95.0-0.0","0","0","64190","","897","","","75","10","","","1","10","training","adjacent","FG","6","7","O.jpg","N.jpg","0","1","0","",""
"","feedback","","html-keyboard-response","76","130385","0.0-1.0-96.0-0.0","0","0","64190","","null","","","null","10","","","","","","","","","","","","","","","",""
"","time_out","","html-keyboard-response","77","132390","0.0-1.0-98.0-0.0","0","0","64190","","null","","","null","10","","","","","","","","","","","","","","","",""
"","ITI","","html-keyboard-response","78","133398","0.0-1.0-99.0","0","0","64190","","null","","","null","10","","","","","","","","","","","","","","","NaN",""
"","S1","","html-keyboard-response","79","133558","0.0-1.0-101.0","0","0","64190","","null","","","null","11","","","","","","","","","","","","","","","",""
"","ISI","","html-keyboard-response","80","135569","0.0-1.0-102.0","0","0","64190","","null","","","null","11","NaN","","","","","","","","","","","","","","",""
"","S2","","html-keyboard-response","81","135728","0.0-1.0-103.0","0","0","64190","","null","","","null","11","","NaN","","","","","","","","","","","","","",""
"","response","","html-keyboard-response","82","136284","0.0-1.0-104.0-0.0","0","0","64190","","552","","","68","11","","","1","11","training","adjacent","GF","7","6","N.jpg","O.jpg","1","0","0","",""
"","feedback","","html-keyboard-response","83","137297","0.0-1.0-105.0-0.0","0","0","64190","","null","","","null","11","","","","","","","","","","","","","","","",""
"","time_out","","html-keyboard-response","84","139307","0.0-1.0-107.0-0.0","0","0","64190","","null","","","null","11","","","","","","","","","","","","","","","",""
"","ITI","","html-keyboard-response","85","140321","0.0-1.0-108.0","0","0","64190","","null","","","null","11","","","","","","","","","","","","","","","NaN",""
"","S1","","html-keyboard-response","86","140481","0.0-1.0-110.0","0","0","64190","","null","","","null","12","","","","","","","","","","","","","","","",""
"","ISI","","html-keyboard-response","87","142494","0.0-1.0-111.0","0","0","64190","","null","","","null","12","NaN","","","","","","","","","","","","","","",""
"","S2","","html-keyboard-response","88","142654","0.0-1.0-112.0","0","0","64190","","null","","","null","12","","NaN","","","","","","","","","","","","","",""
"","response","","html-keyboard-response","89","143183","0.0-1.0-113.0-0.0","0","0","64190","","526","","","75","12","","","1","12","training","adjacent","DC","4","3","Q.jpg","L.jpg","0","0","1","",""
"","feedback","","html-keyboard-response","90","144193","0.0-1.0-114.0-0.0","0","0","64190","","null","","","null","12","","","","","","","","","","","","","","","",""
"","ITI","","html-keyboard-response","91","145201","0.0-1.0-117.0","0","0","64190","","null","","","null","12","","","","","","","","","","","","","","","NaN",""
"","S1","","html-keyboard-response","92","145361","0.0-1.0-119.0","0","0","64190","","null","","","null","13","","","","","","","","","","","","","","","",""
"","ISI","","html-keyboard-response","93","147366","0.0-1.0-120.0","0","0","64190","","null","","","null","13","NaN","","","","","","","","","","","","","","",""
"","S2","","html-keyboard-response","94","147526","0.0-1.0-121.0","0","0","64190","","null","","","null","13","","NaN","","","","","","","","","","","","","",""
"","response","","html-keyboard-response","95","148439","0.0-1.0-122.0-0.0","0","0","64190","","909","","","68","13","","","1","13","training","adjacent","FE","6","5","O.jpg","M.jpg","1","0","0","",""
"","feedback","","html-keyboard-response","96","149446","0.0-1.0-123.0-0.0","0","0","64190","","null","","","null","13","","","","","","","","","","","","","","","",""
"","time_out","","html-keyboard-response","97","151457","0.0-1.0-125.0-0.0","0","0","64190","","null","","","null","13","","","","","","","","","","","","","","","",""
"","ITI","","html-keyboard-response","98","152465","0.0-1.0-126.0","0","0","64190","","null","","","null","13","","","","","","","","","","","","","","","NaN",""
"","S1","","html-keyboard-response","99","152625","0.0-1.0-128.0","0","0","64190","","null","","","null","14","","","","","","","","","","","","","","","",""
"","ISI","","html-keyboard-response","100","154635","0.0-1.0-129.0","0","0","64190","","null","","","null","14","NaN","","","","","","","","","","","","","","",""
"","S2","","html-keyboard-response","101","154800","0.0-1.0-130.0","0","0","64190","","null","","","null","14","","NaN","","","","","","","","","","","","","",""
"","response","","html-keyboard-response","102","155708","0.0-1.0-131.0-0.0","0","0","64190","","903","","","75","14","","","1","14","training","adjacent","ED","5","4","M.jpg","Q.jpg","0","0","1","",""
"","feedback","","html-keyboard-response","103","156720","0.0-1.0-132.0-0.0","0","0","64190","","null","","","null","14","","","","","","","","","","","","","","","",""
"","ITI","","html-keyboard-response","104","157729","0.0-1.0-135.0","0","0","64190","","null","","","null","14","","","","","","","","","","","","","","","NaN",""
"","S1","","html-keyboard-response","105","157886","0.0-1.0-137.0","0","0","64190","","null","","","null","15","","","","","","","","","","","","","","","",""
"","ISI","","html-keyboard-response","106","159894","0.0-1.0-138.0","0","0","64190","","null","","","null","15","NaN","","","","","","","","","","","","","","",""
"","S2","","html-keyboard-response","107","160054","0.0-1.0-139.0","0","0","64190","","null","","","null","15","","NaN","","","","","","","","","","","","","",""
"","response","","html-keyboard-response","108","160635","0.0-1.0-140.0-0.0","0","0","64190","","577","","","68","15","","","1","15","training","adjacent","AB","1","2","R.jpg","P.jpg","1","1","1","",""
"","feedback","","html-keyboard-response","109","161649","0.0-1.0-141.0-0.0","0","0","64190","","null","","","null","15","","","","","","","","","","","","","","","",""
"","ITI","","html-keyboard-response","110","162657","0.0-1.0-144.0","0","0","64190","","null","","","null","15","","","","","","","","","","","","","","","NaN",""
"","S1","","html-keyboard-response","111","162816","0.0-1.0-146.0","0","0","64190","","null","","","null","16","","","","","","","","","","","","","","","",""
"","ISI","","html-keyboard-response","112","164822","0.0-1.0-147.0","0","0","64190","","null","","","null","16","NaN","","","","","","","","","","","","","","",""
"","S2","","html-keyboard-response","113","164982","0.0-1.0-148.0","0","0","64190","","null","","","null","16","","NaN","","","","","","","","","","","","","",""
"","response","","html-keyboard-response","114","165265","0.0-1.0-149.0-0.0","0","0","64190","","279","","","68","16","","","1","16","training","adjacent","DC","4","3","Q.jpg","L.jpg","1","0","0","",""
"","feedback","","html-keyboard-response","115","166278","0.0-1.0-150.0-0.0","0","0","64190","","null","","","null","16","","","","","","","","","","","","","","","",""
"","time_out","","html-keyboard-response","116","168289","0.0-1.0-152.0-0.0","0","0","64190","","null","","","null","16","","","","","","","","","","","","","","","",""
"","ITI","","html-keyboard-response","117","169296","0.0-1.0-153.0","0","0","64190","","null","","","null","16","","","","","","","","","","","","","","","NaN",""
"","S1","","html-keyboard-response","118","169457","0.0-1.0-155.0","0","0","64190","","null","","","null","17","","","","","","","","","","","","","","","",""
"","ISI","","html-keyboard-response","119","171462","0.0-1.0-156.0","0","0","64190","","null","","","null","17","NaN","","","","","","","","","","","","","","",""
"","S2","","html-keyboard-response","120","171622","0.0-1.0-157.0","0","0","64190","","null","","","null","17","","NaN","","","","","","","","","","","","","",""
"","response","","html-keyboard-response","121","172057","0.0-1.0-158.0-0.0","0","0","64190","","432","","","68","17","","","1","17","training","adjacent","CB","3","2","L.jpg","P.jpg","1","0","0","",""
"","feedback","","html-keyboard-response","122","173073","0.0-1.0-159.0-0.0","0","0","64190","","null","","","null","17","","","","","","","","","","","","","","","",""
"","time_out","","html-keyboard-response","123","175078","0.0-1.0-161.0-0.0","0","0","64190","","null","","","null","17","","","","","","","","","","","","","","","",""
"","ITI","","html-keyboard-response","124","176085","0.0-1.0-162.0","0","0","64190","","null","","","null","17","","","","","","","","","","","","","","","NaN",""
"","S1","","html-keyboard-response","125","176246","0.0-1.0-164.0","0","0","64190","","null","","","null","18","","","","","","","","","","","","","","","",""
"","ISI","","html-keyboard-response","126","178257","0.0-1.0-165.0","0","0","64190","","null","","","null","18","NaN","","","","","","","","","","","","","","",""
"","S2","","html-keyboard-response","127","178417","0.0-1.0-166.0","0","0","64190","","null","","","null","18","","NaN","","","","","","","","","","","","","",""
"","response","","html-keyboard-response","128","179071","0.0-1.0-167.0-0.0","0","0","64190","","650","","","75","18","","","1","18","training","adjacent","AB","1","2","R.jpg","P.jpg","0","1","0","",""
"","feedback","","html-keyboard-response","129","180078","0.0-1.0-168.0-0.0","0","0","64190","","null","","","null","18","","","","","","","","","","","","","","","",""
"","time_out","","html-keyboard-response","130","182086","0.0-1.0-170.0-0.0","0","0","64190","","null","","","null","18","","","","","","","","","","","","","","","",""
"","ITI","","html-keyboard-response","131","183094","0.0-1.0-171.0","0","0","64190","","null","","","null","18","","","","","","","","","","","","","","","NaN",""
"","S1","","html-keyboard-response","132","183259","0.0-1.0-173.0","0","0","64190","","null","","","null","19","","","","","","","","","","","","","","","",""
"","ISI","","html-keyboard-response","133","185270","0.0-1.0-174.0","0","0","64190","","null","","","null","19","NaN","","","","","","","","","","","","","","",""
"","S2","","html-keyboard-response","134","185429","0.0-1.0-175.0","0","0","64190","","null","","","null","19","","NaN","","","","","","","","","","","","","",""
"","response","","html-keyboard-response","135","186083","0.0-1.0-176.0-0.0","0","0","64190","","650","","","68","19","","","1","19","training","adjacent","ED","5","4","M.jpg","Q.jpg","1","0","0","",""
"","feedback","","html-keyboard-response","136","187094","0.0-1.0-177.0-0.0","0","0","64190","","null","","","null","19","","","","","","","","","","","","","","","",""
"","time_out","","html-keyboard-response","137","189105","0.0-1.0-179.0-0.0","0","0","64190","","null","","","null","19","","","","","","","","","","","","","","","",""
"","ITI","","html-keyboard-response","138","190112","0.0-1.0-180.0","0","0","64190","","null","","","null","19","","","","","","","","","","","","","","","NaN",""
"","S1","","html-keyboard-response","139","190272","0.0-1.0-182.0","0","0","64190","","null","","","null","20","","","","","","","","","","","","","","","",""
"","ISI","","html-keyboard-response","140","192281","0.0-1.0-183.0","0","0","64190","","null","","","null","20","NaN","","","","","","","","","","","","","","",""
"","S2","","html-keyboard-response","141","192435","0.0-1.0-184.0","0","0","64190","","null","","","null","20","","NaN","","","","","","","","","","","","","",""
"","response","","html-keyboard-response","142","192783","0.0-1.0-185.0-0.0","0","0","64190","","344","","","75","20","","","1","20","training","adjacent","BA","2","1","P.jpg","R.jpg","0","0","1","",""
"","feedback","","html-keyboard-response","143","193792","0.0-1.0-186.0-0.0","0","0","64190","","null","","","null","20","","","","","","","","","","","","","","","",""
"","ITI","","html-keyboard-response","144","194800","0.0-1.0-189.0","0","0","64190","","null","","","null","20","","","","","","","","","","","","","","","NaN",""
"","S1","","html-keyboard-response","145","194961","0.0-1.0-191.0","0","0","64190","","null","","","null","21","","","","","","","","","","","","","","","",""
"","ISI","","html-keyboard-response","146","196966","0.0-1.0-192.0","0","0","64190","","null","","","null","21","NaN","","","","","","","","","","","","","","",""
"","S2","","html-keyboard-response","147","197126","0.0-1.0-193.0","0","0","64190","","null","","","null","21","","NaN","","","","","","","","","","","","","",""
"","response","","html-keyboard-response","148","197368","0.0-1.0-194.0-0.0","0","0","64190","","238","","","75","21","","","1","21","training","adjacent","BC","2","3","P.jpg","L.jpg","0","1","0","",""
"","feedback","","html-keyboard-response","149","198374","0.0-1.0-195.0-0.0","0","0","64190","","null","","","null","21","","","","","","","","","","","","","","","",""
"","time_out","","html-keyboard-response","150","200384","0.0-1.0-197.0-0.0","0","0","64190","","null","","","null","21","","","","","","","","","","","","","","","",""
"","ITI","","html-keyboard-response","151","201393","0.0-1.0-198.0","0","0","64190","","null","","","null","21","","","","","","","","","","","","","","","NaN",""
"","S1","","html-keyboard-response","152","201553","0.0-1.0-200.0","0","0","64190","","null","","","null","22","","","","","","","","","","","","","","","",""
"","ISI","","html-keyboard-response","153","203568","0.0-1.0-201.0","0","0","64190","","null","","","null","22","NaN","","","","","","","","","","","","","","",""
"","S2","","html-keyboard-response","154","203729","0.0-1.0-202.0","0","0","64190","","null","","","null","22","","NaN","","","","","","","","","","","","","",""
"","response","","html-keyboard-response","155","203885","0.0-1.0-203.0-0.0","0","0","64190","","152","","","68","22","","","1","22","training","adjacent","FE","6","5","O.jpg","M.jpg","1","0","0","",""
"","feedback","","html-keyboard-response","156","204896","0.0-1.0-204.0-0.0","0","0","64190","","null","","","null","22","","","","","","","","","","","","","","","",""
"","time_out","","html-keyboard-response","157","206902","0.0-1.0-206.0-0.0","0","0","64190","","null","","","null","22","","","","","","","","","","","","","","","",""
"","ITI","","html-keyboard-response","158","207910","0.0-1.0-207.0","0","0","64190","","null","","","null","22","","","","","","","","","","","","","","","NaN",""
"","S1","","html-keyboard-response","159","208070","0.0-1.0-209.0","0","0","64190","","null","","","null","23","","","","","","","","","","","","","","","",""
"","ISI","","html-keyboard-response","160","210080","0.0-1.0-210.0","0","0","64190","","371","","","75","23","k","","","","","","","","","","","","","","",""
"","S2","","html-keyboard-response","161","210240","0.0-1.0-211.0","0","0","64190","","null","","","null","23","","NaN","","","","","","","","","","","","","",""
"","response","","html-keyboard-response","162","210385","0.0-1.0-212.0-0.0","0","0","64190","","140","","","75","23","","","1","23","training","adjacent","EF","5","6","M.jpg","O.jpg","0","1","0","",""
"","feedback","","html-keyboard-response","163","211398","0.0-1.0-213.0-0.0","0","0","64190","","null","","","null","23","","","","","","","","","","","","","","","",""
"","time_out","","html-keyboard-response","164","213408","0.0-1.0-215.0-0.0","0","0","64190","","null","","","null","23","","","","","","","","","","","","","","","",""
"","ITI","","html-keyboard-response","165","214416","0.0-1.0-216.0","0","0","64190","","null","","","null","23","","","","","","","","","","","","","","","NaN",""
"","S1","","html-keyboard-response","166","214576","0.0-1.0-218.0","0","0","64190","","null","","","null","24","","","","","","","","","","","","","","","",""
"","ISI","","html-keyboard-response","167","216582","0.0-1.0-219.0","0","0","64190","","134","","","68","24","d","","","","","","","","","","","","","","",""
"","S2","","html-keyboard-response","168","216742","0.0-1.0-220.0","0","0","64190","","null","","","null","24","","NaN","","","","","","","","","","","","","",""
"","response","","html-keyboard-response","169","216997","0.0-1.0-221.0-0.0","0","0","64190","","251","","","75","24","","","1","24","training","adjacent","AB","1","2","R.jpg","P.jpg","0","1","0","",""
"","feedback","","html-keyboard-response","170","218006","0.0-1.0-222.0-0.0","0","0","64190","","null","","","null","24","","","","","","","","","","","","","","","",""
"","time_out","","html-keyboard-response","171","220016","0.0-1.0-224.0-0.0","0","0","64190","","null","","","null","24","","","","","","","","","","","","","","","",""
"","ITI","","html-keyboard-response","172","221024","0.0-1.0-225.0","0","0","64190","","null","","","null","24","","","","","","","","","","","","","","","NaN",""
"","S1","","html-keyboard-response","173","221184","0.0-1.0-227.0","0","0","64190","","null","","","null","25","","","","","","","","","","","","","","","",""
"","ISI","","html-keyboard-response","174","223189","0.0-1.0-228.0","0","0","64190","","null","","","null","25","NaN","","","","","","","","","","","","","","",""
"","S2","","html-keyboard-response","175","223352","0.0-1.0-229.0","0","0","64190","","null","","","null","25","","NaN","","","","","","","","","","","","","",""
"","response","","html-keyboard-response","176","223505","0.0-1.0-230.0-0.0","0","0","64190","","148","","","68","25","","","1","25","training","adjacent","EF","5","6","M.jpg","O.jpg","1","1","1","",""
"","feedback","","html-keyboard-response","177","224521","0.0-1.0-231.0-0.0","0","0","64190","","null","","","null","25","","","","","","","","","","","","","","","",""
"","ITI","","html-keyboard-response","178","225538","0.0-1.0-234.0","0","0","64190","","null","","","null","25","","","","","","","","","","","","","","","NaN",""
"","S1","","html-keyboard-response","179","225705","0.0-1.0-236.0","0","0","64190","","null","","","null","26","","","","","","","","","","","","","","","",""
"","ISI","","html-keyboard-response","180","227722","0.0-1.0-237.0","0","0","64190","","null","","","null","26","NaN","","","","","","","","","","","","","","",""
"","S2","","html-keyboard-response","181","227883","0.0-1.0-238.0","0","0","64190","","null","","","null","26","","NaN","","","","","","","","","","","","","",""
"","response","","html-keyboard-response","182","228331","0.0-1.0-239.0-0.0","0","0","64190","","443","","","75","26","","","1","26","training","adjacent","CD","3","4","L.jpg","Q.jpg","0","1","0","",""
"","feedback","","html-keyboard-response","183","229344","0.0-1.0-240.0-0.0","0","0","64190","","null","","","null","26","","","","","","","","","","","","","","","",""
"","time_out","","html-keyboard-response","184","231354","0.0-1.0-242.0-0.0","0","0","64190","","null","","","null","26","","","","","","","","","","","","","","","",""
"","ITI","","html-keyboard-response","185","232368","0.0-1.0-243.0","0","0","64190","","null","","","null","26","","","","","","","","","","","","","","","NaN",""
"","S1","","html-keyboard-response","186","232530","0.0-1.0-245.0","0","0","64190","","null","","","null","27","","","","","","","","","","","","","","","",""
"","ISI","","html-keyboard-response","187","234544","0.0-1.0-246.0","0","0","64190","","null","","","null","27","NaN","","","","","","","","","","","","","","",""
"","S2","","html-keyboard-response","188","234705","0.0-1.0-247.0","0","0","64190","","null","","","null","27","","NaN","","","","","","","","","","","","","",""
"","response","","html-keyboard-response","189","234794","0.0-1.0-248.0-0.0","0","0","64190","","85","","","68","27","","","1","27","training","adjacent","FE","6","5","O.jpg","M.jpg","1","0","0","",""
"","feedback","","html-keyboard-response","190","235808","0.0-1.0-249.0-0.0","0","0","64190","","null","","","null","27","","","","","","","","","","","","","","","",""
"","time_out","","html-keyboard-response","191","237814","0.0-1.0-251.0-0.0","0","0","64190","","null","","","null","27","","","","","","","","","","","","","","","",""
"","ITI","","html-keyboard-response","192","238823","0.0-1.0-252.0","0","0","64190","","null","","","null","27","","","","","","","","","","","","","","","NaN",""
"","S1","","html-keyboard-response","193","238981","0.0-1.0-254.0","0","0","64190","","null","","","null","28","","","","","","","","","","","","","","","",""
"","ISI","","html-keyboard-response","194","240992","0.0-1.0-255.0","0","0","64190","","null","","","null","28","NaN","","","","","","","","","","","","","","",""
"","S2","","html-keyboard-response","195","241152","0.0-1.0-256.0","0","0","64190","","null","","","null","28","","NaN","","","","","","","","","","","","","",""
"","response","","html-keyboard-response","196","241318","0.0-1.0-257.0-0.0","0","0","64190","","161","","","68","28","","","1","28","training","adjacent","CB","3","2","L.jpg","P.jpg","1","0","0","",""
"","feedback","","html-keyboard-response","197","242331","0.0-1.0-258.0-0.0","0","0","64190","","null","","","null","28","","","","","","","","","","","","","","","",""
"","time_out","","html-keyboard-response","198","244342","0.0-1.0-260.0-0.0","0","0","64190","","null","","","null","28","","","","","","","","","","","","","","","",""
"","ITI","","html-keyboard-response","199","245350","0.0-1.0-261.0","0","0","64190","","null","","","null","28","","","","","","","","","","","","","","","NaN",""
"","S1","","html-keyboard-response","200","245515","0.0-1.0-263.0","0","0","64190","","null","","","null","29","","","","","","","","","","","","","","","",""
"","ISI","","html-keyboard-response","201","247525","0.0-1.0-264.0","0","0","64190","","null","","","null","29","NaN","","","","","","","","","","","","","","",""
"","S2","","html-keyboard-response","202","247686","0.0-1.0-265.0","0","0","64190","","null","","","null","29","","NaN","","","","","","","","","","","","","",""
"","response","","html-keyboard-response","203","248381","0.0-1.0-266.0-0.0","0","0","64190","","690","","","68","29","","","1","29","training","adjacent","CB","3","2","L.jpg","P.jpg","1","0","0","",""
"","feedback","","html-keyboard-response","204","249392","0.0-1.0-267.0-0.0","0","0","64190","","null","","","null","29","","","","","","","","","","","","","","","",""
"","time_out","","html-keyboard-response","205","251395","0.0-1.0-269.0-0.0","0","0","64190","","null","","","null","29","","","","","","","","","","","","","","","",""
"","ITI","","html-keyboard-response","206","252410","0.0-1.0-270.0","0","0","64190","","null","","","null","29","","","","","","","","","","","","","","","NaN",""
"","S1","","html-keyboard-response","207","252576","0.0-1.0-272.0","0","0","64190","","null","","","null","30","","","","","","","","","","","","","","","",""
"","ISI","","html-keyboard-response","208","254582","0.0-1.0-273.0","0","0","64190","","null","","","null","30","NaN","","","","","","","","","","","","","","",""
"","S2","","html-keyboard-response","209","254742","0.0-1.0-274.0","0","0","64190","","null","","","null","30","","NaN","","","","","","","","","","","","","",""
"","response","","html-keyboard-response","210","254927","0.0-1.0-275.0-0.0","0","0","64190","","181","","","75","30","","","1","30","training","adjacent","FE","6","5","O.jpg","M.jpg","0","0","1","",""
"","feedback","","html-keyboard-response","211","255936","0.0-1.0-276.0-0.0","0","0","64190","","null","","","null","30","","","","","","","","","","","","","","","",""
"","ITI","","html-keyboard-response","212","256949","0.0-1.0-279.0","0","0","64190","","null","","","null","30","","","","","","","","","","","","","","","NaN",""
"","S1","","html-keyboard-response","213","257110","0.0-1.0-281.0","0","0","64190","","null","","","null","31","","","","","","","","","","","","","","","",""
"","ISI","","html-keyboard-response","214","259120","0.0-1.0-282.0","0","0","64190","","null","","","null","31","NaN","","","","","","","","","","","","","","",""
"","S2","","html-keyboard-response","215","259280","0.0-1.0-283.0","0","0","64190","","null","","","null","31","","NaN","","","","","","","","","","","","","",""
"","response","","html-keyboard-response","216","259403","0.0-1.0-284.0-0.0","0","0","64190","","119","","","68","31","","","1","31","training","adjacent","BA","2","1","P.jpg","R.jpg","1","0","0","",""
"","feedback","","html-keyboard-response","217","260416","0.0-1.0-285.0-0.0","0","0","64190","","null","","","null","31","","","","","","","","","","","","","","","",""
"","time_out","","html-keyboard-response","218","262423","0.0-1.0-287.0-0.0","0","0","64190","","null","","","null","31","","","","","","","","","","","","","","","",""
"","ITI","","html-keyboard-response","219","263434","0.0-1.0-288.0","0","0","64190","","null","","","null","31","","","","","","","","","","","","","","","NaN",""
"","S1","","html-keyboard-response","220","263588","0.0-1.0-290.0","0","0","64190","","null","","","null","32","","","","","","","","","","","","","","","",""
"","ISI","","html-keyboard-response","221","265600","0.0-1.0-291.0","0","0","64190","","null","","","null","32","NaN","","","","","","","","","","","","","","",""
"","S2","","html-keyboard-response","222","265760","0.0-1.0-292.0","0","0","64190","","null","","","null","32","","NaN","","","","","","","","","","","","","",""
"","response","","html-keyboard-response","223","267170","0.0-1.0-293.0-0.0","0","0","64190","","1405","","","75","32","","","1","32","training","adjacent","GF","7","6","N.jpg","O.jpg","0","0","1","",""
"","feedback","","html-keyboard-response","224","268181","0.0-1.0-294.0-0.0","0","0","64190","","null","","","null","32","","","","","","","","","","","","","","","",""
"","ITI","","html-keyboard-response","225","269189","0.0-1.0-297.0","0","0","64190","","null","","","null","32","","","","","","","","","","","","","","","NaN",""
"","S1","","html-keyboard-response","226","269349","0.0-1.0-299.0","0","0","64190","","null","","","null","33","","","","","","","","","","","","","","","",""
"","ISI","","html-keyboard-response","227","271360","0.0-1.0-300.0","0","0","64190","","null","","","null","33","NaN","","","","","","","","","","","","","","",""
"","S2","","html-keyboard-response","228","271519","0.0-1.0-301.0","0","0","64190","","null","","","null","33","","NaN","","","","","","","","","","","","","",""
"","response","","html-keyboard-response","229","272141","0.0-1.0-302.0-0.0","0","0","64190","","617","","","75","33","","","1","33","training","adjacent","BA","2","1","P.jpg","R.jpg","0","0","1","",""
"","feedback","","html-keyboard-response","230","273152","0.0-1.0-303.0-0.0","0","0","64190","","null","","","null","33","","","","","","","","","","","","","","","",""
"","ITI","","html-keyboard-response","231","274167","0.0-1.0-306.0","0","0","64190","","null","","","null","33","","","","","","","","","","","","","","","NaN",""
"","S1","","html-keyboard-response","232","274330","0.0-1.0-308.0","0","0","64190","","null","","","null","34","","","","","","","","","","","","","","","",""
"","ISI","","html-keyboard-response","233","276341","0.0-1.0-309.0","0","0","64190","","null","","","null","34","NaN","","","","","","","","","","","","","","",""
"","S2","","html-keyboard-response","234","276502","0.0-1.0-310.0","0","0","64190","","null","","","null","34","","NaN","","","","","","","","","","","","","",""
"","response","","html-keyboard-response","235","277839","0.0-1.0-311.0-0.0","0","0","64190","","1333","","","75","34","","","1","34","training","adjacent","FG","6","7","O.jpg","N.jpg","0","1","0","",""
"","feedback","","html-keyboard-response","236","278849","0.0-1.0-312.0-0.0","0","0","64190","","null","","","null","34","","","","","","","","","","","","","","","",""
"","time_out","","html-keyboard-response","237","280865","0.0-1.0-314.0-0.0","0","0","64190","","null","","","null","34","","","","","","","","","","","","","","","",""
"","ITI","","html-keyboard-response","238","281882","0.0-1.0-315.0","0","0","64190","","null","","","null","34","","","","","","","","","","","","","","","NaN",""
"","S1","","html-keyboard-response","239","282049","0.0-1.0-317.0","0","0","64190","","null","","","null","35","","","","","","","","","","","","","","","",""
"","ISI","","html-keyboard-response","240","284065","0.0-1.0-318.0","0","0","64190","","1002","","","75","35","k","","","","","","","","","","","","","","",""
"","S2","","html-keyboard-response","241","284224","0.0-1.0-319.0","0","0","64190","","null","","","null","35","","NaN","","","","","","","","","","","","","",""
"","response","","html-keyboard-response","242","284622","0.0-1.0-320.0-0.0","0","0","64190","","394","","","75","35","","","1","35","training","adjacent","CD","3","4","L.jpg","Q.jpg","0","1","0","",""
"","feedback","","html-keyboard-response","243","285632","0.0-1.0-321.0-0.0","0","0","64190","","null","","","null","35","","","","","","","","","","","","","","","",""
"","time_out","","html-keyboard-response","244","287640","0.0-1.0-323.0-0.0","0","0","64190","","null","","","null","35","","","","","","","","","","","","","","","",""
"","ITI","","html-keyboard-response","245","288649","0.0-1.0-324.0","0","0","64190","","null","","","null","35","","","","","","","","","","","","","","","NaN",""
"","S1","","html-keyboard-response","246","288807","0.0-1.0-326.0","0","0","64190","","null","","","null","36","","","","","","","","","","","","","","","",""
"","ISI","","html-keyboard-response","247","290817","0.0-1.0-327.0","0","0","64190","","null","","","null","36","NaN","","","","","","","","","","","","","","",""
"","S2","","html-keyboard-response","248","290976","0.0-1.0-328.0","0","0","64190","","null","","","null","36","","NaN","","","","","","","","","","","","","",""
"","response","","html-keyboard-response","249","292424","0.0-1.0-329.0-0.0","0","0","64190","","1444","","","75","36","","","1","36","training","adjacent","EF","5","6","M.jpg","O.jpg","0","1","0","",""
"","feedback","","html-keyboard-response","250","293440","0.0-1.0-330.0-0.0","0","0","64190","","null","","","null","36","","","","","","","","","","","","","","","",""
"","time_out","","html-keyboard-response","251","295457","0.0-1.0-332.0-0.0","0","0","64190","","null","","","null","36","","","","","","","","","","","","","","","",""
"","ITI","","html-keyboard-response","252","296473","0.0-1.0-333.0","0","0","64190","","null","","","null","36","","","","","","","","","","","","","","","NaN",""
"","S1","","html-keyboard-response","253","296632","0.0-1.0-335.0","0","0","64190","","null","","","null","37","","","","","","","","","","","","","","","",""
"","ISI","","html-keyboard-response","254","298641","0.0-1.0-336.0","0","0","64190","","1388","","","75","37","k","","","","","","","","","","","","","","",""
"","S2","","html-keyboard-response","255","298799","0.0-1.0-337.0","0","0","64190","","null","","","null","37","","NaN","","","","","","","","","","","","","",""
"","response","","html-keyboard-response","256","298971","0.0-1.0-338.0-0.0","0","0","64190","","168","","","75","37","","","1","37","training","adjacent","AB","1","2","R.jpg","P.jpg","0","1","0","",""
"","feedback","","html-keyboard-response","257","299983","0.0-1.0-339.0-0.0","0","0","64190","","null","","","null","37","","","","","","","","","","","","","","","",""
"","time_out","","html-keyboard-response","258","301988","0.0-1.0-341.0-0.0","0","0","64190","","null","","","null","37","","","","","","","","","","","","","","","",""
"","ITI","","html-keyboard-response","259","302997","0.0-1.0-342.0","0","0","64190","","null","","","null","37","","","","","","","","","","","","","","","NaN",""
"","S1","","html-keyboard-response","260","303157","0.0-1.0-344.0","0","0","64190","","null","","","null","38","","","","","","","","","","","","","","","",""
"","ISI","","html-keyboard-response","261","305169","0.0-1.0-345.0","0","0","64190","","378","","","68","38","d","","","","","","","","","","","","","","",""
"","S2","","html-keyboard-response","262","305327","0.0-1.0-346.0","0","0","64190","","null","","","null","38","","NaN","","","","","","","","","","","","","",""
"","response","","html-keyboard-response","263","305949","0.0-1.0-347.0-0.0","0","0","64190","","617","","","75","38","","","1","38","training","adjacent","DE","4","5","Q.jpg","M.jpg","0","1","0","",""
"","feedback","","html-keyboard-response","264","306959","0.0-1.0-348.0-0.0","0","0","64190","","null","","","null","38","","","","","","","","","","","","","","","",""
"","time_out","","html-keyboard-response","265","308962","0.0-1.0-350.0-0.0","0","0","64190","","null","","","null","38","","","","","","","","","","","","","","","",""
"","ITI","","html-keyboard-response","266","309973","0.0-1.0-351.0","0","0","64190","","null","","","null","38","","","","","","","","","","","","","","","NaN",""
"","S1","","html-keyboard-response","267","310133","0.0-1.0-353.0","0","0","64190","","null","","","null","39","","","","","","","","","","","","","","","",""
"","ISI","","html-keyboard-response","268","312143","0.0-1.0-354.0","0","0","64190","","null","","","null","39","NaN","","","","","","","","","","","","","","",""
"","S2","","html-keyboard-response","269","312303","0.0-1.0-355.0","0","0","64190","","null","","","null","39","","NaN","","","","","","","","","","","","","",""
"","response","","html-keyboard-response","270","312769","0.0-1.0-356.0-0.0","0","0","64190","","462","","","75","39","","","1","39","training","adjacent","GF","7","6","N.jpg","O.jpg","0","0","1","",""
"","feedback","","html-keyboard-response","271","313781","0.0-1.0-357.0-0.0","0","0","64190","","null","","","null","39","","","","","","","","","","","","","","","",""
"","ITI","","html-keyboard-response","272","314789","0.0-1.0-360.0","0","0","64190","","null","","","null","39","","","","","","","","","","","","","","","NaN",""
"","S1","","html-keyboard-response","273","314949","0.0-1.0-362.0","0","0","64190","","null","","","null","40","","","","","","","","","","","","","","","",""
"","ISI","","html-keyboard-response","274","316959","0.0-1.0-363.0","0","0","64190","","null","","","null","40","NaN","","","","","","","","","","","","","","",""
"","S2","","html-keyboard-response","275","317119","0.0-1.0-364.0","0","0","64190","","null","","","null","40","","NaN","","","","","","","","","","","","","",""
"","response","","html-keyboard-response","276","317613","0.0-1.0-365.0-0.0","0","0","64190","","490","","","75","40","","","1","40","training","adjacent","FG","6","7","O.jpg","N.jpg","0","1","0","",""
"","feedback","","html-keyboard-response","277","318623","0.0-1.0-366.0-0.0","0","0","64190","","null","","","null","40","","","","","","","","","","","","","","","",""
"","time_out","","html-keyboard-response","278","320629","0.0-1.0-368.0-0.0","0","0","64190","","null","","","null","40","","","","","","","","","","","","","","","",""
"","ITI","","html-keyboard-response","279","321637","0.0-1.0-369.0","0","0","64190","","null","","","null","40","","","","","","","","","","","","","","","NaN",""
"","S1","","html-keyboard-response","280","321797","0.0-1.0-371.0","0","0","64190","","null","","","null","41","","","","","","","","","","","","","","","",""
"","ISI","","html-keyboard-response","281","323807","0.0-1.0-372.0","0","0","64190","","null","","","null","41","NaN","","","","","","","","","","","","","","",""
"","S2","","html-keyboard-response","282","323967","0.0-1.0-373.0","0","0","64190","","null","","","null","41","","NaN","","","","","","","","","","","","","",""
"","response","","html-keyboard-response","283","324143","0.0-1.0-374.0-0.0","0","0","64190","","172","","","75","41","","","1","41","training","adjacent","FG","6","7","O.jpg","N.jpg","0","1","0","",""
"","feedback","","html-keyboard-response","284","325150","0.0-1.0-375.0-0.0","0","0","64190","","null","","","null","41","","","","","","","","","","","","","","","",""
"","time_out","","html-keyboard-response","285","327157","0.0-1.0-377.0-0.0","0","0","64190","","null","","","null","41","","","","","","","","","","","","","","","",""
"","ITI","","html-keyboard-response","286","328164","0.0-1.0-378.0","0","0","64190","","null","","","null","41","","","","","","","","","","","","","","","NaN",""
"","S1","","html-keyboard-response","287","328328","0.0-1.0-380.0","0","0","64190","","null","","","null","42","","","","","","","","","","","","","","","",""
"","ISI","","html-keyboard-response","288","330341","0.0-1.0-381.0","0","0","64190","","1145","","","68","42","d","","","","","","","","","","","","","","",""
"","S2","","html-keyboard-response","289","330501","0.0-1.0-382.0","0","0","64190","","null","","","null","42","","NaN","","","","","","","","","","","","","",""
"","response","","html-keyboard-response","290","330745","0.0-1.0-383.0-0.0","0","0","64190","","240","","","68","42","","","1","42","training","adjacent","DE","4","5","Q.jpg","M.jpg","1","1","1","",""
"","feedback","","html-keyboard-response","291","331759","0.0-1.0-384.0-0.0","0","0","64190","","null","","","null","42","","","","","","","","","","","","","","","",""
"","ITI","","html-keyboard-response","292","332767","0.0-1.0-387.0","0","0","64190","","null","","","null","42","","","","","","","","","","","","","","","NaN",""
"","S1","","html-keyboard-response","293","332927","0.0-1.0-389.0","0","0","64190","","null","","","null","43","","","","","","","","","","","","","","","",""
"","ISI","","html-keyboard-response","294","334933","0.0-1.0-390.0","0","0","64190","","227","","","75","43","k","","","","","","","","","","","","","","",""
"","S2","","html-keyboard-response","295","335093","0.0-1.0-391.0","0","0","64190","","null","","","null","43","","NaN","","","","","","","","","","","","","",""
"","response","","html-keyboard-response","296","335379","0.0-1.0-392.0-0.0","0","0","64190","","282","","","75","43","","","1","43","training","adjacent","BC","2","3","P.jpg","L.jpg","0","1","0","",""
"","feedback","","html-keyboard-response","297","336389","0.0-1.0-393.0-0.0","0","0","64190","","null","","","null","43","","","","","","","","","","","","","","","",""
"","time_out","","html-keyboard-response","298","338399","0.0-1.0-395.0-0.0","0","0","64190","","null","","","null","43","","","","","","","","","","","","","","","",""
"","ITI","","html-keyboard-response","299","339407","0.0-1.0-396.0","0","0","64190","","null","","","null","43","","","","","","","","","","","","","","","NaN",""
"","S1","","html-keyboard-response","300","339567","0.0-1.0-398.0","0","0","64190","","null","","","null","44","","","","","","","","","","","","","","","",""
"","ISI","","html-keyboard-response","301","341573","0.0-1.0-399.0","0","0","64190","","194","","","68","44","d","","","","","","","","","","","","","","",""
"","S2","","html-keyboard-response","302","341732","0.0-1.0-400.0","0","0","64190","","null","","","null","44","","NaN","","","","","","","","","","","","","",""
"","response","","html-keyboard-response","303","341916","0.0-1.0-401.0-0.0","0","0","64190","","180","","","68","44","","","1","44","training","adjacent","CD","3","4","L.jpg","Q.jpg","1","1","1","",""
"","feedback","","html-keyboard-response","304","342927","0.0-1.0-402.0-0.0","0","0","64190","","null","","","null","44","","","","","","","","","","","","","","","",""
"","ITI","","html-keyboard-response","305","343935","0.0-1.0-405.0","0","0","64190","","null","","","null","44","","","","","","","","","","","","","","","NaN",""
"","S1","","html-keyboard-response","306","344095","0.0-1.0-407.0","0","0","64190","","null","","","null","45","","","","","","","","","","","","","","","",""
"","ISI","","html-keyboard-response","307","346100","0.0-1.0-408.0","0","0","64190","","null","","","null","45","NaN","","","","","","","","","","","","","","",""
"","S2","","html-keyboard-response","308","346260","0.0-1.0-409.0","0","0","64190","","null","","","null","45","","NaN","","","","","","","","","","","","","",""
"","response","","html-keyboard-response","309","347002","0.0-1.0-410.0-0.0","0","0","64190","","739","","","75","45","","","1","45","training","adjacent","BA","2","1","P.jpg","R.jpg","0","0","1","",""
"","feedback","","html-keyboard-response","310","348015","0.0-1.0-411.0-0.0","0","0","64190","","null","","","null","45","","","","","","","","","","","","","","","",""
"","ITI","","html-keyboard-response","311","349023","0.0-1.0-414.0","0","0","64190","","null","","","null","45","","","","","","","","","","","","","","","NaN",""
"","S1","","html-keyboard-response","312","349182","0.0-1.0-416.0","0","0","64190","","null","","","null","46","","","","","","","","","","","","","","","",""
"","ISI","","html-keyboard-response","313","351188","0.0-1.0-417.0","0","0","64190","","1968","","","68","46","d","","","","","","","","","","","","","","",""
"","S2","","html-keyboard-response","314","351349","0.0-1.0-418.0","0","0","64190","","null","","","null","46","","NaN","","","","","","","","","","","","","",""
"","response","","html-keyboard-response","315","351682","0.0-1.0-419.0-0.0","0","0","64190","","328","","","68","46","","","1","46","training","adjacent","CB","3","2","L.jpg","P.jpg","1","0","0","",""
"","feedback","","html-keyboard-response","316","352692","0.0-1.0-420.0-0.0","0","0","64190","","null","","","null","46","","","","","","","","","","","","","","","",""
"","time_out","","html-keyboard-response","317","354703","0.0-1.0-422.0-0.0","0","0","64190","","null","","","null","46","","","","","","","","","","","","","","","",""
"","ITI","","html-keyboard-response","318","355711","0.0-1.0-423.0","0","0","64190","","293","","","75","46","","","","","","","","","","","","","","","k",""
"","S1","","html-keyboard-response","319","355871","0.0-1.0-425.0","0","0","64190","","null","","","null","47","","","","","","","","","","","","","","","",""
"","ISI","","html-keyboard-response","320","357876","0.0-1.0-426.0","0","0","64190","","390","","","75","47","k","","","","","","","","","","","","","","",""
"","S2","","html-keyboard-response","321","358036","0.0-1.0-427.0","0","0","64190","","null","","","null","47","","NaN","","","","","","","","","","","","","",""
"","response","","html-keyboard-response","322","359892","0.0-1.0-428.0-0.0","0","0","64190","","null","","","null","47","","","1","47","training","adjacent","DC","4","3","Q.jpg","L.jpg","NaN","0","0","",""
"","too_slow_prompt","","html-keyboard-response","323","360900","0.0-1.0-430.0-0.0","1","0","64190","","null","","","null","","","","","","","","","","","","","","","","",""
"","time_out","","html-keyboard-response","324","362911","0.0-1.0-431.0-0.0","0","0","64190","","null","","","null","47","","","","","","","","","","","","","","","",""
"","ITI","","html-keyboard-response","325","363916","0.0-1.0-432.0","0","0","64190","","null","","","null","47","","","","","","","","","","","","","","","NaN",""
"","block_over","","html-keyboard-response","326","617333","0.0-1.0-433.0-0.0","0","0","64190","","253412","","","32","47","","","","","","","","","","","","","","","",""
"","S1","","html-keyboard-response","327","617492","0.0-1.0-434.0","0","0","64190","","null","","","null","48","","","","","","","","","","","","","","","",""
"","ISI","","html-keyboard-response","328","619502","0.0-1.0-435.0","0","0","64190","","null","","","null","48","NaN","","","","","","","","","","","","","","",""
"","S2","","html-keyboard-response","329","619664","0.0-1.0-436.0","0","0","64190","","null","","","null","48","","NaN","","","","","","","","","","","","","",""
"","response","","html-keyboard-response","330","620125","0.0-1.0-437.0-0.0","0","0","64190","","457","","","75","48","","","2","48","training","adjacent","BA","2","1","P.jpg","R.jpg","0","0","1","",""
"","feedback","","html-keyboard-response","331","621132","0.0-1.0-438.0-0.0","0","0","64190","","null","","","null","48","","","","","","","","","","","","","","","",""
"","ITI","","html-keyboard-response","332","622140","0.0-1.0-441.0","0","0","64190","","null","","","null","48","","","","","","","","","","","","","","","NaN",""
"","S1","","html-keyboard-response","333","622300","0.0-1.0-443.0","0","0","64190","","null","","","null","49","","","","","","","","","","","","","","","",""
"","ISI","","html-keyboard-response","334","624309","0.0-1.0-444.0","0","0","64190","","null","","","null","49","NaN","","","","","","","","","","","","","","",""
"","S2","","html-keyboard-response","335","624470","0.0-1.0-445.0","0","0","64190","","null","","","null","49","","NaN","","","","","","","","","","","","","",""
"","response","","html-keyboard-response","336","624787","0.0-1.0-446.0-0.0","0","0","64190","","312","","","75","49","","","2","49","training","adjacent","BC","2","3","P.jpg","L.jpg","0","1","0","",""
"","feedback","","html-keyboard-response","337","625798","0.0-1.0-447.0-0.0","0","0","64190","","null","","","null","49","","","","","","","","","","","","","","","",""
"","time_out","","html-keyboard-response","338","627807","0.0-1.0-449.0-0.0","0","0","64190","","null","","","null","49","","","","","","","","","","","","","","","",""
"","ITI","","html-keyboard-response","339","628823","0.0-1.0-450.0","0","0","64190","","null","","","null","49","","","","","","","","","","","","","","","NaN",""
"","S1","","html-keyboard-response","340","628982","0.0-1.0-452.0","0","0","64190","","null","","","null","50","","","","","","","","","","","","","","","",""
"","ISI","","html-keyboard-response","341","630992","0.0-1.0-453.0","0","0","64190","","148","","","68","50","d","","","","","","","","","","","","","","",""
"","S2","","html-keyboard-response","342","631159","0.0-1.0-454.0","0","0","64190","","null","","","null","50","","NaN","","","","","","","","","","","","","",""
"","response","","html-keyboard-response","343","631272","0.0-1.0-455.0-0.0","0","0","64190","","108","","","68","50","","","2","50","training","adjacent","CB","3","2","L.jpg","P.jpg","1","0","0","",""
"","feedback","","html-keyboard-response","344","632283","0.0-1.0-456.0-0.0","0","0","64190","","null","","","null","50","","","","","","","","","","","","","","","",""
"","time_out","","html-keyboard-response","345","634294","0.0-1.0-458.0-0.0","0","0","64190","","null","","","null","50","","","","","","","","","","","","","","","",""
"","ITI","","html-keyboard-response","346","635302","0.0-1.0-459.0","0","0","64190","","null","","","null","50","","","","","","","","","","","","","","","NaN",""
"","S1","","html-keyboard-response","347","635461","0.0-1.0-461.0","0","0","64190","","null","","","null","51","","","","","","","","","","","","","","","",""
"","ISI","","html-keyboard-response","348","637467","0.0-1.0-462.0","0","0","64190","","null","","","null","51","NaN","","","","","","","","","","","","","","",""
"","S2","","html-keyboard-response","349","637627","0.0-1.0-463.0","0","0","64190","","null","","","null","51","","NaN","","","","","","","","","","","","","",""
"","response","","html-keyboard-response","350","637776","0.0-1.0-464.0-0.0","0","0","64190","","145","","","75","51","","","2","51","training","adjacent","FG","6","7","O.jpg","N.jpg","0","1","0","",""
"","feedback","","html-keyboard-response","351","638790","0.0-1.0-465.0-0.0","0","0","64190","","null","","","null","51","","","","","","","","","","","","","","","",""
"","time_out","","html-keyboard-response","352","640795","0.0-1.0-467.0-0.0","0","0","64190","","null","","","null","51","","","","","","","","","","","","","","","",""
"","ITI","","html-keyboard-response","353","641803","0.0-1.0-468.0","0","0","64190","","null","","","null","51","","","","","","","","","","","","","","","NaN",""
"","S1","","html-keyboard-response","354","641963","0.0-1.0-470.0","0","0","64190","","null","","","null","52","","","","","","","","","","","","","","","",""
"","ISI","","html-keyboard-response","355","643974","0.0-1.0-471.0","0","0","64190","","192","","","68","52","d","","","","","","","","","","","","","","",""
"","S2","","html-keyboard-response","356","644134","0.0-1.0-472.0","0","0","64190","","null","","","null","52","","NaN","","","","","","","","","","","","","",""
"","response","","html-keyboard-response","357","644216","0.0-1.0-473.0-0.0","0","0","64190","","78","","","68","52","","","2","52","training","adjacent","AB","1","2","R.jpg","P.jpg","1","1","1","",""
"","feedback","","html-keyboard-response","358","645227","0.0-1.0-474.0-0.0","0","0","64190","","null","","","null","52","","","","","","","","","","","","","","","",""
"","ITI","","html-keyboard-response","359","646235","0.0-1.0-477.0","0","0","64190","","null","","","null","52","","","","","","","","","","","","","","","NaN",""
"","S1","","html-keyboard-response","360","646394","0.0-1.0-479.0","0","0","64190","","null","","","null","53","","","","","","","","","","","","","","","",""
"","ISI","","html-keyboard-response","361","648406","0.0-1.0-480.0","0","0","64190","","null","","","null","53","NaN","","","","","","","","","","","","","","",""
"","S2","","html-keyboard-response","362","648566","0.0-1.0-481.0","0","0","64190","","null","","","null","53","","NaN","","","","","","","","","","","","","",""
"","response","","html-keyboard-response","363","649194","0.0-1.0-482.0-0.0","0","0","64190","","626","","","75","53","","","2","53","training","adjacent","DC","4","3","Q.jpg","L.jpg","0","0","1","",""
"","feedback","","html-keyboard-response","364","650203","0.0-1.0-483.0-0.0","0","0","64190","","null","","","null","53","","","","","","","","","","","","","","","",""
"","ITI","","html-keyboard-response","365","651209","0.0-1.0-486.0","0","0","64190","","null","","","null","53","","","","","","","","","","","","","","","NaN",""
"","S1","","html-keyboard-response","366","651366","0.0-1.0-488.0","0","0","64190","","null","","","null","54","","","","","","","","","","","","","","","",""
"","ISI","","html-keyboard-response","367","653371","0.0-1.0-489.0","0","0","64190","","null","","","null","54","NaN","","","","","","","","","","","","","","",""
"","S2","","html-keyboard-response","368","653532","0.0-1.0-490.0","0","0","64190","","null","","","null","54","","NaN","","","","","","","","","","","","","",""
"","response","","html-keyboard-response","369","653845","0.0-1.0-491.0-0.0","0","0","64190","","309","","","75","54","","","2","54","training","adjacent","BC","2","3","P.jpg","L.jpg","0","1","0","",""
"","feedback","","html-keyboard-response","370","654854","0.0-1.0-492.0-0.0","0","0","64190","","null","","","null","54","","","","","","","","","","","","","","","",""
"","time_out","","html-keyboard-response","371","656870","0.0-1.0-494.0-0.0","0","0","64190","","null","","","null","54","","","","","","","","","","","","","","","",""
"","ITI","","html-keyboard-response","372","657878","0.0-1.0-495.0","0","0","64190","","null","","","null","54","","","","","","","","","","","","","","","NaN",""
"","S1","","html-keyboard-response","373","658038","0.0-1.0-497.0","0","0","64190","","null","","","null","55","","","","","","","","","","","","","","","",""
"","ISI","","html-keyboard-response","374","660043","0.0-1.0-498.0","0","0","64190","","340","","","68","55","d","","","","","","","","","","","","","","",""
"","S2","","html-keyboard-response","375","660203","0.0-1.0-499.0","0","0","64190","","null","","","null","55","","NaN","","","","","","","","","","","","","",""
"","response","","html-keyboard-response","376","660325","0.0-1.0-500.0-0.0","0","0","64190","","117","","","68","55","","","2","55","training","adjacent","DE","4","5","Q.jpg","M.jpg","1","1","1","",""
"","feedback","","html-keyboard-response","377","661334","0.0-1.0-501.0-0.0","0","0","64190","","null","","","null","55","","","","","","","","","","","","","","","",""
"","ITI","","html-keyboard-response","378","662347","0.0-1.0-504.0","0","0","64190","","null","","","null","55","","","","","","","","","","","","","","","NaN",""
"","S1","","html-keyboard-response","379","662507","0.0-1.0-506.0","0","0","64190","","null","","","null","56","","","","","","","","","","","","","","","",""
"","ISI","","html-keyboard-response","380","664517","0.0-1.0-507.0","0","0","64190","","null","","","null","56","NaN","","","","","","","","","","","","","","",""
"","S2","","html-keyboard-response","381","664677","0.0-1.0-508.0","0","0","64190","","null","","","null","56","","NaN","","","","","","","","","","","","","",""
"","response","","html-keyboard-response","382","665294","0.0-1.0-509.0-0.0","0","0","64190","","614","","","75","56","","","2","56","training","adjacent","DE","4","5","Q.jpg","M.jpg","0","1","0","",""
"","feedback","","html-keyboard-response","383","666310","0.0-1.0-510.0-0.0","0","0","64190","","null","","","null","56","","","","","","","","","","","","","","","",""
"","time_out","","html-keyboard-response","384","668315","0.0-1.0-512.0-0.0","0","0","64190","","null","","","null","56","","","","","","","","","","","","","","","",""
"","ITI","","html-keyboard-response","385","669323","0.0-1.0-513.0","0","0","64190","","null","","","null","56","","","","","","","","","","","","","","","NaN",""
"","S1","","html-keyboard-response","386","669487","0.0-1.0-515.0","0","0","64190","","null","","","null","57","","","","","","","","","","","","","","","",""
"","ISI","","html-keyboard-response","387","671503","0.0-1.0-516.0","0","0","64190","","136","","","68","57","d","","","","","","","","","","","","","","",""
"","S2","","html-keyboard-response","388","671661","0.0-1.0-517.0","0","0","64190","","null","","","null","57","","NaN","","","","","","","","","","","","","",""
"","response","","html-keyboard-response","389","671777","0.0-1.0-518.0-0.0","0","0","64190","","112","","","68","57","","","2","57","training","adjacent","CB","3","2","L.jpg","P.jpg","1","0","0","",""
"","feedback","","html-keyboard-response","390","672790","0.0-1.0-519.0-0.0","0","0","64190","","null","","","null","57","","","","","","","","","","","","","","","",""
"","time_out","","html-keyboard-response","391","674806","0.0-1.0-521.0-0.0","0","0","64190","","null","","","null","57","","","","","","","","","","","","","","","",""
"","ITI","","html-keyboard-response","392","675813","0.0-1.0-522.0","0","0","64190","","null","","","null","57","","","","","","","","","","","","","","","NaN",""
"","S1","","html-keyboard-response","393","675974","0.0-1.0-524.0","0","0","64190","","null","","","null","58","","","","","","","","","","","","","","","",""
"","ISI","","html-keyboard-response","394","677979","0.0-1.0-525.0","0","0","64190","","null","","","null","58","NaN","","","","","","","","","","","","","","",""
"","S2","","html-keyboard-response","395","678139","0.0-1.0-526.0","0","0","64190","","null","","","null","58","","NaN","","","","","","","","","","","","","",""
"","response","","html-keyboard-response","396","678705","0.0-1.0-527.0-0.0","0","0","64190","","561","","","75","58","","","2","58","training","adjacent","BC","2","3","P.jpg","L.jpg","0","1","0","",""
"","feedback","","html-keyboard-response","397","679718","0.0-1.0-528.0-0.0","0","0","64190","","null","","","null","58","","","","","","","","","","","","","","","",""
"","time_out","","html-keyboard-response","398","681734","0.0-1.0-530.0-0.0","0","0","64190","","null","","","null","58","","","","","","","","","","","","","","","",""
"","ITI","","html-keyboard-response","399","682741","0.0-1.0-531.0","0","0","64190","","null","","","null","58","","","","","","","","","","","","","","","NaN",""
"","S1","","html-keyboard-response","400","682902","0.0-1.0-533.0","0","0","64190","","null","","","null","59","","","","","","","","","","","","","","","",""
"","ISI","","html-keyboard-response","401","684907","0.0-1.0-534.0","0","0","64190","","null","","","null","59","NaN","","","","","","","","","","","","","","",""
"","S2","","html-keyboard-response","402","685067","0.0-1.0-535.0","0","0","64190","","null","","","null","59","","NaN","","","","","","","","","","","","","",""
"","response","","html-keyboard-response","403","685440","0.0-1.0-536.0-0.0","0","0","64190","","368","","","68","59","","","2","59","training","adjacent","GF","7","6","N.jpg","O.jpg","1","0","0","",""
"","feedback","","html-keyboard-response","404","686453","0.0-1.0-537.0-0.0","0","0","64190","","null","","","null","59","","","","","","","","","","","","","","","",""
"","time_out","","html-keyboard-response","405","688459","0.0-1.0-539.0-0.0","0","0","64190","","null","","","null","59","","","","","","","","","","","","","","","",""
"","ITI","","html-keyboard-response","406","689467","0.0-1.0-540.0","0","0","64190","","null","","","null","59","","","","","","","","","","","","","","","NaN",""
"","S1","","html-keyboard-response","407","689627","0.0-1.0-542.0","0","0","64190","","null","","","null","60","","","","","","","","","","","","","","","",""
"","ISI","","html-keyboard-response","408","691637","0.0-1.0-543.0","0","0","64190","","525","","","75","60","k","","","","","","","","","","","","","","",""
"","S2","","html-keyboard-response","409","691797","0.0-1.0-544.0","0","0","64190","","null","","","null","60","","NaN","","","","","","","","","","","","","",""
"","response","","html-keyboard-response","410","692975","0.0-1.0-545.0-0.0","0","0","64190","","1173","","","75","60","","","2","60","training","adjacent","CD","3","4","L.jpg","Q.jpg","0","1","0","",""
"","feedback","","html-keyboard-response","411","693989","0.0-1.0-546.0-0.0","0","0","64190","","null","","","null","60","","","","","","","","","","","","","","","",""
"","time_out","","html-keyboard-response","412","695995","0.0-1.0-548.0-0.0","0","0","64190","","null","","","null","60","","","","","","","","","","","","","","","",""
"","ITI","","html-keyboard-response","413","697003","0.0-1.0-549.0","0","0","64190","","null","","","null","60","","","","","","","","","","","","","","","NaN",""
"","S1","","html-keyboard-response","414","697163","0.0-1.0-551.0","0","0","64190","","null","","","null","61","","","","","","","","","","","","","","","",""
"","ISI","","html-keyboard-response","415","699173","0.0-1.0-552.0","0","0","64190","","486","","","68","61","d","","","","","","","","","","","","","","",""
"","S2","","html-keyboard-response","416","699334","0.0-1.0-553.0","0","0","64190","","null","","","null","61","","NaN","","","","","","","","","","","","","",""
"","response","","html-keyboard-response","417","701071","0.0-1.0-554.0-0.0","0","0","64190","","1733","","","75","61","","","2","61","training","adjacent","DC","4","3","Q.jpg","L.jpg","0","0","1","",""
"","feedback","","html-keyboard-response","418","702085","0.0-1.0-555.0-0.0","0","0","64190","","null","","","null","61","","","","","","","","","","","","","","","",""
"","ITI","","html-keyboard-response","419","703093","0.0-1.0-558.0","0","0","64190","","null","","","null","61","","","","","","","","","","","","","","","NaN",""
"","S1","","html-keyboard-response","420","703253","0.0-1.0-560.0","0","0","64190","","null","","","null","62","","","","","","","","","","","","","","","",""
"","ISI","","html-keyboard-response","421","705259","0.0-1.0-561.0","0","0","64190","","null","","","null","62","NaN","","","","","","","","","","","","","","",""
"","S2","","html-keyboard-response","422","705419","0.0-1.0-562.0","0","0","64190","","null","","","null","62","","NaN","","","","","","","","","","","","","",""
"","response","","html-keyboard-response","423","705672","0.0-1.0-563.0-0.0","0","0","64190","","248","","","68","62","","","2","62","training","adjacent","EF","5","6","M.jpg","O.jpg","1","1","1","",""
"","feedback","","html-keyboard-response","424","706683","0.0-1.0-564.0-0.0","0","0","64190","","null","","","null","62","","","","","","","","","","","","","","","",""
"","ITI","","html-keyboard-response","425","707689","0.0-1.0-567.0","0","0","64190","","null","","","null","62","","","","","","","","","","","","","","","NaN",""
"","S1","","html-keyboard-response","426","707851","0.0-1.0-569.0","0","0","64190","","null","","","null","63","","","","","","","","","","","","","","","",""
"","ISI","","html-keyboard-response","427","709861","0.0-1.0-570.0","0","0","64190","","null","","","null","63","NaN","","","","","","","","","","","","","","",""
"","S2","","html-keyboard-response","428","710022","0.0-1.0-571.0","0","0","64190","","null","","","null","63","","NaN","","","","","","","","","","","","","",""
"","response","","html-keyboard-response","429","710163","0.0-1.0-572.0-0.0","0","0","64190","","137","","","75","63","","","2","63","training","adjacent","GF","7","6","N.jpg","O.jpg","0","0","1","",""
"","feedback","","html-keyboard-response","430","711172","0.0-1.0-573.0-0.0","0","0","64190","","null","","","null","63","","","","","","","","","","","","","","","",""
"","ITI","","html-keyboard-response","431","712181","0.0-1.0-576.0","0","0","64190","","null","","","null","63","","","","","","","","","","","","","","","NaN",""
"","S1","","html-keyboard-response","432","712340","0.0-1.0-578.0","0","0","64190","","null","","","null","64","","","","","","","","","","","","","","","",""
"","ISI","","html-keyboard-response","433","714346","0.0-1.0-579.0","0","0","64190","","null","","","null","64","NaN","","","","","","","","","","","","","","",""
"","S2","","html-keyboard-response","434","714506","0.0-1.0-580.0","0","0","64190","","null","","","null","64","","NaN","","","","","","","","","","","","","",""
"","response","","html-keyboard-response","435","714634","0.0-1.0-581.0-0.0","0","0","64190","","123","","","75","64","","","2","64","training","adjacent","DC","4","3","Q.jpg","L.jpg","0","0","1","",""
"","feedback","","html-keyboard-response","436","715642","0.0-1.0-582.0-0.0","0","0","64190","","null","","","null","64","","","","","","","","","","","","","","","",""
"","ITI","","html-keyboard-response","437","716650","0.0-1.0-585.0","0","0","64190","","null","","","null","64","","","","","","","","","","","","","","","NaN",""
"","S1","","html-keyboard-response","438","716811","0.0-1.0-587.0","0","0","64190","","null","","","null","65","","","","","","","","","","","","","","","",""
"","ISI","","html-keyboard-response","439","718821","0.0-1.0-588.0","0","0","64190","","null","","","null","65","NaN","","","","","","","","","","","","","","",""
"","S2","","html-keyboard-response","440","718981","0.0-1.0-589.0","0","0","64190","","null","","","null","65","","NaN","","","","","","","","","","","","","",""
"","response","","html-keyboard-response","441","719446","0.0-1.0-590.0-0.0","0","0","64190","","461","","","68","65","","","2","65","training","adjacent","CD","3","4","L.jpg","Q.jpg","1","1","1","",""
"","feedback","","html-keyboard-response","442","720458","0.0-1.0-591.0-0.0","0","0","64190","","null","","","null","65","","","","","","","","","","","","","","","",""
"","ITI","","html-keyboard-response","443","721466","0.0-1.0-594.0","0","0","64190","","null","","","null","65","","","","","","","","","","","","","","","NaN",""
"","S1","","html-keyboard-response","444","721627","0.0-1.0-596.0","0","0","64190","","null","","","null","66","","","","","","","","","","","","","","","",""
"","ISI","","html-keyboard-response","445","723637","0.0-1.0-597.0","0","0","64190","","null","","","null","66","NaN","","","","","","","","","","","","","","",""
"","S2","","html-keyboard-response","446","723738","0.0-1.0-598.0","0","0","64190","","98","","","75","66","","k","2","66","training","adjacent","CB","3","2","L.jpg","P.jpg","0","0","1","",""
"","feedback","","html-keyboard-response","447","724747","0.0-1.0-600.0-0.0","0","0","64190","","null","","","null","66","","","","","","","","","","","","","","","",""
"","ITI","","html-keyboard-response","448","725755","0.0-1.0-603.0","0","0","64190","","null","","","null","66","","","","","","","","","","","","","","","NaN",""
"","S1","","html-keyboard-response","449","725914","0.0-1.0-605.0","0","0","64190","","null","","","null","67","","","","","","","","","","","","","","","",""
"","ISI","","html-keyboard-response","450","727925","0.0-1.0-606.0","0","0","64190","","null","","","null","67","NaN","","","","","","","","","","","","","","",""
"","S2","","html-keyboard-response","451","728085","0.0-1.0-607.0","0","0","64190","","null","","","null","67","","NaN","","","","","","","","","","","","","",""
"","response","","html-keyboard-response","452","728091","0.0-1.0-608.0-0.0","0","0","64190","","4","","","68","67","","","2","67","training","adjacent","BA","2","1","P.jpg","R.jpg","1","0","0","",""
"","feedback","","html-keyboard-response","453","729098","0.0-1.0-609.0-0.0","0","0","64190","","null","","","null","67","","","","","","","","","","","","","","","",""
"","time_out","","html-keyboard-response","454","731109","0.0-1.0-611.0-0.0","0","0","64190","","null","","","null","67","","","","","","","","","","","","","","","",""
"","ITI","","html-keyboard-response","455","732123","0.0-1.0-612.0","0","0","64190","","null","","","null","67","","","","","","","","","","","","","","","NaN",""
"","S1","","html-keyboard-response","456","732282","0.0-1.0-614.0","0","0","64190","","null","","","null","68","","","","","","","","","","","","","","","",""
"","ISI","","html-keyboard-response","457","734293","0.0-1.0-615.0","0","0","64190","","null","","","null","68","NaN","","","","","","","","","","","","","","",""
"","S2","","html-keyboard-response","458","734453","0.0-1.0-616.0","0","0","64190","","null","","","null","68","","NaN","","","","","","","","","","","","","",""
"","response","","html-keyboard-response","459","734645","0.0-1.0-617.0-0.0","0","0","64190","","187","","","75","68","","","2","68","training","adjacent","FE","6","5","O.jpg","M.jpg","0","0","1","",""
"","feedback","","html-keyboard-response","460","735663","0.0-1.0-618.0-0.0","0","0","64190","","null","","","null","68","","","","","","","","","","","","","","","",""
"","ITI","","html-keyboard-response","461","736677","0.0-1.0-621.0","0","0","64190","","null","","","null","68","","","","","","","","","","","","","","","NaN",""
"","S1","","html-keyboard-response","462","736837","0.0-1.0-623.0","0","0","64190","","null","","","null","69","","","","","","","","","","","","","","","",""
"","ISI","","html-keyboard-response","463","738842","0.0-1.0-624.0","0","0","64190","","null","","","null","69","NaN","","","","","","","","","","","","","","",""
"","S2","","html-keyboard-response","464","739002","0.0-1.0-625.0","0","0","64190","","null","","","null","69","","NaN","","","","","","","","","","","","","",""
"","response","","html-keyboard-response","465","739480","0.0-1.0-626.0-0.0","0","0","64190","","473","","","68","69","","","2","69","training","adjacent","FG","6","7","O.jpg","N.jpg","1","1","1","",""
"","feedback","","html-keyboard-response","466","740490","0.0-1.0-627.0-0.0","0","0","64190","","null","","","null","69","","","","","","","","","","","","","","","",""
"","ITI","","html-keyboard-response","467","741498","0.0-1.0-630.0","0","0","64190","","null","","","null","69","","","","","","","","","","","","","","","NaN",""
"","S1","","html-keyboard-response","468","741658","0.0-1.0-632.0","0","0","64190","","null","","","null","70","","","","","","","","","","","","","","","",""
"","ISI","","html-keyboard-response","469","743669","0.0-1.0-633.0","0","0","64190","","null","","","null","70","NaN","","","","","","","","","","","","","","",""
"","S2","","html-keyboard-response","470","743827","0.0-1.0-634.0","0","0","64190","","null","","","null","70","","NaN","","","","","","","","","","","","","",""
"","response","","html-keyboard-response","471","743961","0.0-1.0-635.0-0.0","0","0","64190","","129","","","75","70","","","2","70","training","adjacent","ED","5","4","M.jpg","Q.jpg","0","0","1","",""
"","feedback","","html-keyboard-response","472","744970","0.0-1.0-636.0-0.0","0","0","64190","","null","","","null","70","","","","","","","","","","","","","","","",""
"","ITI","","html-keyboard-response","473","745978","0.0-1.0-639.0","0","0","64190","","null","","","null","70","","","","","","","","","","","","","","","NaN",""
"","S1","","html-keyboard-response","474","746138","0.0-1.0-641.0","0","0","64190","","null","","","null","71","","","","","","","","","","","","","","","",""
"","ISI","","html-keyboard-response","475","748149","0.0-1.0-642.0","0","0","64190","","null","","","null","71","NaN","","","","","","","","","","","","","","",""
"","S2","","html-keyboard-response","476","748309","0.0-1.0-643.0","0","0","64190","","null","","","null","71","","NaN","","","","","","","","","","","","","",""
"","response","","html-keyboard-response","477","748443","0.0-1.0-644.0-0.0","0","0","64190","","129","","","68","71","","","2","71","training","adjacent","BA","2","1","P.jpg","R.jpg","1","0","0","",""
"","feedback","","html-keyboard-response","478","749450","0.0-1.0-645.0-0.0","0","0","64190","","null","","","null","71","","","","","","","","","","","","","","","",""
"","time_out","","html-keyboard-response","479","751461","0.0-1.0-647.0-0.0","0","0","64190","","null","","","null","71","","","","","","","","","","","","","","","",""
"","ITI","","html-keyboard-response","480","752469","0.0-1.0-648.0","0","0","64190","","null","","","null","71","","","","","","","","","","","","","","","NaN",""
"","S1","","html-keyboard-response","481","752629","0.0-1.0-650.0","0","0","64190","","null","","","null","72","","","","","","","","","","","","","","","",""
"","ISI","","html-keyboard-response","482","754634","0.0-1.0-651.0","0","0","64190","","null","","","null","72","NaN","","","","","","","","","","","","","","",""
"","S2","","html-keyboard-response","483","754794","0.0-1.0-652.0","0","0","64190","","null","","","null","72","","NaN","","","","","","","","","","","","","",""
"","response","","html-keyboard-response","484","754887","0.0-1.0-653.0-0.0","0","0","64190","","89","","","75","72","","","2","72","training","adjacent","FE","6","5","O.jpg","M.jpg","0","0","1","",""
"","feedback","","html-keyboard-response","485","755900","0.0-1.0-654.0-0.0","0","0","64190","","null","","","null","72","","","","","","","","","","","","","","","",""
"","ITI","","html-keyboard-response","486","756917","0.0-1.0-657.0","0","0","64190","","null","","","null","72","","","","","","","","","","","","","","","NaN",""
"","S1","","html-keyboard-response","487","757077","0.0-1.0-659.0","0","0","64190","","null","","","null","73","","","","","","","","","","","","","","","",""
"","ISI","","html-keyboard-response","488","759082","0.0-1.0-660.0","0","0","64190","","null","","","null","73","NaN","","","","","","","","","","","","","","",""
"","S2","","html-keyboard-response","489","759242","0.0-1.0-661.0","0","0","64190","","null","","","null","73","","NaN","","","","","","","","","","","","","",""
"","response","","html-keyboard-response","490","759505","0.0-1.0-662.0-0.0","0","0","64190","","258","","","68","73","","","2","73","training","adjacent","EF","5","6","M.jpg","O.jpg","1","1","1","",""
"","feedback","","html-keyboard-response","491","760517","0.0-1.0-663.0-0.0","0","0","64190","","null","","","null","73","","","","","","","","","","","","","","","",""
"","ITI","","html-keyboard-response","492","761530","0.0-1.0-666.0","0","0","64190","","null","","","null","73","","","","","","","","","","","","","","","NaN",""
"","S1","","html-keyboard-response","493","761690","0.0-1.0-668.0","0","0","64190","","null","","","null","74","","","","","","","","","","","","","","","",""
"","ISI","","html-keyboard-response","494","763701","0.0-1.0-669.0","0","0","64190","","null","","","null","74","NaN","","","","","","","","","","","","","","",""
"","S2","","html-keyboard-response","495","763861","0.0-1.0-670.0","0","0","64190","","null","","","null","74","","NaN","","","","","","","","","","","","","",""
"","response","","html-keyboard-response","496","763974","0.0-1.0-671.0-0.0","0","0","64190","","111","","","75","74","","","2","74","training","adjacent","FE","6","5","O.jpg","M.jpg","0","0","1","",""
"","feedback","","html-keyboard-response","497","764986","0.0-1.0-672.0-0.0","0","0","64190","","null","","","null","74","","","","","","","","","","","","","","","",""
"","ITI","","html-keyboard-response","498","765994","0.0-1.0-675.0","0","0","64190","","null","","","null","74","","","","","","","","","","","","","","","NaN",""
"","S1","","html-keyboard-response","499","766154","0.0-1.0-677.0","0","0","64190","","null","","","null","75","","","","","","","","","","","","","","","",""
"","ISI","","html-keyboard-response","500","768165","0.0-1.0-678.0","0","0","64190","","null","","","null","75","NaN","","","","","","","","","","","","","","",""
"","S2","","html-keyboard-response","501","768324","0.0-1.0-679.0","0","0","64190","","null","","","null","75","","NaN","","","","","","","","","","","","","",""
"","response","","html-keyboard-response","502","768479","0.0-1.0-680.0-0.0","0","0","64190","","149","","","68","75","","","2","75","training","adjacent","AB","1","2","R.jpg","P.jpg","1","1","1","",""
"","feedback","","html-keyboard-response","503","769493","0.0-1.0-681.0-0.0","0","0","64190","","null","","","null","75","","","","","","","","","","","","","","","",""
"","ITI","","html-keyboard-response","504","770506","0.0-1.0-684.0","0","0","64190","","null","","","null","75","","","","","","","","","","","","","","","NaN",""
"","S1","","html-keyboard-response","505","770666","0.0-1.0-686.0","0","0","64190","","null","","","null","76","","","","","","","","","","","","","","","",""
"","ISI","","html-keyboard-response","506","772676","0.0-1.0-687.0","0","0","64190","","1360","","","75","76","k","","","","","","","","","","","","","","",""
"","S2","","html-keyboard-response","507","772837","0.0-1.0-688.0","0","0","64190","","null","","","null","76","","NaN","","","","","","","","","","","","","",""
"","response","","html-keyboard-response","508","772992","0.0-1.0-689.0-0.0","0","0","64190","","150","","","75","76","","","2","76","training","adjacent","CD","3","4","L.jpg","Q.jpg","0","1","0","",""
"","feedback","","html-keyboard-response","509","774005","0.0-1.0-690.0-0.0","0","0","64190","","null","","","null","76","","","","","","","","","","","","","","","",""
"","time_out","","html-keyboard-response","510","776010","0.0-1.0-692.0-0.0","0","0","64190","","null","","","null","76","","","","","","","","","","","","","","","",""
"","ITI","","html-keyboard-response","511","777018","0.0-1.0-693.0","0","0","64190","","null","","","null","76","","","","","","","","","","","","","","","NaN",""
"","S1","","html-keyboard-response","512","777178","0.0-1.0-695.0","0","0","64190","","null","","","null","77","","","","","","","","","","","","","","","",""
"","ISI","","html-keyboard-response","513","779188","0.0-1.0-696.0","0","0","64190","","null","","","null","77","NaN","","","","","","","","","","","","","","",""
"","S2","","html-keyboard-response","514","779348","0.0-1.0-697.0","0","0","64190","","null","","","null","77","","NaN","","","","","","","","","","","","","",""
"","response","","html-keyboard-response","515","779717","0.0-1.0-698.0-0.0","0","0","64190","","364","","","68","77","","","2","77","training","adjacent","CD","3","4","L.jpg","Q.jpg","1","1","1","",""
"","feedback","","html-keyboard-response","516","780730","0.0-1.0-699.0-0.0","0","0","64190","","null","","","null","77","","","","","","","","","","","","","","","",""
"","ITI","","html-keyboard-response","517","781738","0.0-1.0-702.0","0","0","64190","","null","","","null","77","","","","","","","","","","","","","","","NaN",""
"","S1","","html-keyboard-response","518","781897","0.0-1.0-704.0","0","0","64190","","null","","","null","78","","","","","","","","","","","","","","","",""
"","ISI","","html-keyboard-response","519","783908","0.0-1.0-705.0","0","0","64190","","null","","","null","78","NaN","","","","","","","","","","","","","","",""
"","S2","","html-keyboard-response","520","784068","0.0-1.0-706.0","0","0","64190","","null","","","null","78","","NaN","","","","","","","","","","","","","",""
"","response","","html-keyboard-response","521","784153","0.0-1.0-707.0-0.0","0","0","64190","","81","","","75","78","","","2","78","training","adjacent","FE","6","5","O.jpg","M.jpg","0","0","1","",""
"","feedback","","html-keyboard-response","522","785162","0.0-1.0-708.0-0.0","0","0","64190","","null","","","null","78","","","","","","","","","","","","","","","",""
"","ITI","","html-keyboard-response","523","786175","0.0-1.0-711.0","0","0","64190","","null","","","null","78","","","","","","","","","","","","","","","NaN",""
"","S1","","html-keyboard-response","524","786341","0.0-1.0-713.0","0","0","64190","","null","","","null","79","","","","","","","","","","","","","","","",""
"","ISI","","html-keyboard-response","525","788346","0.0-1.0-714.0","0","0","64190","","null","","","null","79","NaN","","","","","","","","","","","","","","",""
"","S2","","html-keyboard-response","526","788506","0.0-1.0-715.0","0","0","64190","","null","","","null","79","","NaN","","","","","","","","","","","","","",""
"","response","","html-keyboard-response","527","788622","0.0-1.0-716.0-0.0","0","0","64190","","111","","","68","79","","","2","79","training","adjacent","BA","2","1","P.jpg","R.jpg","1","0","0","",""
"","feedback","","html-keyboard-response","528","789637","0.0-1.0-717.0-0.0","0","0","64190","","null","","","null","79","","","","","","","","","","","","","","","",""
"","time_out","","html-keyboard-response","529","791652","0.0-1.0-719.0-0.0","0","0","64190","","null","","","null","79","","","","","","","","","","","","","","","",""
"","ITI","","html-keyboard-response","530","792660","0.0-1.0-720.0","0","0","64190","","null","","","null","79","","","","","","","","","","","","","","","NaN",""
"","S1","","html-keyboard-response","531","792820","0.0-1.0-722.0","0","0","64190","","null","","","null","80","","","","","","","","","","","","","","","",""
"","ISI","","html-keyboard-response","532","794826","0.0-1.0-723.0","0","0","64190","","null","","","null","80","NaN","","","","","","","","","","","","","","",""
"","S2","","html-keyboard-response","533","794986","0.0-1.0-724.0","0","0","64190","","null","","","null","80","","NaN","","","","","","","","","","","","","",""
"","response","","html-keyboard-response","534","795102","0.0-1.0-725.0-0.0","0","0","64190","","111","","","75","80","","","2","80","training","adjacent","FG","6","7","O.jpg","N.jpg","0","1","0","",""
"","feedback","","html-keyboard-response","535","796116","0.0-1.0-726.0-0.0","0","0","64190","","null","","","null","80","","","","","","","","","","","","","","","",""
"","time_out","","html-keyboard-response","536","798126","0.0-1.0-728.0-0.0","0","0","64190","","null","","","null","80","","","","","","","","","","","","","","","",""
"","ITI","","html-keyboard-response","537","799140","0.0-1.0-729.0","0","0","64190","","null","","","null","80","","","","","","","","","","","","","","","NaN",""
"","S1","","html-keyboard-response","538","799300","0.0-1.0-731.0","0","0","64190","","null","","","null","81","","","","","","","","","","","","","","","",""
"","ISI","","html-keyboard-response","539","801302","0.0-1.0-732.0","0","0","64190","","null","","","null","81","NaN","","","","","","","","","","","","","","",""
"","S2","","html-keyboard-response","540","801457","0.0-1.0-733.0","0","0","64190","","null","","","null","81","","NaN","","","","","","","","","","","","","",""
"","response","","html-keyboard-response","541","801649","0.0-1.0-734.0-0.0","0","0","64190","","187","","","68","81","","","2","81","training","adjacent","DC","4","3","Q.jpg","L.jpg","1","0","0","",""
"","feedback","","html-keyboard-response","542","802661","0.0-1.0-735.0-0.0","0","0","64190","","null","","","null","81","","","","","","","","","","","","","","","",""
"","time_out","","html-keyboard-response","543","804676","0.0-1.0-737.0-0.0","0","0","64190","","null","","","null","81","","","","","","","","","","","","","","","",""
"","ITI","","html-keyboard-response","544","805689","0.0-1.0-738.0","0","0","64190","","null","","","null","81","","","","","","","","","","","","","","","NaN",""
"","S1","","html-keyboard-response","545","805850","0.0-1.0-740.0","0","0","64190","","null","","","null","82","","","","","","","","","","","","","","","",""
"","ISI","","html-keyboard-response","546","807860","0.0-1.0-741.0","0","0","64190","","null","","","null","82","NaN","","","","","","","","","","","","","","",""
"","S2","","html-keyboard-response","547","808021","0.0-1.0-742.0","0","0","64190","","null","","","null","82","","NaN","","","","","","","","","","","","","",""
"","response","","html-keyboard-response","548","808423","0.0-1.0-743.0-0.0","0","0","64190","","397","","","75","82","","","2","82","training","adjacent","DE","4","5","Q.jpg","M.jpg","0","1","0","",""
"","feedback","","html-keyboard-response","549","809434","0.0-1.0-744.0-0.0","0","0","64190","","null","","","null","82","","","","","","","","","","","","","","","",""
"","time_out","","html-keyboard-response","550","811444","0.0-1.0-746.0-0.0","0","0","64190","","null","","","null","82","","","","","","","","","","","","","","","",""
"","ITI","","html-keyboard-response","551","812452","0.0-1.0-747.0","0","0","64190","","null","","","null","82","","","","","","","","","","","","","","","NaN",""
"","S1","","html-keyboard-response","552","812612","0.0-1.0-749.0","0","0","64190","","null","","","null","83","","","","","","","","","","","","","","","",""
"","ISI","","html-keyboard-response","553","814617","0.0-1.0-750.0","0","0","64190","","528","","","68","83","d","","","","","","","","","","","","","","",""
"","S2","","html-keyboard-response","554","814778","0.0-1.0-751.0","0","0","64190","","null","","","null","83","","NaN","","","","","","","","","","","","","",""
"","response","","html-keyboard-response","555","814897","0.0-1.0-752.0-0.0","0","0","64190","","115","","","75","83","","","2","83","training","adjacent","FG","6","7","O.jpg","N.jpg","0","1","0","",""
"","feedback","","html-keyboard-response","556","815908","0.0-1.0-753.0-0.0","0","0","64190","","null","","","null","83","","","","","","","","","","","","","","","",""
"","time_out","","html-keyboard-response","557","817924","0.0-1.0-755.0-0.0","0","0","64190","","null","","","null","83","","","","","","","","","","","","","","","",""
"","ITI","","html-keyboard-response","558","818932","0.0-1.0-756.0","0","0","64190","","null","","","null","83","","","","","","","","","","","","","","","NaN",""
"","S1","","html-keyboard-response","559","819092","0.0-1.0-758.0","0","0","64190","","null","","","null","84","","","","","","","","","","","","","","","",""
"","ISI","","html-keyboard-response","560","821097","0.0-1.0-759.0","0","0","64190","","251","","","68","84","d","","","","","","","","","","","","","","",""
"","S2","","html-keyboard-response","561","821257","0.0-1.0-760.0","0","0","64190","","null","","","null","84","","NaN","","","","","","","","","","","","","",""
"","response","","html-keyboard-response","562","822301","0.0-1.0-761.0-0.0","0","0","64190","","1038","","","68","84","","","2","84","training","adjacent","AB","1","2","R.jpg","P.jpg","1","1","1","",""
"","feedback","","html-keyboard-response","563","823316","0.0-1.0-762.0-0.0","0","0","64190","","null","","","null","84","","","","","","","","","","","","","","","",""
"","ITI","","html-keyboard-response","564","824329","0.0-1.0-765.0","0","0","64190","","null","","","null","84","","","","","","","","","","","","","","","NaN",""
"","S1","","html-keyboard-response","565","824488","0.0-1.0-767.0","0","0","64190","","null","","","null","85","","","","","","","","","","","","","","","",""
"","ISI","","html-keyboard-response","566","826500","0.0-1.0-768.0","0","0","64190","","null","","","null","85","NaN","","","","","","","","","","","","","","",""
"","S2","","html-keyboard-response","567","826660","0.0-1.0-769.0","0","0","64190","","null","","","null","85","","NaN","","","","","","","","","","","","","",""
"","response","","html-keyboard-response","568","826808","0.0-1.0-770.0-0.0","0","0","64190","","142","","","75","85","","","2","85","training","adjacent","EF","5","6","M.jpg","O.jpg","0","1","0","",""
"","feedback","","html-keyboard-response","569","827817","0.0-1.0-771.0-0.0","0","0","64190","","null","","","null","85","","","","","","","","","","","","","","","",""
"","time_out","","html-keyboard-response","570","829828","0.0-1.0-773.0-0.0","0","0","64190","","null","","","null","85","","","","","","","","","","","","","","","",""
"","ITI","","html-keyboard-response","571","830836","0.0-1.0-774.0","0","0","64190","","null","","","null","85","","","","","","","","","","","","","","","NaN",""
"","S1","","html-keyboard-response","572","830996","0.0-1.0-776.0","0","0","64190","","null","","","null","86","","","","","","","","","","","","","","","",""
"","ISI","","html-keyboard-response","573","833001","0.0-1.0-777.0","0","0","64190","","null","","","null","86","NaN","","","","","","","","","","","","","","",""
"","S2","","html-keyboard-response","574","833161","0.0-1.0-778.0","0","0","64190","","null","","","null","86","","NaN","","","","","","","","","","","","","",""
"","response","","html-keyboard-response","575","833712","0.0-1.0-779.0-0.0","0","0","64190","","547","","","68","86","","","2","86","training","adjacent","EF","5","6","M.jpg","O.jpg","1","1","1","",""
"","feedback","","html-keyboard-response","576","834724","0.0-1.0-780.0-0.0","0","0","64190","","null","","","null","86","","","","","","","","","","","","","","","",""
"","ITI","","html-keyboard-response","577","835737","0.0-1.0-783.0","0","0","64190","","null","","","null","86","","","","","","","","","","","","","","","NaN",""
"","S1","","html-keyboard-response","578","835897","0.0-1.0-785.0","0","0","64190","","null","","","null","87","","","","","","","","","","","","","","","",""
"","ISI","","html-keyboard-response","579","837908","0.0-1.0-786.0","0","0","64190","","null","","","null","87","NaN","","","","","","","","","","","","","","",""
"","S2","","html-keyboard-response","580","838068","0.0-1.0-787.0","0","0","64190","","null","","","null","87","","NaN","","","","","","","","","","","","","",""
"","response","","html-keyboard-response","581","838179","0.0-1.0-788.0-0.0","0","0","64190","","109","","","75","87","","","2","87","training","adjacent","GF","7","6","N.jpg","O.jpg","0","0","1","",""
"","feedback","","html-keyboard-response","582","839188","0.0-1.0-789.0-0.0","0","0","64190","","null","","","null","87","","","","","","","","","","","","","","","",""
"","ITI","","html-keyboard-response","583","840196","0.0-1.0-792.0","0","0","64190","","null","","","null","87","","","","","","","","","","","","","","","NaN",""
