"success","ttype","start_time","trial_type","trial_index","time_elapsed","internal_node_id","warning","missed_checkup","PID","view_history","rt","responses","repeat_instructions","key_press","index","keypress_isi","keypress_S2","block","trial_num","phase","group_type","pair_type","S1_stim","S2_stim","S1_img","S2_img","S1_chosen","S1_higher","accuracy","keypress_iti","total_bonus_tally"
"true","full_screen","d08052022hr1311","fullscreen","0","25281","0.0-0.0","0","0","76526","","","","","","","","","","","","","","","","","","","","","",""
"","instructions","","instructions","1","84450","0.0-1.0-0.0-0.0","0","0","76526","[{""page_index"":0,""viewing_time"":53416},{""page_index"":1,""viewing_time"":2210},{""page_index"":2,""viewing_time"":1891},{""page_index"":3,""viewing_time"":1649}]","59166","","","","","","","","","","","","","","","","","","","",""
"","comprehension_check","","survey-multi-choice","2","98745","0.0-1.0-0.0-1.0","0","0","76526","","14287","{""Q0"":""True"",""Q1"":""K"",""Q2"":""Once the second image appears and while the screen 'MAKE A CHOICE' is shown"",""Q3"":""Green mark"",""Q4"":""either D or K""}","1","","","","","","","","","","","","","","","","","",""
"","missed_instruction_checkup","","html-keyboard-response","3","101309","0.0-1.0-0.0-2.0-0.0","0","1","76526","","2558","","","32","","","","","","","","","","","","","","","","",""
"","instructions","","instructions","4","119970","0.0-1.0-0.1-0.1","0","0","76526","[{""page_index"":0,""viewing_time"":4356},{""page_index"":1,""viewing_time"":10230},{""page_index"":2,""viewing_time"":1874},{""page_index"":3,""viewing_time"":2198}]","18659","","","","","","","","","","","","","","","","","","","",""
"","comprehension_check","","survey-multi-choice","5","133462","0.0-1.0-0.1-1.1","0","0","76526","","13485","{""Q0"":""True"",""Q1"":""D"",""Q2"":"""",""Q3"":""Green mark"",""Q4"":""either D or K""}","1","","","","","","","","","","","","","","","","","",""
"","missed_instruction_checkup","","html-keyboard-response","6","135642","0.0-1.0-0.1-2.1-0.1","0","1","76526","","2176","","","32","","","","","","","","","","","","","","","","",""
"","instructions","","instructions","7","159269","0.0-1.0-0.2-0.2","0","0","76526","[{""page_index"":0,""viewing_time"":4582},{""page_index"":1,""viewing_time"":13251},{""page_index"":2,""viewing_time"":4372},{""page_index"":3,""viewing_time"":1420}]","23625","","","","","","","","","","","","","","","","","","","",""
"","comprehension_check","","survey-multi-choice","8","178495","0.0-1.0-0.2-1.2","0","0","76526","","19213","{""Q0"":""True"",""Q1"":""D"",""Q2"":""Once the second image appears and while the screen 'MAKE A CHOICE' is shown"",""Q3"":""Green mark"",""Q4"":""either D or K""}","0","","","","","","","","","","","","","","","","","",""
"","start_exp","","html-keyboard-response","9","180688","0.0-1.0-1.0","0","0","76526","","2190","","","32","","","","","","","","","","","","","","","","",""
"","S1","","html-keyboard-response","10","180941","0.0-1.0-2.0","0","0","76526","","null","","","null","0","","","","","","","","","","","","","","","",""
"","ISI","","html-keyboard-response","11","182945","0.0-1.0-3.0","0","0","76526","","null","","","null","0","NaN","","","","","","","","","","","","","","",""
"","S2","","html-keyboard-response","12","183200","0.0-1.0-4.0","0","0","76526","","null","","","null","0","","NaN","","","","","","","","","","","","","",""
"","response","","html-keyboard-response","13","184418","0.0-1.0-5.0-0.0","0","0","76526","","1216","","","68","0","","","1","0","training","adjacent","CD","3","4","L.jpg","N.jpg","1","1","1","",""
"","feedback","","html-keyboard-response","14","185423","0.0-1.0-6.0-0.0","0","0","76526","","null","","","null","0","","","","","","","","","","","","","","","",""
"","ITI","","html-keyboard-response","15","186427","0.0-1.0-9.0","0","0","76526","","null","","","null","0","","","","","","","","","","","","","","","NaN",""
"","S1","","html-keyboard-response","16","186680","0.0-1.0-11.0","0","0","76526","","null","","","null","1","","","","","","","","","","","","","","","",""
"","ISI","","html-keyboard-response","17","188682","0.0-1.0-12.0","0","0","76526","","null","","","null","1","NaN","","","","","","","","","","","","","","",""
"","S2","","html-keyboard-response","18","188938","0.0-1.0-13.0","0","0","76526","","null","","","null","1","","NaN","","","","","","","","","","","","","",""
"","response","","html-keyboard-response","19","189993","0.0-1.0-14.0-0.0","0","0","76526","","1053","","","68","1","","","1","1","training","adjacent","ED","5","4","P.jpg","N.jpg","1","0","0","",""
"","feedback","","html-keyboard-response","20","190997","0.0-1.0-15.0-0.0","0","0","76526","","null","","","null","1","","","","","","","","","","","","","","","",""
"","time_out","","html-keyboard-response","21","193003","0.0-1.0-17.0-0.0","0","0","76526","","null","","","null","1","","","","","","","","","","","","","","","",""
"","ITI","","html-keyboard-response","22","194007","0.0-1.0-18.0","0","0","76526","","null","","","null","1","","","","","","","","","","","","","","","NaN",""
"","S1","","html-keyboard-response","23","194260","0.0-1.0-20.0","0","0","76526","","null","","","null","2","","","","","","","","","","","","","","","",""
"","ISI","","html-keyboard-response","24","196264","0.0-1.0-21.0","0","0","76526","","null","","","null","2","NaN","","","","","","","","","","","","","","",""
"","S2","","html-keyboard-response","25","196520","0.0-1.0-22.0","0","0","76526","","null","","","null","2","","NaN","","","","","","","","","","","","","",""
"","response","","html-keyboard-response","26","197911","0.0-1.0-23.0-0.0","0","0","76526","","1388","","","68","2","","","1","2","training","adjacent","BC","2","3","M.jpg","L.jpg","1","1","1","",""
"","feedback","","html-keyboard-response","27","198914","0.0-1.0-24.0-0.0","0","0","76526","","null","","","null","2","","","","","","","","","","","","","","","",""
"","ITI","","html-keyboard-response","28","199917","0.0-1.0-27.0","0","0","76526","","null","","","null","2","","","","","","","","","","","","","","","NaN",""
"","S1","","html-keyboard-response","29","200170","0.0-1.0-29.0","0","0","76526","","null","","","null","3","","","","","","","","","","","","","","","",""
"","ISI","","html-keyboard-response","30","202173","0.0-1.0-30.0","0","0","76526","","null","","","null","3","NaN","","","","","","","","","","","","","","",""
"","S2","","html-keyboard-response","31","202427","0.0-1.0-31.0","0","0","76526","","null","","","null","3","","NaN","","","","","","","","","","","","","",""
"","response","","html-keyboard-response","32","203567","0.0-1.0-32.0-0.0","0","0","76526","","1137","","","68","3","","","1","3","training","adjacent","GF","7","6","Q.jpg","O.jpg","1","0","0","",""
"","feedback","","html-keyboard-response","33","204570","0.0-1.0-33.0-0.0","0","0","76526","","null","","","null","3","","","","","","","","","","","","","","","",""
"","time_out","","html-keyboard-response","34","206575","0.0-1.0-35.0-0.0","0","0","76526","","null","","","null","3","","","","","","","","","","","","","","","",""
"","ITI","","html-keyboard-response","35","207579","0.0-1.0-36.0","0","0","76526","","null","","","null","3","","","","","","","","","","","","","","","NaN",""
"","S1","","html-keyboard-response","36","207834","0.0-1.0-38.0","0","0","76526","","null","","","null","4","","","","","","","","","","","","","","","",""
"","ISI","","html-keyboard-response","37","209836","0.0-1.0-39.0","0","0","76526","","null","","","null","4","NaN","","","","","","","","","","","","","","",""
"","S2","","html-keyboard-response","38","210089","0.0-1.0-40.0","0","0","76526","","null","","","null","4","","NaN","","","","","","","","","","","","","",""
"","response","","html-keyboard-response","39","211079","0.0-1.0-41.0-0.0","0","0","76526","","987","","","68","4","","","1","4","training","adjacent","DC","4","3","N.jpg","L.jpg","1","0","0","",""
"","feedback","","html-keyboard-response","40","212083","0.0-1.0-42.0-0.0","0","0","76526","","null","","","null","4","","","","","","","","","","","","","","","",""
"","time_out","","html-keyboard-response","41","214085","0.0-1.0-44.0-0.0","0","0","76526","","null","","","null","4","","","","","","","","","","","","","","","",""
"","ITI","","html-keyboard-response","42","215089","0.0-1.0-45.0","0","0","76526","","null","","","null","4","","","","","","","","","","","","","","","NaN",""
"","S1","","html-keyboard-response","43","215342","0.0-1.0-47.0","0","0","76526","","null","","","null","5","","","","","","","","","","","","","","","",""
"","ISI","","html-keyboard-response","44","217344","0.0-1.0-48.0","0","0","76526","","null","","","null","5","NaN","","","","","","","","","","","","","","",""
"","S2","","html-keyboard-response","45","217598","0.0-1.0-49.0","0","0","76526","","null","","","null","5","","NaN","","","","","","","","","","","","","",""
"","response","","html-keyboard-response","46","218888","0.0-1.0-50.0-0.0","0","0","76526","","1287","","","75","5","","","1","5","training","adjacent","AB","1","2","R.jpg","M.jpg","0","1","0","",""
"","feedback","","html-keyboard-response","47","219891","0.0-1.0-51.0-0.0","0","0","76526","","null","","","null","5","","","","","","","","","","","","","","","",""
"","time_out","","html-keyboard-response","48","221894","0.0-1.0-53.0-0.0","0","0","76526","","null","","","null","5","","","","","","","","","","","","","","","",""
"","ITI","","html-keyboard-response","49","222897","0.0-1.0-54.0","0","0","76526","","null","","","null","5","","","","","","","","","","","","","","","NaN",""
"","S1","","html-keyboard-response","50","223150","0.0-1.0-56.0","0","0","76526","","null","","","null","6","","","","","","","","","","","","","","","",""
"","ISI","","html-keyboard-response","51","225153","0.0-1.0-57.0","0","0","76526","","null","","","null","6","NaN","","","","","","","","","","","","","","",""
"","S2","","html-keyboard-response","52","225420","0.0-1.0-58.0","0","0","76526","","null","","","null","6","","NaN","","","","","","","","","","","","","",""
"","response","","html-keyboard-response","53","226715","0.0-1.0-59.0-0.0","0","0","76526","","1292","","","68","6","","","1","6","training","adjacent","CB","3","2","L.jpg","M.jpg","1","0","0","",""
"","feedback","","html-keyboard-response","54","227719","0.0-1.0-60.0-0.0","0","0","76526","","null","","","null","6","","","","","","","","","","","","","","","",""
"","time_out","","html-keyboard-response","55","229721","0.0-1.0-62.0-0.0","0","0","76526","","null","","","null","6","","","","","","","","","","","","","","","",""
"","ITI","","html-keyboard-response","56","230725","0.0-1.0-63.0","0","0","76526","","null","","","null","6","","","","","","","","","","","","","","","NaN",""
"","S1","","html-keyboard-response","57","230979","0.0-1.0-65.0","0","0","76526","","null","","","null","7","","","","","","","","","","","","","","","",""
"","ISI","","html-keyboard-response","58","232981","0.0-1.0-66.0","0","0","76526","","null","","","null","7","NaN","","","","","","","","","","","","","","",""
"","S2","","html-keyboard-response","59","233237","0.0-1.0-67.0","0","0","76526","","null","","","null","7","","NaN","","","","","","","","","","","","","",""
"","response","","html-keyboard-response","60","234301","0.0-1.0-68.0-0.0","0","0","76526","","1062","","","68","7","","","1","7","training","adjacent","FE","6","5","O.jpg","P.jpg","1","0","0","",""
"","feedback","","html-keyboard-response","61","235305","0.0-1.0-69.0-0.0","0","0","76526","","null","","","null","7","","","","","","","","","","","","","","","",""
"","time_out","","html-keyboard-response","62","237307","0.0-1.0-71.0-0.0","0","0","76526","","null","","","null","7","","","","","","","","","","","","","","","",""
"","ITI","","html-keyboard-response","63","238310","0.0-1.0-72.0","0","0","76526","","null","","","null","7","","","","","","","","","","","","","","","NaN",""
"","S1","","html-keyboard-response","64","238562","0.0-1.0-74.0","0","0","76526","","null","","","null","8","","","","","","","","","","","","","","","",""
"","ISI","","html-keyboard-response","65","240565","0.0-1.0-75.0","0","0","76526","","null","","","null","8","NaN","","","","","","","","","","","","","","",""
"","S2","","html-keyboard-response","66","240820","0.0-1.0-76.0","0","0","76526","","null","","","null","8","","NaN","","","","","","","","","","","","","",""
"","response","","html-keyboard-response","67","242318","0.0-1.0-77.0-0.0","0","0","76526","","1495","","","75","8","","","1","8","training","adjacent","DC","4","3","N.jpg","L.jpg","0","0","1","",""
"","feedback","","html-keyboard-response","68","243714","0.0-1.0-78.0-0.0","0","0","76526","","null","","","null","8","","","","","","","","","","","","","","","",""
"","ITI","","html-keyboard-response","69","244717","0.0-1.0-81.0","0","0","76526","","null","","","null","8","","","","","","","","","","","","","","","NaN",""
"","S1","","html-keyboard-response","70","244970","0.0-1.0-83.0","0","0","76526","","null","","","null","9","","","","","","","","","","","","","","","",""
"","ISI","","html-keyboard-response","71","246972","0.0-1.0-84.0","0","0","76526","","null","","","null","9","NaN","","","","","","","","","","","","","","",""
"","S2","","html-keyboard-response","72","247226","0.0-1.0-85.0","0","0","76526","","null","","","null","9","","NaN","","","","","","","","","","","","","",""
"","response","","html-keyboard-response","73","248532","0.0-1.0-86.0-0.0","0","0","76526","","1303","","","68","9","","","1","9","training","adjacent","EF","5","6","P.jpg","O.jpg","1","1","1","",""
"","feedback","","html-keyboard-response","74","249535","0.0-1.0-87.0-0.0","0","0","76526","","null","","","null","9","","","","","","","","","","","","","","","",""
"","ITI","","html-keyboard-response","75","250537","0.0-1.0-90.0","0","0","76526","","null","","","null","9","","","","","","","","","","","","","","","NaN",""
"","S1","","html-keyboard-response","76","250790","0.0-1.0-92.0","0","0","76526","","null","","","null","10","","","","","","","","","","","","","","","",""
"","ISI","","html-keyboard-response","77","252792","0.0-1.0-93.0","0","0","76526","","null","","","null","10","NaN","","","","","","","","","","","","","","",""
"","S2","","html-keyboard-response","78","253048","0.0-1.0-94.0","0","0","76526","","null","","","null","10","","NaN","","","","","","","","","","","","","",""
"","response","","html-keyboard-response","79","254462","0.0-1.0-95.0-0.0","0","0","76526","","1411","","","68","10","","","1","10","training","adjacent","DE","4","5","N.jpg","P.jpg","1","1","1","",""
"","feedback","","html-keyboard-response","80","255466","0.0-1.0-96.0-0.0","0","0","76526","","null","","","null","10","","","","","","","","","","","","","","","",""
"","ITI","","html-keyboard-response","81","256470","0.0-1.0-99.0","0","0","76526","","null","","","null","10","","","","","","","","","","","","","","","NaN",""
"","S1","","html-keyboard-response","82","256724","0.0-1.0-101.0","0","0","76526","","null","","","null","11","","","","","","","","","","","","","","","",""
"","ISI","","html-keyboard-response","83","258727","0.0-1.0-102.0","0","0","76526","","null","","","null","11","NaN","","","","","","","","","","","","","","",""
"","S2","","html-keyboard-response","84","258981","0.0-1.0-103.0","0","0","76526","","null","","","null","11","","NaN","","","","","","","","","","","","","",""
"","response","","html-keyboard-response","85","260110","0.0-1.0-104.0-0.0","0","0","76526","","1126","","","75","11","","","1","11","training","adjacent","FG","6","7","O.jpg","Q.jpg","0","1","0","",""
"","feedback","","html-keyboard-response","86","261112","0.0-1.0-105.0-0.0","0","0","76526","","null","","","null","11","","","","","","","","","","","","","","","",""
"","time_out","","html-keyboard-response","87","263115","0.0-1.0-107.0-0.0","0","0","76526","","null","","","null","11","","","","","","","","","","","","","","","",""
"","ITI","","html-keyboard-response","88","264118","0.0-1.0-108.0","0","0","76526","","null","","","null","11","","","","","","","","","","","","","","","NaN",""
"","S1","","html-keyboard-response","89","264371","0.0-1.0-110.0","0","0","76526","","null","","","null","12","","","","","","","","","","","","","","","",""
"","ISI","","html-keyboard-response","90","266373","0.0-1.0-111.0","0","0","76526","","null","","","null","12","NaN","","","","","","","","","","","","","","",""
"","S2","","html-keyboard-response","91","266626","0.0-1.0-112.0","0","0","76526","","null","","","null","12","","NaN","","","","","","","","","","","","","",""
"","response","","html-keyboard-response","92","267599","0.0-1.0-113.0-0.0","0","0","76526","","970","","","75","12","","","1","12","training","adjacent","ED","5","4","P.jpg","N.jpg","0","0","1","",""
"","feedback","","html-keyboard-response","93","268602","0.0-1.0-114.0-0.0","0","0","76526","","null","","","null","12","","","","","","","","","","","","","","","",""
"","ITI","","html-keyboard-response","94","269606","0.0-1.0-117.0","0","0","76526","","null","","","null","12","","","","","","","","","","","","","","","NaN",""
"","S1","","html-keyboard-response","95","269858","0.0-1.0-119.0","0","0","76526","","null","","","null","13","","","","","","","","","","","","","","","",""
"","ISI","","html-keyboard-response","96","271861","0.0-1.0-120.0","0","0","76526","","null","","","null","13","NaN","","","","","","","","","","","","","","",""
"","S2","","html-keyboard-response","97","272115","0.0-1.0-121.0","0","0","76526","","null","","","null","13","","NaN","","","","","","","","","","","","","",""
"","response","","html-keyboard-response","98","272960","0.0-1.0-122.0-0.0","0","0","76526","","841","","","75","13","","","1","13","training","adjacent","DC","4","3","N.jpg","L.jpg","0","0","1","",""
"","feedback","","html-keyboard-response","99","273963","0.0-1.0-123.0-0.0","0","0","76526","","null","","","null","13","","","","","","","","","","","","","","","",""
"","ITI","","html-keyboard-response","100","274966","0.0-1.0-126.0","0","0","76526","","null","","","null","13","","","","","","","","","","","","","","","NaN",""
"","S1","","html-keyboard-response","101","275218","0.0-1.0-128.0","0","0","76526","","null","","","null","14","","","","","","","","","","","","","","","",""
"","ISI","","html-keyboard-response","102","277222","0.0-1.0-129.0","0","0","76526","","null","","","null","14","NaN","","","","","","","","","","","","","","",""
"","S2","","html-keyboard-response","103","277475","0.0-1.0-130.0","0","0","76526","","null","","","null","14","","NaN","","","","","","","","","","","","","",""
"","response","","html-keyboard-response","104","278409","0.0-1.0-131.0-0.0","0","0","76526","","931","","","75","14","","","1","14","training","adjacent","FG","6","7","O.jpg","Q.jpg","0","1","0","",""
"","feedback","","html-keyboard-response","105","279411","0.0-1.0-132.0-0.0","0","0","76526","","null","","","null","14","","","","","","","","","","","","","","","",""
"","time_out","","html-keyboard-response","106","281414","0.0-1.0-134.0-0.0","0","0","76526","","null","","","null","14","","","","","","","","","","","","","","","",""
"","ITI","","html-keyboard-response","107","282417","0.0-1.0-135.0","0","0","76526","","null","","","null","14","","","","","","","","","","","","","","","NaN",""
"","S1","","html-keyboard-response","108","282670","0.0-1.0-137.0","0","0","76526","","null","","","null","15","","","","","","","","","","","","","","","",""
"","ISI","","html-keyboard-response","109","284673","0.0-1.0-138.0","0","0","76526","","null","","","null","15","NaN","","","","","","","","","","","","","","",""
"","S2","","html-keyboard-response","110","284926","0.0-1.0-139.0","0","0","76526","","null","","","null","15","","NaN","","","","","","","","","","","","","",""
"","response","","html-keyboard-response","111","286556","0.0-1.0-140.0-0.0","0","0","76526","","1628","","","68","15","","","1","15","training","adjacent","EF","5","6","P.jpg","O.jpg","1","1","1","",""
"","feedback","","html-keyboard-response","112","287559","0.0-1.0-141.0-0.0","0","0","76526","","null","","","null","15","","","","","","","","","","","","","","","",""
"","ITI","","html-keyboard-response","113","288562","0.0-1.0-144.0","0","0","76526","","null","","","null","15","","","","","","","","","","","","","","","NaN",""
"","S1","","html-keyboard-response","114","288816","0.0-1.0-146.0","0","0","76526","","null","","","null","16","","","","","","","","","","","","","","","",""
"","ISI","","html-keyboard-response","115","290819","0.0-1.0-147.0","0","0","76526","","null","","","null","16","NaN","","","","","","","","","","","","","","",""
"","S2","","html-keyboard-response","116","291074","0.0-1.0-148.0","0","0","76526","","null","","","null","16","","NaN","","","","","","","","","","","","","",""
"","response","","html-keyboard-response","117","292214","0.0-1.0-149.0-0.0","0","0","76526","","1136","","","75","16","","","1","16","training","adjacent","ED","5","4","P.jpg","N.jpg","0","0","1","",""
"","feedback","","html-keyboard-response","118","293217","0.0-1.0-150.0-0.0","0","0","76526","","null","","","null","16","","","","","","","","","","","","","","","",""
"","ITI","","html-keyboard-response","119","294219","0.0-1.0-153.0","0","0","76526","","null","","","null","16","","","","","","","","","","","","","","","NaN",""
"","S1","","html-keyboard-response","120","294473","0.0-1.0-155.0","0","0","76526","","null","","","null","17","","","","","","","","","","","","","","","",""
"","ISI","","html-keyboard-response","121","296475","0.0-1.0-156.0","0","0","76526","","null","","","null","17","NaN","","","","","","","","","","","","","","",""
"","S2","","html-keyboard-response","122","296728","0.0-1.0-157.0","0","0","76526","","null","","","null","17","","NaN","","","","","","","","","","","","","",""
"","response","","html-keyboard-response","123","297655","0.0-1.0-158.0-0.0","0","0","76526","","924","","","75","17","","","1","17","training","adjacent","FG","6","7","O.jpg","Q.jpg","0","1","0","",""
"","feedback","","html-keyboard-response","124","298658","0.0-1.0-159.0-0.0","0","0","76526","","null","","","null","17","","","","","","","","","","","","","","","",""
"","time_out","","html-keyboard-response","125","300660","0.0-1.0-161.0-0.0","0","0","76526","","null","","","null","17","","","","","","","","","","","","","","","",""
"","ITI","","html-keyboard-response","126","301663","0.0-1.0-162.0","0","0","76526","","null","","","null","17","","","","","","","","","","","","","","","NaN",""
"","S1","","html-keyboard-response","127","301916","0.0-1.0-164.0","0","0","76526","","null","","","null","18","","","","","","","","","","","","","","","",""
"","ISI","","html-keyboard-response","128","303919","0.0-1.0-165.0","0","0","76526","","null","","","null","18","NaN","","","","","","","","","","","","","","",""
"","S2","","html-keyboard-response","129","304172","0.0-1.0-166.0","0","0","76526","","null","","","null","18","","NaN","","","","","","","","","","","","","",""
"","response","","html-keyboard-response","130","305194","0.0-1.0-167.0-0.0","0","0","76526","","1019","","","68","18","","","1","18","training","adjacent","CD","3","4","L.jpg","N.jpg","1","1","1","",""
"","feedback","","html-keyboard-response","131","306197","0.0-1.0-168.0-0.0","0","0","76526","","null","","","null","18","","","","","","","","","","","","","","","",""
"","ITI","","html-keyboard-response","132","307199","0.0-1.0-171.0","0","0","76526","","null","","","null","18","","","","","","","","","","","","","","","NaN",""
"","S1","","html-keyboard-response","133","307452","0.0-1.0-173.0","0","0","76526","","null","","","null","19","","","","","","","","","","","","","","","",""
"","ISI","","html-keyboard-response","134","309454","0.0-1.0-174.0","0","0","76526","","null","","","null","19","NaN","","","","","","","","","","","","","","",""
"","S2","","html-keyboard-response","135","309709","0.0-1.0-175.0","0","0","76526","","null","","","null","19","","NaN","","","","","","","","","","","","","",""
"","response","","html-keyboard-response","136","310750","0.0-1.0-176.0-0.0","0","0","76526","","1039","","","75","19","","","1","19","training","adjacent","BA","2","1","M.jpg","R.jpg","0","0","1","",""
"","feedback","","html-keyboard-response","137","311753","0.0-1.0-177.0-0.0","0","0","76526","","null","","","null","19","","","","","","","","","","","","","","","",""
"","ITI","","html-keyboard-response","138","312757","0.0-1.0-180.0","0","0","76526","","null","","","null","19","","","","","","","","","","","","","","","NaN",""
"","S1","","html-keyboard-response","139","313010","0.0-1.0-182.0","0","0","76526","","null","","","null","20","","","","","","","","","","","","","","","",""
"","ISI","","html-keyboard-response","140","315013","0.0-1.0-183.0","0","0","76526","","null","","","null","20","NaN","","","","","","","","","","","","","","",""
"","S2","","html-keyboard-response","141","315267","0.0-1.0-184.0","0","0","76526","","null","","","null","20","","NaN","","","","","","","","","","","","","",""
"","response","","html-keyboard-response","142","316454","0.0-1.0-185.0-0.0","0","0","76526","","1186","","","68","20","","","1","20","training","adjacent","DE","4","5","N.jpg","P.jpg","1","1","1","",""
"","feedback","","html-keyboard-response","143","317457","0.0-1.0-186.0-0.0","0","0","76526","","null","","","null","20","","","","","","","","","","","","","","","",""
"","ITI","","html-keyboard-response","144","318460","0.0-1.0-189.0","0","0","76526","","null","","","null","20","","","","","","","","","","","","","","","NaN",""
"","S1","","html-keyboard-response","145","318713","0.0-1.0-191.0","0","0","76526","","null","","","null","21","","","","","","","","","","","","","","","",""
"","ISI","","html-keyboard-response","146","320716","0.0-1.0-192.0","0","0","76526","","null","","","null","21","NaN","","","","","","","","","","","","","","",""
"","S2","","html-keyboard-response","147","320970","0.0-1.0-193.0","0","0","76526","","null","","","null","21","","NaN","","","","","","","","","","","","","",""
"","response","","html-keyboard-response","148","322623","0.0-1.0-194.0-0.0","0","0","76526","","1651","","","75","21","","","1","21","training","adjacent","DC","4","3","N.jpg","L.jpg","0","0","1","",""
"","feedback","","html-keyboard-response","149","323626","0.0-1.0-195.0-0.0","0","0","76526","","null","","","null","21","","","","","","","","","","","","","","","",""
"","ITI","","html-keyboard-response","150","324629","0.0-1.0-198.0","0","0","76526","","null","","","null","21","","","","","","","","","","","","","","","NaN",""
"","S1","","html-keyboard-response","151","324882","0.0-1.0-200.0","0","0","76526","","null","","","null","22","","","","","","","","","","","","","","","",""
"","ISI","","html-keyboard-response","152","326885","0.0-1.0-201.0","0","0","76526","","null","","","null","22","NaN","","","","","","","","","","","","","","",""
"","S2","","html-keyboard-response","153","327138","0.0-1.0-202.0","0","0","76526","","null","","","null","22","","NaN","","","","","","","","","","","","","",""
"","response","","html-keyboard-response","154","328090","0.0-1.0-203.0-0.0","0","0","76526","","949","","","75","22","","","1","22","training","adjacent","BC","2","3","M.jpg","L.jpg","0","1","0","",""
"","feedback","","html-keyboard-response","155","329094","0.0-1.0-204.0-0.0","0","0","76526","","null","","","null","22","","","","","","","","","","","","","","","",""
"","time_out","","html-keyboard-response","156","331097","0.0-1.0-206.0-0.0","0","0","76526","","null","","","null","22","","","","","","","","","","","","","","","",""
"","ITI","","html-keyboard-response","157","332099","0.0-1.0-207.0","0","0","76526","","null","","","null","22","","","","","","","","","","","","","","","NaN",""
"","S1","","html-keyboard-response","158","332352","0.0-1.0-209.0","0","0","76526","","null","","","null","23","","","","","","","","","","","","","","","",""
"","ISI","","html-keyboard-response","159","334355","0.0-1.0-210.0","0","0","76526","","null","","","null","23","NaN","","","","","","","","","","","","","","",""
"","S2","","html-keyboard-response","160","334608","0.0-1.0-211.0","0","0","76526","","null","","","null","23","","NaN","","","","","","","","","","","","","",""
"","response","","html-keyboard-response","161","335798","0.0-1.0-212.0-0.0","0","0","76526","","1187","","","75","23","","","1","23","training","adjacent","FE","6","5","O.jpg","P.jpg","0","0","1","",""
"","feedback","","html-keyboard-response","162","336801","0.0-1.0-213.0-0.0","0","0","76526","","null","","","null","23","","","","","","","","","","","","","","","",""
"","ITI","","html-keyboard-response","163","337804","0.0-1.0-216.0","0","0","76526","","null","","","null","23","","","","","","","","","","","","","","","NaN",""
"","S1","","html-keyboard-response","164","338057","0.0-1.0-218.0","0","0","76526","","null","","","null","24","","","","","","","","","","","","","","","",""
"","ISI","","html-keyboard-response","165","340059","0.0-1.0-219.0","0","0","76526","","null","","","null","24","NaN","","","","","","","","","","","","","","",""
"","S2","","html-keyboard-response","166","340313","0.0-1.0-220.0","0","0","76526","","null","","","null","24","","NaN","","","","","","","","","","","","","",""
"","response","","html-keyboard-response","167","341169","0.0-1.0-221.0-0.0","0","0","76526","","853","","","75","24","","","1","24","training","adjacent","CB","3","2","L.jpg","M.jpg","0","0","1","",""
"","feedback","","html-keyboard-response","168","342178","0.0-1.0-222.0-0.0","0","0","76526","","null","","","null","24","","","","","","","","","","","","","","","",""
"","ITI","","html-keyboard-response","169","343181","0.0-1.0-225.0","0","0","76526","","null","","","null","24","","","","","","","","","","","","","","","NaN",""
"","S1","","html-keyboard-response","170","343434","0.0-1.0-227.0","0","0","76526","","null","","","null","25","","","","","","","","","","","","","","","",""
"","ISI","","html-keyboard-response","171","345437","0.0-1.0-228.0","0","0","76526","","null","","","null","25","NaN","","","","","","","","","","","","","","",""
"","S2","","html-keyboard-response","172","345690","0.0-1.0-229.0","0","0","76526","","null","","","null","25","","NaN","","","","","","","","","","","","","",""
"","response","","html-keyboard-response","173","346769","0.0-1.0-230.0-0.0","0","0","76526","","1077","","","75","25","","","1","25","training","adjacent","BC","2","3","M.jpg","L.jpg","0","1","0","",""
"","feedback","","html-keyboard-response","174","347773","0.0-1.0-231.0-0.0","0","0","76526","","null","","","null","25","","","","","","","","","","","","","","","",""
"","time_out","","html-keyboard-response","175","349776","0.0-1.0-233.0-0.0","0","0","76526","","null","","","null","25","","","","","","","","","","","","","","","",""
"","ITI","","html-keyboard-response","176","350778","0.0-1.0-234.0","0","0","76526","","null","","","null","25","","","","","","","","","","","","","","","NaN",""
"","S1","","html-keyboard-response","177","351031","0.0-1.0-236.0","0","0","76526","","null","","","null","26","","","","","","","","","","","","","","","",""
"","ISI","","html-keyboard-response","178","353039","0.0-1.0-237.0","0","0","76526","","null","","","null","26","NaN","","","","","","","","","","","","","","",""
"","S2","","html-keyboard-response","179","353294","0.0-1.0-238.0","0","0","76526","","null","","","null","26","","NaN","","","","","","","","","","","","","",""
"","response","","html-keyboard-response","180","354421","0.0-1.0-239.0-0.0","0","0","76526","","1124","","","68","26","","","1","26","training","adjacent","GF","7","6","Q.jpg","O.jpg","1","0","0","",""
"","feedback","","html-keyboard-response","181","355426","0.0-1.0-240.0-0.0","0","0","76526","","null","","","null","26","","","","","","","","","","","","","","","",""
"","time_out","","html-keyboard-response","182","357431","0.0-1.0-242.0-0.0","0","0","76526","","null","","","null","26","","","","","","","","","","","","","","","",""
"","ITI","","html-keyboard-response","183","358433","0.0-1.0-243.0","0","0","76526","","null","","","null","26","","","","","","","","","","","","","","","NaN",""
"","S1","","html-keyboard-response","184","358692","0.0-1.0-245.0","0","0","76526","","null","","","null","27","","","","","","","","","","","","","","","",""
"","ISI","","html-keyboard-response","185","360699","0.0-1.0-246.0","0","0","76526","","null","","","null","27","NaN","","","","","","","","","","","","","","",""
"","S2","","html-keyboard-response","186","360957","0.0-1.0-247.0","0","0","76526","","null","","","null","27","","NaN","","","","","","","","","","","","","",""
"","response","","html-keyboard-response","187","361900","0.0-1.0-248.0-0.0","0","0","76526","","940","","","75","27","","","1","27","training","adjacent","FE","6","5","O.jpg","P.jpg","0","0","1","",""
"","feedback","","html-keyboard-response","188","362904","0.0-1.0-249.0-0.0","0","0","76526","","null","","","null","27","","","","","","","","","","","","","","","",""
"","ITI","","html-keyboard-response","189","363908","0.0-1.0-252.0","0","0","76526","","null","","","null","27","","","","","","","","","","","","","","","NaN",""
"","S1","","html-keyboard-response","190","364161","0.0-1.0-254.0","0","0","76526","","null","","","null","28","","","","","","","","","","","","","","","",""
"","ISI","","html-keyboard-response","191","366164","0.0-1.0-255.0","0","0","76526","","null","","","null","28","NaN","","","","","","","","","","","","","","",""
"","S2","","html-keyboard-response","192","366418","0.0-1.0-256.0","0","0","76526","","null","","","null","28","","NaN","","","","","","","","","","","","","",""
"","response","","html-keyboard-response","193","367655","0.0-1.0-257.0-0.0","0","0","76526","","1234","","","75","28","","","1","28","training","adjacent","CB","3","2","L.jpg","M.jpg","0","0","1","",""
"","feedback","","html-keyboard-response","194","368658","0.0-1.0-258.0-0.0","0","0","76526","","null","","","null","28","","","","","","","","","","","","","","","",""
"","ITI","","html-keyboard-response","195","369662","0.0-1.0-261.0","0","0","76526","","null","","","null","28","","","","","","","","","","","","","","","NaN",""
"","S1","","html-keyboard-response","196","369917","0.0-1.0-263.0","0","0","76526","","null","","","null","29","","","","","","","","","","","","","","","",""
"","ISI","","html-keyboard-response","197","371921","0.0-1.0-264.0","0","0","76526","","null","","","null","29","NaN","","","","","","","","","","","","","","",""
"","S2","","html-keyboard-response","198","372175","0.0-1.0-265.0","0","0","76526","","null","","","null","29","","NaN","","","","","","","","","","","","","",""
"","response","","html-keyboard-response","199","373263","0.0-1.0-266.0-0.0","0","0","76526","","1085","","","75","29","","","1","29","training","adjacent","ED","5","4","P.jpg","N.jpg","0","0","1","",""
"","feedback","","html-keyboard-response","200","374267","0.0-1.0-267.0-0.0","0","0","76526","","null","","","null","29","","","","","","","","","","","","","","","",""
"","ITI","","html-keyboard-response","201","375271","0.0-1.0-270.0","0","0","76526","","null","","","null","29","","","","","","","","","","","","","","","NaN",""
"","S1","","html-keyboard-response","202","375525","0.0-1.0-272.0","0","0","76526","","null","","","null","30","","","","","","","","","","","","","","","",""
"","ISI","","html-keyboard-response","203","377528","0.0-1.0-273.0","0","0","76526","","null","","","null","30","NaN","","","","","","","","","","","","","","",""
"","S2","","html-keyboard-response","204","377784","0.0-1.0-274.0","0","0","76526","","null","","","null","30","","NaN","","","","","","","","","","","","","",""
"","response","","html-keyboard-response","205","379347","0.0-1.0-275.0-0.0","0","0","76526","","1559","","","75","30","","","1","30","training","adjacent","GF","7","6","Q.jpg","O.jpg","0","0","1","",""
"","feedback","","html-keyboard-response","206","380349","0.0-1.0-276.0-0.0","0","0","76526","","null","","","null","30","","","","","","","","","","","","","","","",""
"","ITI","","html-keyboard-response","207","381351","0.0-1.0-279.0","0","0","76526","","null","","","null","30","","","","","","","","","","","","","","","NaN",""
"","S1","","html-keyboard-response","208","381605","0.0-1.0-281.0","0","0","76526","","null","","","null","31","","","","","","","","","","","","","","","",""
"","ISI","","html-keyboard-response","209","383607","0.0-1.0-282.0","0","0","76526","","null","","","null","31","NaN","","","","","","","","","","","","","","",""
"","S2","","html-keyboard-response","210","383860","0.0-1.0-283.0","0","0","76526","","null","","","null","31","","NaN","","","","","","","","","","","","","",""
"","response","","html-keyboard-response","211","385329","0.0-1.0-284.0-0.0","0","0","76526","","1466","","","75","31","","","1","31","training","adjacent","FG","6","7","O.jpg","Q.jpg","0","1","0","",""
"","feedback","","html-keyboard-response","212","386332","0.0-1.0-285.0-0.0","0","0","76526","","null","","","null","31","","","","","","","","","","","","","","","",""
"","time_out","","html-keyboard-response","213","388335","0.0-1.0-287.0-0.0","0","0","76526","","null","","","null","31","","","","","","","","","","","","","","","",""
"","ITI","","html-keyboard-response","214","389339","0.0-1.0-288.0","0","0","76526","","null","","","null","31","","","","","","","","","","","","","","","NaN",""
"","S1","","html-keyboard-response","215","389593","0.0-1.0-290.0","0","0","76526","","null","","","null","32","","","","","","","","","","","","","","","",""
"","ISI","","html-keyboard-response","216","391595","0.0-1.0-291.0","0","0","76526","","null","","","null","32","NaN","","","","","","","","","","","","","","",""
"","S2","","html-keyboard-response","217","391848","0.0-1.0-292.0","0","0","76526","","null","","","null","32","","NaN","","","","","","","","","","","","","",""
"","response","","html-keyboard-response","218","392902","0.0-1.0-293.0-0.0","0","0","76526","","1051","","","75","32","","","1","32","training","adjacent","AB","1","2","R.jpg","M.jpg","0","1","0","",""
"","feedback","","html-keyboard-response","219","393905","0.0-1.0-294.0-0.0","0","0","76526","","null","","","null","32","","","","","","","","","","","","","","","",""
"","time_out","","html-keyboard-response","220","395908","0.0-1.0-296.0-0.0","0","0","76526","","null","","","null","32","","","","","","","","","","","","","","","",""
"","ITI","","html-keyboard-response","221","396910","0.0-1.0-297.0","0","0","76526","","null","","","null","32","","","","","","","","","","","","","","","NaN",""
"","S1","","html-keyboard-response","222","397163","0.0-1.0-299.0","0","0","76526","","null","","","null","33","","","","","","","","","","","","","","","",""
"","ISI","","html-keyboard-response","223","399166","0.0-1.0-300.0","0","0","76526","","null","","","null","33","NaN","","","","","","","","","","","","","","",""
"","S2","","html-keyboard-response","224","399420","0.0-1.0-301.0","0","0","76526","","null","","","null","33","","NaN","","","","","","","","","","","","","",""
"","response","","html-keyboard-response","225","400290","0.0-1.0-302.0-0.0","0","0","76526","","867","","","68","33","","","1","33","training","adjacent","DE","4","5","N.jpg","P.jpg","1","1","1","",""
"","feedback","","html-keyboard-response","226","401293","0.0-1.0-303.0-0.0","0","0","76526","","null","","","null","33","","","","","","","","","","","","","","","",""
"","ITI","","html-keyboard-response","227","402296","0.0-1.0-306.0","0","0","76526","","null","","","null","33","","","","","","","","","","","","","","","NaN",""
"","S1","","html-keyboard-response","228","402549","0.0-1.0-308.0","0","0","76526","","null","","","null","34","","","","","","","","","","","","","","","",""
"","ISI","","html-keyboard-response","229","404552","0.0-1.0-309.0","0","0","76526","","null","","","null","34","NaN","","","","","","","","","","","","","","",""
"","S2","","html-keyboard-response","230","404815","0.0-1.0-310.0","0","0","76526","","null","","","null","34","","NaN","","","","","","","","","","","","","",""
"","response","","html-keyboard-response","231","406438","0.0-1.0-311.0-0.0","0","0","76526","","1622","","","68","34","","","1","34","training","adjacent","AB","1","2","R.jpg","M.jpg","1","1","1","",""
"","feedback","","html-keyboard-response","232","407442","0.0-1.0-312.0-0.0","0","0","76526","","null","","","null","34","","","","","","","","","","","","","","","",""
"","ITI","","html-keyboard-response","233","408445","0.0-1.0-315.0","0","0","76526","","null","","","null","34","","","","","","","","","","","","","","","NaN",""
"","S1","","html-keyboard-response","234","408697","0.0-1.0-317.0","0","0","76526","","null","","","null","35","","","","","","","","","","","","","","","",""
"","ISI","","html-keyboard-response","235","410701","0.0-1.0-318.0","0","0","76526","","null","","","null","35","NaN","","","","","","","","","","","","","","",""
"","S2","","html-keyboard-response","236","410956","0.0-1.0-319.0","0","0","76526","","null","","","null","35","","NaN","","","","","","","","","","","","","",""
"","response","","html-keyboard-response","237","412143","0.0-1.0-320.0-0.0","0","0","76526","","1184","","","75","35","","","1","35","training","adjacent","BA","2","1","M.jpg","R.jpg","0","0","1","",""
"","feedback","","html-keyboard-response","238","413146","0.0-1.0-321.0-0.0","0","0","76526","","null","","","null","35","","","","","","","","","","","","","","","",""
"","ITI","","html-keyboard-response","239","414149","0.0-1.0-324.0","0","0","76526","","null","","","null","35","","","","","","","","","","","","","","","NaN",""
"","S1","","html-keyboard-response","240","414402","0.0-1.0-326.0","0","0","76526","","null","","","null","36","","","","","","","","","","","","","","","",""
"","ISI","","html-keyboard-response","241","416404","0.0-1.0-327.0","0","0","76526","","null","","","null","36","NaN","","","","","","","","","","","","","","",""
"","S2","","html-keyboard-response","242","416659","0.0-1.0-328.0","0","0","76526","","null","","","null","36","","NaN","","","","","","","","","","","","","",""
"","response","","html-keyboard-response","243","417602","0.0-1.0-329.0-0.0","0","0","76526","","940","","","68","36","","","1","36","training","adjacent","EF","5","6","P.jpg","O.jpg","1","1","1","",""
"","feedback","","html-keyboard-response","244","418606","0.0-1.0-330.0-0.0","0","0","76526","","null","","","null","36","","","","","","","","","","","","","","","",""
"","ITI","","html-keyboard-response","245","419609","0.0-1.0-333.0","0","0","76526","","null","","","null","36","","","","","","","","","","","","","","","NaN",""
"","S1","","html-keyboard-response","246","419862","0.0-1.0-335.0","0","0","76526","","null","","","null","37","","","","","","","","","","","","","","","",""
"","ISI","","html-keyboard-response","247","421865","0.0-1.0-336.0","0","0","76526","","null","","","null","37","NaN","","","","","","","","","","","","","","",""
"","S2","","html-keyboard-response","248","422118","0.0-1.0-337.0","0","0","76526","","null","","","null","37","","NaN","","","","","","","","","","","","","",""
"","response","","html-keyboard-response","249","423050","0.0-1.0-338.0-0.0","0","0","76526","","929","","","75","37","","","1","37","training","adjacent","FE","6","5","O.jpg","P.jpg","0","0","1","",""
"","feedback","","html-keyboard-response","250","424055","0.0-1.0-339.0-0.0","0","0","76526","","null","","","null","37","","","","","","","","","","","","","","","",""
"","ITI","","html-keyboard-response","251","425058","0.0-1.0-342.0","0","0","76526","","null","","","null","37","","","","","","","","","","","","","","","NaN",""
"","S1","","html-keyboard-response","252","425311","0.0-1.0-344.0","0","0","76526","","null","","","null","38","","","","","","","","","","","","","","","",""
"","ISI","","html-keyboard-response","253","427315","0.0-1.0-345.0","0","0","76526","","null","","","null","38","NaN","","","","","","","","","","","","","","",""
"","S2","","html-keyboard-response","254","427568","0.0-1.0-346.0","0","0","76526","","null","","","null","38","","NaN","","","","","","","","","","","","","",""
"","response","","html-keyboard-response","255","428714","0.0-1.0-347.0-0.0","0","0","76526","","1144","","","68","38","","","1","38","training","adjacent","DE","4","5","N.jpg","P.jpg","1","1","1","",""
"","feedback","","html-keyboard-response","256","429717","0.0-1.0-348.0-0.0","0","0","76526","","null","","","null","38","","","","","","","","","","","","","","","",""
"","ITI","","html-keyboard-response","257","430720","0.0-1.0-351.0","0","0","76526","","null","","","null","38","","","","","","","","","","","","","","","NaN",""
"","S1","","html-keyboard-response","258","430973","0.0-1.0-353.0","0","0","76526","","null","","","null","39","","","","","","","","","","","","","","","",""
"","ISI","","html-keyboard-response","259","432984","0.0-1.0-354.0","0","0","76526","","null","","","null","39","NaN","","","","","","","","","","","","","","",""
"","S2","","html-keyboard-response","260","433238","0.0-1.0-355.0","0","0","76526","","null","","","null","39","","NaN","","","","","","","","","","","","","",""
"","response","","html-keyboard-response","261","434110","0.0-1.0-356.0-0.0","0","0","76526","","870","","","68","39","","","1","39","training","adjacent","CD","3","4","L.jpg","N.jpg","1","1","1","",""
"","feedback","","html-keyboard-response","262","435114","0.0-1.0-357.0-0.0","0","0","76526","","null","","","null","39","","","","","","","","","","","","","","","",""
"","ITI","","html-keyboard-response","263","436116","0.0-1.0-360.0","0","0","76526","","null","","","null","39","","","","","","","","","","","","","","","NaN",""
"","S1","","html-keyboard-response","264","436368","0.0-1.0-362.0","0","0","76526","","null","","","null","40","","","","","","","","","","","","","","","",""
"","ISI","","html-keyboard-response","265","438372","0.0-1.0-363.0","0","0","76526","","null","","","null","40","NaN","","","","","","","","","","","","","","",""
"","S2","","html-keyboard-response","266","438626","0.0-1.0-364.0","0","0","76526","","null","","","null","40","","NaN","","","","","","","","","","","","","",""
"","response","","html-keyboard-response","267","439646","0.0-1.0-365.0-0.0","0","0","76526","","1017","","","75","40","","","1","40","training","adjacent","BC","2","3","M.jpg","L.jpg","0","1","0","",""
"","feedback","","html-keyboard-response","268","440649","0.0-1.0-366.0-0.0","0","0","76526","","null","","","null","40","","","","","","","","","","","","","","","",""
"","time_out","","html-keyboard-response","269","442651","0.0-1.0-368.0-0.0","0","0","76526","","null","","","null","40","","","","","","","","","","","","","","","",""
"","ITI","","html-keyboard-response","270","443655","0.0-1.0-369.0","0","0","76526","","null","","","null","40","","","","","","","","","","","","","","","NaN",""
"","S1","","html-keyboard-response","271","443907","0.0-1.0-371.0","0","0","76526","","null","","","null","41","","","","","","","","","","","","","","","",""
"","ISI","","html-keyboard-response","272","445909","0.0-1.0-372.0","0","0","76526","","null","","","null","41","NaN","","","","","","","","","","","","","","",""
"","S2","","html-keyboard-response","273","446163","0.0-1.0-373.0","0","0","76526","","null","","","null","41","","NaN","","","","","","","","","","","","","",""
"","response","","html-keyboard-response","274","447060","0.0-1.0-374.0-0.0","0","0","76526","","895","","","68","41","","","1","41","training","adjacent","GF","7","6","Q.jpg","O.jpg","1","0","0","",""
"","feedback","","html-keyboard-response","275","448065","0.0-1.0-375.0-0.0","0","0","76526","","null","","","null","41","","","","","","","","","","","","","","","",""
"","time_out","","html-keyboard-response","276","450069","0.0-1.0-377.0-0.0","0","0","76526","","null","","","null","41","","","","","","","","","","","","","","","",""
"","ITI","","html-keyboard-response","277","451073","0.0-1.0-378.0","0","0","76526","","null","","","null","41","","","","","","","","","","","","","","","NaN",""
"","S1","","html-keyboard-response","278","451326","0.0-1.0-380.0","0","0","76526","","null","","","null","42","","","","","","","","","","","","","","","",""
"","ISI","","html-keyboard-response","279","453329","0.0-1.0-381.0","0","0","76526","","null","","","null","42","NaN","","","","","","","","","","","","","","",""
"","S2","","html-keyboard-response","280","453583","0.0-1.0-382.0","0","0","76526","","null","","","null","42","","NaN","","","","","","","","","","","","","",""
"","response","","html-keyboard-response","281","454419","0.0-1.0-383.0-0.0","0","0","76526","","833","","","75","42","","","1","42","training","adjacent","CB","3","2","L.jpg","M.jpg","0","0","1","",""
"","feedback","","html-keyboard-response","282","455422","0.0-1.0-384.0-0.0","0","0","76526","","null","","","null","42","","","","","","","","","","","","","","","",""
"","ITI","","html-keyboard-response","283","456426","0.0-1.0-387.0","0","0","76526","","null","","","null","42","","","","","","","","","","","","","","","NaN",""
"","S1","","html-keyboard-response","284","456680","0.0-1.0-389.0","0","0","76526","","null","","","null","43","","","","","","","","","","","","","","","",""
"","ISI","","html-keyboard-response","285","458682","0.0-1.0-390.0","0","0","76526","","null","","","null","43","NaN","","","","","","","","","","","","","","",""
"","S2","","html-keyboard-response","286","458936","0.0-1.0-391.0","0","0","76526","","null","","","null","43","","NaN","","","","","","","","","","","","","",""
"","response","","html-keyboard-response","287","460166","0.0-1.0-392.0-0.0","0","0","76526","","1227","","","75","43","","","1","43","training","adjacent","AB","1","2","R.jpg","M.jpg","0","1","0","",""
"","feedback","","html-keyboard-response","288","461171","0.0-1.0-393.0-0.0","0","0","76526","","null","","","null","43","","","","","","","","","","","","","","","",""
"","time_out","","html-keyboard-response","289","463175","0.0-1.0-395.0-0.0","0","0","76526","","null","","","null","43","","","","","","","","","","","","","","","",""
"","ITI","","html-keyboard-response","290","464177","0.0-1.0-396.0","0","0","76526","","null","","","null","43","","","","","","","","","","","","","","","NaN",""
"","S1","","html-keyboard-response","291","464431","0.0-1.0-398.0","0","0","76526","","null","","","null","44","","","","","","","","","","","","","","","",""
"","ISI","","html-keyboard-response","292","466434","0.0-1.0-399.0","0","0","76526","","null","","","null","44","NaN","","","","","","","","","","","","","","",""
"","S2","","html-keyboard-response","293","466687","0.0-1.0-400.0","0","0","76526","","null","","","null","44","","NaN","","","","","","","","","","","","","",""
"","response","","html-keyboard-response","294","467961","0.0-1.0-401.0-0.0","0","0","76526","","1272","","","75","44","","","1","44","training","adjacent","BA","2","1","M.jpg","R.jpg","0","0","1","",""
"","feedback","","html-keyboard-response","295","468965","0.0-1.0-402.0-0.0","0","0","76526","","null","","","null","44","","","","","","","","","","","","","","","",""
"","ITI","","html-keyboard-response","296","469967","0.0-1.0-405.0","0","0","76526","","null","","","null","44","","","","","","","","","","","","","","","NaN",""
"","S1","","html-keyboard-response","297","470221","0.0-1.0-407.0","0","0","76526","","null","","","null","45","","","","","","","","","","","","","","","",""
"","ISI","","html-keyboard-response","298","472224","0.0-1.0-408.0","0","0","76526","","null","","","null","45","NaN","","","","","","","","","","","","","","",""
"","S2","","html-keyboard-response","299","472478","0.0-1.0-409.0","0","0","76526","","null","","","null","45","","NaN","","","","","","","","","","","","","",""
"","response","","html-keyboard-response","300","473396","0.0-1.0-410.0-0.0","0","0","76526","","915","","","68","45","","","1","45","training","adjacent","EF","5","6","P.jpg","O.jpg","1","1","1","",""
"","feedback","","html-keyboard-response","301","474399","0.0-1.0-411.0-0.0","0","0","76526","","null","","","null","45","","","","","","","","","","","","","","","",""
"","ITI","","html-keyboard-response","302","475403","0.0-1.0-414.0","0","0","76526","","null","","","null","45","","","","","","","","","","","","","","","NaN",""
"","S1","","html-keyboard-response","303","475656","0.0-1.0-416.0","0","0","76526","","null","","","null","46","","","","","","","","","","","","","","","",""
"","ISI","","html-keyboard-response","304","477659","0.0-1.0-417.0","0","0","76526","","null","","","null","46","NaN","","","","","","","","","","","","","","",""
"","S2","","html-keyboard-response","305","477912","0.0-1.0-418.0","0","0","76526","","null","","","null","46","","NaN","","","","","","","","","","","","","",""
"","response","","html-keyboard-response","306","479472","0.0-1.0-419.0-0.0","0","0","76526","","1557","","","68","46","","","1","46","training","adjacent","CD","3","4","L.jpg","N.jpg","1","1","1","",""
"","feedback","","html-keyboard-response","307","480476","0.0-1.0-420.0-0.0","0","0","76526","","null","","","null","46","","","","","","","","","","","","","","","",""
"","ITI","","html-keyboard-response","308","481478","0.0-1.0-423.0","0","0","76526","","null","","","null","46","","","","","","","","","","","","","","","NaN",""
"","S1","","html-keyboard-response","309","481732","0.0-1.0-425.0","0","0","76526","","null","","","null","47","","","","","","","","","","","","","","","",""
"","ISI","","html-keyboard-response","310","483735","0.0-1.0-426.0","0","0","76526","","null","","","null","47","NaN","","","","","","","","","","","","","","",""
"","S2","","html-keyboard-response","311","483988","0.0-1.0-427.0","0","0","76526","","null","","","null","47","","NaN","","","","","","","","","","","","","",""
"","response","","html-keyboard-response","312","485726","0.0-1.0-428.0-0.0","0","0","76526","","1735","","","68","47","","","1","47","training","adjacent","BA","2","1","M.jpg","R.jpg","1","0","0","",""
"","feedback","","html-keyboard-response","313","486731","0.0-1.0-429.0-0.0","0","0","76526","","null","","","null","47","","","","","","","","","","","","","","","",""
"","time_out","","html-keyboard-response","314","488734","0.0-1.0-431.0-0.0","0","0","76526","","null","","","null","47","","","","","","","","","","","","","","","",""
"","ITI","","html-keyboard-response","315","489737","0.0-1.0-432.0","0","0","76526","","null","","","null","47","","","","","","","","","","","","","","","NaN",""
"","block_over","","html-keyboard-response","316","647994","0.0-1.0-433.0-0.0","0","0","76526","","158255","","","32","47","","","","","","","","","","","","","","","",""
"","S1","","html-keyboard-response","317","648250","0.0-1.0-434.0","0","0","76526","","null","","","null","48","","","","","","","","","","","","","","","",""
"","ISI","","html-keyboard-response","318","650252","0.0-1.0-435.0","0","0","76526","","null","","","null","48","NaN","","","","","","","","","","","","","","",""
"","S2","","html-keyboard-response","319","650507","0.0-1.0-436.0","0","0","76526","","null","","","null","48","","NaN","","","","","","","","","","","","","",""
"","response","","html-keyboard-response","320","651564","0.0-1.0-437.0-0.0","0","0","76526","","1055","","","75","48","","","2","48","training","adjacent","GF","7","6","Q.jpg","O.jpg","0","0","1","",""
"","feedback","","html-keyboard-response","321","652569","0.0-1.0-438.0-0.0","0","0","76526","","null","","","null","48","","","","","","","","","","","","","","","",""
"","ITI","","html-keyboard-response","322","653572","0.0-1.0-441.0","0","0","76526","","null","","","null","48","","","","","","","","","","","","","","","NaN",""
"","S1","","html-keyboard-response","323","653835","0.0-1.0-443.0","0","0","76526","","null","","","null","49","","","","","","","","","","","","","","","",""
"","ISI","","html-keyboard-response","324","655838","0.0-1.0-444.0","0","0","76526","","null","","","null","49","NaN","","","","","","","","","","","","","","",""
"","S2","","html-keyboard-response","325","656092","0.0-1.0-445.0","0","0","76526","","null","","","null","49","","NaN","","","","","","","","","","","","","",""
"","response","","html-keyboard-response","326","657497","0.0-1.0-446.0-0.0","0","0","76526","","1403","","","68","49","","","2","49","training","adjacent","BC","2","3","M.jpg","L.jpg","1","1","1","",""
"","feedback","","html-keyboard-response","327","658501","0.0-1.0-447.0-0.0","0","0","76526","","null","","","null","49","","","","","","","","","","","","","","","",""
"","ITI","","html-keyboard-response","328","659504","0.0-1.0-450.0","0","0","76526","","null","","","null","49","","","","","","","","","","","","","","","NaN",""
"","S1","","html-keyboard-response","329","659757","0.0-1.0-452.0","0","0","76526","","null","","","null","50","","","","","","","","","","","","","","","",""
"","ISI","","html-keyboard-response","330","661760","0.0-1.0-453.0","0","0","76526","","null","","","null","50","NaN","","","","","","","","","","","","","","",""
"","S2","","html-keyboard-response","331","662013","0.0-1.0-454.0","0","0","76526","","null","","","null","50","","NaN","","","","","","","","","","","","","",""
"","response","","html-keyboard-response","332","663170","0.0-1.0-455.0-0.0","0","0","76526","","1154","","","68","50","","","2","50","training","adjacent","CD","3","4","L.jpg","N.jpg","1","1","1","",""
"","feedback","","html-keyboard-response","333","664173","0.0-1.0-456.0-0.0","0","0","76526","","null","","","null","50","","","","","","","","","","","","","","","",""
"","ITI","","html-keyboard-response","334","665177","0.0-1.0-459.0","0","0","76526","","null","","","null","50","","","","","","","","","","","","","","","NaN",""
"","S1","","html-keyboard-response","335","665430","0.0-1.0-461.0","0","0","76526","","null","","","null","51","","","","","","","","","","","","","","","",""
"","ISI","","html-keyboard-response","336","667432","0.0-1.0-462.0","0","0","76526","","null","","","null","51","NaN","","","","","","","","","","","","","","",""
"","S2","","html-keyboard-response","337","667686","0.0-1.0-463.0","0","0","76526","","null","","","null","51","","NaN","","","","","","","","","","","","","",""
"","response","","html-keyboard-response","338","668585","0.0-1.0-464.0-0.0","0","0","76526","","896","","","75","51","","","2","51","training","adjacent","FE","6","5","O.jpg","P.jpg","0","0","1","",""
"","feedback","","html-keyboard-response","339","669588","0.0-1.0-465.0-0.0","0","0","76526","","null","","","null","51","","","","","","","","","","","","","","","",""
"","ITI","","html-keyboard-response","340","670590","0.0-1.0-468.0","0","0","76526","","null","","","null","51","","","","","","","","","","","","","","","NaN",""
"","S1","","html-keyboard-response","341","670844","0.0-1.0-470.0","0","0","76526","","null","","","null","52","","","","","","","","","","","","","","","",""
"","ISI","","html-keyboard-response","342","672846","0.0-1.0-471.0","0","0","76526","","null","","","null","52","NaN","","","","","","","","","","","","","","",""
"","S2","","html-keyboard-response","343","673099","0.0-1.0-472.0","0","0","76526","","null","","","null","52","","NaN","","","","","","","","","","","","","",""
"","response","","html-keyboard-response","344","674035","0.0-1.0-473.0-0.0","0","0","76526","","934","","","75","52","","","2","52","training","adjacent","FE","6","5","O.jpg","P.jpg","0","0","1","",""
"","feedback","","html-keyboard-response","345","675038","0.0-1.0-474.0-0.0","0","0","76526","","null","","","null","52","","","","","","","","","","","","","","","",""
"","ITI","","html-keyboard-response","346","676041","0.0-1.0-477.0","0","0","76526","","null","","","null","52","","","","","","","","","","","","","","","NaN",""
"","S1","","html-keyboard-response","347","676303","0.0-1.0-479.0","0","0","76526","","null","","","null","53","","","","","","","","","","","","","","","",""
"","ISI","","html-keyboard-response","348","678306","0.0-1.0-480.0","0","0","76526","","null","","","null","53","NaN","","","","","","","","","","","","","","",""
"","S2","","html-keyboard-response","349","678559","0.0-1.0-481.0","0","0","76526","","null","","","null","53","","NaN","","","","","","","","","","","","","",""
"","response","","html-keyboard-response","350","680312","0.0-1.0-482.0-0.0","0","0","76526","","null","","","null","53","","","2","53","training","adjacent","BA","2","1","M.jpg","R.jpg","NaN","0","0","",""
"","too_slow_prompt","","html-keyboard-response","351","681315","0.0-1.0-484.0-0.0","1","0","76526","","null","","","null","","","","","","","","","","","","","","","","",""
"","time_out","","html-keyboard-response","352","683318","0.0-1.0-485.0-0.0","0","0","76526","","null","","","null","53","","","","","","","","","","","","","","","",""
"","ITI","","html-keyboard-response","353","684321","0.0-1.0-486.0","0","0","76526","","null","","","null","53","","","","","","","","","","","","","","","NaN",""
"","S1","","html-keyboard-response","354","684580","0.0-1.0-488.0","0","0","76526","","null","","","null","54","","","","","","","","","","","","","","","",""
"","ISI","","html-keyboard-response","355","686583","0.0-1.0-489.0","0","0","76526","","null","","","null","54","NaN","","","","","","","","","","","","","","",""
"","S2","","html-keyboard-response","356","686838","0.0-1.0-490.0","0","0","76526","","null","","","null","54","","NaN","","","","","","","","","","","","","",""
"","response","","html-keyboard-response","357","688592","0.0-1.0-491.0-0.0","0","0","76526","","null","","","null","54","","","2","54","training","adjacent","EF","5","6","P.jpg","O.jpg","NaN","1","0","",""
"","too_slow_prompt","","html-keyboard-response","358","689595","0.0-1.0-493.0-0.0","1","0","76526","","null","","","null","","","","","","","","","","","","","","","","",""
"","time_out","","html-keyboard-response","359","691597","0.0-1.0-494.0-0.0","0","0","76526","","null","","","null","54","","","","","","","","","","","","","","","",""
"","ITI","","html-keyboard-response","360","692600","0.0-1.0-495.0","0","0","76526","","null","","","null","54","","","","","","","","","","","","","","","NaN",""
"","S1","","html-keyboard-response","361","692853","0.0-1.0-497.0","0","0","76526","","null","","","null","55","","","","","","","","","","","","","","","",""
"","ISI","","html-keyboard-response","362","694856","0.0-1.0-498.0","0","0","76526","","null","","","null","55","NaN","","","","","","","","","","","","","","",""
"","S2","","html-keyboard-response","363","695109","0.0-1.0-499.0","0","0","76526","","null","","","null","55","","NaN","","","","","","","","","","","","","",""
"","response","","html-keyboard-response","364","696178","0.0-1.0-500.0-0.0","0","0","76526","","1067","","","75","55","","","2","55","training","adjacent","FG","6","7","O.jpg","Q.jpg","0","1","0","",""
"","feedback","","html-keyboard-response","365","697182","0.0-1.0-501.0-0.0","0","0","76526","","null","","","null","55","","","","","","","","","","","","","","","",""
"","time_out","","html-keyboard-response","366","699185","0.0-1.0-503.0-0.0","0","0","76526","","null","","","null","55","","","","","","","","","","","","","","","",""
"","ITI","","html-keyboard-response","367","700188","0.0-1.0-504.0","0","0","76526","","null","","","null","55","","","","","","","","","","","","","","","NaN",""
"","S1","","html-keyboard-response","368","700441","0.0-1.0-506.0","0","0","76526","","null","","","null","56","","","","","","","","","","","","","","","",""
"","ISI","","html-keyboard-response","369","702444","0.0-1.0-507.0","0","0","76526","","null","","","null","56","NaN","","","","","","","","","","","","","","",""
"","S2","","html-keyboard-response","370","702698","0.0-1.0-508.0","0","0","76526","","null","","","null","56","","NaN","","","","","","","","","","","","","",""
"","response","","html-keyboard-response","371","704068","0.0-1.0-509.0-0.0","0","0","76526","","1367","","","75","56","","","2","56","training","adjacent","CB","3","2","L.jpg","M.jpg","0","0","1","",""
"","feedback","","html-keyboard-response","372","705071","0.0-1.0-510.0-0.0","0","0","76526","","null","","","null","56","","","","","","","","","","","","","","","",""
"","ITI","","html-keyboard-response","373","706074","0.0-1.0-513.0","0","0","76526","","null","","","null","56","","","","","","","","","","","","","","","NaN",""
"","S1","","html-keyboard-response","374","706327","0.0-1.0-515.0","0","0","76526","","null","","","null","57","","","","","","","","","","","","","","","",""
"","ISI","","html-keyboard-response","375","708329","0.0-1.0-516.0","0","0","76526","","null","","","null","57","NaN","","","","","","","","","","","","","","",""
"","S2","","html-keyboard-response","376","708583","0.0-1.0-517.0","0","0","76526","","null","","","null","57","","NaN","","","","","","","","","","","","","",""
"","response","","html-keyboard-response","377","710169","0.0-1.0-518.0-0.0","0","0","76526","","1584","","","68","57","","","2","57","training","adjacent","DE","4","5","N.jpg","P.jpg","1","1","1","",""
"","feedback","","html-keyboard-response","378","711174","0.0-1.0-519.0-0.0","0","0","76526","","null","","","null","57","","","","","","","","","","","","","","","",""
"","ITI","","html-keyboard-response","379","712180","0.0-1.0-522.0","0","0","76526","","null","","","null","57","","","","","","","","","","","","","","","NaN",""
"","S1","","html-keyboard-response","380","712433","0.0-1.0-524.0","0","0","76526","","null","","","null","58","","","","","","","","","","","","","","","",""
"","ISI","","html-keyboard-response","381","714436","0.0-1.0-525.0","0","0","76526","","null","","","null","58","NaN","","","","","","","","","","","","","","",""
"","S2","","html-keyboard-response","382","714689","0.0-1.0-526.0","0","0","76526","","null","","","null","58","","NaN","","","","","","","","","","","","","",""
"","response","","html-keyboard-response","383","715824","0.0-1.0-527.0-0.0","0","0","76526","","1133","","","75","58","","","2","58","training","adjacent","FG","6","7","O.jpg","Q.jpg","0","1","0","",""
"","feedback","","html-keyboard-response","384","716828","0.0-1.0-528.0-0.0","0","0","76526","","null","","","null","58","","","","","","","","","","","","","","","",""
"","time_out","","html-keyboard-response","385","718831","0.0-1.0-530.0-0.0","0","0","76526","","null","","","null","58","","","","","","","","","","","","","","","",""
"","ITI","","html-keyboard-response","386","719834","0.0-1.0-531.0","0","0","76526","","null","","","null","58","","","","","","","","","","","","","","","NaN",""
"","S1","","html-keyboard-response","387","720089","0.0-1.0-533.0","0","0","76526","","null","","","null","59","","","","","","","","","","","","","","","",""
"","ISI","","html-keyboard-response","388","722096","0.0-1.0-534.0","0","0","76526","","null","","","null","59","NaN","","","","","","","","","","","","","","",""
"","S2","","html-keyboard-response","389","722350","0.0-1.0-535.0","0","0","76526","","null","","","null","59","","NaN","","","","","","","","","","","","","",""
"","response","","html-keyboard-response","390","723699","0.0-1.0-536.0-0.0","0","0","76526","","1347","","","75","59","","","2","59","training","adjacent","FG","6","7","O.jpg","Q.jpg","0","1","0","",""
"","feedback","","html-keyboard-response","391","724703","0.0-1.0-537.0-0.0","0","0","76526","","null","","","null","59","","","","","","","","","","","","","","","",""
"","time_out","","html-keyboard-response","392","726706","0.0-1.0-539.0-0.0","0","0","76526","","null","","","null","59","","","","","","","","","","","","","","","",""
"","ITI","","html-keyboard-response","393","727709","0.0-1.0-540.0","0","0","76526","","null","","","null","59","","","","","","","","","","","","","","","NaN",""
"","S1","","html-keyboard-response","394","727961","0.0-1.0-542.0","0","0","76526","","null","","","null","60","","","","","","","","","","","","","","","",""
"","ISI","","html-keyboard-response","395","729965","0.0-1.0-543.0","0","0","76526","","null","","","null","60","NaN","","","","","","","","","","","","","","",""
"","S2","","html-keyboard-response","396","730218","0.0-1.0-544.0","0","0","76526","","null","","","null","60","","NaN","","","","","","","","","","","","","",""
"","response","","html-keyboard-response","397","731972","0.0-1.0-545.0-0.0","0","0","76526","","null","","","null","60","","","2","60","training","adjacent","BC","2","3","M.jpg","L.jpg","NaN","1","0","",""
"","too_slow_prompt","","html-keyboard-response","398","732976","0.0-1.0-547.0-0.0","1","0","76526","","null","","","null","","","","","","","","","","","","","","","","",""
"","time_out","","html-keyboard-response","399","734980","0.0-1.0-548.0-0.0","0","0","76526","","null","","","null","60","","","","","","","","","","","","","","","",""
"","ITI","","html-keyboard-response","400","735982","0.0-1.0-549.0","0","0","76526","","null","","","null","60","","","","","","","","","","","","","","","NaN",""
"","S1","","html-keyboard-response","401","736242","0.0-1.0-551.0","0","0","76526","","null","","","null","61","","","","","","","","","","","","","","","",""
"","ISI","","html-keyboard-response","402","738245","0.0-1.0-552.0","0","0","76526","","null","","","null","61","NaN","","","","","","","","","","","","","","",""
"","S2","","html-keyboard-response","403","738498","0.0-1.0-553.0","0","0","76526","","null","","","null","61","","NaN","","","","","","","","","","","","","",""
"","response","","html-keyboard-response","404","739720","0.0-1.0-554.0-0.0","0","0","76526","","1219","","","68","61","","","2","61","training","adjacent","AB","1","2","R.jpg","M.jpg","1","1","1","",""
"","feedback","","html-keyboard-response","405","740724","0.0-1.0-555.0-0.0","0","0","76526","","null","","","null","61","","","","","","","","","","","","","","","",""
"","ITI","","html-keyboard-response","406","741727","0.0-1.0-558.0","0","0","76526","","null","","","null","61","","","","","","","","","","","","","","","NaN",""
"","S1","","html-keyboard-response","407","741980","0.0-1.0-560.0","0","0","76526","","null","","","null","62","","","","","","","","","","","","","","","",""
"","ISI","","html-keyboard-response","408","743982","0.0-1.0-561.0","0","0","76526","","null","","","null","62","NaN","","","","","","","","","","","","","","",""
"","S2","","html-keyboard-response","409","744236","0.0-1.0-562.0","0","0","76526","","null","","","null","62","","NaN","","","","","","","","","","","","","",""
"","response","","html-keyboard-response","410","745504","0.0-1.0-563.0-0.0","0","0","76526","","1266","","","68","62","","","2","62","training","adjacent","DE","4","5","N.jpg","P.jpg","1","1","1","",""
"","feedback","","html-keyboard-response","411","746509","0.0-1.0-564.0-0.0","0","0","76526","","null","","","null","62","","","","","","","","","","","","","","","",""
"","ITI","","html-keyboard-response","412","747512","0.0-1.0-567.0","0","0","76526","","null","","","null","62","","","","","","","","","","","","","","","NaN",""
"","S1","","html-keyboard-response","413","747780","0.0-1.0-569.0","0","0","76526","","null","","","null","63","","","","","","","","","","","","","","","",""
"","ISI","","html-keyboard-response","414","749782","0.0-1.0-570.0","0","0","76526","","null","","","null","63","NaN","","","","","","","","","","","","","","",""
"","S2","","html-keyboard-response","415","750038","0.0-1.0-571.0","0","0","76526","","null","","","null","63","","NaN","","","","","","","","","","","","","",""
"","response","","html-keyboard-response","416","751309","0.0-1.0-572.0-0.0","0","0","76526","","1269","","","75","63","","","2","63","training","adjacent","CB","3","2","L.jpg","M.jpg","0","0","1","",""
"","feedback","","html-keyboard-response","417","752313","0.0-1.0-573.0-0.0","0","0","76526","","null","","","null","63","","","","","","","","","","","","","","","",""
"","ITI","","html-keyboard-response","418","753316","0.0-1.0-576.0","0","0","76526","","null","","","null","63","","","","","","","","","","","","","","","NaN",""
"","S1","","html-keyboard-response","419","753571","0.0-1.0-578.0","0","0","76526","","null","","","null","64","","","","","","","","","","","","","","","",""
"","ISI","","html-keyboard-response","420","755573","0.0-1.0-579.0","0","0","76526","","null","","","null","64","NaN","","","","","","","","","","","","","","",""
"","S2","","html-keyboard-response","421","755827","0.0-1.0-580.0","0","0","76526","","null","","","null","64","","NaN","","","","","","","","","","","","","",""
"","response","","html-keyboard-response","422","757145","0.0-1.0-581.0-0.0","0","0","76526","","1316","","","75","64","","","2","64","training","adjacent","BA","2","1","M.jpg","R.jpg","0","0","1","",""
"","feedback","","html-keyboard-response","423","758150","0.0-1.0-582.0-0.0","0","0","76526","","null","","","null","64","","","","","","","","","","","","","","","",""
"","ITI","","html-keyboard-response","424","759153","0.0-1.0-585.0","0","0","76526","","null","","","null","64","","","","","","","","","","","","","","","NaN",""
"","S1","","html-keyboard-response","425","759406","0.0-1.0-587.0","0","0","76526","","null","","","null","65","","","","","","","","","","","","","","","",""
"","ISI","","html-keyboard-response","426","761409","0.0-1.0-588.0","0","0","76526","","null","","","null","65","NaN","","","","","","","","","","","","","","",""
"","S2","","html-keyboard-response","427","761662","0.0-1.0-589.0","0","0","76526","","null","","","null","65","","NaN","","","","","","","","","","","","","",""
"","response","","html-keyboard-response","428","762573","0.0-1.0-590.0-0.0","0","0","76526","","908","","","68","65","","","2","65","training","adjacent","EF","5","6","P.jpg","O.jpg","1","1","1","",""
"","feedback","","html-keyboard-response","429","763577","0.0-1.0-591.0-0.0","0","0","76526","","null","","","null","65","","","","","","","","","","","","","","","",""
"","ITI","","html-keyboard-response","430","764580","0.0-1.0-594.0","0","0","76526","","null","","","null","65","","","","","","","","","","","","","","","NaN",""
"","S1","","html-keyboard-response","431","764833","0.0-1.0-596.0","0","0","76526","","null","","","null","66","","","","","","","","","","","","","","","",""
"","ISI","","html-keyboard-response","432","766837","0.0-1.0-597.0","0","0","76526","","null","","","null","66","NaN","","","","","","","","","","","","","","",""
"","S2","","html-keyboard-response","433","767090","0.0-1.0-598.0","0","0","76526","","null","","","null","66","","NaN","","","","","","","","","","","","","",""
"","response","","html-keyboard-response","434","768069","0.0-1.0-599.0-0.0","0","0","76526","","977","","","75","66","","","2","66","training","adjacent","ED","5","4","P.jpg","N.jpg","0","0","1","",""
"","feedback","","html-keyboard-response","435","769073","0.0-1.0-600.0-0.0","0","0","76526","","null","","","null","66","","","","","","","","","","","","","","","",""
"","ITI","","html-keyboard-response","436","770075","0.0-1.0-603.0","0","0","76526","","null","","","null","66","","","","","","","","","","","","","","","NaN",""
"","S1","","html-keyboard-response","437","770329","0.0-1.0-605.0","0","0","76526","","null","","","null","67","","","","","","","","","","","","","","","",""
"","ISI","","html-keyboard-response","438","772332","0.0-1.0-606.0","0","0","76526","","null","","","null","67","NaN","","","","","","","","","","","","","","",""
"","S2","","html-keyboard-response","439","772599","0.0-1.0-607.0","0","0","76526","","null","","","null","67","","NaN","","","","","","","","","","","","","",""
"","response","","html-keyboard-response","440","773712","0.0-1.0-608.0-0.0","0","0","76526","","1110","","","75","67","","","2","67","training","adjacent","ED","5","4","P.jpg","N.jpg","0","0","1","",""
"","feedback","","html-keyboard-response","441","774716","0.0-1.0-609.0-0.0","0","0","76526","","null","","","null","67","","","","","","","","","","","","","","","",""
"","ITI","","html-keyboard-response","442","775719","0.0-1.0-612.0","0","0","76526","","null","","","null","67","","","","","","","","","","","","","","","NaN",""
"","S1","","html-keyboard-response","443","775971","0.0-1.0-614.0","0","0","76526","","null","","","null","68","","","","","","","","","","","","","","","",""
"","ISI","","html-keyboard-response","444","777974","0.0-1.0-615.0","0","0","76526","","null","","","null","68","NaN","","","","","","","","","","","","","","",""
"","S2","","html-keyboard-response","445","778228","0.0-1.0-616.0","0","0","76526","","null","","","null","68","","NaN","","","","","","","","","","","","","",""
"","response","","html-keyboard-response","446","778998","0.0-1.0-617.0-0.0","0","0","76526","","767","","","68","68","","","2","68","training","adjacent","EF","5","6","P.jpg","O.jpg","1","1","1","",""
"","feedback","","html-keyboard-response","447","780002","0.0-1.0-618.0-0.0","0","0","76526","","null","","","null","68","","","","","","","","","","","","","","","",""
"","ITI","","html-keyboard-response","448","781006","0.0-1.0-621.0","0","0","76526","","null","","","null","68","","","","","","","","","","","","","","","NaN",""
"","S1","","html-keyboard-response","449","781263","0.0-1.0-623.0","0","0","76526","","null","","","null","69","","","","","","","","","","","","","","","",""
"","ISI","","html-keyboard-response","450","783268","0.0-1.0-624.0","0","0","76526","","null","","","null","69","NaN","","","","","","","","","","","","","","",""
"","S2","","html-keyboard-response","451","783525","0.0-1.0-625.0","0","0","76526","","null","","","null","69","","NaN","","","","","","","","","","","","","",""
"","response","","html-keyboard-response","452","784911","0.0-1.0-626.0-0.0","0","0","76526","","1381","","","75","69","","","2","69","training","adjacent","DC","4","3","N.jpg","L.jpg","0","0","1","",""
"","feedback","","html-keyboard-response","453","785917","0.0-1.0-627.0-0.0","0","0","76526","","null","","","null","69","","","","","","","","","","","","","","","",""
"","ITI","","html-keyboard-response","454","786921","0.0-1.0-630.0","0","0","76526","","null","","","null","69","","","","","","","","","","","","","","","NaN",""
"","S1","","html-keyboard-response","455","787174","0.0-1.0-632.0","0","0","76526","","null","","","null","70","","","","","","","","","","","","","","","",""
"","ISI","","html-keyboard-response","456","789177","0.0-1.0-633.0","0","0","76526","","null","","","null","70","NaN","","","","","","","","","","","","","","",""
"","S2","","html-keyboard-response","457","789430","0.0-1.0-634.0","0","0","76526","","null","","","null","70","","NaN","","","","","","","","","","","","","",""
"","response","","html-keyboard-response","458","790528","0.0-1.0-635.0-0.0","0","0","76526","","1096","","","68","70","","","2","70","training","adjacent","CD","3","4","L.jpg","N.jpg","1","1","1","",""
"","feedback","","html-keyboard-response","459","791531","0.0-1.0-636.0-0.0","0","0","76526","","null","","","null","70","","","","","","","","","","","","","","","",""
"","ITI","","html-keyboard-response","460","792534","0.0-1.0-639.0","0","0","76526","","null","","","null","70","","","","","","","","","","","","","","","NaN",""
"","S1","","html-keyboard-response","461","792788","0.0-1.0-641.0","0","0","76526","","null","","","null","71","","","","","","","","","","","","","","","",""
"","ISI","","html-keyboard-response","462","794791","0.0-1.0-642.0","0","0","76526","","null","","","null","71","NaN","","","","","","","","","","","","","","",""
"","S2","","html-keyboard-response","463","795055","0.0-1.0-643.0","0","0","76526","","null","","","null","71","","NaN","","","","","","","","","","","","","",""
"","response","","html-keyboard-response","464","796201","0.0-1.0-644.0-0.0","0","0","76526","","1142","","","68","71","","","2","71","training","adjacent","DE","4","5","N.jpg","P.jpg","1","1","1","",""
"","feedback","","html-keyboard-response","465","797205","0.0-1.0-645.0-0.0","0","0","76526","","null","","","null","71","","","","","","","","","","","","","","","",""
"","ITI","","html-keyboard-response","466","798208","0.0-1.0-648.0","0","0","76526","","null","","","null","71","","","","","","","","","","","","","","","NaN",""
"","S1","","html-keyboard-response","467","798463","0.0-1.0-650.0","0","0","76526","","null","","","null","72","","","","","","","","","","","","","","","",""
"","ISI","","html-keyboard-response","468","800467","0.0-1.0-651.0","0","0","76526","","null","","","null","72","NaN","","","","","","","","","","","","","","",""
"","S2","","html-keyboard-response","469","800720","0.0-1.0-652.0","0","0","76526","","null","","","null","72","","NaN","","","","","","","","","","","","","",""
"","response","","html-keyboard-response","470","801799","0.0-1.0-653.0-0.0","0","0","76526","","1077","","","68","72","","","2","72","training","adjacent","CD","3","4","L.jpg","N.jpg","1","1","1","",""
"","feedback","","html-keyboard-response","471","802803","0.0-1.0-654.0-0.0","0","0","76526","","null","","","null","72","","","","","","","","","","","","","","","",""
"","ITI","","html-keyboard-response","472","803806","0.0-1.0-657.0","0","0","76526","","null","","","null","72","","","","","","","","","","","","","","","NaN",""
"","S1","","html-keyboard-response","473","804059","0.0-1.0-659.0","0","0","76526","","null","","","null","73","","","","","","","","","","","","","","","",""
"","ISI","","html-keyboard-response","474","806061","0.0-1.0-660.0","0","0","76526","","null","","","null","73","NaN","","","","","","","","","","","","","","",""
"","S2","","html-keyboard-response","475","806316","0.0-1.0-661.0","0","0","76526","","null","","","null","73","","NaN","","","","","","","","","","","","","",""
"","response","","html-keyboard-response","476","807381","0.0-1.0-662.0-0.0","0","0","76526","","1062","","","75","73","","","2","73","training","adjacent","CB","3","2","L.jpg","M.jpg","0","0","1","",""
"","feedback","","html-keyboard-response","477","808385","0.0-1.0-663.0-0.0","0","0","76526","","null","","","null","73","","","","","","","","","","","","","","","",""
"","ITI","","html-keyboard-response","478","809387","0.0-1.0-666.0","0","0","76526","","null","","","null","73","","","","","","","","","","","","","","","NaN",""
"","S1","","html-keyboard-response","479","809640","0.0-1.0-668.0","0","0","76526","","null","","","null","74","","","","","","","","","","","","","","","",""
"","ISI","","html-keyboard-response","480","811644","0.0-1.0-669.0","0","0","76526","","null","","","null","74","NaN","","","","","","","","","","","","","","",""
"","S2","","html-keyboard-response","481","811898","0.0-1.0-670.0","0","0","76526","","null","","","null","74","","NaN","","","","","","","","","","","","","",""
"","response","","html-keyboard-response","482","813110","0.0-1.0-671.0-0.0","0","0","76526","","1209","","","75","74","","","2","74","training","adjacent","BA","2","1","M.jpg","R.jpg","0","0","1","",""
"","feedback","","html-keyboard-response","483","814115","0.0-1.0-672.0-0.0","0","0","76526","","null","","","null","74","","","","","","","","","","","","","","","",""
"","ITI","","html-keyboard-response","484","815122","0.0-1.0-675.0","0","0","76526","","null","","","null","74","","","","","","","","","","","","","","","NaN",""
"","S1","","html-keyboard-response","485","815377","0.0-1.0-677.0","0","0","76526","","null","","","null","75","","","","","","","","","","","","","","","",""
"","ISI","","html-keyboard-response","486","817381","0.0-1.0-678.0","0","0","76526","","null","","","null","75","NaN","","","","","","","","","","","","","","",""
"","S2","","html-keyboard-response","487","817635","0.0-1.0-679.0","0","0","76526","","null","","","null","75","","NaN","","","","","","","","","","","","","",""
"","response","","html-keyboard-response","488","818501","0.0-1.0-680.0-0.0","0","0","76526","","863","","","68","75","","","2","75","training","adjacent","DC","4","3","N.jpg","L.jpg","1","0","0","",""
"","feedback","","html-keyboard-response","489","819505","0.0-1.0-681.0-0.0","0","0","76526","","null","","","null","75","","","","","","","","","","","","","","","",""
"","time_out","","html-keyboard-response","490","821508","0.0-1.0-683.0-0.0","0","0","76526","","null","","","null","75","","","","","","","","","","","","","","","",""
"","ITI","","html-keyboard-response","491","822510","0.0-1.0-684.0","0","0","76526","","null","","","null","75","","","","","","","","","","","","","","","NaN",""
"","S1","","html-keyboard-response","492","822762","0.0-1.0-686.0","0","0","76526","","null","","","null","76","","","","","","","","","","","","","","","",""
"","ISI","","html-keyboard-response","493","824765","0.0-1.0-687.0","0","0","76526","","null","","","null","76","NaN","","","","","","","","","","","","","","",""
"","S2","","html-keyboard-response","494","825018","0.0-1.0-688.0","0","0","76526","","null","","","null","76","","NaN","","","","","","","","","","","","","",""
"","response","","html-keyboard-response","495","825995","0.0-1.0-689.0-0.0","0","0","76526","","975","","","75","76","","","2","76","training","adjacent","ED","5","4","P.jpg","N.jpg","0","0","1","",""
"","feedback","","html-keyboard-response","496","826999","0.0-1.0-690.0-0.0","0","0","76526","","null","","","null","76","","","","","","","","","","","","","","","",""
"","ITI","","html-keyboard-response","497","828002","0.0-1.0-693.0","0","0","76526","","null","","","null","76","","","","","","","","","","","","","","","NaN",""
"","S1","","html-keyboard-response","498","828255","0.0-1.0-695.0","0","0","76526","","null","","","null","77","","","","","","","","","","","","","","","",""
"","ISI","","html-keyboard-response","499","830258","0.0-1.0-696.0","0","0","76526","","null","","","null","77","NaN","","","","","","","","","","","","","","",""
"","S2","","html-keyboard-response","500","830512","0.0-1.0-697.0","0","0","76526","","null","","","null","77","","NaN","","","","","","","","","","","","","",""
"","response","","html-keyboard-response","501","831429","0.0-1.0-698.0-0.0","0","0","76526","","915","","","75","77","","","2","77","training","adjacent","DC","4","3","N.jpg","L.jpg","0","0","1","",""
"","feedback","","html-keyboard-response","502","832433","0.0-1.0-699.0-0.0","0","0","76526","","null","","","null","77","","","","","","","","","","","","","","","",""
"","ITI","","html-keyboard-response","503","833437","0.0-1.0-702.0","0","0","76526","","null","","","null","77","","","","","","","","","","","","","","","NaN",""
"","S1","","html-keyboard-response","504","833689","0.0-1.0-704.0","0","0","76526","","null","","","null","78","","","","","","","","","","","","","","","",""
"","ISI","","html-keyboard-response","505","835692","0.0-1.0-705.0","0","0","76526","","null","","","null","78","NaN","","","","","","","","","","","","","","",""
"","S2","","html-keyboard-response","506","835953","0.0-1.0-706.0","0","0","76526","","null","","","null","78","","NaN","","","","","","","","","","","","","",""
"","response","","html-keyboard-response","507","837190","0.0-1.0-707.0-0.0","0","0","76526","","1234","","","68","78","","","2","78","training","adjacent","GF","7","6","Q.jpg","O.jpg","1","0","0","",""
"","feedback","","html-keyboard-response","508","838194","0.0-1.0-708.0-0.0","0","0","76526","","null","","","null","78","","","","","","","","","","","","","","","",""
"","time_out","","html-keyboard-response","509","840196","0.0-1.0-710.0-0.0","0","0","76526","","null","","","null","78","","","","","","","","","","","","","","","",""
"","ITI","","html-keyboard-response","510","841199","0.0-1.0-711.0","0","0","76526","","null","","","null","78","","","","","","","","","","","","","","","NaN",""
"","S1","","html-keyboard-response","511","841452","0.0-1.0-713.0","0","0","76526","","null","","","null","79","","","","","","","","","","","","","","","",""
"","ISI","","html-keyboard-response","512","843455","0.0-1.0-714.0","0","0","76526","","null","","","null","79","NaN","","","","","","","","","","","","","","",""
"","S2","","html-keyboard-response","513","843708","0.0-1.0-715.0","0","0","76526","","null","","","null","79","","NaN","","","","","","","","","","","","","",""
"","response","","html-keyboard-response","514","845025","0.0-1.0-716.0-0.0","0","0","76526","","1315","","","75","79","","","2","79","training","adjacent","FE","6","5","O.jpg","P.jpg","0","0","1","",""
"","feedback","","html-keyboard-response","515","846030","0.0-1.0-717.0-0.0","0","0","76526","","null","","","null","79","","","","","","","","","","","","","","","",""
"","ITI","","html-keyboard-response","516","847032","0.0-1.0-720.0","0","0","76526","","null","","","null","79","","","","","","","","","","","","","","","NaN",""
"","S1","","html-keyboard-response","517","847286","0.0-1.0-722.0","0","0","76526","","null","","","null","80","","","","","","","","","","","","","","","",""
"","ISI","","html-keyboard-response","518","849289","0.0-1.0-723.0","0","0","76526","","null","","","null","80","NaN","","","","","","","","","","","","","","",""
"","S2","","html-keyboard-response","519","849543","0.0-1.0-724.0","0","0","76526","","null","","","null","80","","NaN","","","","","","","","","","","","","",""
"","response","","html-keyboard-response","520","850624","0.0-1.0-725.0-0.0","0","0","76526","","1078","","","75","80","","","2","80","training","adjacent","DC","4","3","N.jpg","L.jpg","0","0","1","",""
"","feedback","","html-keyboard-response","521","851632","0.0-1.0-726.0-0.0","0","0","76526","","null","","","null","80","","","","","","","","","","","","","","","",""
"","ITI","","html-keyboard-response","522","852636","0.0-1.0-729.0","0","0","76526","","null","","","null","80","","","","","","","","","","","","","","","NaN",""
"","S1","","html-keyboard-response","523","852888","0.0-1.0-731.0","0","0","76526","","null","","","null","81","","","","","","","","","","","","","","","",""
"","ISI","","html-keyboard-response","524","854890","0.0-1.0-732.0","0","0","76526","","null","","","null","81","NaN","","","","","","","","","","","","","","",""
"","S2","","html-keyboard-response","525","855143","0.0-1.0-733.0","0","0","76526","","null","","","null","81","","NaN","","","","","","","","","","","","","",""
"","response","","html-keyboard-response","526","856424","0.0-1.0-734.0-0.0","0","0","76526","","1278","","","75","81","","","2","81","training","adjacent","AB","1","2","R.jpg","M.jpg","0","1","0","",""
"","feedback","","html-keyboard-response","527","857427","0.0-1.0-735.0-0.0","0","0","76526","","null","","","null","81","","","","","","","","","","","","","","","",""
"","time_out","","html-keyboard-response","528","859430","0.0-1.0-737.0-0.0","0","0","76526","","null","","","null","81","","","","","","","","","","","","","","","",""
"","ITI","","html-keyboard-response","529","860433","0.0-1.0-738.0","0","0","76526","","null","","","null","81","","","","","","","","","","","","","","","NaN",""
"","S1","","html-keyboard-response","530","860687","0.0-1.0-740.0","0","0","76526","","null","","","null","82","","","","","","","","","","","","","","","",""
"","ISI","","html-keyboard-response","531","862689","0.0-1.0-741.0","0","0","76526","","null","","","null","82","NaN","","","","","","","","","","","","","","",""
"","S2","","html-keyboard-response","532","862944","0.0-1.0-742.0","0","0","76526","","null","","","null","82","","NaN","","","","","","","","","","","","","",""
"","response","","html-keyboard-response","533","863831","0.0-1.0-743.0-0.0","0","0","76526","","885","","","75","82","","","2","82","training","adjacent","GF","7","6","Q.jpg","O.jpg","0","0","1","",""
"","feedback","","html-keyboard-response","534","864849","0.0-1.0-744.0-0.0","0","0","76526","","null","","","null","82","","","","","","","","","","","","","","","",""
"","ITI","","html-keyboard-response","535","865852","0.0-1.0-747.0","0","0","76526","","null","","","null","82","","","","","","","","","","","","","","","NaN",""
"","S1","","html-keyboard-response","536","866106","0.0-1.0-749.0","0","0","76526","","null","","","null","83","","","","","","","","","","","","","","","",""
"","ISI","","html-keyboard-response","537","868109","0.0-1.0-750.0","0","0","76526","","null","","","null","83","NaN","","","","","","","","","","","","","","",""
"","S2","","html-keyboard-response","538","868362","0.0-1.0-751.0","0","0","76526","","null","","","null","83","","NaN","","","","","","","","","","","","","",""
"","response","","html-keyboard-response","539","869177","0.0-1.0-752.0-0.0","0","0","76526","","813","","","68","83","","","2","83","training","adjacent","CD","3","4","L.jpg","N.jpg","1","1","1","",""
"","feedback","","html-keyboard-response","540","870180","0.0-1.0-753.0-0.0","0","0","76526","","null","","","null","83","","","","","","","","","","","","","","","",""
"","ITI","","html-keyboard-response","541","871187","0.0-1.0-756.0","0","0","76526","","null","","","null","83","","","","","","","","","","","","","","","NaN",""
"","S1","","html-keyboard-response","542","871440","0.0-1.0-758.0","0","0","76526","","null","","","null","84","","","","","","","","","","","","","","","",""
"","ISI","","html-keyboard-response","543","873443","0.0-1.0-759.0","0","0","76526","","null","","","null","84","NaN","","","","","","","","","","","","","","",""
"","S2","","html-keyboard-response","544","873696","0.0-1.0-760.0","0","0","76526","","null","","","null","84","","NaN","","","","","","","","","","","","","",""
"","response","","html-keyboard-response","545","874756","0.0-1.0-761.0-0.0","0","0","76526","","1057","","","68","84","","","2","84","training","adjacent","EF","5","6","P.jpg","O.jpg","1","1","1","",""
"","feedback","","html-keyboard-response","546","875759","0.0-1.0-762.0-0.0","0","0","76526","","null","","","null","84","","","","","","","","","","","","","","","",""
"","ITI","","html-keyboard-response","547","876762","0.0-1.0-765.0","0","0","76526","","null","","","null","84","","","","","","","","","","","","","","","NaN",""
"","S1","","html-keyboard-response","548","877021","0.0-1.0-767.0","0","0","76526","","null","","","null","85","","","","","","","","","","","","","","","",""
"","ISI","","html-keyboard-response","549","879024","0.0-1.0-768.0","0","0","76526","","null","","","null","85","NaN","","","","","","","","","","","","","","",""
"","S2","","html-keyboard-response","550","879277","0.0-1.0-769.0","0","0","76526","","null","","","null","85","","NaN","","","","","","","","","","","","","",""
"","response","","html-keyboard-response","551","880076","0.0-1.0-770.0-0.0","0","0","76526","","797","","","75","85","","","2","85","training","adjacent","FE","6","5","O.jpg","P.jpg","0","0","1","",""
"","feedback","","html-keyboard-response","552","881080","0.0-1.0-771.0-0.0","0","0","76526","","null","","","null","85","","","","","","","","","","","","","","","",""
"","ITI","","html-keyboard-response","553","882083","0.0-1.0-774.0","0","0","76526","","53","","","75","85","","","","","","","","","","","","","","","k",""
"","S1","","html-keyboard-response","554","882338","0.0-1.0-776.0","0","0","76526","","null","","","null","86","","","","","","","","","","","","","","","",""
"","ISI","","html-keyboard-response","555","884340","0.0-1.0-777.0","0","0","76526","","null","","","null","86","NaN","","","","","","","","","","","","","","",""
"","S2","","html-keyboard-response","556","884593","0.0-1.0-778.0","0","0","76526","","null","","","null","86","","NaN","","","","","","","","","","","","","",""
"","response","","html-keyboard-response","557","886017","0.0-1.0-779.0-0.0","0","0","76526","","1420","","","68","86","","","2","86","training","adjacent","AB","1","2","R.jpg","M.jpg","1","1","1","",""
"","feedback","","html-keyboard-response","558","887021","0.0-1.0-780.0-0.0","0","0","76526","","null","","","null","86","","","","","","","","","","","","","","","",""
"","ITI","","html-keyboard-response","559","888023","0.0-1.0-783.0","0","0","76526","","null","","","null","86","","","","","","","","","","","","","","","NaN",""
"","S1","","html-keyboard-response","560","888278","0.0-1.0-785.0","0","0","76526","","null","","","null","87","","","","","","","","","","","","","","","",""
"","ISI","","html-keyboard-response","561","890280","0.0-1.0-786.0","0","0","76526","","null","","","null","87","NaN","","","","","","","","","","","","","","",""
"","S2","","html-keyboard-response","562","890535","0.0-1.0-787.0","0","0","76526","","null","","","null","87","","NaN","","","","","","","","","","","","","",""
"","response","","html-keyboard-response","563","891422","0.0-1.0-788.0-0.0","0","0","76526","","883","","","75","87","","","2","87","training","adjacent","BA","2","1","M.jpg","R.jpg","0","0","1","",""
"","feedback","","html-keyboard-response","564","892426","0.0-1.0-789.0-0.0","0","0","76526","","null","","","null","87","","","","","","","","","","","","","","","",""
"","ITI","","html-keyboard-response","565","893430","0.0-1.0-792.0","0","0","76526","","null","","","null","87","","","","","","","","","","","","","","","NaN",""
"","S1","","html-keyboard-response","566","893685","0.0-1.0-794.0","0","0","76526","","null","","","null","88","","","","","","","","","","","","","","","",""
"","ISI","","html-keyboard-response","567","895688","0.0-1.0-795.0","0","0","76526","","null","","","null","88","NaN","","","","","","","","","","","","","","",""
"","S2","","html-keyboard-response","568","895941","0.0-1.0-796.0","0","0","76526","","null","","","null","88","","NaN","","","","","","","","","","","","","",""
"","response","","html-keyboard-response","569","896936","0.0-1.0-797.0-0.0","0","0","76526","","992","","","75","88","","","2","88","training","adjacent","GF","7","6","Q.jpg","O.jpg","0","0","1","",""
"","feedback","","html-keyboard-response","570","897939","0.0-1.0-798.0-0.0","0","0","76526","","null","","","null","88","","","","","","","","","","","","","","","",""
"","ITI","","html-keyboard-response","571","898941","0.0-1.0-801.0","0","0","76526","","91","","","75","88","","","","","","","","","","","","","","","k",""
"","S1","","html-keyboard-response","572","899195","0.0-1.0-803.0","0","0","76526","","null","","","null","89","","","","","","","","","","","","","","","",""
"","ISI","","html-keyboard-response","573","901197","0.0-1.0-804.0","0","0","76526","","null","","","null","89","NaN","","","","","","","","","","","","","","",""
"","S2","","html-keyboard-response","574","901451","0.0-1.0-805.0","0","0","76526","","null","","","null","89","","NaN","","","","","","","","","","","","","",""
"","response","","html-keyboard-response","575","902185","0.0-1.0-806.0-0.0","0","0","76526","","731","","","75","89","","","2","89","training","adjacent","FG","6","7","O.jpg","Q.jpg","0","1","0","",""
"","feedback","","html-keyboard-response","576","903189","0.0-1.0-807.0-0.0","0","0","76526","","null","","","null","89","","","","","","","","","","","","","","","",""
"","time_out","","html-keyboard-response","577","905191","0.0-1.0-809.0-0.0","0","0","76526","","null","","","null","89","","","","","","","","","","","","","","","",""
"","ITI","","html-keyboard-response","578","906194","0.0-1.0-810.0","0","0","76526","","null","","","null","89","","","","","","","","","","","","","","","NaN",""
