"success","ttype","start_time","trial_type","trial_index","time_elapsed","internal_node_id","warning","missed_checkup","PID","view_history","rt","responses","repeat_instructions","key_press","index","keypress_isi","keypress_S2","block","trial_num","phase","group_type","pair_type","S1_stim","S2_stim","S1_img","S2_img","S1_chosen","S1_higher","accuracy","keypress_iti","total_bonus_tally"
"true","full_screen","d04142023hr1606","fullscreen","0","1263469","0.0-0.0","0","0","77256","","","","","","","","","","","","","","","","","","","","","",""
"","instructions","","instructions","1","1286140","0.0-1.0-0.0-0.0","0","0","77256","[{""page_index"":0,""viewing_time"":3772},{""page_index"":1,""viewing_time"":6171},{""page_index"":2,""viewing_time"":11132},{""page_index"":3,""viewing_time"":1594}]","22669","","","","","","","","","","","","","","","","","","","",""
"","comprehension_check","","survey-multi-choice","2","1310277","0.0-1.0-0.0-1.0","0","0","77256","","24119","{""Q0"":""True"",""Q1"":""D"",""Q2"":""Once the second image appears and while the screen 'MAKE A CHOICE' is shown"",""Q3"":""Green mark"",""Q4"":""either D or K""}","0","","","","","","","","","","","","","","","","","",""
"","start_exp","","html-keyboard-response","3","1312415","0.0-1.0-1.0","0","0","77256","","2134","","","32","","","","","","","","","","","","","","","","",""
"","S1","","html-keyboard-response","4","1312669","0.0-1.0-2.0","0","0","77256","","null","","","null","0","","","","","","","","","","","","","","","",""
"","ISI","","html-keyboard-response","5","1313672","0.0-1.0-3.0","0","0","77256","","null","","","null","0","NaN","","","","","","","","","","","","","","",""
"","S2","","html-keyboard-response","6","1313925","0.0-1.0-4.0","0","0","77256","","null","","","null","0","","NaN","","","","","","","","","","","","","",""
"","response","","html-keyboard-response","7","1314888","0.0-1.0-5.0-0.0","0","0","77256","","961","","","68","0","","","1","0","training","adjacent","BA","2","1","N.jpg","P.jpg","1","0","0","",""
"","feedback","","html-keyboard-response","8","1315891","0.0-1.0-6.0-0.0","0","0","77256","","null","","","null","0","","","","","","","","","","","","","","","",""
"","time_out","","html-keyboard-response","9","1317894","0.0-1.0-8.0-0.0","0","0","77256","","null","","","null","0","","","","","","","","","","","","","","","",""
"","ITI","","html-keyboard-response","10","1318897","0.0-1.0-9.0","0","0","77256","","null","","","null","0","","","","","","","","","","","","","","","NaN",""
"","S1","","html-keyboard-response","11","1319150","0.0-1.0-11.0","0","0","77256","","null","","","null","1","","","","","","","","","","","","","","","",""
"","ISI","","html-keyboard-response","12","1320154","0.0-1.0-12.0","0","0","77256","","null","","","null","1","NaN","","","","","","","","","","","","","","",""
"","S2","","html-keyboard-response","13","1320407","0.0-1.0-13.0","0","0","77256","","null","","","null","1","","NaN","","","","","","","","","","","","","",""
"","response","","html-keyboard-response","14","1320860","0.0-1.0-14.0-0.0","0","0","77256","","450","","","75","1","","","1","1","training","adjacent","FE","6","5","O.jpg","R.jpg","0","0","1","",""
"","feedback","","html-keyboard-response","15","1321863","0.0-1.0-15.0-0.0","0","0","77256","","null","","","null","1","","","","","","","","","","","","","","","",""
"","ITI","","html-keyboard-response","16","1322866","0.0-1.0-18.0","0","0","77256","","null","","","null","1","","","","","","","","","","","","","","","NaN",""
"","S1","","html-keyboard-response","17","1323120","0.0-1.0-20.0","0","0","77256","","null","","","null","2","","","","","","","","","","","","","","","",""
"","ISI","","html-keyboard-response","18","1324124","0.0-1.0-21.0","0","0","77256","","null","","","null","2","NaN","","","","","","","","","","","","","","",""
"","S2","","html-keyboard-response","19","1324378","0.0-1.0-22.0","0","0","77256","","null","","","null","2","","NaN","","","","","","","","","","","","","",""
"","response","","html-keyboard-response","20","1324767","0.0-1.0-23.0-0.0","0","0","77256","","387","","","68","2","","","1","2","training","adjacent","EF","5","6","R.jpg","O.jpg","1","1","1","",""
"","feedback","","html-keyboard-response","21","1325770","0.0-1.0-24.0-0.0","0","0","77256","","null","","","null","2","","","","","","","","","","","","","","","",""
"","ITI","","html-keyboard-response","22","1326774","0.0-1.0-27.0","0","0","77256","","null","","","null","2","","","","","","","","","","","","","","","NaN",""
"","S1","","html-keyboard-response","23","1327026","0.0-1.0-29.0","0","0","77256","","null","","","null","3","","","","","","","","","","","","","","","",""
"","ISI","","html-keyboard-response","24","1328030","0.0-1.0-30.0","0","0","77256","","null","","","null","3","NaN","","","","","","","","","","","","","","",""
"","S2","","html-keyboard-response","25","1328283","0.0-1.0-31.0","0","0","77256","","null","","","null","3","","NaN","","","","","","","","","","","","","",""
"","response","","html-keyboard-response","26","1328733","0.0-1.0-32.0-0.0","0","0","77256","","448","","","75","3","","","1","3","training","adjacent","DE","4","5","L.jpg","R.jpg","0","1","0","",""
"","feedback","","html-keyboard-response","27","1329736","0.0-1.0-33.0-0.0","0","0","77256","","null","","","null","3","","","","","","","","","","","","","","","",""
"","time_out","","html-keyboard-response","28","1331739","0.0-1.0-35.0-0.0","0","0","77256","","null","","","null","3","","","","","","","","","","","","","","","",""
"","ITI","","html-keyboard-response","29","1332741","0.0-1.0-36.0","0","0","77256","","null","","","null","3","","","","","","","","","","","","","","","NaN",""
"","S1","","html-keyboard-response","30","1332995","0.0-1.0-38.0","0","0","77256","","null","","","null","4","","","","","","","","","","","","","","","",""
"","ISI","","html-keyboard-response","31","1333998","0.0-1.0-39.0","0","0","77256","","null","","","null","4","NaN","","","","","","","","","","","","","","",""
"","S2","","html-keyboard-response","32","1334252","0.0-1.0-40.0","0","0","77256","","null","","","null","4","","NaN","","","","","","","","","","","","","",""
"","response","","html-keyboard-response","33","1334576","0.0-1.0-41.0-0.0","0","0","77256","","322","","","68","4","","","1","4","training","adjacent","GF","7","6","M.jpg","O.jpg","1","0","0","",""
"","feedback","","html-keyboard-response","34","1335580","0.0-1.0-42.0-0.0","0","0","77256","","null","","","null","4","","","","","","","","","","","","","","","",""
"","time_out","","html-keyboard-response","35","1337584","0.0-1.0-44.0-0.0","0","0","77256","","null","","","null","4","","","","","","","","","","","","","","","",""
"","ITI","","html-keyboard-response","36","1338586","0.0-1.0-45.0","0","0","77256","","null","","","null","4","","","","","","","","","","","","","","","NaN",""
"","S1","","html-keyboard-response","37","1338840","0.0-1.0-47.0","0","0","77256","","null","","","null","5","","","","","","","","","","","","","","","",""
"","ISI","","html-keyboard-response","38","1339843","0.0-1.0-48.0","0","0","77256","","null","","","null","5","NaN","","","","","","","","","","","","","","",""
"","S2","","html-keyboard-response","39","1340096","0.0-1.0-49.0","0","0","77256","","null","","","null","5","","NaN","","","","","","","","","","","","","",""
"","response","","html-keyboard-response","40","1340189","0.0-1.0-50.0-0.0","0","0","77256","","91","","","68","5","","","1","5","training","adjacent","BA","2","1","N.jpg","P.jpg","1","0","0","",""
"","feedback","","html-keyboard-response","41","1341192","0.0-1.0-51.0-0.0","0","0","77256","","null","","","null","5","","","","","","","","","","","","","","","",""
"","time_out","","html-keyboard-response","42","1343195","0.0-1.0-53.0-0.0","0","0","77256","","null","","","null","5","","","","","","","","","","","","","","","",""
"","ITI","","html-keyboard-response","43","1344198","0.0-1.0-54.0","0","0","77256","","null","","","null","5","","","","","","","","","","","","","","","NaN",""
"","S1","","html-keyboard-response","44","1344451","0.0-1.0-56.0","0","0","77256","","null","","","null","6","","","","","","","","","","","","","","","",""
"","ISI","","html-keyboard-response","45","1345454","0.0-1.0-57.0","0","0","77256","","null","","","null","6","NaN","","","","","","","","","","","","","","",""
"","S2","","html-keyboard-response","46","1345707","0.0-1.0-58.0","0","0","77256","","null","","","null","6","","NaN","","","","","","","","","","","","","",""
"","response","","html-keyboard-response","47","1345861","0.0-1.0-59.0-0.0","0","0","77256","","150","","","75","6","","","1","6","training","adjacent","EF","5","6","R.jpg","O.jpg","0","1","0","",""
"","feedback","","html-keyboard-response","48","1346864","0.0-1.0-60.0-0.0","0","0","77256","","null","","","null","6","","","","","","","","","","","","","","","",""
"","time_out","","html-keyboard-response","49","1348868","0.0-1.0-62.0-0.0","0","0","77256","","null","","","null","6","","","","","","","","","","","","","","","",""
"","ITI","","html-keyboard-response","50","1349870","0.0-1.0-63.0","0","0","77256","","null","","","null","6","","","","","","","","","","","","","","","NaN",""
"","S1","","html-keyboard-response","51","1350124","0.0-1.0-65.0","0","0","77256","","null","","","null","7","","","","","","","","","","","","","","","",""
"","ISI","","html-keyboard-response","52","1351127","0.0-1.0-66.0","0","0","77256","","null","","","null","7","NaN","","","","","","","","","","","","","","",""
"","S2","","html-keyboard-response","53","1351380","0.0-1.0-67.0","0","0","77256","","null","","","null","7","","NaN","","","","","","","","","","","","","",""
"","response","","html-keyboard-response","54","1351383","0.0-1.0-68.0-0.0","0","0","77256","","0","","","68","7","","","1","7","training","adjacent","FE","6","5","O.jpg","R.jpg","1","0","0","",""
"","feedback","","html-keyboard-response","55","1352386","0.0-1.0-69.0-0.0","0","0","77256","","null","","","null","7","","","","","","","","","","","","","","","",""
"","time_out","","html-keyboard-response","56","1354389","0.0-1.0-71.0-0.0","0","0","77256","","null","","","null","7","","","","","","","","","","","","","","","",""
"","ITI","","html-keyboard-response","57","1355392","0.0-1.0-72.0","0","0","77256","","null","","","null","7","","","","","","","","","","","","","","","NaN",""
"","S1","","html-keyboard-response","58","1355644","0.0-1.0-74.0","0","0","77256","","null","","","null","8","","","","","","","","","","","","","","","",""
"","ISI","","html-keyboard-response","59","1356647","0.0-1.0-75.0","0","0","77256","","null","","","null","8","NaN","","","","","","","","","","","","","","",""
"","S2","","html-keyboard-response","60","1356901","0.0-1.0-76.0","0","0","77256","","null","","","null","8","","NaN","","","","","","","","","","","","","",""
"","response","","html-keyboard-response","61","1357295","0.0-1.0-77.0-0.0","0","0","77256","","392","","","68","8","","","1","8","training","adjacent","ED","5","4","R.jpg","L.jpg","1","0","0","",""
"","feedback","","html-keyboard-response","62","1358298","0.0-1.0-78.0-0.0","0","0","77256","","null","","","null","8","","","","","","","","","","","","","","","",""
"","time_out","","html-keyboard-response","63","1360301","0.0-1.0-80.0-0.0","0","0","77256","","null","","","null","8","","","","","","","","","","","","","","","",""
"","ITI","","html-keyboard-response","64","1361304","0.0-1.0-81.0","0","0","77256","","null","","","null","8","","","","","","","","","","","","","","","NaN",""
"","S1","","html-keyboard-response","65","1361558","0.0-1.0-83.0","0","0","77256","","null","","","null","9","","","","","","","","","","","","","","","",""
"","ISI","","html-keyboard-response","66","1362560","0.0-1.0-84.0","0","0","77256","","null","","","null","9","NaN","","","","","","","","","","","","","","",""
"","S2","","html-keyboard-response","67","1362814","0.0-1.0-85.0","0","0","77256","","null","","","null","9","","NaN","","","","","","","","","","","","","",""
"","response","","html-keyboard-response","68","1363115","0.0-1.0-86.0-0.0","0","0","77256","","298","","","75","9","","","1","9","training","adjacent","EF","5","6","R.jpg","O.jpg","0","1","0","",""
"","feedback","","html-keyboard-response","69","1364118","0.0-1.0-87.0-0.0","0","0","77256","","null","","","null","9","","","","","","","","","","","","","","","",""
"","time_out","","html-keyboard-response","70","1366120","0.0-1.0-89.0-0.0","0","0","77256","","null","","","null","9","","","","","","","","","","","","","","","",""
"","ITI","","html-keyboard-response","71","1367124","0.0-1.0-90.0","0","0","77256","","null","","","null","9","","","","","","","","","","","","","","","NaN",""
"","S1","","html-keyboard-response","72","1367378","0.0-1.0-92.0","0","0","77256","","null","","","null","10","","","","","","","","","","","","","","","",""
"","ISI","","html-keyboard-response","73","1368380","0.0-1.0-93.0","0","0","77256","","null","","","null","10","NaN","","","","","","","","","","","","","","",""
"","S2","","html-keyboard-response","74","1368634","0.0-1.0-94.0","0","0","77256","","null","","","null","10","","NaN","","","","","","","","","","","","","",""
"","response","","html-keyboard-response","75","1368868","0.0-1.0-95.0-0.0","0","0","77256","","232","","","75","10","","","1","10","training","adjacent","CD","3","4","Q.jpg","L.jpg","0","1","0","",""
"","feedback","","html-keyboard-response","76","1369871","0.0-1.0-96.0-0.0","0","0","77256","","null","","","null","10","","","","","","","","","","","","","","","",""
"","time_out","","html-keyboard-response","77","1371873","0.0-1.0-98.0-0.0","0","0","77256","","null","","","null","10","","","","","","","","","","","","","","","",""
"","ITI","","html-keyboard-response","78","1372876","0.0-1.0-99.0","0","0","77256","","null","","","null","10","","","","","","","","","","","","","","","NaN",""
"","S1","","html-keyboard-response","79","1373130","0.0-1.0-101.0","0","0","77256","","null","","","null","11","","","","","","","","","","","","","","","",""
"","ISI","","html-keyboard-response","80","1374133","0.0-1.0-102.0","0","0","77256","","null","","","null","11","NaN","","","","","","","","","","","","","","",""
"","S2","","html-keyboard-response","81","1374385","0.0-1.0-103.0","0","0","77256","","null","","","null","11","","NaN","","","","","","","","","","","","","",""
"","response","","html-keyboard-response","82","1374888","0.0-1.0-104.0-0.0","0","0","77256","","501","","","68","11","","","1","11","training","adjacent","ED","5","4","R.jpg","L.jpg","1","0","0","",""
"","feedback","","html-keyboard-response","83","1375890","0.0-1.0-105.0-0.0","0","0","77256","","null","","","null","11","","","","","","","","","","","","","","","",""
"","time_out","","html-keyboard-response","84","1377893","0.0-1.0-107.0-0.0","0","0","77256","","null","","","null","11","","","","","","","","","","","","","","","",""
"","ITI","","html-keyboard-response","85","1378896","0.0-1.0-108.0","0","0","77256","","null","","","null","11","","","","","","","","","","","","","","","NaN",""
"","S1","","html-keyboard-response","86","1379149","0.0-1.0-110.0","0","0","77256","","null","","","null","12","","","","","","","","","","","","","","","",""
"","ISI","","html-keyboard-response","87","1380152","0.0-1.0-111.0","0","0","77256","","null","","","null","12","NaN","","","","","","","","","","","","","","",""
"","S2","","html-keyboard-response","88","1380405","0.0-1.0-112.0","0","0","77256","","null","","","null","12","","NaN","","","","","","","","","","","","","",""
"","response","","html-keyboard-response","89","1380596","0.0-1.0-113.0-0.0","0","0","77256","","190","","","68","12","","","1","12","training","adjacent","DE","4","5","L.jpg","R.jpg","1","1","1","",""
"","feedback","","html-keyboard-response","90","1381599","0.0-1.0-114.0-0.0","0","0","77256","","null","","","null","12","","","","","","","","","","","","","","","",""
"","ITI","","html-keyboard-response","91","1382601","0.0-1.0-117.0","0","0","77256","","null","","","null","12","","","","","","","","","","","","","","","NaN",""
"","S1","","html-keyboard-response","92","1382855","0.0-1.0-119.0","0","0","77256","","null","","","null","13","","","","","","","","","","","","","","","",""
"","ISI","","html-keyboard-response","93","1383857","0.0-1.0-120.0","0","0","77256","","null","","","null","13","NaN","","","","","","","","","","","","","","",""
"","S2","","html-keyboard-response","94","1384110","0.0-1.0-121.0","0","0","77256","","null","","","null","13","","NaN","","","","","","","","","","","","","",""
"","response","","html-keyboard-response","95","1384465","0.0-1.0-122.0-0.0","0","0","77256","","354","","","68","13","","","1","13","training","adjacent","CB","3","2","Q.jpg","N.jpg","1","0","0","",""
"","feedback","","html-keyboard-response","96","1385469","0.0-1.0-123.0-0.0","0","0","77256","","null","","","null","13","","","","","","","","","","","","","","","",""
"","time_out","","html-keyboard-response","97","1387471","0.0-1.0-125.0-0.0","0","0","77256","","null","","","null","13","","","","","","","","","","","","","","","",""
"","ITI","","html-keyboard-response","98","1388474","0.0-1.0-126.0","0","0","77256","","null","","","null","13","","","","","","","","","","","","","","","NaN",""
"","S1","","html-keyboard-response","99","1388726","0.0-1.0-128.0","0","0","77256","","null","","","null","14","","","","","","","","","","","","","","","",""
"","ISI","","html-keyboard-response","100","1389729","0.0-1.0-129.0","0","0","77256","","null","","","null","14","NaN","","","","","","","","","","","","","","",""
"","S2","","html-keyboard-response","101","1389982","0.0-1.0-130.0","0","0","77256","","null","","","null","14","","NaN","","","","","","","","","","","","","",""
"","response","","html-keyboard-response","102","1390399","0.0-1.0-131.0-0.0","0","0","77256","","414","","","75","14","","","1","14","training","adjacent","CB","3","2","Q.jpg","N.jpg","0","0","1","",""
"","feedback","","html-keyboard-response","103","1391401","0.0-1.0-132.0-0.0","0","0","77256","","null","","","null","14","","","","","","","","","","","","","","","",""
"","ITI","","html-keyboard-response","104","1392404","0.0-1.0-135.0","0","0","77256","","null","","","null","14","","","","","","","","","","","","","","","NaN",""
"","S1","","html-keyboard-response","105","1392657","0.0-1.0-137.0","0","0","77256","","null","","","null","15","","","","","","","","","","","","","","","",""
"","ISI","","html-keyboard-response","106","1393660","0.0-1.0-138.0","0","0","77256","","null","","","null","15","NaN","","","","","","","","","","","","","","",""
"","S2","","html-keyboard-response","107","1393913","0.0-1.0-139.0","0","0","77256","","null","","","null","15","","NaN","","","","","","","","","","","","","",""
"","response","","html-keyboard-response","108","1394340","0.0-1.0-140.0-0.0","0","0","77256","","424","","","68","15","","","1","15","training","adjacent","DC","4","3","L.jpg","Q.jpg","1","0","0","",""
"","feedback","","html-keyboard-response","109","1395343","0.0-1.0-141.0-0.0","0","0","77256","","null","","","null","15","","","","","","","","","","","","","","","",""
"","time_out","","html-keyboard-response","110","1397345","0.0-1.0-143.0-0.0","0","0","77256","","null","","","null","15","","","","","","","","","","","","","","","",""
"","ITI","","html-keyboard-response","111","1398349","0.0-1.0-144.0","0","0","77256","","null","","","null","15","","","","","","","","","","","","","","","NaN",""
"","S1","","html-keyboard-response","112","1398601","0.0-1.0-146.0","0","0","77256","","null","","","null","16","","","","","","","","","","","","","","","",""
"","ISI","","html-keyboard-response","113","1399604","0.0-1.0-147.0","0","0","77256","","null","","","null","16","NaN","","","","","","","","","","","","","","",""
"","S2","","html-keyboard-response","114","1399857","0.0-1.0-148.0","0","0","77256","","null","","","null","16","","NaN","","","","","","","","","","","","","",""
"","response","","html-keyboard-response","115","1400302","0.0-1.0-149.0-0.0","0","0","77256","","444","","","75","16","","","1","16","training","adjacent","FE","6","5","O.jpg","R.jpg","0","0","1","",""
"","feedback","","html-keyboard-response","116","1401305","0.0-1.0-150.0-0.0","0","0","77256","","null","","","null","16","","","","","","","","","","","","","","","",""
"","ITI","","html-keyboard-response","117","1402308","0.0-1.0-153.0","0","0","77256","","null","","","null","16","","","","","","","","","","","","","","","NaN",""
"","S1","","html-keyboard-response","118","1402561","0.0-1.0-155.0","0","0","77256","","null","","","null","17","","","","","","","","","","","","","","","",""
"","ISI","","html-keyboard-response","119","1403564","0.0-1.0-156.0","0","0","77256","","null","","","null","17","NaN","","","","","","","","","","","","","","",""
"","S2","","html-keyboard-response","120","1403817","0.0-1.0-157.0","0","0","77256","","null","","","null","17","","NaN","","","","","","","","","","","","","",""
"","response","","html-keyboard-response","121","1404235","0.0-1.0-158.0-0.0","0","0","77256","","415","","","75","17","","","1","17","training","adjacent","CD","3","4","Q.jpg","L.jpg","0","1","0","",""
"","feedback","","html-keyboard-response","122","1405238","0.0-1.0-159.0-0.0","0","0","77256","","null","","","null","17","","","","","","","","","","","","","","","",""
"","time_out","","html-keyboard-response","123","1407241","0.0-1.0-161.0-0.0","0","0","77256","","null","","","null","17","","","","","","","","","","","","","","","",""
"","ITI","","html-keyboard-response","124","1408244","0.0-1.0-162.0","0","0","77256","","null","","","null","17","","","","","","","","","","","","","","","NaN",""
"","S1","","html-keyboard-response","125","1408498","0.0-1.0-164.0","0","0","77256","","null","","","null","18","","","","","","","","","","","","","","","",""
"","ISI","","html-keyboard-response","126","1409501","0.0-1.0-165.0","0","0","77256","","null","","","null","18","NaN","","","","","","","","","","","","","","",""
"","S2","","html-keyboard-response","127","1409753","0.0-1.0-166.0","0","0","77256","","null","","","null","18","","NaN","","","","","","","","","","","","","",""
"","response","","html-keyboard-response","128","1409978","0.0-1.0-167.0-0.0","0","0","77256","","223","","","68","18","","","1","18","training","adjacent","FG","6","7","O.jpg","M.jpg","1","1","1","",""
"","feedback","","html-keyboard-response","129","1410981","0.0-1.0-168.0-0.0","0","0","77256","","null","","","null","18","","","","","","","","","","","","","","","",""
"","ITI","","html-keyboard-response","130","1411984","0.0-1.0-171.0","0","0","77256","","null","","","null","18","","","","","","","","","","","","","","","NaN",""
"","S1","","html-keyboard-response","131","1412237","0.0-1.0-173.0","0","0","77256","","null","","","null","19","","","","","","","","","","","","","","","",""
"","ISI","","html-keyboard-response","132","1413241","0.0-1.0-174.0","0","0","77256","","null","","","null","19","NaN","","","","","","","","","","","","","","",""
"","S2","","html-keyboard-response","133","1413494","0.0-1.0-175.0","0","0","77256","","null","","","null","19","","NaN","","","","","","","","","","","","","",""
"","response","","html-keyboard-response","134","1413937","0.0-1.0-176.0-0.0","0","0","77256","","440","","","68","19","","","1","19","training","adjacent","DC","4","3","L.jpg","Q.jpg","1","0","0","",""
"","feedback","","html-keyboard-response","135","1414944","0.0-1.0-177.0-0.0","0","0","77256","","null","","","null","19","","","","","","","","","","","","","","","",""
"","time_out","","html-keyboard-response","136","1416946","0.0-1.0-179.0-0.0","0","0","77256","","null","","","null","19","","","","","","","","","","","","","","","",""
"","ITI","","html-keyboard-response","137","1417949","0.0-1.0-180.0","0","0","77256","","null","","","null","19","","","","","","","","","","","","","","","NaN",""
"","S1","","html-keyboard-response","138","1418202","0.0-1.0-182.0","0","0","77256","","null","","","null","20","","","","","","","","","","","","","","","",""
"","ISI","","html-keyboard-response","139","1419205","0.0-1.0-183.0","0","0","77256","","null","","","null","20","NaN","","","","","","","","","","","","","","",""
"","S2","","html-keyboard-response","140","1419458","0.0-1.0-184.0","0","0","77256","","null","","","null","20","","NaN","","","","","","","","","","","","","",""
"","response","","html-keyboard-response","141","1419735","0.0-1.0-185.0-0.0","0","0","77256","","275","","","75","20","","","1","20","training","adjacent","CD","3","4","Q.jpg","L.jpg","0","1","0","",""
"","feedback","","html-keyboard-response","142","1420739","0.0-1.0-186.0-0.0","0","0","77256","","null","","","null","20","","","","","","","","","","","","","","","",""
"","time_out","","html-keyboard-response","143","1422742","0.0-1.0-188.0-0.0","0","0","77256","","null","","","null","20","","","","","","","","","","","","","","","",""
"","ITI","","html-keyboard-response","144","1423745","0.0-1.0-189.0","0","0","77256","","null","","","null","20","","","","","","","","","","","","","","","NaN",""
"","S1","","html-keyboard-response","145","1424001","0.0-1.0-191.0","0","0","77256","","null","","","null","21","","","","","","","","","","","","","","","",""
"","ISI","","html-keyboard-response","146","1425004","0.0-1.0-192.0","0","0","77256","","null","","","null","21","NaN","","","","","","","","","","","","","","",""
"","S2","","html-keyboard-response","147","1425257","0.0-1.0-193.0","0","0","77256","","null","","","null","21","","NaN","","","","","","","","","","","","","",""
"","response","","html-keyboard-response","148","1425567","0.0-1.0-194.0-0.0","0","0","77256","","309","","","68","21","","","1","21","training","adjacent","FG","6","7","O.jpg","M.jpg","1","1","1","",""
"","feedback","","html-keyboard-response","149","1426571","0.0-1.0-195.0-0.0","0","0","77256","","null","","","null","21","","","","","","","","","","","","","","","",""
"","ITI","","html-keyboard-response","150","1427574","0.0-1.0-198.0","0","0","77256","","null","","","null","21","","","","","","","","","","","","","","","NaN",""
"","S1","","html-keyboard-response","151","1427826","0.0-1.0-200.0","0","0","77256","","null","","","null","22","","","","","","","","","","","","","","","",""
"","ISI","","html-keyboard-response","152","1428829","0.0-1.0-201.0","0","0","77256","","null","","","null","22","NaN","","","","","","","","","","","","","","",""
"","S2","","html-keyboard-response","153","1429083","0.0-1.0-202.0","0","0","77256","","null","","","null","22","","NaN","","","","","","","","","","","","","",""
"","response","","html-keyboard-response","154","1430311","0.0-1.0-203.0-0.0","0","0","77256","","1227","","","75","22","","","1","22","training","adjacent","AB","1","2","P.jpg","N.jpg","0","1","0","",""
"","feedback","","html-keyboard-response","155","1431314","0.0-1.0-204.0-0.0","0","0","77256","","null","","","null","22","","","","","","","","","","","","","","","",""
"","time_out","","html-keyboard-response","156","1433318","0.0-1.0-206.0-0.0","0","0","77256","","null","","","null","22","","","","","","","","","","","","","","","",""
"","ITI","","html-keyboard-response","157","1434321","0.0-1.0-207.0","0","0","77256","","null","","","null","22","","","","","","","","","","","","","","","NaN",""
"","S1","","html-keyboard-response","158","1434575","0.0-1.0-209.0","0","0","77256","","null","","","null","23","","","","","","","","","","","","","","","",""
"","ISI","","html-keyboard-response","159","1435577","0.0-1.0-210.0","0","0","77256","","null","","","null","23","NaN","","","","","","","","","","","","","","",""
"","S2","","html-keyboard-response","160","1435832","0.0-1.0-211.0","0","0","77256","","null","","","null","23","","NaN","","","","","","","","","","","","","",""
"","response","","html-keyboard-response","161","1436104","0.0-1.0-212.0-0.0","0","0","77256","","270","","","68","23","","","1","23","training","adjacent","EF","5","6","R.jpg","O.jpg","1","1","1","",""
"","feedback","","html-keyboard-response","162","1437107","0.0-1.0-213.0-0.0","0","0","77256","","null","","","null","23","","","","","","","","","","","","","","","",""
"","ITI","","html-keyboard-response","163","1438110","0.0-1.0-216.0","0","0","77256","","null","","","null","23","","","","","","","","","","","","","","","NaN",""
"","S1","","html-keyboard-response","164","1438364","0.0-1.0-218.0","0","0","77256","","null","","","null","24","","","","","","","","","","","","","","","",""
"","ISI","","html-keyboard-response","165","1439367","0.0-1.0-219.0","0","0","77256","","null","","","null","24","NaN","","","","","","","","","","","","","","",""
"","S2","","html-keyboard-response","166","1439621","0.0-1.0-220.0","0","0","77256","","null","","","null","24","","NaN","","","","","","","","","","","","","",""
"","response","","html-keyboard-response","167","1439915","0.0-1.0-221.0-0.0","0","0","77256","","291","","","75","24","","","1","24","training","adjacent","AB","1","2","P.jpg","N.jpg","0","1","0","",""
"","feedback","","html-keyboard-response","168","1440918","0.0-1.0-222.0-0.0","0","0","77256","","null","","","null","24","","","","","","","","","","","","","","","",""
"","time_out","","html-keyboard-response","169","1442921","0.0-1.0-224.0-0.0","0","0","77256","","null","","","null","24","","","","","","","","","","","","","","","",""
"","ITI","","html-keyboard-response","170","1443923","0.0-1.0-225.0","0","0","77256","","null","","","null","24","","","","","","","","","","","","","","","NaN",""
"","S1","","html-keyboard-response","171","1444177","0.0-1.0-227.0","0","0","77256","","null","","","null","25","","","","","","","","","","","","","","","",""
"","ISI","","html-keyboard-response","172","1445180","0.0-1.0-228.0","0","0","77256","","null","","","null","25","NaN","","","","","","","","","","","","","","",""
"","S2","","html-keyboard-response","173","1445434","0.0-1.0-229.0","0","0","77256","","null","","","null","25","","NaN","","","","","","","","","","","","","",""
"","response","","html-keyboard-response","174","1445765","0.0-1.0-230.0-0.0","0","0","77256","","328","","","68","25","","","1","25","training","adjacent","DC","4","3","L.jpg","Q.jpg","1","0","0","",""
"","feedback","","html-keyboard-response","175","1446768","0.0-1.0-231.0-0.0","0","0","77256","","null","","","null","25","","","","","","","","","","","","","","","",""
"","time_out","","html-keyboard-response","176","1448771","0.0-1.0-233.0-0.0","0","0","77256","","null","","","null","25","","","","","","","","","","","","","","","",""
"","ITI","","html-keyboard-response","177","1449774","0.0-1.0-234.0","0","0","77256","","null","","","null","25","","","","","","","","","","","","","","","NaN",""
"","S1","","html-keyboard-response","178","1450027","0.0-1.0-236.0","0","0","77256","","null","","","null","26","","","","","","","","","","","","","","","",""
"","ISI","","html-keyboard-response","179","1451030","0.0-1.0-237.0","0","0","77256","","null","","","null","26","NaN","","","","","","","","","","","","","","",""
"","S2","","html-keyboard-response","180","1451283","0.0-1.0-238.0","0","0","77256","","null","","","null","26","","NaN","","","","","","","","","","","","","",""
"","response","","html-keyboard-response","181","1451832","0.0-1.0-239.0-0.0","0","0","77256","","546","","","75","26","","","1","26","training","adjacent","ED","5","4","R.jpg","L.jpg","0","0","1","",""
"","feedback","","html-keyboard-response","182","1452834","0.0-1.0-240.0-0.0","0","0","77256","","null","","","null","26","","","","","","","","","","","","","","","",""
"","ITI","","html-keyboard-response","183","1453837","0.0-1.0-243.0","0","0","77256","","null","","","null","26","","","","","","","","","","","","","","","NaN",""
"","S1","","html-keyboard-response","184","1454090","0.0-1.0-245.0","0","0","77256","","null","","","null","27","","","","","","","","","","","","","","","",""
"","ISI","","html-keyboard-response","185","1455093","0.0-1.0-246.0","0","0","77256","","null","","","null","27","NaN","","","","","","","","","","","","","","",""
"","S2","","html-keyboard-response","186","1455347","0.0-1.0-247.0","0","0","77256","","null","","","null","27","","NaN","","","","","","","","","","","","","",""
"","response","","html-keyboard-response","187","1456290","0.0-1.0-248.0-0.0","0","0","77256","","941","","","75","27","","","1","27","training","adjacent","FG","6","7","O.jpg","M.jpg","0","1","0","",""
"","feedback","","html-keyboard-response","188","1457293","0.0-1.0-249.0-0.0","0","0","77256","","null","","","null","27","","","","","","","","","","","","","","","",""
"","time_out","","html-keyboard-response","189","1459296","0.0-1.0-251.0-0.0","0","0","77256","","null","","","null","27","","","","","","","","","","","","","","","",""
"","ITI","","html-keyboard-response","190","1460299","0.0-1.0-252.0","0","0","77256","","null","","","null","27","","","","","","","","","","","","","","","NaN",""
"","S1","","html-keyboard-response","191","1460552","0.0-1.0-254.0","0","0","77256","","null","","","null","28","","","","","","","","","","","","","","","",""
"","ISI","","html-keyboard-response","192","1461555","0.0-1.0-255.0","0","0","77256","","null","","","null","28","NaN","","","","","","","","","","","","","","",""
"","S2","","html-keyboard-response","193","1461807","0.0-1.0-256.0","0","0","77256","","null","","","null","28","","NaN","","","","","","","","","","","","","",""
"","response","","html-keyboard-response","194","1462078","0.0-1.0-257.0-0.0","0","0","77256","","269","","","68","28","","","1","28","training","adjacent","CD","3","4","Q.jpg","L.jpg","1","1","1","",""
"","feedback","","html-keyboard-response","195","1463083","0.0-1.0-258.0-0.0","0","0","77256","","null","","","null","28","","","","","","","","","","","","","","","",""
"","ITI","","html-keyboard-response","196","1464086","0.0-1.0-261.0","0","0","77256","","null","","","null","28","","","","","","","","","","","","","","","NaN",""
"","S1","","html-keyboard-response","197","1464338","0.0-1.0-263.0","0","0","77256","","null","","","null","29","","","","","","","","","","","","","","","",""
"","ISI","","html-keyboard-response","198","1465342","0.0-1.0-264.0","0","0","77256","","null","","","null","29","NaN","","","","","","","","","","","","","","",""
"","S2","","html-keyboard-response","199","1465595","0.0-1.0-265.0","0","0","77256","","null","","","null","29","","NaN","","","","","","","","","","","","","",""
"","response","","html-keyboard-response","200","1465862","0.0-1.0-266.0-0.0","0","0","77256","","266","","","75","29","","","1","29","training","adjacent","CB","3","2","Q.jpg","N.jpg","0","0","1","",""
"","feedback","","html-keyboard-response","201","1466865","0.0-1.0-267.0-0.0","0","0","77256","","null","","","null","29","","","","","","","","","","","","","","","",""
"","ITI","","html-keyboard-response","202","1467868","0.0-1.0-270.0","0","0","77256","","null","","","null","29","","","","","","","","","","","","","","","NaN",""
"","S1","","html-keyboard-response","203","1468121","0.0-1.0-272.0","0","0","77256","","null","","","null","30","","","","","","","","","","","","","","","",""
"","ISI","","html-keyboard-response","204","1469123","0.0-1.0-273.0","0","0","77256","","null","","","null","30","NaN","","","","","","","","","","","","","","",""
"","S2","","html-keyboard-response","205","1469376","0.0-1.0-274.0","0","0","77256","","null","","","null","30","","NaN","","","","","","","","","","","","","",""
"","response","","html-keyboard-response","206","1469487","0.0-1.0-275.0-0.0","0","0","77256","","108","","","75","30","","","1","30","training","adjacent","FG","6","7","O.jpg","M.jpg","0","1","0","",""
"","feedback","","html-keyboard-response","207","1470490","0.0-1.0-276.0-0.0","0","0","77256","","null","","","null","30","","","","","","","","","","","","","","","",""
"","time_out","","html-keyboard-response","208","1472493","0.0-1.0-278.0-0.0","0","0","77256","","null","","","null","30","","","","","","","","","","","","","","","",""
"","ITI","","html-keyboard-response","209","1473496","0.0-1.0-279.0","0","0","77256","","null","","","null","30","","","","","","","","","","","","","","","NaN",""
"","S1","","html-keyboard-response","210","1473750","0.0-1.0-281.0","0","0","77256","","null","","","null","31","","","","","","","","","","","","","","","",""
"","ISI","","html-keyboard-response","211","1474752","0.0-1.0-282.0","0","0","77256","","null","","","null","31","NaN","","","","","","","","","","","","","","",""
"","S2","","html-keyboard-response","212","1475007","0.0-1.0-283.0","0","0","77256","","null","","","null","31","","NaN","","","","","","","","","","","","","",""
"","response","","html-keyboard-response","213","1475187","0.0-1.0-284.0-0.0","0","0","77256","","179","","","68","31","","","1","31","training","adjacent","DC","4","3","L.jpg","Q.jpg","1","0","0","",""
"","feedback","","html-keyboard-response","214","1476190","0.0-1.0-285.0-0.0","0","0","77256","","null","","","null","31","","","","","","","","","","","","","","","",""
"","time_out","","html-keyboard-response","215","1478194","0.0-1.0-287.0-0.0","0","0","77256","","null","","","null","31","","","","","","","","","","","","","","","",""
"","ITI","","html-keyboard-response","216","1479197","0.0-1.0-288.0","0","0","77256","","null","","","null","31","","","","","","","","","","","","","","","NaN",""
"","S1","","html-keyboard-response","217","1479450","0.0-1.0-290.0","0","0","77256","","null","","","null","32","","","","","","","","","","","","","","","",""
"","ISI","","html-keyboard-response","218","1480453","0.0-1.0-291.0","0","0","77256","","null","","","null","32","NaN","","","","","","","","","","","","","","",""
"","S2","","html-keyboard-response","219","1480706","0.0-1.0-292.0","0","0","77256","","null","","","null","32","","NaN","","","","","","","","","","","","","",""
"","response","","html-keyboard-response","220","1481095","0.0-1.0-293.0-0.0","0","0","77256","","387","","","75","32","","","1","32","training","adjacent","GF","7","6","M.jpg","O.jpg","0","0","1","",""
"","feedback","","html-keyboard-response","221","1482098","0.0-1.0-294.0-0.0","0","0","77256","","null","","","null","32","","","","","","","","","","","","","","","",""
"","ITI","","html-keyboard-response","222","1483101","0.0-1.0-297.0","0","0","77256","","null","","","null","32","","","","","","","","","","","","","","","NaN",""
"","S1","","html-keyboard-response","223","1483354","0.0-1.0-299.0","0","0","77256","","null","","","null","33","","","","","","","","","","","","","","","",""
"","ISI","","html-keyboard-response","224","1484357","0.0-1.0-300.0","0","0","77256","","null","","","null","33","NaN","","","","","","","","","","","","","","",""
"","S2","","html-keyboard-response","225","1484610","0.0-1.0-301.0","0","0","77256","","null","","","null","33","","NaN","","","","","","","","","","","","","",""
"","response","","html-keyboard-response","226","1484894","0.0-1.0-302.0-0.0","0","0","77256","","282","","","68","33","","","1","33","training","adjacent","GF","7","6","M.jpg","O.jpg","1","0","0","",""
"","feedback","","html-keyboard-response","227","1485897","0.0-1.0-303.0-0.0","0","0","77256","","null","","","null","33","","","","","","","","","","","","","","","",""
"","time_out","","html-keyboard-response","228","1487900","0.0-1.0-305.0-0.0","0","0","77256","","null","","","null","33","","","","","","","","","","","","","","","",""
"","ITI","","html-keyboard-response","229","1488904","0.0-1.0-306.0","0","0","77256","","null","","","null","33","","","","","","","","","","","","","","","NaN",""
"","S1","","html-keyboard-response","230","1489156","0.0-1.0-308.0","0","0","77256","","null","","","null","34","","","","","","","","","","","","","","","",""
"","ISI","","html-keyboard-response","231","1490159","0.0-1.0-309.0","0","0","77256","","null","","","null","34","NaN","","","","","","","","","","","","","","",""
"","S2","","html-keyboard-response","232","1490412","0.0-1.0-310.0","0","0","77256","","null","","","null","34","","NaN","","","","","","","","","","","","","",""
"","response","","html-keyboard-response","233","1490739","0.0-1.0-311.0-0.0","0","0","77256","","325","","","75","34","","","1","34","training","adjacent","BC","2","3","N.jpg","Q.jpg","0","1","0","",""
"","feedback","","html-keyboard-response","234","1491742","0.0-1.0-312.0-0.0","0","0","77256","","null","","","null","34","","","","","","","","","","","","","","","",""
"","time_out","","html-keyboard-response","235","1493745","0.0-1.0-314.0-0.0","0","0","77256","","null","","","null","34","","","","","","","","","","","","","","","",""
"","ITI","","html-keyboard-response","236","1494747","0.0-1.0-315.0","0","0","77256","","null","","","null","34","","","","","","","","","","","","","","","NaN",""
"","S1","","html-keyboard-response","237","1495001","0.0-1.0-317.0","0","0","77256","","null","","","null","35","","","","","","","","","","","","","","","",""
"","ISI","","html-keyboard-response","238","1496003","0.0-1.0-318.0","0","0","77256","","null","","","null","35","NaN","","","","","","","","","","","","","","",""
"","S2","","html-keyboard-response","239","1496256","0.0-1.0-319.0","0","0","77256","","null","","","null","35","","NaN","","","","","","","","","","","","","",""
"","response","","html-keyboard-response","240","1496557","0.0-1.0-320.0-0.0","0","0","77256","","299","","","75","35","","","1","35","training","adjacent","ED","5","4","R.jpg","L.jpg","0","0","1","",""
"","feedback","","html-keyboard-response","241","1497561","0.0-1.0-321.0-0.0","0","0","77256","","null","","","null","35","","","","","","","","","","","","","","","",""
"","ITI","","html-keyboard-response","242","1498564","0.0-1.0-324.0","0","0","77256","","null","","","null","35","","","","","","","","","","","","","","","NaN",""
"","S1","","html-keyboard-response","243","1498818","0.0-1.0-326.0","0","0","77256","","null","","","null","36","","","","","","","","","","","","","","","",""
"","ISI","","html-keyboard-response","244","1499821","0.0-1.0-327.0","0","0","77256","","null","","","null","36","NaN","","","","","","","","","","","","","","",""
"","S2","","html-keyboard-response","245","1500075","0.0-1.0-328.0","0","0","77256","","null","","","null","36","","NaN","","","","","","","","","","","","","",""
"","response","","html-keyboard-response","246","1500425","0.0-1.0-329.0-0.0","0","0","77256","","348","","","75","36","","","1","36","training","adjacent","CB","3","2","Q.jpg","N.jpg","0","0","1","",""
"","feedback","","html-keyboard-response","247","1501429","0.0-1.0-330.0-0.0","0","0","77256","","null","","","null","36","","","","","","","","","","","","","","","",""
"","ITI","","html-keyboard-response","248","1502447","0.0-1.0-333.0","0","0","77256","","null","","","null","36","","","","","","","","","","","","","","","NaN",""
"","S1","","html-keyboard-response","249","1502700","0.0-1.0-335.0","0","0","77256","","null","","","null","37","","","","","","","","","","","","","","","",""
"","ISI","","html-keyboard-response","250","1503704","0.0-1.0-336.0","0","0","77256","","null","","","null","37","NaN","","","","","","","","","","","","","","",""
"","S2","","html-keyboard-response","251","1503958","0.0-1.0-337.0","0","0","77256","","null","","","null","37","","NaN","","","","","","","","","","","","","",""
"","response","","html-keyboard-response","252","1504262","0.0-1.0-338.0-0.0","0","0","77256","","303","","","68","37","","","1","37","training","adjacent","DE","4","5","L.jpg","R.jpg","1","1","1","",""
"","feedback","","html-keyboard-response","253","1505265","0.0-1.0-339.0-0.0","0","0","77256","","null","","","null","37","","","","","","","","","","","","","","","",""
"","ITI","","html-keyboard-response","254","1506269","0.0-1.0-342.0","0","0","77256","","null","","","null","37","","","","","","","","","","","","","","","NaN",""
"","S1","","html-keyboard-response","255","1506522","0.0-1.0-344.0","0","0","77256","","null","","","null","38","","","","","","","","","","","","","","","",""
"","ISI","","html-keyboard-response","256","1507525","0.0-1.0-345.0","0","0","77256","","null","","","null","38","NaN","","","","","","","","","","","","","","",""
"","S2","","html-keyboard-response","257","1507779","0.0-1.0-346.0","0","0","77256","","null","","","null","38","","NaN","","","","","","","","","","","","","",""
"","response","","html-keyboard-response","258","1508054","0.0-1.0-347.0-0.0","0","0","77256","","273","","","75","38","","","1","38","training","adjacent","BC","2","3","N.jpg","Q.jpg","0","1","0","",""
"","feedback","","html-keyboard-response","259","1509056","0.0-1.0-348.0-0.0","0","0","77256","","null","","","null","38","","","","","","","","","","","","","","","",""
"","time_out","","html-keyboard-response","260","1511060","0.0-1.0-350.0-0.0","0","0","77256","","null","","","null","38","","","","","","","","","","","","","","","",""
"","ITI","","html-keyboard-response","261","1512063","0.0-1.0-351.0","0","0","77256","","null","","","null","38","","","","","","","","","","","","","","","NaN",""
"","S1","","html-keyboard-response","262","1512326","0.0-1.0-353.0","0","0","77256","","null","","","null","39","","","","","","","","","","","","","","","",""
"","ISI","","html-keyboard-response","263","1513329","0.0-1.0-354.0","0","0","77256","","null","","","null","39","NaN","","","","","","","","","","","","","","",""
"","S2","","html-keyboard-response","264","1513582","0.0-1.0-355.0","0","0","77256","","null","","","null","39","","NaN","","","","","","","","","","","","","",""
"","response","","html-keyboard-response","265","1513851","0.0-1.0-356.0-0.0","0","0","77256","","266","","","68","39","","","1","39","training","adjacent","AB","1","2","P.jpg","N.jpg","1","1","1","",""
"","feedback","","html-keyboard-response","266","1514854","0.0-1.0-357.0-0.0","0","0","77256","","null","","","null","39","","","","","","","","","","","","","","","",""
"","ITI","","html-keyboard-response","267","1515857","0.0-1.0-360.0","0","0","77256","","null","","","null","39","","","","","","","","","","","","","","","NaN",""
"","S1","","html-keyboard-response","268","1516110","0.0-1.0-362.0","0","0","77256","","null","","","null","40","","","","","","","","","","","","","","","",""
"","ISI","","html-keyboard-response","269","1517113","0.0-1.0-363.0","0","0","77256","","null","","","null","40","NaN","","","","","","","","","","","","","","",""
"","S2","","html-keyboard-response","270","1517366","0.0-1.0-364.0","0","0","77256","","null","","","null","40","","NaN","","","","","","","","","","","","","",""
"","response","","html-keyboard-response","271","1517914","0.0-1.0-365.0-0.0","0","0","77256","","545","","","68","40","","","1","40","training","adjacent","BC","2","3","N.jpg","Q.jpg","1","1","1","",""
"","feedback","","html-keyboard-response","272","1518917","0.0-1.0-366.0-0.0","0","0","77256","","null","","","null","40","","","","","","","","","","","","","","","",""
"","ITI","","html-keyboard-response","273","1519921","0.0-1.0-369.0","0","0","77256","","null","","","null","40","","","","","","","","","","","","","","","NaN",""
"","S1","","html-keyboard-response","274","1520174","0.0-1.0-371.0","0","0","77256","","null","","","null","41","","","","","","","","","","","","","","","",""
"","ISI","","html-keyboard-response","275","1521176","0.0-1.0-372.0","0","0","77256","","null","","","null","41","NaN","","","","","","","","","","","","","","",""
"","S2","","html-keyboard-response","276","1521429","0.0-1.0-373.0","0","0","77256","","null","","","null","41","","NaN","","","","","","","","","","","","","",""
"","response","","html-keyboard-response","277","1521739","0.0-1.0-374.0-0.0","0","0","77256","","308","","","68","41","","","1","41","training","adjacent","GF","7","6","M.jpg","O.jpg","1","0","0","",""
"","feedback","","html-keyboard-response","278","1522751","0.0-1.0-375.0-0.0","0","0","77256","","null","","","null","41","","","","","","","","","","","","","","","",""
"","time_out","","html-keyboard-response","279","1524754","0.0-1.0-377.0-0.0","0","0","77256","","null","","","null","41","","","","","","","","","","","","","","","",""
"","ITI","","html-keyboard-response","280","1525758","0.0-1.0-378.0","0","0","77256","","null","","","null","41","","","","","","","","","","","","","","","NaN",""
"","S1","","html-keyboard-response","281","1526011","0.0-1.0-380.0","0","0","77256","","null","","","null","42","","","","","","","","","","","","","","","",""
"","ISI","","html-keyboard-response","282","1527013","0.0-1.0-381.0","0","0","77256","","null","","","null","42","NaN","","","","","","","","","","","","","","",""
"","S2","","html-keyboard-response","283","1527266","0.0-1.0-382.0","0","0","77256","","null","","","null","42","","NaN","","","","","","","","","","","","","",""
"","response","","html-keyboard-response","284","1527520","0.0-1.0-383.0-0.0","0","0","77256","","252","","","68","42","","","1","42","training","adjacent","FE","6","5","O.jpg","R.jpg","1","0","0","",""
"","feedback","","html-keyboard-response","285","1528524","0.0-1.0-384.0-0.0","0","0","77256","","null","","","null","42","","","","","","","","","","","","","","","",""
"","time_out","","html-keyboard-response","286","1530527","0.0-1.0-386.0-0.0","0","0","77256","","null","","","null","42","","","","","","","","","","","","","","","",""
"","ITI","","html-keyboard-response","287","1531531","0.0-1.0-387.0","0","0","77256","","null","","","null","42","","","","","","","","","","","","","","","NaN",""
"","S1","","html-keyboard-response","288","1531784","0.0-1.0-389.0","0","0","77256","","null","","","null","43","","","","","","","","","","","","","","","",""
"","ISI","","html-keyboard-response","289","1532787","0.0-1.0-390.0","0","0","77256","","null","","","null","43","NaN","","","","","","","","","","","","","","",""
"","S2","","html-keyboard-response","290","1533040","0.0-1.0-391.0","0","0","77256","","null","","","null","43","","NaN","","","","","","","","","","","","","",""
"","response","","html-keyboard-response","291","1533406","0.0-1.0-392.0-0.0","0","0","77256","","363","","","75","43","","","1","43","training","adjacent","BA","2","1","N.jpg","P.jpg","0","0","1","",""
"","feedback","","html-keyboard-response","292","1534409","0.0-1.0-393.0-0.0","0","0","77256","","null","","","null","43","","","","","","","","","","","","","","","",""
"","ITI","","html-keyboard-response","293","1535412","0.0-1.0-396.0","0","0","77256","","null","","","null","43","","","","","","","","","","","","","","","NaN",""
"","S1","","html-keyboard-response","294","1535665","0.0-1.0-398.0","0","0","77256","","null","","","null","44","","","","","","","","","","","","","","","",""
"","ISI","","html-keyboard-response","295","1536670","0.0-1.0-399.0","0","0","77256","","null","","","null","44","NaN","","","","","","","","","","","","","","",""
"","S2","","html-keyboard-response","296","1536923","0.0-1.0-400.0","0","0","77256","","null","","","null","44","","NaN","","","","","","","","","","","","","",""
"","response","","html-keyboard-response","297","1537238","0.0-1.0-401.0-0.0","0","0","77256","","312","","","75","44","","","1","44","training","adjacent","BA","2","1","N.jpg","P.jpg","0","0","1","",""
"","feedback","","html-keyboard-response","298","1538242","0.0-1.0-402.0-0.0","0","0","77256","","null","","","null","44","","","","","","","","","","","","","","","",""
"","ITI","","html-keyboard-response","299","1539244","0.0-1.0-405.0","0","0","77256","","null","","","null","44","","","","","","","","","","","","","","","NaN",""
"","S1","","html-keyboard-response","300","1539498","0.0-1.0-407.0","0","0","77256","","null","","","null","45","","","","","","","","","","","","","","","",""
"","ISI","","html-keyboard-response","301","1540501","0.0-1.0-408.0","0","0","77256","","null","","","null","45","NaN","","","","","","","","","","","","","","",""
"","S2","","html-keyboard-response","302","1540754","0.0-1.0-409.0","0","0","77256","","null","","","null","45","","NaN","","","","","","","","","","","","","",""
"","response","","html-keyboard-response","303","1541037","0.0-1.0-410.0-0.0","0","0","77256","","280","","","68","45","","","1","45","training","adjacent","AB","1","2","P.jpg","N.jpg","1","1","1","",""
"","feedback","","html-keyboard-response","304","1542040","0.0-1.0-411.0-0.0","0","0","77256","","null","","","null","45","","","","","","","","","","","","","","","",""
"","ITI","","html-keyboard-response","305","1543043","0.0-1.0-414.0","0","0","77256","","null","","","null","45","","","","","","","","","","","","","","","NaN",""
"","S1","","html-keyboard-response","306","1543295","0.0-1.0-416.0","0","0","77256","","null","","","null","46","","","","","","","","","","","","","","","",""
"","ISI","","html-keyboard-response","307","1544298","0.0-1.0-417.0","0","0","77256","","null","","","null","46","NaN","","","","","","","","","","","","","","",""
"","S2","","html-keyboard-response","308","1544552","0.0-1.0-418.0","0","0","77256","","null","","","null","46","","NaN","","","","","","","","","","","","","",""
"","response","","html-keyboard-response","309","1544914","0.0-1.0-419.0-0.0","0","0","77256","","361","","","68","46","","","1","46","training","adjacent","DE","4","5","L.jpg","R.jpg","1","1","1","",""
"","feedback","","html-keyboard-response","310","1545918","0.0-1.0-420.0-0.0","0","0","77256","","null","","","null","46","","","","","","","","","","","","","","","",""
"","ITI","","html-keyboard-response","311","1546922","0.0-1.0-423.0","0","0","77256","","null","","","null","46","","","","","","","","","","","","","","","NaN",""
"","S1","","html-keyboard-response","312","1547175","0.0-1.0-425.0","0","0","77256","","null","","","null","47","","","","","","","","","","","","","","","",""
"","ISI","","html-keyboard-response","313","1548179","0.0-1.0-426.0","0","0","77256","","null","","","null","47","NaN","","","","","","","","","","","","","","",""
"","S2","","html-keyboard-response","314","1548442","0.0-1.0-427.0","0","0","77256","","null","","","null","47","","NaN","","","","","","","","","","","","","",""
"","response","","html-keyboard-response","315","1548807","0.0-1.0-428.0-0.0","0","0","77256","","362","","","68","47","","","1","47","training","adjacent","BC","2","3","N.jpg","Q.jpg","1","1","1","",""
"","feedback","","html-keyboard-response","316","1549811","0.0-1.0-429.0-0.0","0","0","77256","","null","","","null","47","","","","","","","","","","","","","","","",""
"","ITI","","html-keyboard-response","317","1550815","0.0-1.0-432.0","0","0","77256","","null","","","null","47","","","","","","","","","","","","","","","NaN",""
"","block_over","","html-keyboard-response","318","1552967","0.0-1.0-433.0-0.0","0","0","77256","","2148","","","32","47","","","","","","","","","","","","","","","",""
"","S1","","html-keyboard-response","319","1553220","0.0-1.0-434.0","0","0","77256","","null","","","null","48","","","","","","","","","","","","","","","",""
"","ISI","","html-keyboard-response","320","1554223","0.0-1.0-435.0","0","0","77256","","null","","","null","48","NaN","","","","","","","","","","","","","","",""
"","S2","","html-keyboard-response","321","1554476","0.0-1.0-436.0","0","0","77256","","null","","","null","48","","NaN","","","","","","","","","","","","","",""
"","response","","html-keyboard-response","322","1554849","0.0-1.0-437.0-0.0","0","0","77256","","372","","","68","48","","","2","48","training","adjacent","AB","1","2","P.jpg","N.jpg","1","1","1","",""
"","feedback","","html-keyboard-response","323","1555853","0.0-1.0-438.0-0.0","0","0","77256","","null","","","null","48","","","","","","","","","","","","","","","",""
"","ITI","","html-keyboard-response","324","1556856","0.0-1.0-441.0","0","0","77256","","null","","","null","48","","","","","","","","","","","","","","","NaN",""
"","S1","","html-keyboard-response","325","1557109","0.0-1.0-443.0","0","0","77256","","null","","","null","49","","","","","","","","","","","","","","","",""
"","ISI","","html-keyboard-response","326","1558111","0.0-1.0-444.0","0","0","77256","","null","","","null","49","NaN","","","","","","","","","","","","","","",""
"","S2","","html-keyboard-response","327","1558365","0.0-1.0-445.0","0","0","77256","","null","","","null","49","","NaN","","","","","","","","","","","","","",""
"","response","","html-keyboard-response","328","1558687","0.0-1.0-446.0-0.0","0","0","77256","","320","","","68","49","","","2","49","training","adjacent","DC","4","3","L.jpg","Q.jpg","1","0","0","",""
"","feedback","","html-keyboard-response","329","1559691","0.0-1.0-447.0-0.0","0","0","77256","","null","","","null","49","","","","","","","","","","","","","","","",""
"","time_out","","html-keyboard-response","330","1561694","0.0-1.0-449.0-0.0","0","0","77256","","null","","","null","49","","","","","","","","","","","","","","","",""
"","ITI","","html-keyboard-response","331","1562697","0.0-1.0-450.0","0","0","77256","","null","","","null","49","","","","","","","","","","","","","","","NaN",""
"","S1","","html-keyboard-response","332","1562950","0.0-1.0-452.0","0","0","77256","","null","","","null","50","","","","","","","","","","","","","","","",""
"","ISI","","html-keyboard-response","333","1563954","0.0-1.0-453.0","0","0","77256","","null","","","null","50","NaN","","","","","","","","","","","","","","",""
"","S2","","html-keyboard-response","334","1564208","0.0-1.0-454.0","0","0","77256","","null","","","null","50","","NaN","","","","","","","","","","","","","",""
"","response","","html-keyboard-response","335","1564535","0.0-1.0-455.0-0.0","0","0","77256","","325","","","75","50","","","2","50","training","adjacent","BA","2","1","N.jpg","P.jpg","0","0","1","",""
"","feedback","","html-keyboard-response","336","1565540","0.0-1.0-456.0-0.0","0","0","77256","","null","","","null","50","","","","","","","","","","","","","","","",""
"","ITI","","html-keyboard-response","337","1566543","0.0-1.0-459.0","0","0","77256","","null","","","null","50","","","","","","","","","","","","","","","NaN",""
"","S1","","html-keyboard-response","338","1566796","0.0-1.0-461.0","0","0","77256","","null","","","null","51","","","","","","","","","","","","","","","",""
"","ISI","","html-keyboard-response","339","1567799","0.0-1.0-462.0","0","0","77256","","null","","","null","51","NaN","","","","","","","","","","","","","","",""
"","S2","","html-keyboard-response","340","1568052","0.0-1.0-463.0","0","0","77256","","null","","","null","51","","NaN","","","","","","","","","","","","","",""
"","response","","html-keyboard-response","341","1568164","0.0-1.0-464.0-0.0","0","0","77256","","110","","","68","51","","","2","51","training","adjacent","FE","6","5","O.jpg","R.jpg","1","0","0","",""
"","feedback","","html-keyboard-response","342","1569168","0.0-1.0-465.0-0.0","0","0","77256","","null","","","null","51","","","","","","","","","","","","","","","",""
"","time_out","","html-keyboard-response","343","1571171","0.0-1.0-467.0-0.0","0","0","77256","","null","","","null","51","","","","","","","","","","","","","","","",""
"","ITI","","html-keyboard-response","344","1572174","0.0-1.0-468.0","0","0","77256","","null","","","null","51","","","","","","","","","","","","","","","NaN",""
"","S1","","html-keyboard-response","345","1572428","0.0-1.0-470.0","0","0","77256","","null","","","null","52","","","","","","","","","","","","","","","",""
"","ISI","","html-keyboard-response","346","1573436","0.0-1.0-471.0","0","0","77256","","null","","","null","52","NaN","","","","","","","","","","","","","","",""
"","S2","","html-keyboard-response","347","1573691","0.0-1.0-472.0","0","0","77256","","null","","","null","52","","NaN","","","","","","","","","","","","","",""
"","response","","html-keyboard-response","348","1573800","0.0-1.0-473.0-0.0","0","0","77256","","107","","","75","52","","","2","52","training","adjacent","FE","6","5","O.jpg","R.jpg","0","0","1","",""
"","feedback","","html-keyboard-response","349","1574804","0.0-1.0-474.0-0.0","0","0","77256","","null","","","null","52","","","","","","","","","","","","","","","",""
"","ITI","","html-keyboard-response","350","1575807","0.0-1.0-477.0","0","0","77256","","null","","","null","52","","","","","","","","","","","","","","","NaN",""
"","S1","","html-keyboard-response","351","1576060","0.0-1.0-479.0","0","0","77256","","null","","","null","53","","","","","","","","","","","","","","","",""
"","ISI","","html-keyboard-response","352","1577064","0.0-1.0-480.0","0","0","77256","","null","","","null","53","NaN","","","","","","","","","","","","","","",""
"","S2","","html-keyboard-response","353","1577317","0.0-1.0-481.0","0","0","77256","","null","","","null","53","","NaN","","","","","","","","","","","","","",""
"","response","","html-keyboard-response","354","1577732","0.0-1.0-482.0-0.0","0","0","77256","","413","","","75","53","","","2","53","training","adjacent","ED","5","4","R.jpg","L.jpg","0","0","1","",""
"","feedback","","html-keyboard-response","355","1578736","0.0-1.0-483.0-0.0","0","0","77256","","null","","","null","53","","","","","","","","","","","","","","","",""
"","ITI","","html-keyboard-response","356","1579740","0.0-1.0-486.0","0","0","77256","","null","","","null","53","","","","","","","","","","","","","","","NaN",""
"","S1","","html-keyboard-response","357","1579993","0.0-1.0-488.0","0","0","77256","","null","","","null","54","","","","","","","","","","","","","","","",""
"","ISI","","html-keyboard-response","358","1580997","0.0-1.0-489.0","0","0","77256","","null","","","null","54","NaN","","","","","","","","","","","","","","",""
"","S2","","html-keyboard-response","359","1581251","0.0-1.0-490.0","0","0","77256","","null","","","null","54","","NaN","","","","","","","","","","","","","",""
"","response","","html-keyboard-response","360","1581477","0.0-1.0-491.0-0.0","0","0","77256","","224","","","68","54","","","2","54","training","adjacent","CB","3","2","Q.jpg","N.jpg","1","0","0","",""
"","feedback","","html-keyboard-response","361","1582481","0.0-1.0-492.0-0.0","0","0","77256","","null","","","null","54","","","","","","","","","","","","","","","",""
"","time_out","","html-keyboard-response","362","1584485","0.0-1.0-494.0-0.0","0","0","77256","","null","","","null","54","","","","","","","","","","","","","","","",""
"","ITI","","html-keyboard-response","363","1585488","0.0-1.0-495.0","0","0","77256","","null","","","null","54","","","","","","","","","","","","","","","NaN",""
"","S1","","html-keyboard-response","364","1585741","0.0-1.0-497.0","0","0","77256","","null","","","null","55","","","","","","","","","","","","","","","",""
"","ISI","","html-keyboard-response","365","1586744","0.0-1.0-498.0","0","0","77256","","null","","","null","55","NaN","","","","","","","","","","","","","","",""
"","S2","","html-keyboard-response","366","1586997","0.0-1.0-499.0","0","0","77256","","null","","","null","55","","NaN","","","","","","","","","","","","","",""
"","response","","html-keyboard-response","367","1587207","0.0-1.0-500.0-0.0","0","0","77256","","207","","","75","55","","","2","55","training","adjacent","BA","2","1","N.jpg","P.jpg","0","0","1","",""
"","feedback","","html-keyboard-response","368","1588210","0.0-1.0-501.0-0.0","0","0","77256","","null","","","null","55","","","","","","","","","","","","","","","",""
"","ITI","","html-keyboard-response","369","1589214","0.0-1.0-504.0","0","0","77256","","null","","","null","55","","","","","","","","","","","","","","","NaN",""
"","S1","","html-keyboard-response","370","1589466","0.0-1.0-506.0","0","0","77256","","null","","","null","56","","","","","","","","","","","","","","","",""
"","ISI","","html-keyboard-response","371","1590470","0.0-1.0-507.0","0","0","77256","","null","","","null","56","NaN","","","","","","","","","","","","","","",""
"","S2","","html-keyboard-response","372","1590722","0.0-1.0-508.0","0","0","77256","","null","","","null","56","","NaN","","","","","","","","","","","","","",""
"","response","","html-keyboard-response","373","1591099","0.0-1.0-509.0-0.0","0","0","77256","","375","","","75","56","","","2","56","training","adjacent","ED","5","4","R.jpg","L.jpg","0","0","1","",""
"","feedback","","html-keyboard-response","374","1592103","0.0-1.0-510.0-0.0","0","0","77256","","null","","","null","56","","","","","","","","","","","","","","","",""
"","ITI","","html-keyboard-response","375","1593106","0.0-1.0-513.0","0","0","77256","","null","","","null","56","","","","","","","","","","","","","","","NaN",""
"","S1","","html-keyboard-response","376","1593359","0.0-1.0-515.0","0","0","77256","","null","","","null","57","","","","","","","","","","","","","","","",""
"","ISI","","html-keyboard-response","377","1594362","0.0-1.0-516.0","0","0","77256","","null","","","null","57","NaN","","","","","","","","","","","","","","",""
"","S2","","html-keyboard-response","378","1594615","0.0-1.0-517.0","0","0","77256","","null","","","null","57","","NaN","","","","","","","","","","","","","",""
"","response","","html-keyboard-response","379","1595019","0.0-1.0-518.0-0.0","0","0","77256","","402","","","75","57","","","2","57","training","adjacent","GF","7","6","M.jpg","O.jpg","0","0","1","",""
"","feedback","","html-keyboard-response","380","1596022","0.0-1.0-519.0-0.0","0","0","77256","","null","","","null","57","","","","","","","","","","","","","","","",""
"","ITI","","html-keyboard-response","381","1597026","0.0-1.0-522.0","0","0","77256","","null","","","null","57","","","","","","","","","","","","","","","NaN",""
"","S1","","html-keyboard-response","382","1597280","0.0-1.0-524.0","0","0","77256","","null","","","null","58","","","","","","","","","","","","","","","",""
"","ISI","","html-keyboard-response","383","1598282","0.0-1.0-525.0","0","0","77256","","null","","","null","58","NaN","","","","","","","","","","","","","","",""
"","S2","","html-keyboard-response","384","1598537","0.0-1.0-526.0","0","0","77256","","null","","","null","58","","NaN","","","","","","","","","","","","","",""
"","response","","html-keyboard-response","385","1598802","0.0-1.0-527.0-0.0","0","0","77256","","263","","","68","58","","","2","58","training","adjacent","EF","5","6","R.jpg","O.jpg","1","1","1","",""
"","feedback","","html-keyboard-response","386","1599804","0.0-1.0-528.0-0.0","0","0","77256","","null","","","null","58","","","","","","","","","","","","","","","",""
"","ITI","","html-keyboard-response","387","1600807","0.0-1.0-531.0","0","0","77256","","null","","","null","58","","","","","","","","","","","","","","","NaN",""
"","S1","","html-keyboard-response","388","1601060","0.0-1.0-533.0","0","0","77256","","null","","","null","59","","","","","","","","","","","","","","","",""
"","ISI","","html-keyboard-response","389","1602064","0.0-1.0-534.0","0","0","77256","","null","","","null","59","NaN","","","","","","","","","","","","","","",""
"","S2","","html-keyboard-response","390","1602317","0.0-1.0-535.0","0","0","77256","","null","","","null","59","","NaN","","","","","","","","","","","","","",""
"","response","","html-keyboard-response","391","1602609","0.0-1.0-536.0-0.0","0","0","77256","","290","","","68","59","","","2","59","training","adjacent","DC","4","3","L.jpg","Q.jpg","1","0","0","",""
"","feedback","","html-keyboard-response","392","1603613","0.0-1.0-537.0-0.0","0","0","77256","","null","","","null","59","","","","","","","","","","","","","","","",""
"","time_out","","html-keyboard-response","393","1605616","0.0-1.0-539.0-0.0","0","0","77256","","null","","","null","59","","","","","","","","","","","","","","","",""
"","ITI","","html-keyboard-response","394","1606618","0.0-1.0-540.0","0","0","77256","","null","","","null","59","","","","","","","","","","","","","","","NaN",""
"","S1","","html-keyboard-response","395","1606871","0.0-1.0-542.0","0","0","77256","","null","","","null","60","","","","","","","","","","","","","","","",""
"","ISI","","html-keyboard-response","396","1607874","0.0-1.0-543.0","0","0","77256","","null","","","null","60","NaN","","","","","","","","","","","","","","",""
"","S2","","html-keyboard-response","397","1608126","0.0-1.0-544.0","0","0","77256","","null","","","null","60","","NaN","","","","","","","","","","","","","",""
"","response","","html-keyboard-response","398","1608575","0.0-1.0-545.0-0.0","0","0","77256","","446","","","68","60","","","2","60","training","adjacent","DE","4","5","L.jpg","R.jpg","1","1","1","",""
"","feedback","","html-keyboard-response","399","1609578","0.0-1.0-546.0-0.0","0","0","77256","","null","","","null","60","","","","","","","","","","","","","","","",""
"","ITI","","html-keyboard-response","400","1610581","0.0-1.0-549.0","0","0","77256","","null","","","null","60","","","","","","","","","","","","","","","NaN",""
"","S1","","html-keyboard-response","401","1610835","0.0-1.0-551.0","0","0","77256","","null","","","null","61","","","","","","","","","","","","","","","",""
"","ISI","","html-keyboard-response","402","1611837","0.0-1.0-552.0","0","0","77256","","null","","","null","61","NaN","","","","","","","","","","","","","","",""
"","S2","","html-keyboard-response","403","1612090","0.0-1.0-553.0","0","0","77256","","null","","","null","61","","NaN","","","","","","","","","","","","","",""
"","response","","html-keyboard-response","404","1612591","0.0-1.0-554.0-0.0","0","0","77256","","499","","","75","61","","","2","61","training","adjacent","CB","3","2","Q.jpg","N.jpg","0","0","1","",""
"","feedback","","html-keyboard-response","405","1613594","0.0-1.0-555.0-0.0","0","0","77256","","null","","","null","61","","","","","","","","","","","","","","","",""
"","ITI","","html-keyboard-response","406","1614598","0.0-1.0-558.0","0","0","77256","","null","","","null","61","","","","","","","","","","","","","","","NaN",""
"","S1","","html-keyboard-response","407","1614851","0.0-1.0-560.0","0","0","77256","","null","","","null","62","","","","","","","","","","","","","","","",""
"","ISI","","html-keyboard-response","408","1615854","0.0-1.0-561.0","0","0","77256","","null","","","null","62","NaN","","","","","","","","","","","","","","",""
"","S2","","html-keyboard-response","409","1616107","0.0-1.0-562.0","0","0","77256","","null","","","null","62","","NaN","","","","","","","","","","","","","",""
"","response","","html-keyboard-response","410","1616521","0.0-1.0-563.0-0.0","0","0","77256","","411","","","75","62","","","2","62","training","adjacent","FG","6","7","O.jpg","M.jpg","0","1","0","",""
"","feedback","","html-keyboard-response","411","1617524","0.0-1.0-564.0-0.0","0","0","77256","","null","","","null","62","","","","","","","","","","","","","","","",""
"","time_out","","html-keyboard-response","412","1619528","0.0-1.0-566.0-0.0","0","0","77256","","null","","","null","62","","","","","","","","","","","","","","","",""
"","ITI","","html-keyboard-response","413","1620531","0.0-1.0-567.0","0","0","77256","","null","","","null","62","","","","","","","","","","","","","","","NaN",""
"","S1","","html-keyboard-response","414","1620784","0.0-1.0-569.0","0","0","77256","","null","","","null","63","","","","","","","","","","","","","","","",""
"","ISI","","html-keyboard-response","415","1621787","0.0-1.0-570.0","0","0","77256","","null","","","null","63","NaN","","","","","","","","","","","","","","",""
"","S2","","html-keyboard-response","416","1622041","0.0-1.0-571.0","0","0","77256","","null","","","null","63","","NaN","","","","","","","","","","","","","",""
"","response","","html-keyboard-response","417","1622228","0.0-1.0-572.0-0.0","0","0","77256","","184","","","75","63","","","2","63","training","adjacent","GF","7","6","M.jpg","O.jpg","0","0","1","",""
"","feedback","","html-keyboard-response","418","1623232","0.0-1.0-573.0-0.0","0","0","77256","","null","","","null","63","","","","","","","","","","","","","","","",""
"","ITI","","html-keyboard-response","419","1624235","0.0-1.0-576.0","0","0","77256","","null","","","null","63","","","","","","","","","","","","","","","NaN",""
"","S1","","html-keyboard-response","420","1624488","0.0-1.0-578.0","0","0","77256","","null","","","null","64","","","","","","","","","","","","","","","",""
"","ISI","","html-keyboard-response","421","1625491","0.0-1.0-579.0","0","0","77256","","null","","","null","64","NaN","","","","","","","","","","","","","","",""
"","S2","","html-keyboard-response","422","1625745","0.0-1.0-580.0","0","0","77256","","null","","","null","64","","NaN","","","","","","","","","","","","","",""
"","response","","html-keyboard-response","423","1626095","0.0-1.0-581.0-0.0","0","0","77256","","349","","","75","64","","","2","64","training","adjacent","CB","3","2","Q.jpg","N.jpg","0","0","1","",""
"","feedback","","html-keyboard-response","424","1627099","0.0-1.0-582.0-0.0","0","0","77256","","null","","","null","64","","","","","","","","","","","","","","","",""
"","ITI","","html-keyboard-response","425","1628102","0.0-1.0-585.0","0","0","77256","","null","","","null","64","","","","","","","","","","","","","","","NaN",""
"","S1","","html-keyboard-response","426","1628355","0.0-1.0-587.0","0","0","77256","","null","","","null","65","","","","","","","","","","","","","","","",""
"","ISI","","html-keyboard-response","427","1629358","0.0-1.0-588.0","0","0","77256","","null","","","null","65","NaN","","","","","","","","","","","","","","",""
"","S2","","html-keyboard-response","428","1629611","0.0-1.0-589.0","0","0","77256","","null","","","null","65","","NaN","","","","","","","","","","","","","",""
"","response","","html-keyboard-response","429","1630194","0.0-1.0-590.0-0.0","0","0","77256","","580","","","68","65","","","2","65","training","adjacent","DC","4","3","L.jpg","Q.jpg","1","0","0","",""
"","feedback","","html-keyboard-response","430","1631197","0.0-1.0-591.0-0.0","0","0","77256","","null","","","null","65","","","","","","","","","","","","","","","",""
"","time_out","","html-keyboard-response","431","1633200","0.0-1.0-593.0-0.0","0","0","77256","","null","","","null","65","","","","","","","","","","","","","","","",""
"","ITI","","html-keyboard-response","432","1634204","0.0-1.0-594.0","0","0","77256","","null","","","null","65","","","","","","","","","","","","","","","NaN",""
"","S1","","html-keyboard-response","433","1634457","0.0-1.0-596.0","0","0","77256","","null","","","null","66","","","","","","","","","","","","","","","",""
"","ISI","","html-keyboard-response","434","1635460","0.0-1.0-597.0","0","0","77256","","null","","","null","66","NaN","","","","","","","","","","","","","","",""
"","S2","","html-keyboard-response","435","1635714","0.0-1.0-598.0","0","0","77256","","null","","","null","66","","NaN","","","","","","","","","","","","","",""
"","response","","html-keyboard-response","436","1635988","0.0-1.0-599.0-0.0","0","0","77256","","271","","","68","66","","","2","66","training","adjacent","CD","3","4","Q.jpg","L.jpg","1","1","1","",""
"","feedback","","html-keyboard-response","437","1636991","0.0-1.0-600.0-0.0","0","0","77256","","null","","","null","66","","","","","","","","","","","","","","","",""
"","ITI","","html-keyboard-response","438","1637994","0.0-1.0-603.0","0","0","77256","","null","","","null","66","","","","","","","","","","","","","","","NaN",""
"","S1","","html-keyboard-response","439","1638248","0.0-1.0-605.0","0","0","77256","","null","","","null","67","","","","","","","","","","","","","","","",""
"","ISI","","html-keyboard-response","440","1639250","0.0-1.0-606.0","0","0","77256","","null","","","null","67","NaN","","","","","","","","","","","","","","",""
"","S2","","html-keyboard-response","441","1639504","0.0-1.0-607.0","0","0","77256","","null","","","null","67","","NaN","","","","","","","","","","","","","",""
"","response","","html-keyboard-response","442","1640000","0.0-1.0-608.0-0.0","0","0","77256","","494","","","75","67","","","2","67","training","adjacent","DC","4","3","L.jpg","Q.jpg","0","0","1","",""
"","feedback","","html-keyboard-response","443","1641005","0.0-1.0-609.0-0.0","0","0","77256","","null","","","null","67","","","","","","","","","","","","","","","",""
"","ITI","","html-keyboard-response","444","1642010","0.0-1.0-612.0","0","0","77256","","null","","","null","67","","","","","","","","","","","","","","","NaN",""
"","S1","","html-keyboard-response","445","1642263","0.0-1.0-614.0","0","0","77256","","null","","","null","68","","","","","","","","","","","","","","","",""
"","ISI","","html-keyboard-response","446","1643266","0.0-1.0-615.0","0","0","77256","","null","","","null","68","NaN","","","","","","","","","","","","","","",""
"","S2","","html-keyboard-response","447","1643520","0.0-1.0-616.0","0","0","77256","","null","","","null","68","","NaN","","","","","","","","","","","","","",""
"","response","","html-keyboard-response","448","1644070","0.0-1.0-617.0-0.0","0","0","77256","","548","","","75","68","","","2","68","training","adjacent","ED","5","4","R.jpg","L.jpg","0","0","1","",""
"","feedback","","html-keyboard-response","449","1645074","0.0-1.0-618.0-0.0","0","0","77256","","null","","","null","68","","","","","","","","","","","","","","","",""
"","ITI","","html-keyboard-response","450","1646077","0.0-1.0-621.0","0","0","77256","","null","","","null","68","","","","","","","","","","","","","","","NaN",""
"","S1","","html-keyboard-response","451","1646330","0.0-1.0-623.0","0","0","77256","","null","","","null","69","","","","","","","","","","","","","","","",""
"","ISI","","html-keyboard-response","452","1647333","0.0-1.0-624.0","0","0","77256","","null","","","null","69","NaN","","","","","","","","","","","","","","",""
"","S2","","html-keyboard-response","453","1647587","0.0-1.0-625.0","0","0","77256","","null","","","null","69","","NaN","","","","","","","","","","","","","",""
"","response","","html-keyboard-response","454","1647896","0.0-1.0-626.0-0.0","0","0","77256","","308","","","75","69","","","2","69","training","adjacent","GF","7","6","M.jpg","O.jpg","0","0","1","",""
"","feedback","","html-keyboard-response","455","1648901","0.0-1.0-627.0-0.0","0","0","77256","","null","","","null","69","","","","","","","","","","","","","","","",""
"","ITI","","html-keyboard-response","456","1649903","0.0-1.0-630.0","0","0","77256","","null","","","null","69","","","","","","","","","","","","","","","NaN",""
"","S1","","html-keyboard-response","457","1650157","0.0-1.0-632.0","0","0","77256","","null","","","null","70","","","","","","","","","","","","","","","",""
"","ISI","","html-keyboard-response","458","1651159","0.0-1.0-633.0","0","0","77256","","null","","","null","70","NaN","","","","","","","","","","","","","","",""
"","S2","","html-keyboard-response","459","1651413","0.0-1.0-634.0","0","0","77256","","null","","","null","70","","NaN","","","","","","","","","","","","","",""
"","response","","html-keyboard-response","460","1651788","0.0-1.0-635.0-0.0","0","0","77256","","374","","","75","70","","","2","70","training","adjacent","BA","2","1","N.jpg","P.jpg","0","0","1","",""
"","feedback","","html-keyboard-response","461","1652792","0.0-1.0-636.0-0.0","0","0","77256","","null","","","null","70","","","","","","","","","","","","","","","",""
"","ITI","","html-keyboard-response","462","1653795","0.0-1.0-639.0","0","0","77256","","null","","","null","70","","","","","","","","","","","","","","","NaN",""
"","S1","","html-keyboard-response","463","1654048","0.0-1.0-641.0","0","0","77256","","null","","","null","71","","","","","","","","","","","","","","","",""
"","ISI","","html-keyboard-response","464","1655051","0.0-1.0-642.0","0","0","77256","","null","","","null","71","NaN","","","","","","","","","","","","","","",""
"","S2","","html-keyboard-response","465","1655304","0.0-1.0-643.0","0","0","77256","","null","","","null","71","","NaN","","","","","","","","","","","","","",""
"","response","","html-keyboard-response","466","1655668","0.0-1.0-644.0-0.0","0","0","77256","","361","","","68","71","","","2","71","training","adjacent","BC","2","3","N.jpg","Q.jpg","1","1","1","",""
"","feedback","","html-keyboard-response","467","1656671","0.0-1.0-645.0-0.0","0","0","77256","","null","","","null","71","","","","","","","","","","","","","","","",""
"","ITI","","html-keyboard-response","468","1657675","0.0-1.0-648.0","0","0","77256","","null","","","null","71","","","","","","","","","","","","","","","NaN",""
"","S1","","html-keyboard-response","469","1657928","0.0-1.0-650.0","0","0","77256","","null","","","null","72","","","","","","","","","","","","","","","",""
"","ISI","","html-keyboard-response","470","1658930","0.0-1.0-651.0","0","0","77256","","null","","","null","72","NaN","","","","","","","","","","","","","","",""
"","S2","","html-keyboard-response","471","1659183","0.0-1.0-652.0","0","0","77256","","null","","","null","72","","NaN","","","","","","","","","","","","","",""
"","response","","html-keyboard-response","472","1659564","0.0-1.0-653.0-0.0","0","0","77256","","379","","","68","72","","","2","72","training","adjacent","BC","2","3","N.jpg","Q.jpg","1","1","1","",""
"","feedback","","html-keyboard-response","473","1660568","0.0-1.0-654.0-0.0","0","0","77256","","null","","","null","72","","","","","","","","","","","","","","","",""
"","ITI","","html-keyboard-response","474","1661572","0.0-1.0-657.0","0","0","77256","","null","","","null","72","","","","","","","","","","","","","","","NaN",""
"","S1","","html-keyboard-response","475","1661825","0.0-1.0-659.0","0","0","77256","","null","","","null","73","","","","","","","","","","","","","","","",""
"","ISI","","html-keyboard-response","476","1662827","0.0-1.0-660.0","0","0","77256","","null","","","null","73","NaN","","","","","","","","","","","","","","",""
"","S2","","html-keyboard-response","477","1663080","0.0-1.0-661.0","0","0","77256","","null","","","null","73","","NaN","","","","","","","","","","","","","",""
"","response","","html-keyboard-response","478","1663434","0.0-1.0-662.0-0.0","0","0","77256","","352","","","75","73","","","2","73","training","adjacent","ED","5","4","R.jpg","L.jpg","0","0","1","",""
"","feedback","","html-keyboard-response","479","1664442","0.0-1.0-663.0-0.0","0","0","77256","","null","","","null","73","","","","","","","","","","","","","","","",""
"","ITI","","html-keyboard-response","480","1665445","0.0-1.0-666.0","0","0","77256","","null","","","null","73","","","","","","","","","","","","","","","NaN",""
"","S1","","html-keyboard-response","481","1665697","0.0-1.0-668.0","0","0","77256","","null","","","null","74","","","","","","","","","","","","","","","",""
"","ISI","","html-keyboard-response","482","1666701","0.0-1.0-669.0","0","0","77256","","null","","","null","74","NaN","","","","","","","","","","","","","","",""
"","S2","","html-keyboard-response","483","1666954","0.0-1.0-670.0","0","0","77256","","null","","","null","74","","NaN","","","","","","","","","","","","","",""
"","response","","html-keyboard-response","484","1667317","0.0-1.0-671.0-0.0","0","0","77256","","360","","","75","74","","","2","74","training","adjacent","CD","3","4","Q.jpg","L.jpg","0","1","0","",""
"","feedback","","html-keyboard-response","485","1668321","0.0-1.0-672.0-0.0","0","0","77256","","null","","","null","74","","","","","","","","","","","","","","","",""
"","time_out","","html-keyboard-response","486","1670324","0.0-1.0-674.0-0.0","0","0","77256","","null","","","null","74","","","","","","","","","","","","","","","",""
"","ITI","","html-keyboard-response","487","1671327","0.0-1.0-675.0","0","0","77256","","null","","","null","74","","","","","","","","","","","","","","","NaN",""
"","S1","","html-keyboard-response","488","1671580","0.0-1.0-677.0","0","0","77256","","null","","","null","75","","","","","","","","","","","","","","","",""
"","ISI","","html-keyboard-response","489","1672583","0.0-1.0-678.0","0","0","77256","","null","","","null","75","NaN","","","","","","","","","","","","","","",""
"","S2","","html-keyboard-response","490","1672836","0.0-1.0-679.0","0","0","77256","","null","","","null","75","","NaN","","","","","","","","","","","","","",""
"","response","","html-keyboard-response","491","1673045","0.0-1.0-680.0-0.0","0","0","77256","","207","","","68","75","","","2","75","training","adjacent","CD","3","4","Q.jpg","L.jpg","1","1","1","",""
"","feedback","","html-keyboard-response","492","1674049","0.0-1.0-681.0-0.0","0","0","77256","","null","","","null","75","","","","","","","","","","","","","","","",""
"","ITI","","html-keyboard-response","493","1675052","0.0-1.0-684.0","0","0","77256","","null","","","null","75","","","","","","","","","","","","","","","NaN",""
"","S1","","html-keyboard-response","494","1675305","0.0-1.0-686.0","0","0","77256","","null","","","null","76","","","","","","","","","","","","","","","",""
"","ISI","","html-keyboard-response","495","1676308","0.0-1.0-687.0","0","0","77256","","null","","","null","76","NaN","","","","","","","","","","","","","","",""
"","S2","","html-keyboard-response","496","1676561","0.0-1.0-688.0","0","0","77256","","null","","","null","76","","NaN","","","","","","","","","","","","","",""
"","response","","html-keyboard-response","497","1676765","0.0-1.0-689.0-0.0","0","0","77256","","201","","","75","76","","","2","76","training","adjacent","BA","2","1","N.jpg","P.jpg","0","0","1","",""
"","feedback","","html-keyboard-response","498","1677769","0.0-1.0-690.0-0.0","0","0","77256","","null","","","null","76","","","","","","","","","","","","","","","",""
"","ITI","","html-keyboard-response","499","1678772","0.0-1.0-693.0","0","0","77256","","null","","","null","76","","","","","","","","","","","","","","","NaN",""
"","S1","","html-keyboard-response","500","1679025","0.0-1.0-695.0","0","0","77256","","null","","","null","77","","","","","","","","","","","","","","","",""
"","ISI","","html-keyboard-response","501","1680027","0.0-1.0-696.0","0","0","77256","","null","","","null","77","NaN","","","","","","","","","","","","","","",""
"","S2","","html-keyboard-response","502","1680281","0.0-1.0-697.0","0","0","77256","","null","","","null","77","","NaN","","","","","","","","","","","","","",""
"","response","","html-keyboard-response","503","1680744","0.0-1.0-698.0-0.0","0","0","77256","","461","","","75","77","","","2","77","training","adjacent","GF","7","6","M.jpg","O.jpg","0","0","1","",""
"","feedback","","html-keyboard-response","504","1681747","0.0-1.0-699.0-0.0","0","0","77256","","null","","","null","77","","","","","","","","","","","","","","","",""
"","ITI","","html-keyboard-response","505","1682750","0.0-1.0-702.0","0","0","77256","","null","","","null","77","","","","","","","","","","","","","","","NaN",""
"","S1","","html-keyboard-response","506","1683004","0.0-1.0-704.0","0","0","77256","","null","","","null","78","","","","","","","","","","","","","","","",""
"","ISI","","html-keyboard-response","507","1684019","0.0-1.0-705.0","0","0","77256","","null","","","null","78","NaN","","","","","","","","","","","","","","",""
"","S2","","html-keyboard-response","508","1684272","0.0-1.0-706.0","0","0","77256","","null","","","null","78","","NaN","","","","","","","","","","","","","",""
"","response","","html-keyboard-response","509","1684787","0.0-1.0-707.0-0.0","0","0","77256","","513","","","68","78","","","2","78","training","adjacent","DE","4","5","L.jpg","R.jpg","1","1","1","",""
"","feedback","","html-keyboard-response","510","1685790","0.0-1.0-708.0-0.0","0","0","77256","","null","","","null","78","","","","","","","","","","","","","","","",""
"","ITI","","html-keyboard-response","511","1686798","0.0-1.0-711.0","0","0","77256","","null","","","null","78","","","","","","","","","","","","","","","NaN",""
"","S1","","html-keyboard-response","512","1687051","0.0-1.0-713.0","0","0","77256","","null","","","null","79","","","","","","","","","","","","","","","",""
"","ISI","","html-keyboard-response","513","1688054","0.0-1.0-714.0","0","0","77256","","null","","","null","79","NaN","","","","","","","","","","","","","","",""
"","S2","","html-keyboard-response","514","1688306","0.0-1.0-715.0","0","0","77256","","null","","","null","79","","NaN","","","","","","","","","","","","","",""
"","response","","html-keyboard-response","515","1688697","0.0-1.0-716.0-0.0","0","0","77256","","389","","","68","79","","","2","79","training","adjacent","FG","6","7","O.jpg","M.jpg","1","1","1","",""
"","feedback","","html-keyboard-response","516","1689701","0.0-1.0-717.0-0.0","0","0","77256","","null","","","null","79","","","","","","","","","","","","","","","",""
"","ITI","","html-keyboard-response","517","1690704","0.0-1.0-720.0","0","0","77256","","null","","","null","79","","","","","","","","","","","","","","","NaN",""
"","S1","","html-keyboard-response","518","1690957","0.0-1.0-722.0","0","0","77256","","null","","","null","80","","","","","","","","","","","","","","","",""
"","ISI","","html-keyboard-response","519","1691960","0.0-1.0-723.0","0","0","77256","","null","","","null","80","NaN","","","","","","","","","","","","","","",""
"","S2","","html-keyboard-response","520","1692214","0.0-1.0-724.0","0","0","77256","","null","","","null","80","","NaN","","","","","","","","","","","","","",""
"","response","","html-keyboard-response","521","1692886","0.0-1.0-725.0-0.0","0","0","77256","","670","","","75","80","","","2","80","training","adjacent","CB","3","2","Q.jpg","N.jpg","0","0","1","",""
"","feedback","","html-keyboard-response","522","1693890","0.0-1.0-726.0-0.0","0","0","77256","","null","","","null","80","","","","","","","","","","","","","","","",""
"","ITI","","html-keyboard-response","523","1694894","0.0-1.0-729.0","0","0","77256","","null","","","null","80","","","","","","","","","","","","","","","NaN",""
"","S1","","html-keyboard-response","524","1695147","0.0-1.0-731.0","0","0","77256","","null","","","null","81","","","","","","","","","","","","","","","",""
"","ISI","","html-keyboard-response","525","1696150","0.0-1.0-732.0","0","0","77256","","null","","","null","81","NaN","","","","","","","","","","","","","","",""
"","S2","","html-keyboard-response","526","1696404","0.0-1.0-733.0","0","0","77256","","null","","","null","81","","NaN","","","","","","","","","","","","","",""
"","response","","html-keyboard-response","527","1696706","0.0-1.0-734.0-0.0","0","0","77256","","301","","","75","81","","","2","81","training","adjacent","BC","2","3","N.jpg","Q.jpg","0","1","0","",""
"","feedback","","html-keyboard-response","528","1697712","0.0-1.0-735.0-0.0","0","0","77256","","null","","","null","81","","","","","","","","","","","","","","","",""
"","time_out","","html-keyboard-response","529","1699715","0.0-1.0-737.0-0.0","0","0","77256","","null","","","null","81","","","","","","","","","","","","","","","",""
"","ITI","","html-keyboard-response","530","1700719","0.0-1.0-738.0","0","0","77256","","null","","","null","81","","","","","","","","","","","","","","","NaN",""
"","S1","","html-keyboard-response","531","1700972","0.0-1.0-740.0","0","0","77256","","null","","","null","82","","","","","","","","","","","","","","","",""
"","ISI","","html-keyboard-response","532","1701976","0.0-1.0-741.0","0","0","77256","","null","","","null","82","NaN","","","","","","","","","","","","","","",""
"","S2","","html-keyboard-response","533","1702229","0.0-1.0-742.0","0","0","77256","","null","","","null","82","","NaN","","","","","","","","","","","","","",""
"","response","","html-keyboard-response","534","1702551","0.0-1.0-743.0-0.0","0","0","77256","","320","","","68","82","","","2","82","training","adjacent","DE","4","5","L.jpg","R.jpg","1","1","1","",""
"","feedback","","html-keyboard-response","535","1703554","0.0-1.0-744.0-0.0","0","0","77256","","null","","","null","82","","","","","","","","","","","","","","","",""
"","ITI","","html-keyboard-response","536","1704557","0.0-1.0-747.0","0","0","77256","","null","","","null","82","","","","","","","","","","","","","","","NaN",""
"","S1","","html-keyboard-response","537","1704810","0.0-1.0-749.0","0","0","77256","","null","","","null","83","","","","","","","","","","","","","","","",""
"","ISI","","html-keyboard-response","538","1705814","0.0-1.0-750.0","0","0","77256","","null","","","null","83","NaN","","","","","","","","","","","","","","",""
"","S2","","html-keyboard-response","539","1706067","0.0-1.0-751.0","0","0","77256","","null","","","null","83","","NaN","","","","","","","","","","","","","",""
"","response","","html-keyboard-response","540","1706212","0.0-1.0-752.0-0.0","0","0","77256","","143","","","75","83","","","2","83","training","adjacent","FE","6","5","O.jpg","R.jpg","0","0","1","",""
"","feedback","","html-keyboard-response","541","1707215","0.0-1.0-753.0-0.0","0","0","77256","","null","","","null","83","","","","","","","","","","","","","","","",""
"","ITI","","html-keyboard-response","542","1708218","0.0-1.0-756.0","0","0","77256","","null","","","null","83","","","","","","","","","","","","","","","NaN",""
"","S1","","html-keyboard-response","543","1708471","0.0-1.0-758.0","0","0","77256","","null","","","null","84","","","","","","","","","","","","","","","",""
"","ISI","","html-keyboard-response","544","1709473","0.0-1.0-759.0","0","0","77256","","null","","","null","84","NaN","","","","","","","","","","","","","","",""
"","S2","","html-keyboard-response","545","1709727","0.0-1.0-760.0","0","0","77256","","null","","","null","84","","NaN","","","","","","","","","","","","","",""
"","response","","html-keyboard-response","546","1709815","0.0-1.0-761.0-0.0","0","0","77256","","87","","","68","84","","","2","84","training","adjacent","EF","5","6","R.jpg","O.jpg","1","1","1","",""
"","feedback","","html-keyboard-response","547","1710818","0.0-1.0-762.0-0.0","0","0","77256","","null","","","null","84","","","","","","","","","","","","","","","",""
"","ITI","","html-keyboard-response","548","1711821","0.0-1.0-765.0","0","0","77256","","null","","","null","84","","","","","","","","","","","","","","","NaN",""
"","S1","","html-keyboard-response","549","1712075","0.0-1.0-767.0","0","0","77256","","null","","","null","85","","","","","","","","","","","","","","","",""
"","ISI","","html-keyboard-response","550","1713077","0.0-1.0-768.0","0","0","77256","","null","","","null","85","NaN","","","","","","","","","","","","","","",""
"","S2","","html-keyboard-response","551","1713330","0.0-1.0-769.0","0","0","77256","","null","","","null","85","","NaN","","","","","","","","","","","","","",""
"","response","","html-keyboard-response","552","1713512","0.0-1.0-770.0-0.0","0","0","77256","","180","","","75","85","","","2","85","training","adjacent","BC","2","3","N.jpg","Q.jpg","0","1","0","",""
"","feedback","","html-keyboard-response","553","1714516","0.0-1.0-771.0-0.0","0","0","77256","","null","","","null","85","","","","","","","","","","","","","","","",""
"","time_out","","html-keyboard-response","554","1716519","0.0-1.0-773.0-0.0","0","0","77256","","null","","","null","85","","","","","","","","","","","","","","","",""
"","ITI","","html-keyboard-response","555","1717522","0.0-1.0-774.0","0","0","77256","","null","","","null","85","","","","","","","","","","","","","","","NaN",""
"","S1","","html-keyboard-response","556","1717775","0.0-1.0-776.0","0","0","77256","","null","","","null","86","","","","","","","","","","","","","","","",""
"","ISI","","html-keyboard-response","557","1718786","0.0-1.0-777.0","0","0","77256","","null","","","null","86","NaN","","","","","","","","","","","","","","",""
"","S2","","html-keyboard-response","558","1719040","0.0-1.0-778.0","0","0","77256","","null","","","null","86","","NaN","","","","","","","","","","","","","",""
"","response","","html-keyboard-response","559","1719330","0.0-1.0-779.0-0.0","0","0","77256","","287","","","68","86","","","2","86","training","adjacent","AB","1","2","P.jpg","N.jpg","1","1","1","",""
"","feedback","","html-keyboard-response","560","1720334","0.0-1.0-780.0-0.0","0","0","77256","","null","","","null","86","","","","","","","","","","","","","","","",""
"","ITI","","html-keyboard-response","561","1721338","0.0-1.0-783.0","0","0","77256","","null","","","null","86","","","","","","","","","","","","","","","NaN",""
"","S1","","html-keyboard-response","562","1721591","0.0-1.0-785.0","0","0","77256","","null","","","null","87","","","","","","","","","","","","","","","",""
"","ISI","","html-keyboard-response","563","1722593","0.0-1.0-786.0","0","0","77256","","null","","","null","87","NaN","","","","","","","","","","","","","","",""
"","S2","","html-keyboard-response","564","1722846","0.0-1.0-787.0","0","0","77256","","null","","","null","87","","NaN","","","","","","","","","","","","","",""
"","response","","html-keyboard-response","565","1723169","0.0-1.0-788.0-0.0","0","0","77256","","321","","","68","87","","","2","87","training","adjacent","AB","1","2","P.jpg","N.jpg","1","1","1","",""
"","feedback","","html-keyboard-response","566","1724174","0.0-1.0-789.0-0.0","0","0","77256","","null","","","null","87","","","","","","","","","","","","","","","",""
"","ITI","","html-keyboard-response","567","1725178","0.0-1.0-792.0","0","0","77256","","null","","","null","87","","","","","","","","","","","","","","","NaN",""
"","S1","","html-keyboard-response","568","1725430","0.0-1.0-794.0","0","0","77256","","null","","","null","88","","","","","","","","","","","","","","","",""
"","ISI","","html-keyboard-response","569","1726433","0.0-1.0-795.0","0","0","77256","","null","","","null","88","NaN","","","","","","","","","","","","","","",""
"","S2","","html-keyboard-response","570","1726687","0.0-1.0-796.0","0","0","77256","","null","","","null","88","","NaN","","","","","","","","","","","","","",""
"","response","","html-keyboard-response","571","1727015","0.0-1.0-797.0-0.0","0","0","77256","","326","","","75","88","","","2","88","training","adjacent","EF","5","6","R.jpg","O.jpg","0","1","0","",""
"","feedback","","html-keyboard-response","572","1728019","0.0-1.0-798.0-0.0","0","0","77256","","null","","","null","88","","","","","","","","","","","","","","","",""
"","time_out","","html-keyboard-response","573","1730022","0.0-1.0-800.0-0.0","0","0","77256","","null","","","null","88","","","","","","","","","","","","","","","",""
"","ITI","","html-keyboard-response","574","1731026","0.0-1.0-801.0","0","0","77256","","null","","","null","88","","","","","","","","","","","","","","","NaN",""
"","S1","","html-keyboard-response","575","1731279","0.0-1.0-803.0","0","0","77256","","null","","","null","89","","","","","","","","","","","","","","","",""
"","ISI","","html-keyboard-response","576","1732281","0.0-1.0-804.0","0","0","77256","","null","","","null","89","NaN","","","","","","","","","","","","","","",""
"","S2","","html-keyboard-response","577","1732535","0.0-1.0-805.0","0","0","77256","","null","","","null","89","","NaN","","","","","","","","","","","","","",""
"","response","","html-keyboard-response","578","1732891","0.0-1.0-806.0-0.0","0","0","77256","","355","","","68","89","","","2","89","training","adjacent","CD","3","4","Q.jpg","L.jpg","1","1","1","",""
"","feedback","","html-keyboard-response","579","1733895","0.0-1.0-807.0-0.0","0","0","77256","","null","","","null","89","","","","","","","","","","","","","","","",""
