"success","ttype","start_time","trial_type","trial_index","time_elapsed","internal_node_id","warning","missed_checkup","PID","view_history","rt","responses","repeat_instructions","key_press","index","keypress_isi","keypress_S2","block","trial_num","phase","group_type","pair_type","S1_stim","S2_stim","S1_img","S2_img","S1_chosen","S1_higher","accuracy","keypress_iti","total_bonus_tally"
"true","full_screen","d04132023hr1836","fullscreen","0","8034","0.0-0.0","0","0","55577","","","","","","","","","","","","","","","","","","","","","",""
"","instructions","","instructions","1","40522","0.0-1.0-0.0-0.0","0","0","55577","[{""page_index"":0,""viewing_time"":7276},{""page_index"":1,""viewing_time"":15974},{""page_index"":2,""viewing_time"":6950},{""page_index"":3,""viewing_time"":2283}]","32484","","","","","","","","","","","","","","","","","","","",""
"","comprehension_check","","survey-multi-choice","2","67147","0.0-1.0-0.0-1.0","0","0","55577","","26617","{""Q0"":""True"",""Q1"":""D"",""Q2"":""Only when the screen 'MAKE A CHOICE' is shown"",""Q3"":""Green mark"",""Q4"":""either D or K""}","1","","","","","","","","","","","","","","","","","",""
"","missed_instruction_checkup","","html-keyboard-response","3","71825","0.0-1.0-0.0-2.0-0.0","0","1","55577","","4671","","","32","","","","","","","","","","","","","","","","",""
"","instructions","","instructions","4","90071","0.0-1.0-0.1-0.1","0","0","55577","[{""page_index"":0,""viewing_time"":5881},{""page_index"":1,""viewing_time"":10160},{""page_index"":2,""viewing_time"":1064},{""page_index"":3,""viewing_time"":1137}]","18243","","","","","","","","","","","","","","","","","","","",""
"","comprehension_check","","survey-multi-choice","5","106161","0.0-1.0-0.1-1.1","0","0","55577","","16082","{""Q0"":""True"",""Q1"":""K"",""Q2"":""Only when the screen 'MAKE A CHOICE' is shown"",""Q3"":""Green mark"",""Q4"":""either D or K""}","1","","","","","","","","","","","","","","","","","",""
"","missed_instruction_checkup","","html-keyboard-response","6","109110","0.0-1.0-0.1-2.1-0.1","0","1","55577","","2942","","","32","","","","","","","","","","","","","","","","",""
"","instructions","","instructions","7","138165","0.0-1.0-0.2-0.2","0","0","55577","[{""page_index"":0,""viewing_time"":3264},{""page_index"":1,""viewing_time"":15712},{""page_index"":2,""viewing_time"":7180},{""page_index"":3,""viewing_time"":2896}]","29053","","","","","","","","","","","","","","","","","","","",""
"","comprehension_check","","survey-multi-choice","8","201282","0.0-1.0-0.2-1.2","0","0","55577","","63109","{""Q0"":""True"",""Q1"":""K"",""Q2"":""Once the second image appears and while the screen 'MAKE A CHOICE' is shown"",""Q3"":""Green mark"",""Q4"":""either D or K""}","0","","","","","","","","","","","","","","","","","",""
"","start_exp","","html-keyboard-response","9","204304","0.0-1.0-1.0","0","0","55577","","3017","","","32","","","","","","","","","","","","","","","","",""
"","S1","","html-keyboard-response","10","204562","0.0-1.0-2.0","0","0","55577","","null","","","null","0","","","","","","","","","","","","","","","",""
"","ISI","","html-keyboard-response","11","205569","0.0-1.0-3.0","0","0","55577","","null","","","null","0","NaN","","","","","","","","","","","","","","",""
"","S2","","html-keyboard-response","12","205825","0.0-1.0-4.0","0","0","55577","","null","","","null","0","","NaN","","","","","","","","","","","","","",""
"","response","","html-keyboard-response","13","206659","0.0-1.0-5.0-0.0","0","0","55577","","830","","","75","0","","","1","0","training","adjacent","BC","2","3","L.jpg","M.jpg","1","1","1","",""
"","feedback","","html-keyboard-response","14","207665","0.0-1.0-6.0-0.0","0","0","55577","","null","","","null","0","","","","","","","","","","","","","","","",""
"","ITI","","html-keyboard-response","15","208673","0.0-1.0-9.0","0","0","55577","","null","","","null","0","","","","","","","","","","","","","","","NaN",""
"","S1","","html-keyboard-response","16","208929","0.0-1.0-11.0","0","0","55577","","null","","","null","1","","","","","","","","","","","","","","","",""
"","ISI","","html-keyboard-response","17","209937","0.0-1.0-12.0","0","0","55577","","null","","","null","1","NaN","","","","","","","","","","","","","","",""
"","S2","","html-keyboard-response","18","210193","0.0-1.0-13.0","0","0","55577","","null","","","null","1","","NaN","","","","","","","","","","","","","",""
"","response","","html-keyboard-response","19","211434","0.0-1.0-14.0-0.0","0","0","55577","","1235","","","68","1","","","1","1","training","adjacent","BC","2","3","L.jpg","M.jpg","0","1","0","",""
"","feedback","","html-keyboard-response","20","212441","0.0-1.0-15.0-0.0","0","0","55577","","null","","","null","1","","","","","","","","","","","","","","","",""
"","time_out","","html-keyboard-response","21","214450","0.0-1.0-17.0-0.0","0","0","55577","","null","","","null","1","","","","","","","","","","","","","","","",""
"","ITI","","html-keyboard-response","22","215457","0.0-1.0-18.0","0","0","55577","","null","","","null","1","","","","","","","","","","","","","","","NaN",""
"","S1","","html-keyboard-response","23","215713","0.0-1.0-20.0","0","0","55577","","null","","","null","2","","","","","","","","","","","","","","","",""
"","ISI","","html-keyboard-response","24","216721","0.0-1.0-21.0","0","0","55577","","null","","","null","2","NaN","","","","","","","","","","","","","","",""
"","S2","","html-keyboard-response","25","216977","0.0-1.0-22.0","0","0","55577","","null","","","null","2","","NaN","","","","","","","","","","","","","",""
"","response","","html-keyboard-response","26","217181","0.0-1.0-23.0-0.0","0","0","55577","","200","","","68","2","","","1","2","training","adjacent","DE","4","5","O.jpg","R.jpg","0","1","0","",""
"","feedback","","html-keyboard-response","27","218193","0.0-1.0-24.0-0.0","0","0","55577","","null","","","null","2","","","","","","","","","","","","","","","",""
"","time_out","","html-keyboard-response","28","220201","0.0-1.0-26.0-0.0","0","0","55577","","null","","","null","2","","","","","","","","","","","","","","","",""
"","ITI","","html-keyboard-response","29","221210","0.0-1.0-27.0","0","0","55577","","null","","","null","2","","","","","","","","","","","","","","","NaN",""
"","S1","","html-keyboard-response","30","221466","0.0-1.0-29.0","0","0","55577","","null","","","null","3","","","","","","","","","","","","","","","",""
"","ISI","","html-keyboard-response","31","222473","0.0-1.0-30.0","0","0","55577","","null","","","null","3","NaN","","","","","","","","","","","","","","",""
"","S2","","html-keyboard-response","32","222729","0.0-1.0-31.0","0","0","55577","","null","","","null","3","","NaN","","","","","","","","","","","","","",""
"","response","","html-keyboard-response","33","223331","0.0-1.0-32.0-0.0","0","0","55577","","600","","","75","3","","","1","3","training","adjacent","EF","5","6","R.jpg","Q.jpg","1","1","1","",""
"","feedback","","html-keyboard-response","34","224337","0.0-1.0-33.0-0.0","0","0","55577","","null","","","null","3","","","","","","","","","","","","","","","",""
"","ITI","","html-keyboard-response","35","225345","0.0-1.0-36.0","0","0","55577","","null","","","null","3","","","","","","","","","","","","","","","NaN",""
"","S1","","html-keyboard-response","36","225602","0.0-1.0-38.0","0","0","55577","","null","","","null","4","","","","","","","","","","","","","","","",""
"","ISI","","html-keyboard-response","37","226609","0.0-1.0-39.0","0","0","55577","","null","","","null","4","NaN","","","","","","","","","","","","","","",""
"","S2","","html-keyboard-response","38","226865","0.0-1.0-40.0","0","0","55577","","null","","","null","4","","NaN","","","","","","","","","","","","","",""
"","response","","html-keyboard-response","39","227155","0.0-1.0-41.0-0.0","0","0","55577","","285","","","75","4","","","1","4","training","adjacent","CD","3","4","M.jpg","O.jpg","1","1","1","",""
"","feedback","","html-keyboard-response","40","228161","0.0-1.0-42.0-0.0","0","0","55577","","null","","","null","4","","","","","","","","","","","","","","","",""
"","ITI","","html-keyboard-response","41","229169","0.0-1.0-45.0","0","0","55577","","null","","","null","4","","","","","","","","","","","","","","","NaN",""
"","S1","","html-keyboard-response","42","229426","0.0-1.0-47.0","0","0","55577","","null","","","null","5","","","","","","","","","","","","","","","",""
"","ISI","","html-keyboard-response","43","230434","0.0-1.0-48.0","0","0","55577","","null","","","null","5","NaN","","","","","","","","","","","","","","",""
"","S2","","html-keyboard-response","44","230690","0.0-1.0-49.0","0","0","55577","","null","","","null","5","","NaN","","","","","","","","","","","","","",""
"","response","","html-keyboard-response","45","231619","0.0-1.0-50.0-0.0","0","0","55577","","927","","","68","5","","","1","5","training","adjacent","GF","7","6","N.jpg","Q.jpg","0","0","1","",""
"","feedback","","html-keyboard-response","46","232625","0.0-1.0-51.0-0.0","0","0","55577","","null","","","null","5","","","","","","","","","","","","","","","",""
"","ITI","","html-keyboard-response","47","233633","0.0-1.0-54.0","0","0","55577","","null","","","null","5","","","","","","","","","","","","","","","NaN",""
"","S1","","html-keyboard-response","48","233889","0.0-1.0-56.0","0","0","55577","","null","","","null","6","","","","","","","","","","","","","","","",""
"","ISI","","html-keyboard-response","49","234897","0.0-1.0-57.0","0","0","55577","","null","","","null","6","NaN","","","","","","","","","","","","","","",""
"","S2","","html-keyboard-response","50","235001","0.0-1.0-58.0","0","0","55577","","100","","","75","6","","k","1","6","training","adjacent","DE","4","5","O.jpg","R.jpg","1","1","1","",""
"","feedback","","html-keyboard-response","51","236009","0.0-1.0-60.0-0.0","0","0","55577","","null","","","null","6","","","","","","","","","","","","","","","",""
"","ITI","","html-keyboard-response","52","237017","0.0-1.0-63.0","0","0","55577","","null","","","null","6","","","","","","","","","","","","","","","NaN",""
"","S1","","html-keyboard-response","53","237279","0.0-1.0-65.0","0","0","55577","","null","","","null","7","","","","","","","","","","","","","","","",""
"","ISI","","html-keyboard-response","54","238289","0.0-1.0-66.0","0","0","55577","","null","","","null","7","NaN","","","","","","","","","","","","","","",""
"","S2","","html-keyboard-response","55","238546","0.0-1.0-67.0","0","0","55577","","null","","","null","7","","NaN","","","","","","","","","","","","","",""
"","response","","html-keyboard-response","56","239822","0.0-1.0-68.0-0.0","0","0","55577","","1273","","","68","7","","","1","7","training","adjacent","BA","2","1","L.jpg","P.jpg","0","0","1","",""
"","feedback","","html-keyboard-response","57","240833","0.0-1.0-69.0-0.0","0","0","55577","","null","","","null","7","","","","","","","","","","","","","","","",""
"","ITI","","html-keyboard-response","58","241841","0.0-1.0-72.0","0","0","55577","","null","","","null","7","","","","","","","","","","","","","","","NaN",""
"","S1","","html-keyboard-response","59","242097","0.0-1.0-74.0","0","0","55577","","null","","","null","8","","","","","","","","","","","","","","","",""
"","ISI","","html-keyboard-response","60","243106","0.0-1.0-75.0","0","0","55577","","null","","","null","8","NaN","","","","","","","","","","","","","","",""
"","S2","","html-keyboard-response","61","243361","0.0-1.0-76.0","0","0","55577","","null","","","null","8","","NaN","","","","","","","","","","","","","",""
"","response","","html-keyboard-response","62","244120","0.0-1.0-77.0-0.0","0","0","55577","","753","","","75","8","","","1","8","training","adjacent","AB","1","2","P.jpg","L.jpg","1","1","1","",""
"","feedback","","html-keyboard-response","63","245130","0.0-1.0-78.0-0.0","0","0","55577","","null","","","null","8","","","","","","","","","","","","","","","",""
"","ITI","","html-keyboard-response","64","246137","0.0-1.0-81.0","0","0","55577","","null","","","null","8","","","","","","","","","","","","","","","NaN",""
"","S1","","html-keyboard-response","65","246393","0.0-1.0-83.0","0","0","55577","","null","","","null","9","","","","","","","","","","","","","","","",""
"","ISI","","html-keyboard-response","66","247398","0.0-1.0-84.0","0","0","55577","","812","","","75","9","k","","","","","","","","","","","","","","",""
"","S2","","html-keyboard-response","67","247658","0.0-1.0-85.0","0","0","55577","","null","","","null","9","","NaN","","","","","","","","","","","","","",""
"","response","","html-keyboard-response","68","248261","0.0-1.0-86.0-0.0","0","0","55577","","598","","","75","9","","","1","9","training","adjacent","FG","6","7","Q.jpg","N.jpg","1","1","1","",""
"","feedback","","html-keyboard-response","69","249265","0.0-1.0-87.0-0.0","0","0","55577","","null","","","null","9","","","","","","","","","","","","","","","",""
"","ITI","","html-keyboard-response","70","250273","0.0-1.0-90.0","0","0","55577","","null","","","null","9","","","","","","","","","","","","","","","NaN",""
"","S1","","html-keyboard-response","71","250530","0.0-1.0-92.0","0","0","55577","","null","","","null","10","","","","","","","","","","","","","","","",""
"","ISI","","html-keyboard-response","72","251537","0.0-1.0-93.0","0","0","55577","","null","","","null","10","NaN","","","","","","","","","","","","","","",""
"","S2","","html-keyboard-response","73","251793","0.0-1.0-94.0","0","0","55577","","null","","","null","10","","NaN","","","","","","","","","","","","","",""
"","response","","html-keyboard-response","74","252132","0.0-1.0-95.0-0.0","0","0","55577","","335","","","68","10","","","1","10","training","adjacent","FE","6","5","Q.jpg","R.jpg","0","0","1","",""
"","feedback","","html-keyboard-response","75","253137","0.0-1.0-96.0-0.0","0","0","55577","","null","","","null","10","","","","","","","","","","","","","","","",""
"","ITI","","html-keyboard-response","76","254145","0.0-1.0-99.0","0","0","55577","","null","","","null","10","","","","","","","","","","","","","","","NaN",""
"","S1","","html-keyboard-response","77","254401","0.0-1.0-101.0","0","0","55577","","null","","","null","11","","","","","","","","","","","","","","","",""
"","ISI","","html-keyboard-response","78","255409","0.0-1.0-102.0","0","0","55577","","null","","","null","11","NaN","","","","","","","","","","","","","","",""
"","S2","","html-keyboard-response","79","255665","0.0-1.0-103.0","0","0","55577","","null","","","null","11","","NaN","","","","","","","","","","","","","",""
"","response","","html-keyboard-response","80","255898","0.0-1.0-104.0-0.0","0","0","55577","","229","","","75","11","","","1","11","training","adjacent","FE","6","5","Q.jpg","R.jpg","1","0","0","",""
"","feedback","","html-keyboard-response","81","256905","0.0-1.0-105.0-0.0","0","0","55577","","null","","","null","11","","","","","","","","","","","","","","","",""
"","time_out","","html-keyboard-response","82","258913","0.0-1.0-107.0-0.0","0","0","55577","","null","","","null","11","","","","","","","","","","","","","","","",""
"","ITI","","html-keyboard-response","83","259922","0.0-1.0-108.0","0","0","55577","","null","","","null","11","","","","","","","","","","","","","","","NaN",""
"","S1","","html-keyboard-response","84","260177","0.0-1.0-110.0","0","0","55577","","null","","","null","12","","","","","","","","","","","","","","","",""
"","ISI","","html-keyboard-response","85","261185","0.0-1.0-111.0","0","0","55577","","null","","","null","12","NaN","","","","","","","","","","","","","","",""
"","S2","","html-keyboard-response","86","261441","0.0-1.0-112.0","0","0","55577","","null","","","null","12","","NaN","","","","","","","","","","","","","",""
"","response","","html-keyboard-response","87","262546","0.0-1.0-113.0-0.0","0","0","55577","","1102","","","75","12","","","1","12","training","adjacent","EF","5","6","R.jpg","Q.jpg","1","1","1","",""
"","feedback","","html-keyboard-response","88","263554","0.0-1.0-114.0-0.0","0","0","55577","","null","","","null","12","","","","","","","","","","","","","","","",""
"","ITI","","html-keyboard-response","89","264561","0.0-1.0-117.0","0","0","55577","","null","","","null","12","","","","","","","","","","","","","","","NaN",""
"","S1","","html-keyboard-response","90","264817","0.0-1.0-119.0","0","0","55577","","null","","","null","13","","","","","","","","","","","","","","","",""
"","ISI","","html-keyboard-response","91","265825","0.0-1.0-120.0","0","0","55577","","null","","","null","13","NaN","","","","","","","","","","","","","","",""
"","S2","","html-keyboard-response","92","266082","0.0-1.0-121.0","0","0","55577","","null","","","null","13","","NaN","","","","","","","","","","","","","",""
"","response","","html-keyboard-response","93","266707","0.0-1.0-122.0-0.0","0","0","55577","","623","","","75","13","","","1","13","training","adjacent","BA","2","1","L.jpg","P.jpg","1","0","0","",""
"","feedback","","html-keyboard-response","94","267713","0.0-1.0-123.0-0.0","0","0","55577","","null","","","null","13","","","","","","","","","","","","","","","",""
"","time_out","","html-keyboard-response","95","269722","0.0-1.0-125.0-0.0","0","0","55577","","null","","","null","13","","","","","","","","","","","","","","","",""
"","ITI","","html-keyboard-response","96","270729","0.0-1.0-126.0","0","0","55577","","null","","","null","13","","","","","","","","","","","","","","","NaN",""
"","S1","","html-keyboard-response","97","270985","0.0-1.0-128.0","0","0","55577","","null","","","null","14","","","","","","","","","","","","","","","",""
"","ISI","","html-keyboard-response","98","271993","0.0-1.0-129.0","0","0","55577","","633","","","75","14","k","","","","","","","","","","","","","","",""
"","S2","","html-keyboard-response","99","272249","0.0-1.0-130.0","0","0","55577","","null","","","null","14","","NaN","","","","","","","","","","","","","",""
"","response","","html-keyboard-response","100","273444","0.0-1.0-131.0-0.0","0","0","55577","","1191","","","75","14","","","1","14","training","adjacent","AB","1","2","P.jpg","L.jpg","1","1","1","",""
"","feedback","","html-keyboard-response","101","274449","0.0-1.0-132.0-0.0","0","0","55577","","null","","","null","14","","","","","","","","","","","","","","","",""
"","ITI","","html-keyboard-response","102","275457","0.0-1.0-135.0","0","0","55577","","null","","","null","14","","","","","","","","","","","","","","","NaN",""
"","S1","","html-keyboard-response","103","275713","0.0-1.0-137.0","0","0","55577","","null","","","null","15","","","","","","","","","","","","","","","",""
"","ISI","","html-keyboard-response","104","276722","0.0-1.0-138.0","0","0","55577","","null","","","null","15","NaN","","","","","","","","","","","","","","",""
"","S2","","html-keyboard-response","105","276977","0.0-1.0-139.0","0","0","55577","","null","","","null","15","","NaN","","","","","","","","","","","","","",""
"","response","","html-keyboard-response","106","277612","0.0-1.0-140.0-0.0","0","0","55577","","632","","","75","15","","","1","15","training","adjacent","CD","3","4","M.jpg","O.jpg","1","1","1","",""
"","feedback","","html-keyboard-response","107","278617","0.0-1.0-141.0-0.0","0","0","55577","","null","","","null","15","","","","","","","","","","","","","","","",""
"","ITI","","html-keyboard-response","108","279625","0.0-1.0-144.0","0","0","55577","","null","","","null","15","","","","","","","","","","","","","","","NaN",""
"","S1","","html-keyboard-response","109","279881","0.0-1.0-146.0","0","0","55577","","null","","","null","16","","","","","","","","","","","","","","","",""
"","ISI","","html-keyboard-response","110","280889","0.0-1.0-147.0","0","0","55577","","639","","","75","16","k","","","","","","","","","","","","","","",""
"","S2","","html-keyboard-response","111","281145","0.0-1.0-148.0","0","0","55577","","null","","","null","16","","NaN","","","","","","","","","","","","","",""
"","response","","html-keyboard-response","112","281379","0.0-1.0-149.0-0.0","0","0","55577","","230","","","75","16","","","1","16","training","adjacent","AB","1","2","P.jpg","L.jpg","1","1","1","",""
"","feedback","","html-keyboard-response","113","282385","0.0-1.0-150.0-0.0","0","0","55577","","null","","","null","16","","","","","","","","","","","","","","","",""
"","ITI","","html-keyboard-response","114","283393","0.0-1.0-153.0","0","0","55577","","null","","","null","16","","","","","","","","","","","","","","","NaN",""
"","S1","","html-keyboard-response","115","283649","0.0-1.0-155.0","0","0","55577","","null","","","null","17","","","","","","","","","","","","","","","",""
"","ISI","","html-keyboard-response","116","284658","0.0-1.0-156.0","0","0","55577","","247","","","75","17","k","","","","","","","","","","","","","","",""
"","S2","","html-keyboard-response","117","284913","0.0-1.0-157.0","0","0","55577","","null","","","null","17","","NaN","","","","","","","","","","","","","",""
"","response","","html-keyboard-response","118","285222","0.0-1.0-158.0-0.0","0","0","55577","","305","","","75","17","","","1","17","training","adjacent","GF","7","6","N.jpg","Q.jpg","1","0","0","",""
"","feedback","","html-keyboard-response","119","286233","0.0-1.0-159.0-0.0","0","0","55577","","null","","","null","17","","","","","","","","","","","","","","","",""
"","time_out","","html-keyboard-response","120","288241","0.0-1.0-161.0-0.0","0","0","55577","","null","","","null","17","","","","","","","","","","","","","","","",""
"","ITI","","html-keyboard-response","121","289249","0.0-1.0-162.0","0","0","55577","","null","","","null","17","","","","","","","","","","","","","","","NaN",""
"","S1","","html-keyboard-response","122","289505","0.0-1.0-164.0","0","0","55577","","null","","","null","18","","","","","","","","","","","","","","","",""
"","ISI","","html-keyboard-response","123","290514","0.0-1.0-165.0","0","0","55577","","745","","","75","18","k","","","","","","","","","","","","","","",""
"","S2","","html-keyboard-response","124","290769","0.0-1.0-166.0","0","0","55577","","null","","","null","18","","NaN","","","","","","","","","","","","","",""
"","response","","html-keyboard-response","125","290987","0.0-1.0-167.0-0.0","0","0","55577","","214","","","68","18","","","1","18","training","adjacent","BC","2","3","L.jpg","M.jpg","0","1","0","",""
"","feedback","","html-keyboard-response","126","291994","0.0-1.0-168.0-0.0","0","0","55577","","null","","","null","18","","","","","","","","","","","","","","","",""
"","time_out","","html-keyboard-response","127","294001","0.0-1.0-170.0-0.0","0","0","55577","","null","","","null","18","","","","","","","","","","","","","","","",""
"","ITI","","html-keyboard-response","128","295009","0.0-1.0-171.0","0","0","55577","","null","","","null","18","","","","","","","","","","","","","","","NaN",""
"","S1","","html-keyboard-response","129","295266","0.0-1.0-173.0","0","0","55577","","null","","","null","19","","","","","","","","","","","","","","","",""
"","ISI","","html-keyboard-response","130","296273","0.0-1.0-174.0","0","0","55577","","725","","","68","19","d","","","","","","","","","","","","","","",""
"","S2","","html-keyboard-response","131","296529","0.0-1.0-175.0","0","0","55577","","null","","","null","19","","NaN","","","","","","","","","","","","","",""
"","response","","html-keyboard-response","132","297047","0.0-1.0-176.0-0.0","0","0","55577","","514","","","68","19","","","1","19","training","adjacent","EF","5","6","R.jpg","Q.jpg","0","1","0","",""
"","feedback","","html-keyboard-response","133","298057","0.0-1.0-177.0-0.0","0","0","55577","","null","","","null","19","","","","","","","","","","","","","","","",""
"","time_out","","html-keyboard-response","134","300066","0.0-1.0-179.0-0.0","0","0","55577","","null","","","null","19","","","","","","","","","","","","","","","",""
"","ITI","","html-keyboard-response","135","301073","0.0-1.0-180.0","0","0","55577","","null","","","null","19","","","","","","","","","","","","","","","NaN",""
"","S1","","html-keyboard-response","136","301329","0.0-1.0-182.0","0","0","55577","","null","","","null","20","","","","","","","","","","","","","","","",""
"","ISI","","html-keyboard-response","137","302337","0.0-1.0-183.0","0","0","55577","","506","","","68","20","d","","","","","","","","","","","","","","",""
"","S2","","html-keyboard-response","138","302593","0.0-1.0-184.0","0","0","55577","","null","","","null","20","","NaN","","","","","","","","","","","","","",""
"","response","","html-keyboard-response","139","302910","0.0-1.0-185.0-0.0","0","0","55577","","313","","","75","20","","","1","20","training","adjacent","DE","4","5","O.jpg","R.jpg","1","1","1","",""
"","feedback","","html-keyboard-response","140","303921","0.0-1.0-186.0-0.0","0","0","55577","","null","","","null","20","","","","","","","","","","","","","","","",""
"","ITI","","html-keyboard-response","141","304929","0.0-1.0-189.0","0","0","55577","","null","","","null","20","","","","","","","","","","","","","","","NaN",""
"","S1","","html-keyboard-response","142","305185","0.0-1.0-191.0","0","0","55577","","null","","","null","21","","","","","","","","","","","","","","","",""
"","ISI","","html-keyboard-response","143","306193","0.0-1.0-192.0","0","0","55577","","719","","","68","21","d","","","","","","","","","","","","","","",""
"","S2","","html-keyboard-response","144","306414","0.0-1.0-193.0","0","0","55577","","216","","","75","21","","k","1","21","training","adjacent","DC","4","3","O.jpg","M.jpg","1","0","0","",""
"","feedback","","html-keyboard-response","145","307425","0.0-1.0-195.0-0.0","0","0","55577","","null","","","null","21","","","","","","","","","","","","","","","",""
"","time_out","","html-keyboard-response","146","309433","0.0-1.0-197.0-0.0","0","0","55577","","null","","","null","21","","","","","","","","","","","","","","","",""
"","ITI","","html-keyboard-response","147","310441","0.0-1.0-198.0","0","0","55577","","null","","","null","21","","","","","","","","","","","","","","","NaN",""
"","S1","","html-keyboard-response","148","310697","0.0-1.0-200.0","0","0","55577","","null","","","null","22","","","","","","","","","","","","","","","",""
"","ISI","","html-keyboard-response","149","311706","0.0-1.0-201.0","0","0","55577","","303","","","75","22","k","","","","","","","","","","","","","","",""
"","S2","","html-keyboard-response","150","311962","0.0-1.0-202.0","0","0","55577","","null","","","null","22","","NaN","","","","","","","","","","","","","",""
"","response","","html-keyboard-response","151","312090","0.0-1.0-203.0-0.0","0","0","55577","","125","","","75","22","","","1","22","training","adjacent","CD","3","4","M.jpg","O.jpg","1","1","1","",""
"","feedback","","html-keyboard-response","152","313097","0.0-1.0-204.0-0.0","0","0","55577","","null","","","null","22","","","","","","","","","","","","","","","",""
"","ITI","","html-keyboard-response","153","314105","0.0-1.0-207.0","0","0","55577","","null","","","null","22","","","","","","","","","","","","","","","NaN",""
"","S1","","html-keyboard-response","154","314361","0.0-1.0-209.0","0","0","55577","","null","","","null","23","","","","","","","","","","","","","","","",""
"","ISI","","html-keyboard-response","155","315369","0.0-1.0-210.0","0","0","55577","","null","","","null","23","NaN","","","","","","","","","","","","","","",""
"","S2","","html-keyboard-response","156","315625","0.0-1.0-211.0","0","0","55577","","null","","","null","23","","NaN","","","","","","","","","","","","","",""
"","response","","html-keyboard-response","157","316607","0.0-1.0-212.0-0.0","0","0","55577","","977","","","75","23","","","1","23","training","adjacent","GF","7","6","N.jpg","Q.jpg","1","0","0","",""
"","feedback","","html-keyboard-response","158","317617","0.0-1.0-213.0-0.0","0","0","55577","","null","","","null","23","","","","","","","","","","","","","","","",""
"","time_out","","html-keyboard-response","159","319626","0.0-1.0-215.0-0.0","0","0","55577","","null","","","null","23","","","","","","","","","","","","","","","",""
"","ITI","","html-keyboard-response","160","320633","0.0-1.0-216.0","0","0","55577","","null","","","null","23","","","","","","","","","","","","","","","NaN",""
"","S1","","html-keyboard-response","161","320889","0.0-1.0-218.0","0","0","55577","","null","","","null","24","","","","","","","","","","","","","","","",""
"","ISI","","html-keyboard-response","162","321897","0.0-1.0-219.0","0","0","55577","","null","","","null","24","NaN","","","","","","","","","","","","","","",""
"","S2","","html-keyboard-response","163","322153","0.0-1.0-220.0","0","0","55577","","null","","","null","24","","NaN","","","","","","","","","","","","","",""
"","response","","html-keyboard-response","164","322613","0.0-1.0-221.0-0.0","0","0","55577","","456","","","75","24","","","1","24","training","adjacent","ED","5","4","R.jpg","O.jpg","1","0","0","",""
"","feedback","","html-keyboard-response","165","323617","0.0-1.0-222.0-0.0","0","0","55577","","null","","","null","24","","","","","","","","","","","","","","","",""
"","time_out","","html-keyboard-response","166","325626","0.0-1.0-224.0-0.0","0","0","55577","","null","","","null","24","","","","","","","","","","","","","","","",""
"","ITI","","html-keyboard-response","167","326633","0.0-1.0-225.0","0","0","55577","","null","","","null","24","","","","","","","","","","","","","","","NaN",""
"","S1","","html-keyboard-response","168","326889","0.0-1.0-227.0","0","0","55577","","null","","","null","25","","","","","","","","","","","","","","","",""
"","ISI","","html-keyboard-response","169","327897","0.0-1.0-228.0","0","0","55577","","null","","","null","25","NaN","","","","","","","","","","","","","","",""
"","S2","","html-keyboard-response","170","328153","0.0-1.0-229.0","0","0","55577","","null","","","null","25","","NaN","","","","","","","","","","","","","",""
"","response","","html-keyboard-response","171","329914","0.0-1.0-230.0-0.0","0","0","55577","","null","","","null","25","","","1","25","training","adjacent","CB","3","2","M.jpg","L.jpg","NaN","0","0","",""
"","too_slow_prompt","","html-keyboard-response","172","330921","0.0-1.0-232.0-0.0","1","0","55577","","null","","","null","","","","","","","","","","","","","","","","",""
"","time_out","","html-keyboard-response","173","332929","0.0-1.0-233.0-0.0","0","0","55577","","null","","","null","25","","","","","","","","","","","","","","","",""
"","ITI","","html-keyboard-response","174","333937","0.0-1.0-234.0","0","0","55577","","null","","","null","25","","","","","","","","","","","","","","","NaN",""
"","S1","","html-keyboard-response","175","334193","0.0-1.0-236.0","0","0","55577","","null","","","null","26","","","","","","","","","","","","","","","",""
"","ISI","","html-keyboard-response","176","335201","0.0-1.0-237.0","0","0","55577","","null","","","null","26","NaN","","","","","","","","","","","","","","",""
"","S2","","html-keyboard-response","177","335457","0.0-1.0-238.0","0","0","55577","","null","","","null","26","","NaN","","","","","","","","","","","","","",""
"","response","","html-keyboard-response","178","335895","0.0-1.0-239.0-0.0","0","0","55577","","436","","","75","26","","","1","26","training","adjacent","DC","4","3","O.jpg","M.jpg","1","0","0","",""
"","feedback","","html-keyboard-response","179","336905","0.0-1.0-240.0-0.0","0","0","55577","","null","","","null","26","","","","","","","","","","","","","","","",""
"","time_out","","html-keyboard-response","180","338913","0.0-1.0-242.0-0.0","0","0","55577","","null","","","null","26","","","","","","","","","","","","","","","",""
"","ITI","","html-keyboard-response","181","339921","0.0-1.0-243.0","0","0","55577","","null","","","null","26","","","","","","","","","","","","","","","NaN",""
"","S1","","html-keyboard-response","182","340177","0.0-1.0-245.0","0","0","55577","","null","","","null","27","","","","","","","","","","","","","","","",""
"","ISI","","html-keyboard-response","183","341185","0.0-1.0-246.0","0","0","55577","","null","","","null","27","NaN","","","","","","","","","","","","","","",""
"","S2","","html-keyboard-response","184","341441","0.0-1.0-247.0","0","0","55577","","null","","","null","27","","NaN","","","","","","","","","","","","","",""
"","response","","html-keyboard-response","185","341950","0.0-1.0-248.0-0.0","0","0","55577","","505","","","75","27","","","1","27","training","adjacent","DE","4","5","O.jpg","R.jpg","1","1","1","",""
"","feedback","","html-keyboard-response","186","342961","0.0-1.0-249.0-0.0","0","0","55577","","null","","","null","27","","","","","","","","","","","","","","","",""
"","ITI","","html-keyboard-response","187","343969","0.0-1.0-252.0","0","0","55577","","null","","","null","27","","","","","","","","","","","","","","","NaN",""
"","S1","","html-keyboard-response","188","344226","0.0-1.0-254.0","0","0","55577","","null","","","null","28","","","","","","","","","","","","","","","",""
"","ISI","","html-keyboard-response","189","345233","0.0-1.0-255.0","0","0","55577","","null","","","null","28","NaN","","","","","","","","","","","","","","",""
"","S2","","html-keyboard-response","190","345489","0.0-1.0-256.0","0","0","55577","","null","","","null","28","","NaN","","","","","","","","","","","","","",""
"","response","","html-keyboard-response","191","346465","0.0-1.0-257.0-0.0","0","0","55577","","972","","","75","28","","","1","28","training","adjacent","GF","7","6","N.jpg","Q.jpg","1","0","0","",""
"","feedback","","html-keyboard-response","192","347473","0.0-1.0-258.0-0.0","0","0","55577","","null","","","null","28","","","","","","","","","","","","","","","",""
"","time_out","","html-keyboard-response","193","349481","0.0-1.0-260.0-0.0","0","0","55577","","null","","","null","28","","","","","","","","","","","","","","","",""
"","ITI","","html-keyboard-response","194","350489","0.0-1.0-261.0","0","0","55577","","null","","","null","28","","","","","","","","","","","","","","","NaN",""
"","S1","","html-keyboard-response","195","350745","0.0-1.0-263.0","0","0","55577","","null","","","null","29","","","","","","","","","","","","","","","",""
"","ISI","","html-keyboard-response","196","351753","0.0-1.0-264.0","0","0","55577","","null","","","null","29","NaN","","","","","","","","","","","","","","",""
"","S2","","html-keyboard-response","197","352009","0.0-1.0-265.0","0","0","55577","","null","","","null","29","","NaN","","","","","","","","","","","","","",""
"","response","","html-keyboard-response","198","352604","0.0-1.0-266.0-0.0","0","0","55577","","591","","","75","29","","","1","29","training","adjacent","FE","6","5","Q.jpg","R.jpg","1","0","0","",""
"","feedback","","html-keyboard-response","199","353609","0.0-1.0-267.0-0.0","0","0","55577","","null","","","null","29","","","","","","","","","","","","","","","",""
"","time_out","","html-keyboard-response","200","355617","0.0-1.0-269.0-0.0","0","0","55577","","null","","","null","29","","","","","","","","","","","","","","","",""
"","ITI","","html-keyboard-response","201","356625","0.0-1.0-270.0","0","0","55577","","null","","","null","29","","","","","","","","","","","","","","","NaN",""
"","S1","","html-keyboard-response","202","356881","0.0-1.0-272.0","0","0","55577","","null","","","null","30","","","","","","","","","","","","","","","",""
"","ISI","","html-keyboard-response","203","357889","0.0-1.0-273.0","0","0","55577","","756","","","75","30","k","","","","","","","","","","","","","","",""
"","S2","","html-keyboard-response","204","358145","0.0-1.0-274.0","0","0","55577","","null","","","null","30","","NaN","","","","","","","","","","","","","",""
"","response","","html-keyboard-response","205","358325","0.0-1.0-275.0-0.0","0","0","55577","","176","","","75","30","","","1","30","training","adjacent","CD","3","4","M.jpg","O.jpg","1","1","1","",""
"","feedback","","html-keyboard-response","206","359337","0.0-1.0-276.0-0.0","0","0","55577","","null","","","null","30","","","","","","","","","","","","","","","",""
"","ITI","","html-keyboard-response","207","360345","0.0-1.0-279.0","0","0","55577","","null","","","null","30","","","","","","","","","","","","","","","NaN",""
"","S1","","html-keyboard-response","208","360601","0.0-1.0-281.0","0","0","55577","","null","","","null","31","","","","","","","","","","","","","","","",""
"","ISI","","html-keyboard-response","209","361609","0.0-1.0-282.0","0","0","55577","","null","","","null","31","NaN","","","","","","","","","","","","","","",""
"","S2","","html-keyboard-response","210","361865","0.0-1.0-283.0","0","0","55577","","null","","","null","31","","NaN","","","","","","","","","","","","","",""
"","response","","html-keyboard-response","211","362053","0.0-1.0-284.0-0.0","0","0","55577","","184","","","68","31","","","1","31","training","adjacent","FG","6","7","Q.jpg","N.jpg","0","1","0","",""
"","feedback","","html-keyboard-response","212","363057","0.0-1.0-285.0-0.0","0","0","55577","","null","","","null","31","","","","","","","","","","","","","","","",""
"","time_out","","html-keyboard-response","213","365065","0.0-1.0-287.0-0.0","0","0","55577","","null","","","null","31","","","","","","","","","","","","","","","",""
"","ITI","","html-keyboard-response","214","366073","0.0-1.0-288.0","0","0","55577","","null","","","null","31","","","","","","","","","","","","","","","NaN",""
"","S1","","html-keyboard-response","215","366329","0.0-1.0-290.0","0","0","55577","","null","","","null","32","","","","","","","","","","","","","","","",""
"","ISI","","html-keyboard-response","216","367337","0.0-1.0-291.0","0","0","55577","","null","","","null","32","NaN","","","","","","","","","","","","","","",""
"","S2","","html-keyboard-response","217","367593","0.0-1.0-292.0","0","0","55577","","null","","","null","32","","NaN","","","","","","","","","","","","","",""
"","response","","html-keyboard-response","218","369353","0.0-1.0-293.0-0.0","0","0","55577","","null","","","null","32","","","1","32","training","adjacent","ED","5","4","R.jpg","O.jpg","NaN","0","0","",""
"","too_slow_prompt","","html-keyboard-response","219","370362","0.0-1.0-295.0-0.0","1","0","55577","","null","","","null","","","","","","","","","","","","","","","","",""
"","time_out","","html-keyboard-response","220","372369","0.0-1.0-296.0-0.0","0","0","55577","","null","","","null","32","","","","","","","","","","","","","","","",""
"","ITI","","html-keyboard-response","221","373378","0.0-1.0-297.0","0","0","55577","","null","","","null","32","","","","","","","","","","","","","","","NaN",""
"","S1","","html-keyboard-response","222","373641","0.0-1.0-299.0","0","0","55577","","null","","","null","33","","","","","","","","","","","","","","","",""
"","ISI","","html-keyboard-response","223","374649","0.0-1.0-300.0","0","0","55577","","167","","","75","33","k","","","","","","","","","","","","","","",""
"","S2","","html-keyboard-response","224","374905","0.0-1.0-301.0","0","0","55577","","null","","","null","33","","NaN","","","","","","","","","","","","","",""
"","response","","html-keyboard-response","225","375080","0.0-1.0-302.0-0.0","0","0","55577","","171","","","75","33","","","1","33","training","adjacent","BA","2","1","L.jpg","P.jpg","1","0","0","",""
"","feedback","","html-keyboard-response","226","376089","0.0-1.0-303.0-0.0","0","0","55577","","null","","","null","33","","","","","","","","","","","","","","","",""
"","time_out","","html-keyboard-response","227","378097","0.0-1.0-305.0-0.0","0","0","55577","","null","","","null","33","","","","","","","","","","","","","","","",""
"","ITI","","html-keyboard-response","228","379105","0.0-1.0-306.0","0","0","55577","","null","","","null","33","","","","","","","","","","","","","","","NaN",""
"","S1","","html-keyboard-response","229","379361","0.0-1.0-308.0","0","0","55577","","null","","","null","34","","","","","","","","","","","","","","","",""
"","ISI","","html-keyboard-response","230","380369","0.0-1.0-309.0","0","0","55577","","217","","","75","34","k","","","","","","","","","","","","","","",""
"","S2","","html-keyboard-response","231","380625","0.0-1.0-310.0","0","0","55577","","null","","","null","34","","NaN","","","","","","","","","","","","","",""
"","response","","html-keyboard-response","232","380837","0.0-1.0-311.0-0.0","0","0","55577","","208","","","75","34","","","1","34","training","adjacent","DC","4","3","O.jpg","M.jpg","1","0","0","",""
"","feedback","","html-keyboard-response","233","381849","0.0-1.0-312.0-0.0","0","0","55577","","null","","","null","34","","","","","","","","","","","","","","","",""
"","time_out","","html-keyboard-response","234","383857","0.0-1.0-314.0-0.0","0","0","55577","","null","","","null","34","","","","","","","","","","","","","","","",""
"","ITI","","html-keyboard-response","235","384865","0.0-1.0-315.0","0","0","55577","","null","","","null","34","","","","","","","","","","","","","","","NaN",""
"","S1","","html-keyboard-response","236","385121","0.0-1.0-317.0","0","0","55577","","null","","","null","35","","","","","","","","","","","","","","","",""
"","ISI","","html-keyboard-response","237","386130","0.0-1.0-318.0","0","0","55577","","204","","","75","35","k","","","","","","","","","","","","","","",""
"","S2","","html-keyboard-response","238","386385","0.0-1.0-319.0","0","0","55577","","null","","","null","35","","NaN","","","","","","","","","","","","","",""
"","response","","html-keyboard-response","239","386584","0.0-1.0-320.0-0.0","0","0","55577","","195","","","75","35","","","1","35","training","adjacent","BC","2","3","L.jpg","M.jpg","1","1","1","",""
"","feedback","","html-keyboard-response","240","387593","0.0-1.0-321.0-0.0","0","0","55577","","null","","","null","35","","","","","","","","","","","","","","","",""
"","ITI","","html-keyboard-response","241","388601","0.0-1.0-324.0","0","0","55577","","null","","","null","35","","","","","","","","","","","","","","","NaN",""
"","S1","","html-keyboard-response","242","388857","0.0-1.0-326.0","0","0","55577","","null","","","null","36","","","","","","","","","","","","","","","",""
"","ISI","","html-keyboard-response","243","389865","0.0-1.0-327.0","0","0","55577","","null","","","null","36","NaN","","","","","","","","","","","","","","",""
"","S2","","html-keyboard-response","244","390121","0.0-1.0-328.0","0","0","55577","","null","","","null","36","","NaN","","","","","","","","","","","","","",""
"","response","","html-keyboard-response","245","391881","0.0-1.0-329.0-0.0","0","0","55577","","null","","","null","36","","","1","36","training","adjacent","ED","5","4","R.jpg","O.jpg","NaN","0","0","",""
"","too_slow_prompt","","html-keyboard-response","246","392889","0.0-1.0-331.0-0.0","1","0","55577","","null","","","null","","","","","","","","","","","","","","","","",""
"","time_out","","html-keyboard-response","247","394898","0.0-1.0-332.0-0.0","0","0","55577","","null","","","null","36","","","","","","","","","","","","","","","",""
"","ITI","","html-keyboard-response","248","395905","0.0-1.0-333.0","0","0","55577","","null","","","null","36","","","","","","","","","","","","","","","NaN",""
"","S1","","html-keyboard-response","249","396163","0.0-1.0-335.0","0","0","55577","","null","","","null","37","","","","","","","","","","","","","","","",""
"","ISI","","html-keyboard-response","250","397169","0.0-1.0-336.0","0","0","55577","","null","","","null","37","NaN","","","","","","","","","","","","","","",""
"","S2","","html-keyboard-response","251","397425","0.0-1.0-337.0","0","0","55577","","null","","","null","37","","NaN","","","","","","","","","","","","","",""
"","response","","html-keyboard-response","252","397895","0.0-1.0-338.0-0.0","0","0","55577","","466","","","75","37","","","1","37","training","adjacent","BA","2","1","L.jpg","P.jpg","1","0","0","",""
"","feedback","","html-keyboard-response","253","398905","0.0-1.0-339.0-0.0","0","0","55577","","null","","","null","37","","","","","","","","","","","","","","","",""
"","time_out","","html-keyboard-response","254","400913","0.0-1.0-341.0-0.0","0","0","55577","","null","","","null","37","","","","","","","","","","","","","","","",""
"","ITI","","html-keyboard-response","255","401921","0.0-1.0-342.0","0","0","55577","","null","","","null","37","","","","","","","","","","","","","","","NaN",""
"","S1","","html-keyboard-response","256","402177","0.0-1.0-344.0","0","0","55577","","null","","","null","38","","","","","","","","","","","","","","","",""
"","ISI","","html-keyboard-response","257","403186","0.0-1.0-345.0","0","0","55577","","null","","","null","38","NaN","","","","","","","","","","","","","","",""
"","S2","","html-keyboard-response","258","403441","0.0-1.0-346.0","0","0","55577","","null","","","null","38","","NaN","","","","","","","","","","","","","",""
"","response","","html-keyboard-response","259","403718","0.0-1.0-347.0-0.0","0","0","55577","","273","","","68","38","","","1","38","training","adjacent","FG","6","7","Q.jpg","N.jpg","0","1","0","",""
"","feedback","","html-keyboard-response","260","404729","0.0-1.0-348.0-0.0","0","0","55577","","null","","","null","38","","","","","","","","","","","","","","","",""
"","time_out","","html-keyboard-response","261","406737","0.0-1.0-350.0-0.0","0","0","55577","","null","","","null","38","","","","","","","","","","","","","","","",""
"","ITI","","html-keyboard-response","262","407745","0.0-1.0-351.0","0","0","55577","","null","","","null","38","","","","","","","","","","","","","","","NaN",""
"","S1","","html-keyboard-response","263","408002","0.0-1.0-353.0","0","0","55577","","null","","","null","39","","","","","","","","","","","","","","","",""
"","ISI","","html-keyboard-response","264","409009","0.0-1.0-354.0","0","0","55577","","null","","","null","39","NaN","","","","","","","","","","","","","","",""
"","S2","","html-keyboard-response","265","409265","0.0-1.0-355.0","0","0","55577","","null","","","null","39","","NaN","","","","","","","","","","","","","",""
"","response","","html-keyboard-response","266","409348","0.0-1.0-356.0-0.0","0","0","55577","","79","","","75","39","","","1","39","training","adjacent","CB","3","2","M.jpg","L.jpg","1","0","0","",""
"","feedback","","html-keyboard-response","267","410353","0.0-1.0-357.0-0.0","0","0","55577","","null","","","null","39","","","","","","","","","","","","","","","",""
"","time_out","","html-keyboard-response","268","412361","0.0-1.0-359.0-0.0","0","0","55577","","null","","","null","39","","","","","","","","","","","","","","","",""
"","ITI","","html-keyboard-response","269","413369","0.0-1.0-360.0","0","0","55577","","null","","","null","39","","","","","","","","","","","","","","","NaN",""
"","S1","","html-keyboard-response","270","413625","0.0-1.0-362.0","0","0","55577","","null","","","null","40","","","","","","","","","","","","","","","",""
"","ISI","","html-keyboard-response","271","414633","0.0-1.0-363.0","0","0","55577","","null","","","null","40","NaN","","","","","","","","","","","","","","",""
"","S2","","html-keyboard-response","272","414889","0.0-1.0-364.0","0","0","55577","","null","","","null","40","","NaN","","","","","","","","","","","","","",""
"","response","","html-keyboard-response","273","414952","0.0-1.0-365.0-0.0","0","0","55577","","59","","","75","40","","","1","40","training","adjacent","FG","6","7","Q.jpg","N.jpg","1","1","1","",""
"","feedback","","html-keyboard-response","274","415961","0.0-1.0-366.0-0.0","0","0","55577","","null","","","null","40","","","","","","","","","","","","","","","",""
"","ITI","","html-keyboard-response","275","416969","0.0-1.0-369.0","0","0","55577","","null","","","null","40","","","","","","","","","","","","","","","NaN",""
"","S1","","html-keyboard-response","276","417225","0.0-1.0-371.0","0","0","55577","","null","","","null","41","","","","","","","","","","","","","","","",""
"","ISI","","html-keyboard-response","277","418233","0.0-1.0-372.0","0","0","55577","","null","","","null","41","NaN","","","","","","","","","","","","","","",""
"","S2","","html-keyboard-response","278","418489","0.0-1.0-373.0","0","0","55577","","null","","","null","41","","NaN","","","","","","","","","","","","","",""
"","response","","html-keyboard-response","279","418719","0.0-1.0-374.0-0.0","0","0","55577","","226","","","75","41","","","1","41","training","adjacent","CB","3","2","M.jpg","L.jpg","1","0","0","",""
"","feedback","","html-keyboard-response","280","419729","0.0-1.0-375.0-0.0","0","0","55577","","null","","","null","41","","","","","","","","","","","","","","","",""
"","time_out","","html-keyboard-response","281","421737","0.0-1.0-377.0-0.0","0","0","55577","","null","","","null","41","","","","","","","","","","","","","","","",""
"","ITI","","html-keyboard-response","282","422745","0.0-1.0-378.0","0","0","55577","","null","","","null","41","","","","","","","","","","","","","","","NaN",""
"","S1","","html-keyboard-response","283","423001","0.0-1.0-380.0","0","0","55577","","null","","","null","42","","","","","","","","","","","","","","","",""
"","ISI","","html-keyboard-response","284","424009","0.0-1.0-381.0","0","0","55577","","913","","","75","42","k","","","","","","","","","","","","","","",""
"","S2","","html-keyboard-response","285","424265","0.0-1.0-382.0","0","0","55577","","null","","","null","42","","NaN","","","","","","","","","","","","","",""
"","response","","html-keyboard-response","286","425174","0.0-1.0-383.0-0.0","0","0","55577","","905","","","75","42","","","1","42","training","adjacent","DC","4","3","O.jpg","M.jpg","1","0","0","",""
"","feedback","","html-keyboard-response","287","426185","0.0-1.0-384.0-0.0","0","0","55577","","null","","","null","42","","","","","","","","","","","","","","","",""
"","time_out","","html-keyboard-response","288","428193","0.0-1.0-386.0-0.0","0","0","55577","","null","","","null","42","","","","","","","","","","","","","","","",""
"","ITI","","html-keyboard-response","289","429202","0.0-1.0-387.0","0","0","55577","","null","","","null","42","","","","","","","","","","","","","","","NaN",""
"","S1","","html-keyboard-response","290","429457","0.0-1.0-389.0","0","0","55577","","null","","","null","43","","","","","","","","","","","","","","","",""
"","ISI","","html-keyboard-response","291","430465","0.0-1.0-390.0","0","0","55577","","null","","","null","43","NaN","","","","","","","","","","","","","","",""
"","S2","","html-keyboard-response","292","430721","0.0-1.0-391.0","0","0","55577","","null","","","null","43","","NaN","","","","","","","","","","","","","",""
"","response","","html-keyboard-response","293","432173","0.0-1.0-392.0-0.0","0","0","55577","","1448","","","68","43","","","1","43","training","adjacent","EF","5","6","R.jpg","Q.jpg","0","1","0","",""
"","feedback","","html-keyboard-response","294","433177","0.0-1.0-393.0-0.0","0","0","55577","","null","","","null","43","","","","","","","","","","","","","","","",""
"","time_out","","html-keyboard-response","295","435192","0.0-1.0-395.0-0.0","0","0","55577","","null","","","null","43","","","","","","","","","","","","","","","",""
"","ITI","","html-keyboard-response","296","436202","0.0-1.0-396.0","0","0","55577","","null","","","null","43","","","","","","","","","","","","","","","NaN",""
"","S1","","html-keyboard-response","297","436457","0.0-1.0-398.0","0","0","55577","","null","","","null","44","","","","","","","","","","","","","","","",""
"","ISI","","html-keyboard-response","298","437465","0.0-1.0-399.0","0","0","55577","","null","","","null","44","NaN","","","","","","","","","","","","","","",""
"","S2","","html-keyboard-response","299","437721","0.0-1.0-400.0","0","0","55577","","null","","","null","44","","NaN","","","","","","","","","","","","","",""
"","response","","html-keyboard-response","300","437877","0.0-1.0-401.0-0.0","0","0","55577","","152","","","75","44","","","1","44","training","adjacent","FE","6","5","Q.jpg","R.jpg","1","0","0","",""
"","feedback","","html-keyboard-response","301","438889","0.0-1.0-402.0-0.0","0","0","55577","","null","","","null","44","","","","","","","","","","","","","","","",""
"","time_out","","html-keyboard-response","302","440898","0.0-1.0-404.0-0.0","0","0","55577","","null","","","null","44","","","","","","","","","","","","","","","",""
"","ITI","","html-keyboard-response","303","441905","0.0-1.0-405.0","0","0","55577","","null","","","null","44","","","","","","","","","","","","","","","NaN",""
"","S1","","html-keyboard-response","304","442161","0.0-1.0-407.0","0","0","55577","","null","","","null","45","","","","","","","","","","","","","","","",""
"","ISI","","html-keyboard-response","305","443169","0.0-1.0-408.0","0","0","55577","","null","","","null","45","NaN","","","","","","","","","","","","","","",""
"","S2","","html-keyboard-response","306","443425","0.0-1.0-409.0","0","0","55577","","null","","","null","45","","NaN","","","","","","","","","","","","","",""
"","response","","html-keyboard-response","307","443832","0.0-1.0-410.0-0.0","0","0","55577","","403","","","75","45","","","1","45","training","adjacent","ED","5","4","R.jpg","O.jpg","1","0","0","",""
"","feedback","","html-keyboard-response","308","444841","0.0-1.0-411.0-0.0","0","0","55577","","null","","","null","45","","","","","","","","","","","","","","","",""
"","time_out","","html-keyboard-response","309","446849","0.0-1.0-413.0-0.0","0","0","55577","","null","","","null","45","","","","","","","","","","","","","","","",""
"","ITI","","html-keyboard-response","310","447857","0.0-1.0-414.0","0","0","55577","","null","","","null","45","","","","","","","","","","","","","","","NaN",""
"","S1","","html-keyboard-response","311","448113","0.0-1.0-416.0","0","0","55577","","null","","","null","46","","","","","","","","","","","","","","","",""
"","ISI","","html-keyboard-response","312","449121","0.0-1.0-417.0","0","0","55577","","null","","","null","46","NaN","","","","","","","","","","","","","","",""
"","S2","","html-keyboard-response","313","449377","0.0-1.0-418.0","0","0","55577","","null","","","null","46","","NaN","","","","","","","","","","","","","",""
"","response","","html-keyboard-response","314","450068","0.0-1.0-419.0-0.0","0","0","55577","","686","","","75","46","","","1","46","training","adjacent","CB","3","2","M.jpg","L.jpg","1","0","0","",""
"","feedback","","html-keyboard-response","315","451073","0.0-1.0-420.0-0.0","0","0","55577","","null","","","null","46","","","","","","","","","","","","","","","",""
"","time_out","","html-keyboard-response","316","453081","0.0-1.0-422.0-0.0","0","0","55577","","null","","","null","46","","","","","","","","","","","","","","","",""
"","ITI","","html-keyboard-response","317","454089","0.0-1.0-423.0","0","0","55577","","null","","","null","46","","","","","","","","","","","","","","","NaN",""
"","S1","","html-keyboard-response","318","454345","0.0-1.0-425.0","0","0","55577","","null","","","null","47","","","","","","","","","","","","","","","",""
"","ISI","","html-keyboard-response","319","455353","0.0-1.0-426.0","0","0","55577","","null","","","null","47","NaN","","","","","","","","","","","","","","",""
"","S2","","html-keyboard-response","320","455609","0.0-1.0-427.0","0","0","55577","","null","","","null","47","","NaN","","","","","","","","","","","","","",""
"","response","","html-keyboard-response","321","455781","0.0-1.0-428.0-0.0","0","0","55577","","168","","","75","47","","","1","47","training","adjacent","AB","1","2","P.jpg","L.jpg","1","1","1","",""
"","feedback","","html-keyboard-response","322","456793","0.0-1.0-429.0-0.0","0","0","55577","","null","","","null","47","","","","","","","","","","","","","","","",""
"","ITI","","html-keyboard-response","323","457801","0.0-1.0-432.0","0","0","55577","","null","","","null","47","","","","","","","","","","","","","","","NaN",""
"","block_over","","html-keyboard-response","324","559236","0.0-1.0-433.0-0.0","0","0","55577","","101431","","","32","47","","","","","","","","","","","","","","","",""
"","S1","","html-keyboard-response","325","559497","0.0-1.0-434.0","0","0","55577","","null","","","null","48","","","","","","","","","","","","","","","",""
"","ISI","","html-keyboard-response","326","560505","0.0-1.0-435.0","0","0","55577","","null","","","null","48","NaN","","","","","","","","","","","","","","",""
"","S2","","html-keyboard-response","327","560761","0.0-1.0-436.0","0","0","55577","","null","","","null","48","","NaN","","","","","","","","","","","","","",""
"","response","","html-keyboard-response","328","561459","0.0-1.0-437.0-0.0","0","0","55577","","694","","","75","48","","","2","48","training","adjacent","CD","3","4","M.jpg","O.jpg","1","1","1","",""
"","feedback","","html-keyboard-response","329","562465","0.0-1.0-438.0-0.0","0","0","55577","","null","","","null","48","","","","","","","","","","","","","","","",""
"","ITI","","html-keyboard-response","330","563473","0.0-1.0-441.0","0","0","55577","","null","","","null","48","","","","","","","","","","","","","","","NaN",""
"","S1","","html-keyboard-response","331","563729","0.0-1.0-443.0","0","0","55577","","null","","","null","49","","","","","","","","","","","","","","","",""
"","ISI","","html-keyboard-response","332","564737","0.0-1.0-444.0","0","0","55577","","null","","","null","49","NaN","","","","","","","","","","","","","","",""
"","S2","","html-keyboard-response","333","564993","0.0-1.0-445.0","0","0","55577","","null","","","null","49","","NaN","","","","","","","","","","","","","",""
"","response","","html-keyboard-response","334","565435","0.0-1.0-446.0-0.0","0","0","55577","","438","","","75","49","","","2","49","training","adjacent","FE","6","5","Q.jpg","R.jpg","1","0","0","",""
"","feedback","","html-keyboard-response","335","566441","0.0-1.0-447.0-0.0","0","0","55577","","null","","","null","49","","","","","","","","","","","","","","","",""
"","time_out","","html-keyboard-response","336","568449","0.0-1.0-449.0-0.0","0","0","55577","","null","","","null","49","","","","","","","","","","","","","","","",""
"","ITI","","html-keyboard-response","337","569457","0.0-1.0-450.0","0","0","55577","","null","","","null","49","","","","","","","","","","","","","","","NaN",""
"","S1","","html-keyboard-response","338","569713","0.0-1.0-452.0","0","0","55577","","null","","","null","50","","","","","","","","","","","","","","","",""
"","ISI","","html-keyboard-response","339","570721","0.0-1.0-453.0","0","0","55577","","null","","","null","50","NaN","","","","","","","","","","","","","","",""
"","S2","","html-keyboard-response","340","570977","0.0-1.0-454.0","0","0","55577","","null","","","null","50","","NaN","","","","","","","","","","","","","",""
"","response","","html-keyboard-response","341","571281","0.0-1.0-455.0-0.0","0","0","55577","","300","","","75","50","","","2","50","training","adjacent","ED","5","4","R.jpg","O.jpg","1","0","0","",""
"","feedback","","html-keyboard-response","342","572289","0.0-1.0-456.0-0.0","0","0","55577","","null","","","null","50","","","","","","","","","","","","","","","",""
"","time_out","","html-keyboard-response","343","574298","0.0-1.0-458.0-0.0","0","0","55577","","null","","","null","50","","","","","","","","","","","","","","","",""
"","ITI","","html-keyboard-response","344","575305","0.0-1.0-459.0","0","0","55577","","null","","","null","50","","","","","","","","","","","","","","","NaN",""
"","S1","","html-keyboard-response","345","575562","0.0-1.0-461.0","0","0","55577","","null","","","null","51","","","","","","","","","","","","","","","",""
"","ISI","","html-keyboard-response","346","576569","0.0-1.0-462.0","0","0","55577","","null","","","null","51","NaN","","","","","","","","","","","","","","",""
"","S2","","html-keyboard-response","347","576825","0.0-1.0-463.0","0","0","55577","","null","","","null","51","","NaN","","","","","","","","","","","","","",""
"","response","","html-keyboard-response","348","577110","0.0-1.0-464.0-0.0","0","0","55577","","281","","","68","51","","","2","51","training","adjacent","BA","2","1","L.jpg","P.jpg","0","0","1","",""
"","feedback","","html-keyboard-response","349","578121","0.0-1.0-465.0-0.0","0","0","55577","","null","","","null","51","","","","","","","","","","","","","","","",""
"","ITI","","html-keyboard-response","350","579130","0.0-1.0-468.0","0","0","55577","","null","","","null","51","","","","","","","","","","","","","","","NaN",""
"","S1","","html-keyboard-response","351","579385","0.0-1.0-470.0","0","0","55577","","null","","","null","52","","","","","","","","","","","","","","","",""
"","ISI","","html-keyboard-response","352","580393","0.0-1.0-471.0","0","0","55577","","null","","","null","52","NaN","","","","","","","","","","","","","","",""
"","S2","","html-keyboard-response","353","580650","0.0-1.0-472.0","0","0","55577","","null","","","null","52","","NaN","","","","","","","","","","","","","",""
"","response","","html-keyboard-response","354","581034","0.0-1.0-473.0-0.0","0","0","55577","","381","","","75","52","","","2","52","training","adjacent","ED","5","4","R.jpg","O.jpg","1","0","0","",""
"","feedback","","html-keyboard-response","355","582041","0.0-1.0-474.0-0.0","0","0","55577","","null","","","null","52","","","","","","","","","","","","","","","",""
"","time_out","","html-keyboard-response","356","584049","0.0-1.0-476.0-0.0","0","0","55577","","null","","","null","52","","","","","","","","","","","","","","","",""
"","ITI","","html-keyboard-response","357","585057","0.0-1.0-477.0","0","0","55577","","null","","","null","52","","","","","","","","","","","","","","","NaN",""
"","S1","","html-keyboard-response","358","585313","0.0-1.0-479.0","0","0","55577","","null","","","null","53","","","","","","","","","","","","","","","",""
"","ISI","","html-keyboard-response","359","586321","0.0-1.0-480.0","0","0","55577","","null","","","null","53","NaN","","","","","","","","","","","","","","",""
"","S2","","html-keyboard-response","360","586577","0.0-1.0-481.0","0","0","55577","","null","","","null","53","","NaN","","","","","","","","","","","","","",""
"","response","","html-keyboard-response","361","587007","0.0-1.0-482.0-0.0","0","0","55577","","426","","","75","53","","","2","53","training","adjacent","AB","1","2","P.jpg","L.jpg","1","1","1","",""
"","feedback","","html-keyboard-response","362","588017","0.0-1.0-483.0-0.0","0","0","55577","","null","","","null","53","","","","","","","","","","","","","","","",""
"","ITI","","html-keyboard-response","363","589026","0.0-1.0-486.0","0","0","55577","","null","","","null","53","","","","","","","","","","","","","","","NaN",""
"","S1","","html-keyboard-response","364","589281","0.0-1.0-488.0","0","0","55577","","null","","","null","54","","","","","","","","","","","","","","","",""
"","ISI","","html-keyboard-response","365","590290","0.0-1.0-489.0","0","0","55577","","null","","","null","54","NaN","","","","","","","","","","","","","","",""
"","S2","","html-keyboard-response","366","590545","0.0-1.0-490.0","0","0","55577","","null","","","null","54","","NaN","","","","","","","","","","","","","",""
"","response","","html-keyboard-response","367","591170","0.0-1.0-491.0-0.0","0","0","55577","","621","","","75","54","","","2","54","training","adjacent","GF","7","6","N.jpg","Q.jpg","1","0","0","",""
"","feedback","","html-keyboard-response","368","592177","0.0-1.0-492.0-0.0","0","0","55577","","null","","","null","54","","","","","","","","","","","","","","","",""
"","time_out","","html-keyboard-response","369","594185","0.0-1.0-494.0-0.0","0","0","55577","","null","","","null","54","","","","","","","","","","","","","","","",""
"","ITI","","html-keyboard-response","370","595193","0.0-1.0-495.0","0","0","55577","","null","","","null","54","","","","","","","","","","","","","","","NaN",""
"","S1","","html-keyboard-response","371","595449","0.0-1.0-497.0","0","0","55577","","null","","","null","55","","","","","","","","","","","","","","","",""
"","ISI","","html-keyboard-response","372","596457","0.0-1.0-498.0","0","0","55577","","null","","","null","55","NaN","","","","","","","","","","","","","","",""
"","S2","","html-keyboard-response","373","596713","0.0-1.0-499.0","0","0","55577","","null","","","null","55","","NaN","","","","","","","","","","","","","",""
"","response","","html-keyboard-response","374","597054","0.0-1.0-500.0-0.0","0","0","55577","","337","","","75","55","","","2","55","training","adjacent","ED","5","4","R.jpg","O.jpg","1","0","0","",""
"","feedback","","html-keyboard-response","375","598065","0.0-1.0-501.0-0.0","0","0","55577","","null","","","null","55","","","","","","","","","","","","","","","",""
"","time_out","","html-keyboard-response","376","600073","0.0-1.0-503.0-0.0","0","0","55577","","null","","","null","55","","","","","","","","","","","","","","","",""
"","ITI","","html-keyboard-response","377","601082","0.0-1.0-504.0","0","0","55577","","null","","","null","55","","","","","","","","","","","","","","","NaN",""
"","S1","","html-keyboard-response","378","601337","0.0-1.0-506.0","0","0","55577","","null","","","null","56","","","","","","","","","","","","","","","",""
"","ISI","","html-keyboard-response","379","602345","0.0-1.0-507.0","0","0","55577","","null","","","null","56","NaN","","","","","","","","","","","","","","",""
"","S2","","html-keyboard-response","380","602601","0.0-1.0-508.0","0","0","55577","","null","","","null","56","","NaN","","","","","","","","","","","","","",""
"","response","","html-keyboard-response","381","602608","0.0-1.0-509.0-0.0","0","0","55577","","2","","","75","56","","","2","56","training","adjacent","BC","2","3","L.jpg","M.jpg","1","1","1","",""
"","feedback","","html-keyboard-response","382","603617","0.0-1.0-510.0-0.0","0","0","55577","","null","","","null","56","","","","","","","","","","","","","","","",""
"","ITI","","html-keyboard-response","383","604625","0.0-1.0-513.0","0","0","55577","","null","","","null","56","","","","","","","","","","","","","","","NaN",""
"","S1","","html-keyboard-response","384","604881","0.0-1.0-515.0","0","0","55577","","null","","","null","57","","","","","","","","","","","","","","","",""
"","ISI","","html-keyboard-response","385","605890","0.0-1.0-516.0","0","0","55577","","null","","","null","57","NaN","","","","","","","","","","","","","","",""
"","S2","","html-keyboard-response","386","606145","0.0-1.0-517.0","0","0","55577","","null","","","null","57","","NaN","","","","","","","","","","","","","",""
"","response","","html-keyboard-response","387","607905","0.0-1.0-518.0-0.0","0","0","55577","","null","","","null","57","","","2","57","training","adjacent","FG","6","7","Q.jpg","N.jpg","NaN","1","0","",""
"","too_slow_prompt","","html-keyboard-response","388","608914","0.0-1.0-520.0-0.0","1","0","55577","","null","","","null","","","","","","","","","","","","","","","","",""
"","time_out","","html-keyboard-response","389","610921","0.0-1.0-521.0-0.0","0","0","55577","","null","","","null","57","","","","","","","","","","","","","","","",""
"","ITI","","html-keyboard-response","390","611929","0.0-1.0-522.0","0","0","55577","","null","","","null","57","","","","","","","","","","","","","","","NaN",""
"","S1","","html-keyboard-response","391","612185","0.0-1.0-524.0","0","0","55577","","null","","","null","58","","","","","","","","","","","","","","","",""
"","ISI","","html-keyboard-response","392","613194","0.0-1.0-525.0","0","0","55577","","null","","","null","58","NaN","","","","","","","","","","","","","","",""
"","S2","","html-keyboard-response","393","613449","0.0-1.0-526.0","0","0","55577","","null","","","null","58","","NaN","","","","","","","","","","","","","",""
"","response","","html-keyboard-response","394","613800","0.0-1.0-527.0-0.0","0","0","55577","","347","","","75","58","","","2","58","training","adjacent","BC","2","3","L.jpg","M.jpg","1","1","1","",""
"","feedback","","html-keyboard-response","395","614809","0.0-1.0-528.0-0.0","0","0","55577","","null","","","null","58","","","","","","","","","","","","","","","",""
"","ITI","","html-keyboard-response","396","615817","0.0-1.0-531.0","0","0","55577","","null","","","null","58","","","","","","","","","","","","","","","NaN",""
"","S1","","html-keyboard-response","397","616074","0.0-1.0-533.0","0","0","55577","","null","","","null","59","","","","","","","","","","","","","","","",""
"","ISI","","html-keyboard-response","398","617081","0.0-1.0-534.0","0","0","55577","","null","","","null","59","NaN","","","","","","","","","","","","","","",""
"","S2","","html-keyboard-response","399","617337","0.0-1.0-535.0","0","0","55577","","null","","","null","59","","NaN","","","","","","","","","","","","","",""
"","response","","html-keyboard-response","400","617740","0.0-1.0-536.0-0.0","0","0","55577","","399","","","75","59","","","2","59","training","adjacent","CB","3","2","M.jpg","L.jpg","1","0","0","",""
"","feedback","","html-keyboard-response","401","618745","0.0-1.0-537.0-0.0","0","0","55577","","null","","","null","59","","","","","","","","","","","","","","","",""
"","time_out","","html-keyboard-response","402","620753","0.0-1.0-539.0-0.0","0","0","55577","","null","","","null","59","","","","","","","","","","","","","","","",""
"","ITI","","html-keyboard-response","403","621761","0.0-1.0-540.0","0","0","55577","","null","","","null","59","","","","","","","","","","","","","","","NaN",""
"","S1","","html-keyboard-response","404","622018","0.0-1.0-542.0","0","0","55577","","null","","","null","60","","","","","","","","","","","","","","","",""
"","ISI","","html-keyboard-response","405","623025","0.0-1.0-543.0","0","0","55577","","587","","","75","60","k","","","","","","","","","","","","","","",""
"","S2","","html-keyboard-response","406","623281","0.0-1.0-544.0","0","0","55577","","null","","","null","60","","NaN","","","","","","","","","","","","","",""
"","response","","html-keyboard-response","407","624114","0.0-1.0-545.0-0.0","0","0","55577","","829","","","75","60","","","2","60","training","adjacent","BC","2","3","L.jpg","M.jpg","1","1","1","",""
"","feedback","","html-keyboard-response","408","625121","0.0-1.0-546.0-0.0","0","0","55577","","null","","","null","60","","","","","","","","","","","","","","","",""
"","ITI","","html-keyboard-response","409","626130","0.0-1.0-549.0","0","0","55577","","null","","","null","60","","","","","","","","","","","","","","","NaN",""
"","S1","","html-keyboard-response","410","626385","0.0-1.0-551.0","0","0","55577","","null","","","null","61","","","","","","","","","","","","","","","",""
"","ISI","","html-keyboard-response","411","627394","0.0-1.0-552.0","0","0","55577","","null","","","null","61","NaN","","","","","","","","","","","","","","",""
"","S2","","html-keyboard-response","412","627650","0.0-1.0-553.0","0","0","55577","","null","","","null","61","","NaN","","","","","","","","","","","","","",""
"","response","","html-keyboard-response","413","628238","0.0-1.0-554.0-0.0","0","0","55577","","585","","","75","61","","","2","61","training","adjacent","CD","3","4","M.jpg","O.jpg","1","1","1","",""
"","feedback","","html-keyboard-response","414","629249","0.0-1.0-555.0-0.0","0","0","55577","","null","","","null","61","","","","","","","","","","","","","","","",""
"","ITI","","html-keyboard-response","415","630257","0.0-1.0-558.0","0","0","55577","","null","","","null","61","","","","","","","","","","","","","","","NaN",""
"","S1","","html-keyboard-response","416","630513","0.0-1.0-560.0","0","0","55577","","null","","","null","62","","","","","","","","","","","","","","","",""
"","ISI","","html-keyboard-response","417","631521","0.0-1.0-561.0","0","0","55577","","null","","","null","62","NaN","","","","","","","","","","","","","","",""
"","S2","","html-keyboard-response","418","631777","0.0-1.0-562.0","0","0","55577","","null","","","null","62","","NaN","","","","","","","","","","","","","",""
"","response","","html-keyboard-response","419","632092","0.0-1.0-563.0-0.0","0","0","55577","","311","","","68","62","","","2","62","training","adjacent","FE","6","5","Q.jpg","R.jpg","0","0","1","",""
"","feedback","","html-keyboard-response","420","633097","0.0-1.0-564.0-0.0","0","0","55577","","null","","","null","62","","","","","","","","","","","","","","","",""
"","ITI","","html-keyboard-response","421","634105","0.0-1.0-567.0","0","0","55577","","null","","","null","62","","","","","","","","","","","","","","","NaN",""
"","S1","","html-keyboard-response","422","634361","0.0-1.0-569.0","0","0","55577","","null","","","null","63","","","","","","","","","","","","","","","",""
"","ISI","","html-keyboard-response","423","635369","0.0-1.0-570.0","0","0","55577","","null","","","null","63","NaN","","","","","","","","","","","","","","",""
"","S2","","html-keyboard-response","424","635626","0.0-1.0-571.0","0","0","55577","","null","","","null","63","","NaN","","","","","","","","","","","","","",""
"","response","","html-keyboard-response","425","635817","0.0-1.0-572.0-0.0","0","0","55577","","188","","","68","63","","","2","63","training","adjacent","BA","2","1","L.jpg","P.jpg","0","0","1","",""
"","feedback","","html-keyboard-response","426","636825","0.0-1.0-573.0-0.0","0","0","55577","","null","","","null","63","","","","","","","","","","","","","","","",""
"","ITI","","html-keyboard-response","427","637834","0.0-1.0-576.0","0","0","55577","","null","","","null","63","","","","","","","","","","","","","","","NaN",""
"","S1","","html-keyboard-response","428","638089","0.0-1.0-578.0","0","0","55577","","null","","","null","64","","","","","","","","","","","","","","","",""
"","ISI","","html-keyboard-response","429","639098","0.0-1.0-579.0","0","0","55577","","null","","","null","64","NaN","","","","","","","","","","","","","","",""
"","S2","","html-keyboard-response","430","639353","0.0-1.0-580.0","0","0","55577","","null","","","null","64","","NaN","","","","","","","","","","","","","",""
"","response","","html-keyboard-response","431","639548","0.0-1.0-581.0-0.0","0","0","55577","","191","","","68","64","","","2","64","training","adjacent","DC","4","3","O.jpg","M.jpg","0","0","1","",""
"","feedback","","html-keyboard-response","432","640553","0.0-1.0-582.0-0.0","0","0","55577","","null","","","null","64","","","","","","","","","","","","","","","",""
"","ITI","","html-keyboard-response","433","641562","0.0-1.0-585.0","0","0","55577","","null","","","null","64","","","","","","","","","","","","","","","NaN",""
"","S1","","html-keyboard-response","434","641818","0.0-1.0-587.0","0","0","55577","","null","","","null","65","","","","","","","","","","","","","","","",""
"","ISI","","html-keyboard-response","435","642825","0.0-1.0-588.0","0","0","55577","","null","","","null","65","NaN","","","","","","","","","","","","","","",""
"","S2","","html-keyboard-response","436","643081","0.0-1.0-589.0","0","0","55577","","null","","","null","65","","NaN","","","","","","","","","","","","","",""
"","response","","html-keyboard-response","437","643516","0.0-1.0-590.0-0.0","0","0","55577","","430","","","68","65","","","2","65","training","adjacent","EF","5","6","R.jpg","Q.jpg","0","1","0","",""
"","feedback","","html-keyboard-response","438","644521","0.0-1.0-591.0-0.0","0","0","55577","","null","","","null","65","","","","","","","","","","","","","","","",""
"","time_out","","html-keyboard-response","439","646529","0.0-1.0-593.0-0.0","0","0","55577","","null","","","null","65","","","","","","","","","","","","","","","",""
"","ITI","","html-keyboard-response","440","647537","0.0-1.0-594.0","0","0","55577","","null","","","null","65","","","","","","","","","","","","","","","NaN",""
"","S1","","html-keyboard-response","441","647793","0.0-1.0-596.0","0","0","55577","","null","","","null","66","","","","","","","","","","","","","","","",""
"","ISI","","html-keyboard-response","442","648801","0.0-1.0-597.0","0","0","55577","","null","","","null","66","NaN","","","","","","","","","","","","","","",""
"","S2","","html-keyboard-response","443","649057","0.0-1.0-598.0","0","0","55577","","null","","","null","66","","NaN","","","","","","","","","","","","","",""
"","response","","html-keyboard-response","444","649851","0.0-1.0-599.0-0.0","0","0","55577","","790","","","68","66","","","2","66","training","adjacent","EF","5","6","R.jpg","Q.jpg","0","1","0","",""
"","feedback","","html-keyboard-response","445","650857","0.0-1.0-600.0-0.0","0","0","55577","","null","","","null","66","","","","","","","","","","","","","","","",""
"","time_out","","html-keyboard-response","446","652865","0.0-1.0-602.0-0.0","0","0","55577","","null","","","null","66","","","","","","","","","","","","","","","",""
"","ITI","","html-keyboard-response","447","653873","0.0-1.0-603.0","0","0","55577","","null","","","null","66","","","","","","","","","","","","","","","NaN",""
"","S1","","html-keyboard-response","448","654129","0.0-1.0-605.0","0","0","55577","","null","","","null","67","","","","","","","","","","","","","","","",""
"","ISI","","html-keyboard-response","449","655138","0.0-1.0-606.0","0","0","55577","","null","","","null","67","NaN","","","","","","","","","","","","","","",""
"","S2","","html-keyboard-response","450","655394","0.0-1.0-607.0","0","0","55577","","null","","","null","67","","NaN","","","","","","","","","","","","","",""
"","response","","html-keyboard-response","451","655980","0.0-1.0-608.0-0.0","0","0","55577","","582","","","68","67","","","2","67","training","adjacent","DC","4","3","O.jpg","M.jpg","0","0","1","",""
"","feedback","","html-keyboard-response","452","656985","0.0-1.0-609.0-0.0","0","0","55577","","null","","","null","67","","","","","","","","","","","","","","","",""
"","ITI","","html-keyboard-response","453","657993","0.0-1.0-612.0","0","0","55577","","null","","","null","67","","","","","","","","","","","","","","","NaN",""
"","S1","","html-keyboard-response","454","658249","0.0-1.0-614.0","0","0","55577","","null","","","null","68","","","","","","","","","","","","","","","",""
"","ISI","","html-keyboard-response","455","659258","0.0-1.0-615.0","0","0","55577","","null","","","null","68","NaN","","","","","","","","","","","","","","",""
"","S2","","html-keyboard-response","456","659514","0.0-1.0-616.0","0","0","55577","","null","","","null","68","","NaN","","","","","","","","","","","","","",""
"","response","","html-keyboard-response","457","659635","0.0-1.0-617.0-0.0","0","0","55577","","116","","","75","68","","","2","68","training","adjacent","FE","6","5","Q.jpg","R.jpg","1","0","0","",""
"","feedback","","html-keyboard-response","458","660641","0.0-1.0-618.0-0.0","0","0","55577","","null","","","null","68","","","","","","","","","","","","","","","",""
"","time_out","","html-keyboard-response","459","662649","0.0-1.0-620.0-0.0","0","0","55577","","null","","","null","68","","","","","","","","","","","","","","","",""
"","ITI","","html-keyboard-response","460","663658","0.0-1.0-621.0","0","0","55577","","null","","","null","68","","","","","","","","","","","","","","","NaN",""
"","S1","","html-keyboard-response","461","663913","0.0-1.0-623.0","0","0","55577","","null","","","null","69","","","","","","","","","","","","","","","",""
"","ISI","","html-keyboard-response","462","664921","0.0-1.0-624.0","0","0","55577","","null","","","null","69","NaN","","","","","","","","","","","","","","",""
"","S2","","html-keyboard-response","463","665178","0.0-1.0-625.0","0","0","55577","","null","","","null","69","","NaN","","","","","","","","","","","","","",""
"","response","","html-keyboard-response","464","666937","0.0-1.0-626.0-0.0","0","0","55577","","null","","","null","69","","","2","69","training","adjacent","FE","6","5","Q.jpg","R.jpg","NaN","0","0","",""
"","too_slow_prompt","","html-keyboard-response","465","667946","0.0-1.0-628.0-0.0","1","0","55577","","null","","","null","","","","","","","","","","","","","","","","",""
"","time_out","","html-keyboard-response","466","669953","0.0-1.0-629.0-0.0","0","0","55577","","null","","","null","69","","","","","","","","","","","","","","","",""
"","ITI","","html-keyboard-response","467","670961","0.0-1.0-630.0","0","0","55577","","null","","","null","69","","","","","","","","","","","","","","","NaN",""
"","S1","","html-keyboard-response","468","671217","0.0-1.0-632.0","0","0","55577","","null","","","null","70","","","","","","","","","","","","","","","",""
"","ISI","","html-keyboard-response","469","672225","0.0-1.0-633.0","0","0","55577","","null","","","null","70","NaN","","","","","","","","","","","","","","",""
"","S2","","html-keyboard-response","470","672481","0.0-1.0-634.0","0","0","55577","","null","","","null","70","","NaN","","","","","","","","","","","","","",""
"","response","","html-keyboard-response","471","672755","0.0-1.0-635.0-0.0","0","0","55577","","270","","","75","70","","","2","70","training","adjacent","CB","3","2","M.jpg","L.jpg","1","0","0","",""
"","feedback","","html-keyboard-response","472","673761","0.0-1.0-636.0-0.0","0","0","55577","","null","","","null","70","","","","","","","","","","","","","","","",""
"","time_out","","html-keyboard-response","473","675770","0.0-1.0-638.0-0.0","0","0","55577","","null","","","null","70","","","","","","","","","","","","","","","",""
"","ITI","","html-keyboard-response","474","676777","0.0-1.0-639.0","0","0","55577","","null","","","null","70","","","","","","","","","","","","","","","NaN",""
"","S1","","html-keyboard-response","475","677033","0.0-1.0-641.0","0","0","55577","","null","","","null","71","","","","","","","","","","","","","","","",""
"","ISI","","html-keyboard-response","476","678041","0.0-1.0-642.0","0","0","55577","","731","","","75","71","k","","","","","","","","","","","","","","",""
"","S2","","html-keyboard-response","477","678297","0.0-1.0-643.0","0","0","55577","","null","","","null","71","","NaN","","","","","","","","","","","","","",""
"","response","","html-keyboard-response","478","679167","0.0-1.0-644.0-0.0","0","0","55577","","867","","","75","71","","","2","71","training","adjacent","DC","4","3","O.jpg","M.jpg","1","0","0","",""
"","feedback","","html-keyboard-response","479","680177","0.0-1.0-645.0-0.0","0","0","55577","","null","","","null","71","","","","","","","","","","","","","","","",""
"","time_out","","html-keyboard-response","480","682185","0.0-1.0-647.0-0.0","0","0","55577","","null","","","null","71","","","","","","","","","","","","","","","",""
"","ITI","","html-keyboard-response","481","683193","0.0-1.0-648.0","0","0","55577","","null","","","null","71","","","","","","","","","","","","","","","NaN",""
"","S1","","html-keyboard-response","482","683449","0.0-1.0-650.0","0","0","55577","","null","","","null","72","","","","","","","","","","","","","","","",""
"","ISI","","html-keyboard-response","483","684457","0.0-1.0-651.0","0","0","55577","","null","","","null","72","NaN","","","","","","","","","","","","","","",""
"","S2","","html-keyboard-response","484","684713","0.0-1.0-652.0","0","0","55577","","null","","","null","72","","NaN","","","","","","","","","","","","","",""
"","response","","html-keyboard-response","485","685047","0.0-1.0-653.0-0.0","0","0","55577","","330","","","68","72","","","2","72","training","adjacent","DE","4","5","O.jpg","R.jpg","0","1","0","",""
"","feedback","","html-keyboard-response","486","686057","0.0-1.0-654.0-0.0","0","0","55577","","null","","","null","72","","","","","","","","","","","","","","","",""
"","time_out","","html-keyboard-response","487","688067","0.0-1.0-656.0-0.0","0","0","55577","","null","","","null","72","","","","","","","","","","","","","","","",""
"","ITI","","html-keyboard-response","488","689074","0.0-1.0-657.0","0","0","55577","","null","","","null","72","","","","","","","","","","","","","","","NaN",""
"","S1","","html-keyboard-response","489","689329","0.0-1.0-659.0","0","0","55577","","null","","","null","73","","","","","","","","","","","","","","","",""
"","ISI","","html-keyboard-response","490","690337","0.0-1.0-660.0","0","0","55577","","null","","","null","73","NaN","","","","","","","","","","","","","","",""
"","S2","","html-keyboard-response","491","690593","0.0-1.0-661.0","0","0","55577","","null","","","null","73","","NaN","","","","","","","","","","","","","",""
"","response","","html-keyboard-response","492","690809","0.0-1.0-662.0-0.0","0","0","55577","","212","","","75","73","","","2","73","training","adjacent","CD","3","4","M.jpg","O.jpg","1","1","1","",""
"","feedback","","html-keyboard-response","493","691817","0.0-1.0-663.0-0.0","0","0","55577","","null","","","null","73","","","","","","","","","","","","","","","",""
"","ITI","","html-keyboard-response","494","692825","0.0-1.0-666.0","0","0","55577","","null","","","null","73","","","","","","","","","","","","","","","NaN",""
"","S1","","html-keyboard-response","495","693081","0.0-1.0-668.0","0","0","55577","","null","","","null","74","","","","","","","","","","","","","","","",""
"","ISI","","html-keyboard-response","496","694089","0.0-1.0-669.0","0","0","55577","","null","","","null","74","NaN","","","","","","","","","","","","","","",""
"","S2","","html-keyboard-response","497","694345","0.0-1.0-670.0","0","0","55577","","null","","","null","74","","NaN","","","","","","","","","","","","","",""
"","response","","html-keyboard-response","498","695142","0.0-1.0-671.0-0.0","0","0","55577","","792","","","68","74","","","2","74","training","adjacent","GF","7","6","N.jpg","Q.jpg","0","0","1","",""
"","feedback","","html-keyboard-response","499","696153","0.0-1.0-672.0-0.0","0","0","55577","","null","","","null","74","","","","","","","","","","","","","","","",""
"","ITI","","html-keyboard-response","500","697161","0.0-1.0-675.0","0","0","55577","","null","","","null","74","","","","","","","","","","","","","","","NaN",""
"","S1","","html-keyboard-response","501","697418","0.0-1.0-677.0","0","0","55577","","null","","","null","75","","","","","","","","","","","","","","","",""
"","ISI","","html-keyboard-response","502","698425","0.0-1.0-678.0","0","0","55577","","null","","","null","75","NaN","","","","","","","","","","","","","","",""
"","S2","","html-keyboard-response","503","698681","0.0-1.0-679.0","0","0","55577","","null","","","null","75","","NaN","","","","","","","","","","","","","",""
"","response","","html-keyboard-response","504","700184","0.0-1.0-680.0-0.0","0","0","55577","","1497","","","68","75","","","2","75","training","adjacent","AB","1","2","P.jpg","L.jpg","0","1","0","",""
"","feedback","","html-keyboard-response","505","701194","0.0-1.0-681.0-0.0","0","0","55577","","null","","","null","75","","","","","","","","","","","","","","","",""
"","time_out","","html-keyboard-response","506","703201","0.0-1.0-683.0-0.0","0","0","55577","","null","","","null","75","","","","","","","","","","","","","","","",""
"","ITI","","html-keyboard-response","507","704209","0.0-1.0-684.0","0","0","55577","","null","","","null","75","","","","","","","","","","","","","","","NaN",""
"","S1","","html-keyboard-response","508","704465","0.0-1.0-686.0","0","0","55577","","null","","","null","76","","","","","","","","","","","","","","","",""
"","ISI","","html-keyboard-response","509","705473","0.0-1.0-687.0","0","0","55577","","null","","","null","76","NaN","","","","","","","","","","","","","","",""
"","S2","","html-keyboard-response","510","705729","0.0-1.0-688.0","0","0","55577","","null","","","null","76","","NaN","","","","","","","","","","","","","",""
"","response","","html-keyboard-response","511","705966","0.0-1.0-689.0-0.0","0","0","55577","","233","","","68","76","","","2","76","training","adjacent","DE","4","5","O.jpg","R.jpg","0","1","0","",""
"","feedback","","html-keyboard-response","512","706977","0.0-1.0-690.0-0.0","0","0","55577","","null","","","null","76","","","","","","","","","","","","","","","",""
"","time_out","","html-keyboard-response","513","708986","0.0-1.0-692.0-0.0","0","0","55577","","null","","","null","76","","","","","","","","","","","","","","","",""
"","ITI","","html-keyboard-response","514","709993","0.0-1.0-693.0","0","0","55577","","null","","","null","76","","","","","","","","","","","","","","","NaN",""
"","S1","","html-keyboard-response","515","710249","0.0-1.0-695.0","0","0","55577","","null","","","null","77","","","","","","","","","","","","","","","",""
"","ISI","","html-keyboard-response","516","711257","0.0-1.0-696.0","0","0","55577","","null","","","null","77","NaN","","","","","","","","","","","","","","",""
"","S2","","html-keyboard-response","517","711513","0.0-1.0-697.0","0","0","55577","","null","","","null","77","","NaN","","","","","","","","","","","","","",""
"","response","","html-keyboard-response","518","711825","0.0-1.0-698.0-0.0","0","0","55577","","308","","","75","77","","","2","77","training","adjacent","ED","5","4","R.jpg","O.jpg","1","0","0","",""
"","feedback","","html-keyboard-response","519","712833","0.0-1.0-699.0-0.0","0","0","55577","","null","","","null","77","","","","","","","","","","","","","","","",""
"","time_out","","html-keyboard-response","520","714841","0.0-1.0-701.0-0.0","0","0","55577","","null","","","null","77","","","","","","","","","","","","","","","",""
"","ITI","","html-keyboard-response","521","715850","0.0-1.0-702.0","0","0","55577","","null","","","null","77","","","","","","","","","","","","","","","NaN",""
"","S1","","html-keyboard-response","522","716105","0.0-1.0-704.0","0","0","55577","","null","","","null","78","","","","","","","","","","","","","","","",""
"","ISI","","html-keyboard-response","523","717113","0.0-1.0-705.0","0","0","55577","","null","","","null","78","NaN","","","","","","","","","","","","","","",""
"","S2","","html-keyboard-response","524","717369","0.0-1.0-706.0","0","0","55577","","null","","","null","78","","NaN","","","","","","","","","","","","","",""
"","response","","html-keyboard-response","525","718019","0.0-1.0-707.0-0.0","0","0","55577","","646","","","75","78","","","2","78","training","adjacent","BA","2","1","L.jpg","P.jpg","1","0","0","",""
"","feedback","","html-keyboard-response","526","719025","0.0-1.0-708.0-0.0","0","0","55577","","null","","","null","78","","","","","","","","","","","","","","","",""
"","time_out","","html-keyboard-response","527","721033","0.0-1.0-710.0-0.0","0","0","55577","","null","","","null","78","","","","","","","","","","","","","","","",""
"","ITI","","html-keyboard-response","528","722041","0.0-1.0-711.0","0","0","55577","","null","","","null","78","","","","","","","","","","","","","","","NaN",""
"","S1","","html-keyboard-response","529","722297","0.0-1.0-713.0","0","0","55577","","null","","","null","79","","","","","","","","","","","","","","","",""
"","ISI","","html-keyboard-response","530","723305","0.0-1.0-714.0","0","0","55577","","null","","","null","79","NaN","","","","","","","","","","","","","","",""
"","S2","","html-keyboard-response","531","723562","0.0-1.0-715.0","0","0","55577","","null","","","null","79","","NaN","","","","","","","","","","","","","",""
"","response","","html-keyboard-response","532","724111","0.0-1.0-716.0-0.0","0","0","55577","","546","","","75","79","","","2","79","training","adjacent","AB","1","2","P.jpg","L.jpg","1","1","1","",""
"","feedback","","html-keyboard-response","533","725122","0.0-1.0-717.0-0.0","0","0","55577","","null","","","null","79","","","","","","","","","","","","","","","",""
"","ITI","","html-keyboard-response","534","726130","0.0-1.0-720.0","0","0","55577","","null","","","null","79","","","","","","","","","","","","","","","NaN",""
"","S1","","html-keyboard-response","535","726386","0.0-1.0-722.0","0","0","55577","","null","","","null","80","","","","","","","","","","","","","","","",""
"","ISI","","html-keyboard-response","536","727393","0.0-1.0-723.0","0","0","55577","","null","","","null","80","NaN","","","","","","","","","","","","","","",""
"","S2","","html-keyboard-response","537","727649","0.0-1.0-724.0","0","0","55577","","null","","","null","80","","NaN","","","","","","","","","","","","","",""
"","response","","html-keyboard-response","538","729409","0.0-1.0-725.0-0.0","0","0","55577","","null","","","null","80","","","2","80","training","adjacent","AB","1","2","P.jpg","L.jpg","NaN","1","0","",""
"","too_slow_prompt","","html-keyboard-response","539","730417","0.0-1.0-727.0-0.0","1","0","55577","","null","","","null","","","","","","","","","","","","","","","","",""
"","time_out","","html-keyboard-response","540","732425","0.0-1.0-728.0-0.0","0","0","55577","","null","","","null","80","","","","","","","","","","","","","","","",""
"","ITI","","html-keyboard-response","541","733433","0.0-1.0-729.0","0","0","55577","","null","","","null","80","","","","","","","","","","","","","","","NaN",""
"","S1","","html-keyboard-response","542","733689","0.0-1.0-731.0","0","0","55577","","null","","","null","81","","","","","","","","","","","","","","","",""
"","ISI","","html-keyboard-response","543","734697","0.0-1.0-732.0","0","0","55577","","null","","","null","81","NaN","","","","","","","","","","","","","","",""
"","S2","","html-keyboard-response","544","734953","0.0-1.0-733.0","0","0","55577","","null","","","null","81","","NaN","","","","","","","","","","","","","",""
"","response","","html-keyboard-response","545","735609","0.0-1.0-734.0-0.0","0","0","55577","","652","","","68","81","","","2","81","training","adjacent","EF","5","6","R.jpg","Q.jpg","0","1","0","",""
"","feedback","","html-keyboard-response","546","736617","0.0-1.0-735.0-0.0","0","0","55577","","null","","","null","81","","","","","","","","","","","","","","","",""
"","time_out","","html-keyboard-response","547","738625","0.0-1.0-737.0-0.0","0","0","55577","","null","","","null","81","","","","","","","","","","","","","","","",""
"","ITI","","html-keyboard-response","548","739633","0.0-1.0-738.0","0","0","55577","","null","","","null","81","","","","","","","","","","","","","","","NaN",""
"","S1","","html-keyboard-response","549","739889","0.0-1.0-740.0","0","0","55577","","null","","","null","82","","","","","","","","","","","","","","","",""
"","ISI","","html-keyboard-response","550","740898","0.0-1.0-741.0","0","0","55577","","null","","","null","82","NaN","","","","","","","","","","","","","","",""
"","S2","","html-keyboard-response","551","741154","0.0-1.0-742.0","0","0","55577","","null","","","null","82","","NaN","","","","","","","","","","","","","",""
"","response","","html-keyboard-response","552","741633","0.0-1.0-743.0-0.0","0","0","55577","","475","","","75","82","","","2","82","training","adjacent","FG","6","7","Q.jpg","N.jpg","1","1","1","",""
"","feedback","","html-keyboard-response","553","742641","0.0-1.0-744.0-0.0","0","0","55577","","null","","","null","82","","","","","","","","","","","","","","","",""
"","ITI","","html-keyboard-response","554","743649","0.0-1.0-747.0","0","0","55577","","null","","","null","82","","","","","","","","","","","","","","","NaN",""
"","S1","","html-keyboard-response","555","743905","0.0-1.0-749.0","0","0","55577","","null","","","null","83","","","","","","","","","","","","","","","",""
"","ISI","","html-keyboard-response","556","744913","0.0-1.0-750.0","0","0","55577","","null","","","null","83","NaN","","","","","","","","","","","","","","",""
"","S2","","html-keyboard-response","557","745170","0.0-1.0-751.0","0","0","55577","","null","","","null","83","","NaN","","","","","","","","","","","","","",""
"","response","","html-keyboard-response","558","745526","0.0-1.0-752.0-0.0","0","0","55577","","353","","","68","83","","","2","83","training","adjacent","DC","4","3","O.jpg","M.jpg","0","0","1","",""
"","feedback","","html-keyboard-response","559","746537","0.0-1.0-753.0-0.0","0","0","55577","","null","","","null","83","","","","","","","","","","","","","","","",""
"","ITI","","html-keyboard-response","560","747545","0.0-1.0-756.0","0","0","55577","","null","","","null","83","","","","","","","","","","","","","","","NaN",""
"","S1","","html-keyboard-response","561","747801","0.0-1.0-758.0","0","0","55577","","null","","","null","84","","","","","","","","","","","","","","","",""
"","ISI","","html-keyboard-response","562","748809","0.0-1.0-759.0","0","0","55577","","null","","","null","84","NaN","","","","","","","","","","","","","","",""
"","S2","","html-keyboard-response","563","749065","0.0-1.0-760.0","0","0","55577","","null","","","null","84","","NaN","","","","","","","","","","","","","",""
"","response","","html-keyboard-response","564","750825","0.0-1.0-761.0-0.0","0","0","55577","","null","","","null","84","","","2","84","training","adjacent","CD","3","4","M.jpg","O.jpg","NaN","1","0","",""
"","too_slow_prompt","","html-keyboard-response","565","751833","0.0-1.0-763.0-0.0","1","0","55577","","null","","","null","","","","","","","","","","","","","","","","",""
"","time_out","","html-keyboard-response","566","753842","0.0-1.0-764.0-0.0","0","0","55577","","null","","","null","84","","","","","","","","","","","","","","","",""
"","ITI","","html-keyboard-response","567","754850","0.0-1.0-765.0","0","0","55577","","null","","","null","84","","","","","","","","","","","","","","","NaN",""
"","S1","","html-keyboard-response","568","755105","0.0-1.0-767.0","0","0","55577","","null","","","null","85","","","","","","","","","","","","","","","",""
"","ISI","","html-keyboard-response","569","756113","0.0-1.0-768.0","0","0","55577","","null","","","null","85","NaN","","","","","","","","","","","","","","",""
"","S2","","html-keyboard-response","570","756372","0.0-1.0-769.0","0","0","55577","","null","","","null","85","","NaN","","","","","","","","","","","","","",""
"","response","","html-keyboard-response","571","756695","0.0-1.0-770.0-0.0","0","0","55577","","319","","","75","85","","","2","85","training","adjacent","FG","6","7","Q.jpg","N.jpg","1","1","1","",""
"","feedback","","html-keyboard-response","572","757705","0.0-1.0-771.0-0.0","0","0","55577","","null","","","null","85","","","","","","","","","","","","","","","",""
"","ITI","","html-keyboard-response","573","758713","0.0-1.0-774.0","0","0","55577","","null","","","null","85","","","","","","","","","","","","","","","NaN",""
"","S1","","html-keyboard-response","574","758969","0.0-1.0-776.0","0","0","55577","","null","","","null","86","","","","","","","","","","","","","","","",""
"","ISI","","html-keyboard-response","575","759977","0.0-1.0-777.0","0","0","55577","","null","","","null","86","NaN","","","","","","","","","","","","","","",""
"","S2","","html-keyboard-response","576","760234","0.0-1.0-778.0","0","0","55577","","null","","","null","86","","NaN","","","","","","","","","","","","","",""
"","response","","html-keyboard-response","577","760658","0.0-1.0-779.0-0.0","0","0","55577","","421","","","68","86","","","2","86","training","adjacent","GF","7","6","N.jpg","Q.jpg","0","0","1","",""
"","feedback","","html-keyboard-response","578","761665","0.0-1.0-780.0-0.0","0","0","55577","","null","","","null","86","","","","","","","","","","","","","","","",""
"","ITI","","html-keyboard-response","579","762673","0.0-1.0-783.0","0","0","55577","","null","","","null","86","","","","","","","","","","","","","","","NaN",""
