"success","ttype","start_time","trial_type","trial_index","time_elapsed","internal_node_id","warning","missed_checkup","PID","view_history","rt","responses","repeat_instructions","key_press","index","keypress_isi","keypress_S2","block","trial_num","phase","group_type","pair_type","S1_stim","S2_stim","S1_img","S2_img","S1_chosen","S1_higher","accuracy","keypress_iti","total_bonus_tally"
"true","full_screen","d08042022hr1925","fullscreen","0","2435","0.0-0.0","0","0","55144","","","","","","","","","","","","","","","","","","","","","",""
"","instructions","","instructions","1","6338","0.0-1.0-0.0-0.0","0","0","55144","[{""page_index"":0,""viewing_time"":1411},{""page_index"":1,""viewing_time"":1120},{""page_index"":2,""viewing_time"":634},{""page_index"":3,""viewing_time"":734}]","3900","","","","","","","","","","","","","","","","","","","",""
"","comprehension_check","","survey-multi-choice","2","13300","0.0-1.0-0.0-1.0","0","0","55144","","6957","{""Q0"":""True"",""Q1"":""D"",""Q2"":""Once the second image appears and while the screen 'MAKE A CHOICE' is shown"",""Q3"":""Green mark"",""Q4"":""either D or K""}","0","","","","","","","","","","","","","","","","","",""
"","start_exp","","html-keyboard-response","3","15565","0.0-1.0-1.0","0","0","55144","","2262","","","32","","","","","","","","","","","","","","","","",""
"","S1","","html-keyboard-response","4","15818","0.0-1.0-2.0","0","0","55144","","null","","","null","0","","","","","","","","","","","","","","","",""
"","ISI","","html-keyboard-response","5","17821","0.0-1.0-3.0","0","0","55144","","1445","","","75","0","k","","","","","","","","","","","","","","",""
"","S2","","html-keyboard-response","6","18075","0.0-1.0-4.0","0","0","55144","","null","","","null","0","","NaN","","","","","","","","","","","","","",""
"","response","","html-keyboard-response","7","18386","0.0-1.0-5.0-0.0","0","0","55144","","307","","","68","0","","","1","0","training","adjacent","FE","6","5","O.jpg","R.jpg","1","0","0","",""
"","feedback","","html-keyboard-response","8","19390","0.0-1.0-6.0-0.0","0","0","55144","","null","","","null","0","","","","","","","","","","","","","","","",""
"","time_out","","html-keyboard-response","9","21393","0.0-1.0-8.0-0.0","0","0","55144","","null","","","null","0","","","","","","","","","","","","","","","",""
"","ITI","","html-keyboard-response","10","22397","0.0-1.0-9.0","0","0","55144","","null","","","null","0","","","","","","","","","","","","","","","NaN",""
"","S1","","html-keyboard-response","11","22650","0.0-1.0-11.0","0","0","55144","","null","","","null","1","","","","","","","","","","","","","","","",""
"","ISI","","html-keyboard-response","12","24653","0.0-1.0-12.0","0","0","55144","","398","","","75","1","k","","","","","","","","","","","","","","",""
"","S2","","html-keyboard-response","13","24906","0.0-1.0-13.0","0","0","55144","","null","","","null","1","","NaN","","","","","","","","","","","","","",""
"","response","","html-keyboard-response","14","25275","0.0-1.0-14.0-0.0","0","0","55144","","368","","","68","1","","","1","1","training","adjacent","BA","2","1","M.jpg","Q.jpg","1","0","0","",""
"","feedback","","html-keyboard-response","15","26277","0.0-1.0-15.0-0.0","0","0","55144","","null","","","null","1","","","","","","","","","","","","","","","",""
"","time_out","","html-keyboard-response","16","28280","0.0-1.0-17.0-0.0","0","0","55144","","null","","","null","1","","","","","","","","","","","","","","","",""
"","ITI","","html-keyboard-response","17","29283","0.0-1.0-18.0","0","0","55144","","null","","","null","1","","","","","","","","","","","","","","","NaN",""
"","S1","","html-keyboard-response","18","29537","0.0-1.0-20.0","0","0","55144","","null","","","null","2","","","","","","","","","","","","","","","",""
"","ISI","","html-keyboard-response","19","31539","0.0-1.0-21.0","0","0","55144","","111","","","75","2","k","","","","","","","","","","","","","","",""
"","S2","","html-keyboard-response","20","31792","0.0-1.0-22.0","0","0","55144","","null","","","null","2","","NaN","","","","","","","","","","","","","",""
"","response","","html-keyboard-response","21","32044","0.0-1.0-23.0-0.0","0","0","55144","","250","","","68","2","","","1","2","training","adjacent","DE","4","5","N.jpg","R.jpg","1","1","1","",""
"","feedback","","html-keyboard-response","22","33047","0.0-1.0-24.0-0.0","0","0","55144","","null","","","null","2","","","","","","","","","","","","","","","",""
"","ITI","","html-keyboard-response","23","34050","0.0-1.0-27.0","0","0","55144","","null","","","null","2","","","","","","","","","","","","","","","NaN",""
"","S1","","html-keyboard-response","24","34303","0.0-1.0-29.0","0","0","55144","","null","","","null","3","","","","","","","","","","","","","","","",""
"","ISI","","html-keyboard-response","25","36306","0.0-1.0-30.0","0","0","55144","","231","","","75","3","k","","","","","","","","","","","","","","",""
"","S2","","html-keyboard-response","26","36559","0.0-1.0-31.0","0","0","55144","","null","","","null","3","","NaN","","","","","","","","","","","","","",""
"","response","","html-keyboard-response","27","36781","0.0-1.0-32.0-0.0","0","0","55144","","219","","","75","3","","","1","3","training","adjacent","FE","6","5","O.jpg","R.jpg","0","0","1","",""
"","feedback","","html-keyboard-response","28","37784","0.0-1.0-33.0-0.0","0","0","55144","","null","","","null","3","","","","","","","","","","","","","","","",""
"","ITI","","html-keyboard-response","29","38786","0.0-1.0-36.0","0","0","55144","","null","","","null","3","","","","","","","","","","","","","","","NaN",""
"","S1","","html-keyboard-response","30","39040","0.0-1.0-38.0","0","0","55144","","null","","","null","4","","","","","","","","","","","","","","","",""
"","ISI","","html-keyboard-response","31","41042","0.0-1.0-39.0","0","0","55144","","null","","","null","4","NaN","","","","","","","","","","","","","","",""
"","S2","","html-keyboard-response","32","41295","0.0-1.0-40.0","0","0","55144","","null","","","null","4","","NaN","","","","","","","","","","","","","",""
"","response","","html-keyboard-response","33","41640","0.0-1.0-41.0-0.0","0","0","55144","","343","","","75","4","","","1","4","training","adjacent","DE","4","5","N.jpg","R.jpg","0","1","0","",""
"","feedback","","html-keyboard-response","34","42644","0.0-1.0-42.0-0.0","0","0","55144","","null","","","null","4","","","","","","","","","","","","","","","",""
"","time_out","","html-keyboard-response","35","44647","0.0-1.0-44.0-0.0","0","0","55144","","null","","","null","4","","","","","","","","","","","","","","","",""
"","ITI","","html-keyboard-response","36","45649","0.0-1.0-45.0","0","0","55144","","null","","","null","4","","","","","","","","","","","","","","","NaN",""
"","S1","","html-keyboard-response","37","45902","0.0-1.0-47.0","0","0","55144","","null","","","null","5","","","","","","","","","","","","","","","",""
"","ISI","","html-keyboard-response","38","47904","0.0-1.0-48.0","0","0","55144","","null","","","null","5","NaN","","","","","","","","","","","","","","",""
"","S2","","html-keyboard-response","39","48157","0.0-1.0-49.0","0","0","55144","","null","","","null","5","","NaN","","","","","","","","","","","","","",""
"","response","","html-keyboard-response","40","48313","0.0-1.0-50.0-0.0","0","0","55144","","155","","","75","5","","","1","5","training","adjacent","BC","2","3","M.jpg","P.jpg","0","1","0","",""
"","feedback","","html-keyboard-response","41","49317","0.0-1.0-51.0-0.0","0","0","55144","","null","","","null","5","","","","","","","","","","","","","","","",""
"","time_out","","html-keyboard-response","42","51329","0.0-1.0-53.0-0.0","0","0","55144","","null","","","null","5","","","","","","","","","","","","","","","",""
"","ITI","","html-keyboard-response","43","52332","0.0-1.0-54.0","0","0","55144","","null","","","null","5","","","","","","","","","","","","","","","NaN",""
"","S1","","html-keyboard-response","44","52585","0.0-1.0-56.0","0","0","55144","","null","","","null","6","","","","","","","","","","","","","","","",""
"","ISI","","html-keyboard-response","45","54588","0.0-1.0-57.0","0","0","55144","","null","","","null","6","NaN","","","","","","","","","","","","","","",""
"","S2","","html-keyboard-response","46","54841","0.0-1.0-58.0","0","0","55144","","null","","","null","6","","NaN","","","","","","","","","","","","","",""
"","response","","html-keyboard-response","47","55273","0.0-1.0-59.0-0.0","0","0","55144","","430","","","75","6","","","1","6","training","adjacent","DE","4","5","N.jpg","R.jpg","0","1","0","",""
"","feedback","","html-keyboard-response","48","56276","0.0-1.0-60.0-0.0","0","0","55144","","null","","","null","6","","","","","","","","","","","","","","","",""
"","time_out","","html-keyboard-response","49","58279","0.0-1.0-62.0-0.0","0","0","55144","","null","","","null","6","","","","","","","","","","","","","","","",""
"","ITI","","html-keyboard-response","50","59281","0.0-1.0-63.0","0","0","55144","","null","","","null","6","","","","","","","","","","","","","","","NaN",""
"","S1","","html-keyboard-response","51","59534","0.0-1.0-65.0","0","0","55144","","null","","","null","7","","","","","","","","","","","","","","","",""
"","ISI","","html-keyboard-response","52","61536","0.0-1.0-66.0","0","0","55144","","209","","","68","7","d","","","","","","","","","","","","","","",""
"","S2","","html-keyboard-response","53","61788","0.0-1.0-67.0","0","0","55144","","null","","","null","7","","NaN","","","","","","","","","","","","","",""
"","response","","html-keyboard-response","54","61983","0.0-1.0-68.0-0.0","0","0","55144","","193","","","75","7","","","1","7","training","adjacent","CB","3","2","P.jpg","M.jpg","0","0","1","",""
"","feedback","","html-keyboard-response","55","62987","0.0-1.0-69.0-0.0","0","0","55144","","null","","","null","7","","","","","","","","","","","","","","","",""
"","ITI","","html-keyboard-response","56","63990","0.0-1.0-72.0","0","0","55144","","null","","","null","7","","","","","","","","","","","","","","","NaN",""
"","S1","","html-keyboard-response","57","64243","0.0-1.0-74.0","0","0","55144","","null","","","null","8","","","","","","","","","","","","","","","",""
"","ISI","","html-keyboard-response","58","66245","0.0-1.0-75.0","0","0","55144","","597","","","68","8","d","","","","","","","","","","","","","","",""
"","S2","","html-keyboard-response","59","66498","0.0-1.0-76.0","0","0","55144","","null","","","null","8","","NaN","","","","","","","","","","","","","",""
"","response","","html-keyboard-response","60","66739","0.0-1.0-77.0-0.0","0","0","55144","","240","","","75","8","","","1","8","training","adjacent","CB","3","2","P.jpg","M.jpg","0","0","1","",""
"","feedback","","html-keyboard-response","61","67742","0.0-1.0-78.0-0.0","0","0","55144","","null","","","null","8","","","","","","","","","","","","","","","",""
"","ITI","","html-keyboard-response","62","68745","0.0-1.0-81.0","0","0","55144","","null","","","null","8","","","","","","","","","","","","","","","NaN",""
"","S1","","html-keyboard-response","63","68998","0.0-1.0-83.0","0","0","55144","","null","","","null","9","","","","","","","","","","","","","","","",""
"","ISI","","html-keyboard-response","64","71002","0.0-1.0-84.0","0","0","55144","","null","","","null","9","NaN","","","","","","","","","","","","","","",""
"","S2","","html-keyboard-response","65","71256","0.0-1.0-85.0","0","0","55144","","null","","","null","9","","NaN","","","","","","","","","","","","","",""
"","response","","html-keyboard-response","66","71321","0.0-1.0-86.0-0.0","0","0","55144","","63","","","68","9","","","1","9","training","adjacent","GF","7","6","L.jpg","O.jpg","1","0","0","",""
"","feedback","","html-keyboard-response","67","72325","0.0-1.0-87.0-0.0","0","0","55144","","null","","","null","9","","","","","","","","","","","","","","","",""
"","time_out","","html-keyboard-response","68","74328","0.0-1.0-89.0-0.0","0","0","55144","","null","","","null","9","","","","","","","","","","","","","","","",""
"","ITI","","html-keyboard-response","69","75331","0.0-1.0-90.0","0","0","55144","","null","","","null","9","","","","","","","","","","","","","","","NaN",""
"","S1","","html-keyboard-response","70","75583","0.0-1.0-92.0","0","0","55144","","null","","","null","10","","","","","","","","","","","","","","","",""
"","ISI","","html-keyboard-response","71","77586","0.0-1.0-93.0","0","0","55144","","300","","","68","10","d","","","","","","","","","","","","","","",""
"","S2","","html-keyboard-response","72","77839","0.0-1.0-94.0","0","0","55144","","null","","","null","10","","NaN","","","","","","","","","","","","","",""
"","response","","html-keyboard-response","73","77914","0.0-1.0-95.0-0.0","0","0","55144","","73","","","68","10","","","1","10","training","adjacent","CB","3","2","P.jpg","M.jpg","1","0","0","",""
"","feedback","","html-keyboard-response","74","78918","0.0-1.0-96.0-0.0","0","0","55144","","null","","","null","10","","","","","","","","","","","","","","","",""
"","time_out","","html-keyboard-response","75","80920","0.0-1.0-98.0-0.0","0","0","55144","","null","","","null","10","","","","","","","","","","","","","","","",""
"","ITI","","html-keyboard-response","76","81922","0.0-1.0-99.0","0","0","55144","","null","","","null","10","","","","","","","","","","","","","","","NaN",""
"","S1","","html-keyboard-response","77","82175","0.0-1.0-101.0","0","0","55144","","null","","","null","11","","","","","","","","","","","","","","","",""
"","ISI","","html-keyboard-response","78","84178","0.0-1.0-102.0","0","0","55144","","74","","","75","11","k","","","","","","","","","","","","","","",""
"","S2","","html-keyboard-response","79","84431","0.0-1.0-103.0","0","0","55144","","null","","","null","11","","NaN","","","","","","","","","","","","","",""
"","response","","html-keyboard-response","80","84592","0.0-1.0-104.0-0.0","0","0","55144","","160","","","75","11","","","1","11","training","adjacent","FG","6","7","O.jpg","L.jpg","0","1","0","",""
"","feedback","","html-keyboard-response","81","85595","0.0-1.0-105.0-0.0","0","0","55144","","null","","","null","11","","","","","","","","","","","","","","","",""
"","time_out","","html-keyboard-response","82","87597","0.0-1.0-107.0-0.0","0","0","55144","","null","","","null","11","","","","","","","","","","","","","","","",""
"","ITI","","html-keyboard-response","83","88599","0.0-1.0-108.0","0","0","55144","","null","","","null","11","","","","","","","","","","","","","","","NaN",""
"","S1","","html-keyboard-response","84","88852","0.0-1.0-110.0","0","0","55144","","null","","","null","12","","","","","","","","","","","","","","","",""
"","ISI","","html-keyboard-response","85","90854","0.0-1.0-111.0","0","0","55144","","224","","","68","12","d","","","","","","","","","","","","","","",""
"","S2","","html-keyboard-response","86","91108","0.0-1.0-112.0","0","0","55144","","null","","","null","12","","NaN","","","","","","","","","","","","","",""
"","response","","html-keyboard-response","87","91274","0.0-1.0-113.0-0.0","0","0","55144","","165","","","68","12","","","1","12","training","adjacent","FG","6","7","O.jpg","L.jpg","1","1","1","",""
"","feedback","","html-keyboard-response","88","92278","0.0-1.0-114.0-0.0","0","0","55144","","null","","","null","12","","","","","","","","","","","","","","","",""
"","ITI","","html-keyboard-response","89","93282","0.0-1.0-117.0","0","0","55144","","null","","","null","12","","","","","","","","","","","","","","","NaN",""
"","S1","","html-keyboard-response","90","93534","0.0-1.0-119.0","0","0","55144","","null","","","null","13","","","","","","","","","","","","","","","",""
"","ISI","","html-keyboard-response","91","95538","0.0-1.0-120.0","0","0","55144","","null","","","null","13","NaN","","","","","","","","","","","","","","",""
"","S2","","html-keyboard-response","92","95791","0.0-1.0-121.0","0","0","55144","","null","","","null","13","","NaN","","","","","","","","","","","","","",""
"","response","","html-keyboard-response","93","96270","0.0-1.0-122.0-0.0","0","0","55144","","477","","","68","13","","","1","13","training","adjacent","CD","3","4","P.jpg","N.jpg","1","1","1","",""
"","feedback","","html-keyboard-response","94","97274","0.0-1.0-123.0-0.0","0","0","55144","","null","","","null","13","","","","","","","","","","","","","","","",""
"","ITI","","html-keyboard-response","95","98277","0.0-1.0-126.0","0","0","55144","","null","","","null","13","","","","","","","","","","","","","","","NaN",""
"","S1","","html-keyboard-response","96","98529","0.0-1.0-128.0","0","0","55144","","null","","","null","14","","","","","","","","","","","","","","","",""
"","ISI","","html-keyboard-response","97","100533","0.0-1.0-129.0","0","0","55144","","null","","","null","14","NaN","","","","","","","","","","","","","","",""
"","S2","","html-keyboard-response","98","100785","0.0-1.0-130.0","0","0","55144","","null","","","null","14","","NaN","","","","","","","","","","","","","",""
"","response","","html-keyboard-response","99","100920","0.0-1.0-131.0-0.0","0","0","55144","","133","","","75","14","","","1","14","training","adjacent","BA","2","1","M.jpg","Q.jpg","0","0","1","",""
"","feedback","","html-keyboard-response","100","101923","0.0-1.0-132.0-0.0","0","0","55144","","null","","","null","14","","","","","","","","","","","","","","","",""
"","ITI","","html-keyboard-response","101","102926","0.0-1.0-135.0","0","0","55144","","null","","","null","14","","","","","","","","","","","","","","","NaN",""
"","S1","","html-keyboard-response","102","103179","0.0-1.0-137.0","0","0","55144","","null","","","null","15","","","","","","","","","","","","","","","",""
"","ISI","","html-keyboard-response","103","105181","0.0-1.0-138.0","0","0","55144","","null","","","null","15","NaN","","","","","","","","","","","","","","",""
"","S2","","html-keyboard-response","104","105435","0.0-1.0-139.0","0","0","55144","","null","","","null","15","","NaN","","","","","","","","","","","","","",""
"","response","","html-keyboard-response","105","105626","0.0-1.0-140.0-0.0","0","0","55144","","189","","","68","15","","","1","15","training","adjacent","AB","1","2","Q.jpg","M.jpg","1","1","1","",""
"","feedback","","html-keyboard-response","106","106629","0.0-1.0-141.0-0.0","0","0","55144","","null","","","null","15","","","","","","","","","","","","","","","",""
"","ITI","","html-keyboard-response","107","107632","0.0-1.0-144.0","0","0","55144","","null","","","null","15","","","","","","","","","","","","","","","NaN",""
"","S1","","html-keyboard-response","108","107886","0.0-1.0-146.0","0","0","55144","","null","","","null","16","","","","","","","","","","","","","","","",""
"","ISI","","html-keyboard-response","109","109889","0.0-1.0-147.0","0","0","55144","","531","","","75","16","k","","","","","","","","","","","","","","",""
"","S2","","html-keyboard-response","110","110141","0.0-1.0-148.0","0","0","55144","","null","","","null","16","","NaN","","","","","","","","","","","","","",""
"","response","","html-keyboard-response","111","111894","0.0-1.0-149.0-0.0","0","0","55144","","null","","","null","16","","","1","16","training","adjacent","FE","6","5","O.jpg","R.jpg","NaN","0","0","",""
"","too_slow_prompt","","html-keyboard-response","112","112898","0.0-1.0-151.0-0.0","1","0","55144","","null","","","null","","","","","","","","","","","","","","","","",""
"","time_out","","html-keyboard-response","113","114900","0.0-1.0-152.0-0.0","0","0","55144","","null","","","null","16","","","","","","","","","","","","","","","",""
"","ITI","","html-keyboard-response","114","115902","0.0-1.0-153.0","0","0","55144","","650","","","68","16","","","","","","","","","","","","","","","d",""
"","S1","","html-keyboard-response","115","116155","0.0-1.0-155.0","0","0","55144","","null","","","null","17","","","","","","","","","","","","","","","",""
"","ISI","","html-keyboard-response","116","118157","0.0-1.0-156.0","0","0","55144","","452","","","68","17","d","","","","","","","","","","","","","","",""
"","S2","","html-keyboard-response","117","118348","0.0-1.0-157.0","0","0","55144","","189","","","75","17","","k","1","17","training","adjacent","AB","1","2","Q.jpg","M.jpg","0","1","0","",""
"","feedback","","html-keyboard-response","118","119351","0.0-1.0-159.0-0.0","0","0","55144","","null","","","null","17","","","","","","","","","","","","","","","",""
"","time_out","","html-keyboard-response","119","121355","0.0-1.0-161.0-0.0","0","0","55144","","null","","","null","17","","","","","","","","","","","","","","","",""
"","ITI","","html-keyboard-response","120","122358","0.0-1.0-162.0","0","0","55144","","207","","","68","17","","","","","","","","","","","","","","","d",""
"","S1","","html-keyboard-response","121","122612","0.0-1.0-164.0","0","0","55144","","null","","","null","18","","","","","","","","","","","","","","","",""
"","ISI","","html-keyboard-response","122","124614","0.0-1.0-165.0","0","0","55144","","181","","","75","18","k","","","","","","","","","","","","","","",""
"","S2","","html-keyboard-response","123","124822","0.0-1.0-166.0","0","0","55144","","205","","","75","18","","k","1","18","training","adjacent","CB","3","2","P.jpg","M.jpg","0","0","1","",""
"","feedback","","html-keyboard-response","124","125825","0.0-1.0-168.0-0.0","0","0","55144","","null","","","null","18","","","","","","","","","","","","","","","",""
"","ITI","","html-keyboard-response","125","126828","0.0-1.0-171.0","0","0","55144","","58","","","75","18","","","","","","","","","","","","","","","k",""
"","S1","","html-keyboard-response","126","127082","0.0-1.0-173.0","0","0","55144","","null","","","null","19","","","","","","","","","","","","","","","",""
"","ISI","","html-keyboard-response","127","129084","0.0-1.0-174.0","0","0","55144","","641","","","68","19","d","","","","","","","","","","","","","","",""
"","S2","","html-keyboard-response","128","129312","0.0-1.0-175.0","0","0","55144","","226","","","68","19","","d","1","19","training","adjacent","CD","3","4","P.jpg","N.jpg","1","1","1","",""
"","feedback","","html-keyboard-response","129","130316","0.0-1.0-177.0-0.0","0","0","55144","","null","","","null","19","","","","","","","","","","","","","","","",""
"","ITI","","html-keyboard-response","130","131320","0.0-1.0-180.0","0","0","55144","","432","","","75","19","","","","","","","","","","","","","","","k",""
"","S1","","html-keyboard-response","131","131576","0.0-1.0-182.0","0","0","55144","","null","","","null","20","","","","","","","","","","","","","","","",""
"","ISI","","html-keyboard-response","132","133580","0.0-1.0-183.0","0","0","55144","","633","","","75","20","k","","","","","","","","","","","","","","",""
"","S2","","html-keyboard-response","133","133833","0.0-1.0-184.0","0","0","55144","","null","","","null","20","","NaN","","","","","","","","","","","","","",""
"","response","","html-keyboard-response","134","133963","0.0-1.0-185.0-0.0","0","0","55144","","129","","","68","20","","","1","20","training","adjacent","DC","4","3","N.jpg","P.jpg","1","0","0","",""
"","feedback","","html-keyboard-response","135","134967","0.0-1.0-186.0-0.0","0","0","55144","","null","","","null","20","","","","","","","","","","","","","","","",""
"","time_out","","html-keyboard-response","136","136970","0.0-1.0-188.0-0.0","0","0","55144","","null","","","null","20","","","","","","","","","","","","","","","",""
"","ITI","","html-keyboard-response","137","137973","0.0-1.0-189.0","0","0","55144","","382","","","75","20","","","","","","","","","","","","","","","k",""
"","S1","","html-keyboard-response","138","138226","0.0-1.0-191.0","0","0","55144","","null","","","null","21","","","","","","","","","","","","","","","",""
"","ISI","","html-keyboard-response","139","140230","0.0-1.0-192.0","0","0","55144","","281","","","75","21","k","","","","","","","","","","","","","","",""
"","S2","","html-keyboard-response","140","140484","0.0-1.0-193.0","0","0","55144","","null","","","null","21","","NaN","","","","","","","","","","","","","",""
"","response","","html-keyboard-response","141","141877","0.0-1.0-194.0-0.0","0","0","55144","","1392","","","75","21","","","1","21","training","adjacent","EF","5","6","R.jpg","O.jpg","0","1","0","",""
"","feedback","","html-keyboard-response","142","142880","0.0-1.0-195.0-0.0","0","0","55144","","null","","","null","21","","","","","","","","","","","","","","","",""
"","time_out","","html-keyboard-response","143","144882","0.0-1.0-197.0-0.0","0","0","55144","","null","","","null","21","","","","","","","","","","","","","","","",""
"","ITI","","html-keyboard-response","144","145885","0.0-1.0-198.0","0","0","55144","","208","","","75","21","","","","","","","","","","","","","","","k",""
"","S1","","html-keyboard-response","145","146138","0.0-1.0-200.0","0","0","55144","","null","","","null","22","","","","","","","","","","","","","","","",""
"","ISI","","html-keyboard-response","146","148141","0.0-1.0-201.0","0","0","55144","","47","","","68","22","d","","","","","","","","","","","","","","",""
"","S2","","html-keyboard-response","147","148196","0.0-1.0-202.0","0","0","55144","","52","","","75","22","","k","1","22","training","adjacent","GF","7","6","L.jpg","O.jpg","0","0","1","",""
"","feedback","","html-keyboard-response","148","149199","0.0-1.0-204.0-0.0","0","0","55144","","null","","","null","22","","","","","","","","","","","","","","","",""
"","ITI","","html-keyboard-response","149","150202","0.0-1.0-207.0","0","0","55144","","133","","","68","22","","","","","","","","","","","","","","","d",""
"","S1","","html-keyboard-response","150","150455","0.0-1.0-209.0","0","0","55144","","null","","","null","23","","","","","","","","","","","","","","","",""
"","ISI","","html-keyboard-response","151","152457","0.0-1.0-210.0","0","0","55144","","72","","","68","23","d","","","","","","","","","","","","","","",""
"","S2","","html-keyboard-response","152","152709","0.0-1.0-211.0","0","0","55144","","null","","","null","23","","NaN","","","","","","","","","","","","","",""
"","response","","html-keyboard-response","153","152772","0.0-1.0-212.0-0.0","0","0","55144","","61","","","75","23","","","1","23","training","adjacent","BC","2","3","M.jpg","P.jpg","0","1","0","",""
"","feedback","","html-keyboard-response","154","153774","0.0-1.0-213.0-0.0","0","0","55144","","null","","","null","23","","","","","","","","","","","","","","","",""
"","time_out","","html-keyboard-response","155","155776","0.0-1.0-215.0-0.0","0","0","55144","","null","","","null","23","","","","","","","","","","","","","","","",""
"","ITI","","html-keyboard-response","156","156780","0.0-1.0-216.0","0","0","55144","","50","","","68","23","","","","","","","","","","","","","","","d",""
"","S1","","html-keyboard-response","157","157033","0.0-1.0-218.0","0","0","55144","","null","","","null","24","","","","","","","","","","","","","","","",""
"","ISI","","html-keyboard-response","158","159037","0.0-1.0-219.0","0","0","55144","","181","","","68","24","d","","","","","","","","","","","","","","",""
"","S2","","html-keyboard-response","159","159256","0.0-1.0-220.0","0","0","55144","","216","","","68","24","","d","1","24","training","adjacent","BA","2","1","M.jpg","Q.jpg","1","0","0","",""
"","feedback","","html-keyboard-response","160","160261","0.0-1.0-222.0-0.0","0","0","55144","","null","","","null","24","","","","","","","","","","","","","","","",""
"","time_out","","html-keyboard-response","161","162264","0.0-1.0-224.0-0.0","0","0","55144","","null","","","null","24","","","","","","","","","","","","","","","",""
"","ITI","","html-keyboard-response","162","163267","0.0-1.0-225.0","0","0","55144","","118","","","75","24","","","","","","","","","","","","","","","k",""
"","S1","","html-keyboard-response","163","163521","0.0-1.0-227.0","0","0","55144","","null","","","null","25","","","","","","","","","","","","","","","",""
"","ISI","","html-keyboard-response","164","165524","0.0-1.0-228.0","0","0","55144","","105","","","75","25","k","","","","","","","","","","","","","","",""
"","S2","","html-keyboard-response","165","165617","0.0-1.0-229.0","0","0","55144","","91","","","75","25","","k","1","25","training","adjacent","DC","4","3","N.jpg","P.jpg","0","0","1","",""
"","feedback","","html-keyboard-response","166","166619","0.0-1.0-231.0-0.0","0","0","55144","","null","","","null","25","","","","","","","","","","","","","","","",""
"","ITI","","html-keyboard-response","167","167623","0.0-1.0-234.0","0","0","55144","","154","","","68","25","","","","","","","","","","","","","","","d",""
"","S1","","html-keyboard-response","168","167876","0.0-1.0-236.0","0","0","55144","","null","","","null","26","","","","","","","","","","","","","","","",""
"","ISI","","html-keyboard-response","169","169878","0.0-1.0-237.0","0","0","55144","","293","","","68","26","d","","","","","","","","","","","","","","",""
"","S2","","html-keyboard-response","170","169903","0.0-1.0-238.0","0","0","55144","","23","","","68","26","","d","1","26","training","adjacent","AB","1","2","Q.jpg","M.jpg","1","1","1","",""
"","feedback","","html-keyboard-response","171","170905","0.0-1.0-240.0-0.0","0","0","55144","","null","","","null","26","","","","","","","","","","","","","","","",""
"","ITI","","html-keyboard-response","172","171907","0.0-1.0-243.0","0","0","55144","","70","","","75","26","","","","","","","","","","","","","","","k",""
"","S1","","html-keyboard-response","173","172160","0.0-1.0-245.0","0","0","55144","","null","","","null","27","","","","","","","","","","","","","","","",""
"","ISI","","html-keyboard-response","174","174162","0.0-1.0-246.0","0","0","55144","","479","","","75","27","k","","","","","","","","","","","","","","",""
"","S2","","html-keyboard-response","175","174207","0.0-1.0-247.0","0","0","55144","","43","","","75","27","","k","1","27","training","adjacent","ED","5","4","R.jpg","N.jpg","0","0","1","",""
"","feedback","","html-keyboard-response","176","175216","0.0-1.0-249.0-0.0","0","0","55144","","null","","","null","27","","","","","","","","","","","","","","","",""
"","ITI","","html-keyboard-response","177","176219","0.0-1.0-252.0","0","0","55144","","482","","","75","27","","","","","","","","","","","","","","","k",""
"","S1","","html-keyboard-response","178","176473","0.0-1.0-254.0","0","0","55144","","null","","","null","28","","","","","","","","","","","","","","","",""
"","ISI","","html-keyboard-response","179","178476","0.0-1.0-255.0","0","0","55144","","209","","","68","28","d","","","","","","","","","","","","","","",""
"","S2","","html-keyboard-response","180","178729","0.0-1.0-256.0","0","0","55144","","null","","","null","28","","NaN","","","","","","","","","","","","","",""
"","response","","html-keyboard-response","181","178748","0.0-1.0-257.0-0.0","0","0","55144","","18","","","68","28","","","1","28","training","adjacent","FG","6","7","O.jpg","L.jpg","1","1","1","",""
"","feedback","","html-keyboard-response","182","179752","0.0-1.0-258.0-0.0","0","0","55144","","null","","","null","28","","","","","","","","","","","","","","","",""
"","ITI","","html-keyboard-response","183","180755","0.0-1.0-261.0","0","0","55144","","169","","","68","28","","","","","","","","","","","","","","","d",""
"","S1","","html-keyboard-response","184","181009","0.0-1.0-263.0","0","0","55144","","null","","","null","29","","","","","","","","","","","","","","","",""
"","ISI","","html-keyboard-response","185","183013","0.0-1.0-264.0","0","0","55144","","318","","","68","29","d","","","","","","","","","","","","","","",""
"","S2","","html-keyboard-response","186","183266","0.0-1.0-265.0","0","0","55144","","null","","","null","29","","NaN","","","","","","","","","","","","","",""
"","response","","html-keyboard-response","187","183369","0.0-1.0-266.0-0.0","0","0","55144","","101","","","75","29","","","1","29","training","adjacent","BC","2","3","M.jpg","P.jpg","0","1","0","",""
"","feedback","","html-keyboard-response","188","184372","0.0-1.0-267.0-0.0","0","0","55144","","null","","","null","29","","","","","","","","","","","","","","","",""
"","time_out","","html-keyboard-response","189","186375","0.0-1.0-269.0-0.0","0","0","55144","","null","","","null","29","","","","","","","","","","","","","","","",""
"","ITI","","html-keyboard-response","190","187377","0.0-1.0-270.0","0","0","55144","","31","","","68","29","","","","","","","","","","","","","","","d",""
"","S1","","html-keyboard-response","191","187631","0.0-1.0-272.0","0","0","55144","","null","","","null","30","","","","","","","","","","","","","","","",""
"","ISI","","html-keyboard-response","192","189634","0.0-1.0-273.0","0","0","55144","","172","","","68","30","d","","","","","","","","","","","","","","",""
"","S2","","html-keyboard-response","193","189678","0.0-1.0-274.0","0","0","55144","","42","","","75","30","","k","1","30","training","adjacent","DC","4","3","N.jpg","P.jpg","0","0","1","",""
"","feedback","","html-keyboard-response","194","190682","0.0-1.0-276.0-0.0","0","0","55144","","null","","","null","30","","","","","","","","","","","","","","","",""
"","ITI","","html-keyboard-response","195","191686","0.0-1.0-279.0","0","0","55144","","93","","","75","30","","","","","","","","","","","","","","","k",""
"","S1","","html-keyboard-response","196","191939","0.0-1.0-281.0","0","0","55144","","null","","","null","31","","","","","","","","","","","","","","","",""
"","ISI","","html-keyboard-response","197","193942","0.0-1.0-282.0","0","0","55144","","153","","","68","31","d","","","","","","","","","","","","","","",""
"","S2","","html-keyboard-response","198","193995","0.0-1.0-283.0","0","0","55144","","51","","","75","31","","k","1","31","training","adjacent","EF","5","6","R.jpg","O.jpg","0","1","0","",""
"","feedback","","html-keyboard-response","199","194997","0.0-1.0-285.0-0.0","0","0","55144","","null","","","null","31","","","","","","","","","","","","","","","",""
"","time_out","","html-keyboard-response","200","197000","0.0-1.0-287.0-0.0","0","0","55144","","null","","","null","31","","","","","","","","","","","","","","","",""
"","ITI","","html-keyboard-response","201","198003","0.0-1.0-288.0","0","0","55144","","211","","","68","31","","","","","","","","","","","","","","","d",""
"","S1","","html-keyboard-response","202","198256","0.0-1.0-290.0","0","0","55144","","null","","","null","32","","","","","","","","","","","","","","","",""
"","ISI","","html-keyboard-response","203","200258","0.0-1.0-291.0","0","0","55144","","174","","","68","32","d","","","","","","","","","","","","","","",""
"","S2","","html-keyboard-response","204","200511","0.0-1.0-292.0","0","0","55144","","null","","","null","32","","NaN","","","","","","","","","","","","","",""
"","response","","html-keyboard-response","205","201136","0.0-1.0-293.0-0.0","0","0","55144","","624","","","68","32","","","1","32","training","adjacent","BA","2","1","M.jpg","Q.jpg","1","0","0","",""
"","feedback","","html-keyboard-response","206","202139","0.0-1.0-294.0-0.0","0","0","55144","","null","","","null","32","","","","","","","","","","","","","","","",""
"","time_out","","html-keyboard-response","207","204142","0.0-1.0-296.0-0.0","0","0","55144","","null","","","null","32","","","","","","","","","","","","","","","",""
"","ITI","","html-keyboard-response","208","205144","0.0-1.0-297.0","0","0","55144","","238","","","75","32","","","","","","","","","","","","","","","k",""
"","S1","","html-keyboard-response","209","205397","0.0-1.0-299.0","0","0","55144","","null","","","null","33","","","","","","","","","","","","","","","",""
"","ISI","","html-keyboard-response","210","207400","0.0-1.0-300.0","0","0","55144","","280","","","68","33","d","","","","","","","","","","","","","","",""
"","S2","","html-keyboard-response","211","207652","0.0-1.0-301.0","0","0","55144","","null","","","null","33","","NaN","","","","","","","","","","","","","",""
"","response","","html-keyboard-response","212","208061","0.0-1.0-302.0-0.0","0","0","55144","","406","","","75","33","","","1","33","training","adjacent","DC","4","3","N.jpg","P.jpg","0","0","1","",""
"","feedback","","html-keyboard-response","213","209065","0.0-1.0-303.0-0.0","0","0","55144","","null","","","null","33","","","","","","","","","","","","","","","",""
"","ITI","","html-keyboard-response","214","210068","0.0-1.0-306.0","0","0","55144","","232","","","68","33","","","","","","","","","","","","","","","d",""
"","S1","","html-keyboard-response","215","210321","0.0-1.0-308.0","0","0","55144","","null","","","null","34","","","","","","","","","","","","","","","",""
"","ISI","","html-keyboard-response","216","212324","0.0-1.0-309.0","0","0","55144","","40","","","75","34","k","","","","","","","","","","","","","","",""
"","S2","","html-keyboard-response","217","212466","0.0-1.0-310.0","0","0","55144","","140","","","75","34","","k","1","34","training","adjacent","ED","5","4","R.jpg","N.jpg","0","0","1","",""
"","feedback","","html-keyboard-response","218","213470","0.0-1.0-312.0-0.0","0","0","55144","","null","","","null","34","","","","","","","","","","","","","","","",""
"","ITI","","html-keyboard-response","219","214472","0.0-1.0-315.0","0","0","55144","","319","","","68","34","","","","","","","","","","","","","","","d",""
"","S1","","html-keyboard-response","220","214725","0.0-1.0-317.0","0","0","55144","","null","","","null","35","","","","","","","","","","","","","","","",""
"","ISI","","html-keyboard-response","221","216727","0.0-1.0-318.0","0","0","55144","","204","","","68","35","d","","","","","","","","","","","","","","",""
"","S2","","html-keyboard-response","222","216853","0.0-1.0-319.0","0","0","55144","","124","","","68","35","","d","1","35","training","adjacent","BC","2","3","M.jpg","P.jpg","1","1","1","",""
"","feedback","","html-keyboard-response","223","217856","0.0-1.0-321.0-0.0","0","0","55144","","null","","","null","35","","","","","","","","","","","","","","","",""
"","ITI","","html-keyboard-response","224","218858","0.0-1.0-324.0","0","0","55144","","67","","","68","35","","","","","","","","","","","","","","","d",""
"","S1","","html-keyboard-response","225","219111","0.0-1.0-326.0","0","0","55144","","null","","","null","36","","","","","","","","","","","","","","","",""
"","ISI","","html-keyboard-response","226","221113","0.0-1.0-327.0","0","0","55144","","138","","","68","36","d","","","","","","","","","","","","","","",""
"","S2","","html-keyboard-response","227","221366","0.0-1.0-328.0","0","0","55144","","null","","","null","36","","NaN","","","","","","","","","","","","","",""
"","response","","html-keyboard-response","228","221848","0.0-1.0-329.0-0.0","0","0","55144","","479","","","75","36","","","1","36","training","adjacent","GF","7","6","L.jpg","O.jpg","0","0","1","",""
"","feedback","","html-keyboard-response","229","222852","0.0-1.0-330.0-0.0","0","0","55144","","null","","","null","36","","","","","","","","","","","","","","","",""
"","ITI","","html-keyboard-response","230","223854","0.0-1.0-333.0","0","0","55144","","176","","","75","36","","","","","","","","","","","","","","","k",""
"","S1","","html-keyboard-response","231","224108","0.0-1.0-335.0","0","0","55144","","null","","","null","37","","","","","","","","","","","","","","","",""
"","ISI","","html-keyboard-response","232","226110","0.0-1.0-336.0","0","0","55144","","775","","","75","37","k","","","","","","","","","","","","","","",""
"","S2","","html-keyboard-response","233","226362","0.0-1.0-337.0","0","0","55144","","null","","","null","37","","NaN","","","","","","","","","","","","","",""
"","response","","html-keyboard-response","234","227000","0.0-1.0-338.0-0.0","0","0","55144","","636","","","75","37","","","1","37","training","adjacent","DE","4","5","N.jpg","R.jpg","0","1","0","",""
"","feedback","","html-keyboard-response","235","228003","0.0-1.0-339.0-0.0","0","0","55144","","null","","","null","37","","","","","","","","","","","","","","","",""
"","time_out","","html-keyboard-response","236","230006","0.0-1.0-341.0-0.0","0","0","55144","","null","","","null","37","","","","","","","","","","","","","","","",""
"","ITI","","html-keyboard-response","237","231008","0.0-1.0-342.0","0","0","55144","","551","","","75","37","","","","","","","","","","","","","","","k",""
"","S1","","html-keyboard-response","238","231261","0.0-1.0-344.0","0","0","55144","","null","","","null","38","","","","","","","","","","","","","","","",""
"","ISI","","html-keyboard-response","239","233263","0.0-1.0-345.0","0","0","55144","","593","","","75","38","k","","","","","","","","","","","","","","",""
"","S2","","html-keyboard-response","240","233517","0.0-1.0-346.0","0","0","55144","","null","","","null","38","","NaN","","","","","","","","","","","","","",""
"","response","","html-keyboard-response","241","233572","0.0-1.0-347.0-0.0","0","0","55144","","54","","","68","38","","","1","38","training","adjacent","EF","5","6","R.jpg","O.jpg","1","1","1","",""
"","feedback","","html-keyboard-response","242","234575","0.0-1.0-348.0-0.0","0","0","55144","","null","","","null","38","","","","","","","","","","","","","","","",""
"","ITI","","html-keyboard-response","243","235577","0.0-1.0-351.0","0","0","55144","","822","","","68","38","","","","","","","","","","","","","","","d",""
"","S1","","html-keyboard-response","244","235829","0.0-1.0-353.0","0","0","55144","","null","","","null","39","","","","","","","","","","","","","","","",""
"","ISI","","html-keyboard-response","245","237832","0.0-1.0-354.0","0","0","55144","","40","","","75","39","k","","","","","","","","","","","","","","",""
"","S2","","html-keyboard-response","246","238085","0.0-1.0-355.0","0","0","55144","","null","","","null","39","","NaN","","","","","","","","","","","","","",""
"","response","","html-keyboard-response","247","238194","0.0-1.0-356.0-0.0","0","0","55144","","106","","","75","39","","","1","39","training","adjacent","CD","3","4","P.jpg","N.jpg","0","1","0","",""
"","feedback","","html-keyboard-response","248","239197","0.0-1.0-357.0-0.0","0","0","55144","","null","","","null","39","","","","","","","","","","","","","","","",""
"","time_out","","html-keyboard-response","249","241201","0.0-1.0-359.0-0.0","0","0","55144","","null","","","null","39","","","","","","","","","","","","","","","",""
"","ITI","","html-keyboard-response","250","242204","0.0-1.0-360.0","0","0","55144","","527","","","68","39","","","","","","","","","","","","","","","d",""
"","S1","","html-keyboard-response","251","242458","0.0-1.0-362.0","0","0","55144","","null","","","null","40","","","","","","","","","","","","","","","",""
"","ISI","","html-keyboard-response","252","244460","0.0-1.0-363.0","0","0","55144","","150","","","68","40","d","","","","","","","","","","","","","","",""
"","S2","","html-keyboard-response","253","244483","0.0-1.0-364.0","0","0","55144","","21","","","75","40","","k","1","40","training","adjacent","FG","6","7","O.jpg","L.jpg","0","1","0","",""
"","feedback","","html-keyboard-response","254","245486","0.0-1.0-366.0-0.0","0","0","55144","","null","","","null","40","","","","","","","","","","","","","","","",""
"","time_out","","html-keyboard-response","255","247489","0.0-1.0-368.0-0.0","0","0","55144","","null","","","null","40","","","","","","","","","","","","","","","",""
"","ITI","","html-keyboard-response","256","248491","0.0-1.0-369.0","0","0","55144","","255","","","75","40","","","","","","","","","","","","","","","k",""
"","S1","","html-keyboard-response","257","248744","0.0-1.0-371.0","0","0","55144","","null","","","null","41","","","","","","","","","","","","","","","",""
"","ISI","","html-keyboard-response","258","250746","0.0-1.0-372.0","0","0","55144","","368","","","75","41","k","","","","","","","","","","","","","","",""
"","S2","","html-keyboard-response","259","250889","0.0-1.0-373.0","0","0","55144","","141","","","68","41","","d","1","41","training","adjacent","GF","7","6","L.jpg","O.jpg","1","0","0","",""
"","feedback","","html-keyboard-response","260","251893","0.0-1.0-375.0-0.0","0","0","55144","","null","","","null","41","","","","","","","","","","","","","","","",""
"","time_out","","html-keyboard-response","261","253895","0.0-1.0-377.0-0.0","0","0","55144","","null","","","null","41","","","","","","","","","","","","","","","",""
"","ITI","","html-keyboard-response","262","254897","0.0-1.0-378.0","0","0","55144","","18","","","68","41","","","","","","","","","","","","","","","d",""
"","S1","","html-keyboard-response","263","255150","0.0-1.0-380.0","0","0","55144","","null","","","null","42","","","","","","","","","","","","","","","",""
"","ISI","","html-keyboard-response","264","257153","0.0-1.0-381.0","0","0","55144","","61","","","68","42","d","","","","","","","","","","","","","","",""
"","S2","","html-keyboard-response","265","257406","0.0-1.0-382.0","0","0","55144","","null","","","null","42","","NaN","","","","","","","","","","","","","",""
"","response","","html-keyboard-response","266","257442","0.0-1.0-383.0-0.0","0","0","55144","","33","","","68","42","","","1","42","training","adjacent","FE","6","5","O.jpg","R.jpg","1","0","0","",""
"","feedback","","html-keyboard-response","267","258445","0.0-1.0-384.0-0.0","0","0","55144","","null","","","null","42","","","","","","","","","","","","","","","",""
"","time_out","","html-keyboard-response","268","260448","0.0-1.0-386.0-0.0","0","0","55144","","null","","","null","42","","","","","","","","","","","","","","","",""
"","ITI","","html-keyboard-response","269","261451","0.0-1.0-387.0","0","0","55144","","662","","","68","42","","","","","","","","","","","","","","","d",""
"","S1","","html-keyboard-response","270","261705","0.0-1.0-389.0","0","0","55144","","null","","","null","43","","","","","","","","","","","","","","","",""
"","ISI","","html-keyboard-response","271","263707","0.0-1.0-390.0","0","0","55144","","242","","","75","43","k","","","","","","","","","","","","","","",""
"","S2","","html-keyboard-response","272","263730","0.0-1.0-391.0","0","0","55144","","21","","","75","43","","k","1","43","training","adjacent","CD","3","4","P.jpg","N.jpg","0","1","0","",""
"","feedback","","html-keyboard-response","273","264733","0.0-1.0-393.0-0.0","0","0","55144","","null","","","null","43","","","","","","","","","","","","","","","",""
"","time_out","","html-keyboard-response","274","266736","0.0-1.0-395.0-0.0","0","0","55144","","null","","","null","43","","","","","","","","","","","","","","","",""
"","ITI","","html-keyboard-response","275","267738","0.0-1.0-396.0","0","0","55144","","385","","","68","43","","","","","","","","","","","","","","","d",""
"","S1","","html-keyboard-response","276","267990","0.0-1.0-398.0","0","0","55144","","null","","","null","44","","","","","","","","","","","","","","","",""
"","ISI","","html-keyboard-response","277","269994","0.0-1.0-399.0","0","0","55144","","82","","","68","44","d","","","","","","","","","","","","","","",""
"","S2","","html-keyboard-response","278","270149","0.0-1.0-400.0","0","0","55144","","152","","","68","44","","d","1","44","training","adjacent","EF","5","6","R.jpg","O.jpg","1","1","1","",""
"","feedback","","html-keyboard-response","279","271152","0.0-1.0-402.0-0.0","0","0","55144","","null","","","null","44","","","","","","","","","","","","","","","",""
"","ITI","","html-keyboard-response","280","272154","0.0-1.0-405.0","0","0","55144","","256","","","75","44","","","","","","","","","","","","","","","k",""
"","S1","","html-keyboard-response","281","272407","0.0-1.0-407.0","0","0","55144","","null","","","null","45","","","","","","","","","","","","","","","",""
"","ISI","","html-keyboard-response","282","274410","0.0-1.0-408.0","0","0","55144","","291","","","68","45","d","","","","","","","","","","","","","","",""
"","S2","","html-keyboard-response","283","274521","0.0-1.0-409.0","0","0","55144","","108","","","68","45","","d","1","45","training","adjacent","ED","5","4","R.jpg","N.jpg","1","0","0","",""
"","feedback","","html-keyboard-response","284","275523","0.0-1.0-411.0-0.0","0","0","55144","","null","","","null","45","","","","","","","","","","","","","","","",""
"","time_out","","html-keyboard-response","285","277525","0.0-1.0-413.0-0.0","0","0","55144","","null","","","null","45","","","","","","","","","","","","","","","",""
"","ITI","","html-keyboard-response","286","278527","0.0-1.0-414.0","0","0","55144","","152","","","68","45","","","","","","","","","","","","","","","d",""
"","S1","","html-keyboard-response","287","278780","0.0-1.0-416.0","0","0","55144","","null","","","null","46","","","","","","","","","","","","","","","",""
"","ISI","","html-keyboard-response","288","280783","0.0-1.0-417.0","0","0","55144","","227","","","68","46","d","","","","","","","","","","","","","","",""
"","S2","","html-keyboard-response","289","280898","0.0-1.0-418.0","0","0","55144","","113","","","68","46","","d","1","46","training","adjacent","ED","5","4","R.jpg","N.jpg","1","0","0","",""
"","feedback","","html-keyboard-response","290","281901","0.0-1.0-420.0-0.0","0","0","55144","","null","","","null","46","","","","","","","","","","","","","","","",""
"","time_out","","html-keyboard-response","291","283903","0.0-1.0-422.0-0.0","0","0","55144","","null","","","null","46","","","","","","","","","","","","","","","",""
"","ITI","","html-keyboard-response","292","284906","0.0-1.0-423.0","0","0","55144","","854","","","68","46","","","","","","","","","","","","","","","d",""
"","S1","","html-keyboard-response","293","285159","0.0-1.0-425.0","0","0","55144","","null","","","null","47","","","","","","","","","","","","","","","",""
"","ISI","","html-keyboard-response","294","287163","0.0-1.0-426.0","0","0","55144","","489","","","68","47","d","","","","","","","","","","","","","","",""
"","S2","","html-keyboard-response","295","287216","0.0-1.0-427.0","0","0","55144","","51","","","68","47","","d","1","47","training","adjacent","AB","1","2","Q.jpg","M.jpg","1","1","1","",""
"","feedback","","html-keyboard-response","296","288219","0.0-1.0-429.0-0.0","0","0","55144","","null","","","null","47","","","","","","","","","","","","","","","",""
"","ITI","","html-keyboard-response","297","289221","0.0-1.0-432.0","0","0","55144","","101","","","75","47","","","","","","","","","","","","","","","k",""
"","block_over","","html-keyboard-response","298","294761","0.0-1.0-433.0-0.0","0","0","55144","","5538","","","32","47","","","","","","","","","","","","","","","",""
"","S1","","html-keyboard-response","299","295015","0.0-1.0-434.0","0","0","55144","","null","","","null","48","","","","","","","","","","","","","","","",""
"","ISI","","html-keyboard-response","300","297017","0.0-1.0-435.0","0","0","55144","","305","","","75","48","k","","","","","","","","","","","","","","",""
"","S2","","html-keyboard-response","301","297023","0.0-1.0-436.0","0","0","55144","","5","","","75","48","","k","2","48","training","adjacent","CB","3","2","P.jpg","M.jpg","0","0","1","",""
"","feedback","","html-keyboard-response","302","298027","0.0-1.0-438.0-0.0","0","0","55144","","null","","","null","48","","","","","","","","","","","","","","","",""
"","ITI","","html-keyboard-response","303","299030","0.0-1.0-441.0","0","0","55144","","182","","","68","48","","","","","","","","","","","","","","","d",""
"","S1","","html-keyboard-response","304","299285","0.0-1.0-443.0","0","0","55144","","null","","","null","49","","","","","","","","","","","","","","","",""
"","ISI","","html-keyboard-response","305","301288","0.0-1.0-444.0","0","0","55144","","108","","","68","49","d","","","","","","","","","","","","","","",""
"","S2","","html-keyboard-response","306","301305","0.0-1.0-445.0","0","0","55144","","15","","","75","49","","k","2","49","training","adjacent","DC","4","3","N.jpg","P.jpg","0","0","1","",""
"","feedback","","html-keyboard-response","307","302309","0.0-1.0-447.0-0.0","0","0","55144","","null","","","null","49","","","","","","","","","","","","","","","",""
"","ITI","","html-keyboard-response","308","303312","0.0-1.0-450.0","0","0","55144","","139","","","68","49","","","","","","","","","","","","","","","d",""
"","S1","","html-keyboard-response","309","303565","0.0-1.0-452.0","0","0","55144","","null","","","null","50","","","","","","","","","","","","","","","",""
"","ISI","","html-keyboard-response","310","305568","0.0-1.0-453.0","0","0","55144","","27","","","75","50","k","","","","","","","","","","","","","","",""
"","S2","","html-keyboard-response","311","305625","0.0-1.0-454.0","0","0","55144","","55","","","75","50","","k","2","50","training","adjacent","BC","2","3","M.jpg","P.jpg","0","1","0","",""
"","feedback","","html-keyboard-response","312","306628","0.0-1.0-456.0-0.0","0","0","55144","","null","","","null","50","","","","","","","","","","","","","","","",""
"","time_out","","html-keyboard-response","313","308631","0.0-1.0-458.0-0.0","0","0","55144","","null","","","null","50","","","","","","","","","","","","","","","",""
"","ITI","","html-keyboard-response","314","309634","0.0-1.0-459.0","0","0","55144","","48","","","68","50","","","","","","","","","","","","","","","d",""
"","S1","","html-keyboard-response","315","309887","0.0-1.0-461.0","0","0","55144","","null","","","null","51","","","","","","","","","","","","","","","",""
"","ISI","","html-keyboard-response","316","311891","0.0-1.0-462.0","0","0","55144","","133","","","75","51","k","","","","","","","","","","","","","","",""
"","S2","","html-keyboard-response","317","312035","0.0-1.0-463.0","0","0","55144","","142","","","75","51","","k","2","51","training","adjacent","GF","7","6","L.jpg","O.jpg","0","0","1","",""
"","feedback","","html-keyboard-response","318","313039","0.0-1.0-465.0-0.0","0","0","55144","","null","","","null","51","","","","","","","","","","","","","","","",""
"","ITI","","html-keyboard-response","319","314041","0.0-1.0-468.0","0","0","55144","","58","","","68","51","","","","","","","","","","","","","","","d",""
"","S1","","html-keyboard-response","320","314294","0.0-1.0-470.0","0","0","55144","","null","","","null","52","","","","","","","","","","","","","","","",""
"","ISI","","html-keyboard-response","321","316298","0.0-1.0-471.0","0","0","55144","","146","","","75","52","k","","","","","","","","","","","","","","",""
"","S2","","html-keyboard-response","322","316477","0.0-1.0-472.0","0","0","55144","","176","","","68","52","","d","2","52","training","adjacent","FE","6","5","O.jpg","R.jpg","1","0","0","",""
"","feedback","","html-keyboard-response","323","317480","0.0-1.0-474.0-0.0","0","0","55144","","null","","","null","52","","","","","","","","","","","","","","","",""
"","time_out","","html-keyboard-response","324","319482","0.0-1.0-476.0-0.0","0","0","55144","","null","","","null","52","","","","","","","","","","","","","","","",""
"","ITI","","html-keyboard-response","325","320485","0.0-1.0-477.0","0","0","55144","","35","","","75","52","","","","","","","","","","","","","","","k",""
"","S1","","html-keyboard-response","326","320737","0.0-1.0-479.0","0","0","55144","","null","","","null","53","","","","","","","","","","","","","","","",""
"","ISI","","html-keyboard-response","327","322740","0.0-1.0-480.0","0","0","55144","","11","","","68","53","d","","","","","","","","","","","","","","",""
"","S2","","html-keyboard-response","328","322865","0.0-1.0-481.0","0","0","55144","","124","","","68","53","","d","2","53","training","adjacent","BC","2","3","M.jpg","P.jpg","1","1","1","",""
"","feedback","","html-keyboard-response","329","323868","0.0-1.0-483.0-0.0","0","0","55144","","null","","","null","53","","","","","","","","","","","","","","","",""
"","ITI","","html-keyboard-response","330","324871","0.0-1.0-486.0","0","0","55144","","90","","","75","53","","","","","","","","","","","","","","","k",""
"","S1","","html-keyboard-response","331","325123","0.0-1.0-488.0","0","0","55144","","null","","","null","54","","","","","","","","","","","","","","","",""
"","ISI","","html-keyboard-response","332","327125","0.0-1.0-489.0","0","0","55144","","145","","","68","54","d","","","","","","","","","","","","","","",""
"","S2","","html-keyboard-response","333","327179","0.0-1.0-490.0","0","0","55144","","52","","","68","54","","d","2","54","training","adjacent","BC","2","3","M.jpg","P.jpg","1","1","1","",""
"","feedback","","html-keyboard-response","334","328183","0.0-1.0-492.0-0.0","0","0","55144","","null","","","null","54","","","","","","","","","","","","","","","",""
"","ITI","","html-keyboard-response","335","329186","0.0-1.0-495.0","0","0","55144","","44","","","75","54","","","","","","","","","","","","","","","k",""
"","S1","","html-keyboard-response","336","329439","0.0-1.0-497.0","0","0","55144","","null","","","null","55","","","","","","","","","","","","","","","",""
"","ISI","","html-keyboard-response","337","331441","0.0-1.0-498.0","0","0","55144","","73","","","68","55","d","","","","","","","","","","","","","","",""
"","S2","","html-keyboard-response","338","331523","0.0-1.0-499.0","0","0","55144","","79","","","75","55","","k","2","55","training","adjacent","GF","7","6","L.jpg","O.jpg","0","0","1","",""
"","feedback","","html-keyboard-response","339","332526","0.0-1.0-501.0-0.0","0","0","55144","","null","","","null","55","","","","","","","","","","","","","","","",""
"","ITI","","html-keyboard-response","340","333528","0.0-1.0-504.0","0","0","55144","","156","","","75","55","","","","","","","","","","","","","","","k",""
"","S1","","html-keyboard-response","341","333781","0.0-1.0-506.0","0","0","55144","","null","","","null","56","","","","","","","","","","","","","","","",""
"","ISI","","html-keyboard-response","342","335784","0.0-1.0-507.0","0","0","55144","","93","","","68","56","d","","","","","","","","","","","","","","",""
"","S2","","html-keyboard-response","343","335828","0.0-1.0-508.0","0","0","55144","","41","","","75","56","","k","2","56","training","adjacent","FG","6","7","O.jpg","L.jpg","0","1","0","",""
"","feedback","","html-keyboard-response","344","336831","0.0-1.0-510.0-0.0","0","0","55144","","null","","","null","56","","","","","","","","","","","","","","","",""
"","time_out","","html-keyboard-response","345","338835","0.0-1.0-512.0-0.0","0","0","55144","","null","","","null","56","","","","","","","","","","","","","","","",""
"","ITI","","html-keyboard-response","346","339838","0.0-1.0-513.0","0","0","55144","","217","","","68","56","","","","","","","","","","","","","","","d",""
"","S1","","html-keyboard-response","347","340091","0.0-1.0-515.0","0","0","55144","","null","","","null","57","","","","","","","","","","","","","","","",""
"","ISI","","html-keyboard-response","348","342094","0.0-1.0-516.0","0","0","55144","","101","","","68","57","d","","","","","","","","","","","","","","",""
"","S2","","html-keyboard-response","349","342140","0.0-1.0-517.0","0","0","55144","","45","","","68","57","","d","2","57","training","adjacent","FE","6","5","O.jpg","R.jpg","1","0","0","",""
"","feedback","","html-keyboard-response","350","343143","0.0-1.0-519.0-0.0","0","0","55144","","null","","","null","57","","","","","","","","","","","","","","","",""
"","time_out","","html-keyboard-response","351","345145","0.0-1.0-521.0-0.0","0","0","55144","","null","","","null","57","","","","","","","","","","","","","","","",""
"","ITI","","html-keyboard-response","352","346147","0.0-1.0-522.0","0","0","55144","","77","","","75","57","","","","","","","","","","","","","","","k",""
"","S1","","html-keyboard-response","353","346400","0.0-1.0-524.0","0","0","55144","","null","","","null","58","","","","","","","","","","","","","","","",""
"","ISI","","html-keyboard-response","354","348403","0.0-1.0-525.0","0","0","55144","","66","","","68","58","d","","","","","","","","","","","","","","",""
"","S2","","html-keyboard-response","355","348656","0.0-1.0-526.0","0","0","55144","","null","","","null","58","","NaN","","","","","","","","","","","","","",""
"","response","","html-keyboard-response","356","348791","0.0-1.0-527.0-0.0","0","0","55144","","131","","","68","58","","","2","58","training","adjacent","DC","4","3","N.jpg","P.jpg","1","0","0","",""
"","feedback","","html-keyboard-response","357","349794","0.0-1.0-528.0-0.0","0","0","55144","","null","","","null","58","","","","","","","","","","","","","","","",""
"","time_out","","html-keyboard-response","358","351797","0.0-1.0-530.0-0.0","0","0","55144","","null","","","null","58","","","","","","","","","","","","","","","",""
"","ITI","","html-keyboard-response","359","352800","0.0-1.0-531.0","0","0","55144","","73","","","75","58","","","","","","","","","","","","","","","k",""
"","S1","","html-keyboard-response","360","353054","0.0-1.0-533.0","0","0","55144","","null","","","null","59","","","","","","","","","","","","","","","",""
"","ISI","","html-keyboard-response","361","355057","0.0-1.0-534.0","0","0","55144","","9","","","75","59","k","","","","","","","","","","","","","","",""
"","S2","","html-keyboard-response","362","355190","0.0-1.0-535.0","0","0","55144","","131","","","68","59","","d","2","59","training","adjacent","CD","3","4","P.jpg","N.jpg","1","1","1","",""
"","feedback","","html-keyboard-response","363","356193","0.0-1.0-537.0-0.0","0","0","55144","","null","","","null","59","","","","","","","","","","","","","","","",""
"","ITI","","html-keyboard-response","364","357196","0.0-1.0-540.0","0","0","55144","","65","","","68","59","","","","","","","","","","","","","","","d",""
"","S1","","html-keyboard-response","365","357449","0.0-1.0-542.0","0","0","55144","","null","","","null","60","","","","","","","","","","","","","","","",""
"","ISI","","html-keyboard-response","366","359452","0.0-1.0-543.0","0","0","55144","","31","","","75","60","k","","","","","","","","","","","","","","",""
"","S2","","html-keyboard-response","367","359566","0.0-1.0-544.0","0","0","55144","","113","","","68","60","","d","2","60","training","adjacent","ED","5","4","R.jpg","N.jpg","1","0","0","",""
"","feedback","","html-keyboard-response","368","360569","0.0-1.0-546.0-0.0","0","0","55144","","null","","","null","60","","","","","","","","","","","","","","","",""
"","time_out","","html-keyboard-response","369","362572","0.0-1.0-548.0-0.0","0","0","55144","","null","","","null","60","","","","","","","","","","","","","","","",""
"","ITI","","html-keyboard-response","370","363575","0.0-1.0-549.0","0","0","55144","","58","","","75","60","","","","","","","","","","","","","","","k",""
"","S1","","html-keyboard-response","371","363827","0.0-1.0-551.0","0","0","55144","","null","","","null","61","","","","","","","","","","","","","","","",""
"","ISI","","html-keyboard-response","372","365830","0.0-1.0-552.0","0","0","55144","","85","","","75","61","k","","","","","","","","","","","","","","",""
"","S2","","html-keyboard-response","373","365865","0.0-1.0-553.0","0","0","55144","","31","","","68","61","","d","2","61","training","adjacent","BA","2","1","M.jpg","Q.jpg","1","0","0","",""
"","feedback","","html-keyboard-response","374","366868","0.0-1.0-555.0-0.0","0","0","55144","","null","","","null","61","","","","","","","","","","","","","","","",""
"","time_out","","html-keyboard-response","375","368871","0.0-1.0-557.0-0.0","0","0","55144","","null","","","null","61","","","","","","","","","","","","","","","",""
"","ITI","","html-keyboard-response","376","369873","0.0-1.0-558.0","0","0","55144","","104","","","75","61","","","","","","","","","","","","","","","k",""
"","S1","","html-keyboard-response","377","370128","0.0-1.0-560.0","0","0","55144","","null","","","null","62","","","","","","","","","","","","","","","",""
"","ISI","","html-keyboard-response","378","372131","0.0-1.0-561.0","0","0","55144","","159","","","75","62","k","","","","","","","","","","","","","","",""
"","S2","","html-keyboard-response","379","372384","0.0-1.0-562.0","0","0","55144","","null","","","null","62","","NaN","","","","","","","","","","","","","",""
"","response","","html-keyboard-response","380","372573","0.0-1.0-563.0-0.0","0","0","55144","","187","","","75","62","","","2","62","training","adjacent","EF","5","6","R.jpg","O.jpg","0","1","0","",""
"","feedback","","html-keyboard-response","381","373576","0.0-1.0-564.0-0.0","0","0","55144","","null","","","null","62","","","","","","","","","","","","","","","",""
"","time_out","","html-keyboard-response","382","375580","0.0-1.0-566.0-0.0","0","0","55144","","null","","","null","62","","","","","","","","","","","","","","","",""
"","ITI","","html-keyboard-response","383","376582","0.0-1.0-567.0","0","0","55144","","100","","","68","62","","","","","","","","","","","","","","","d",""
"","S1","","html-keyboard-response","384","376836","0.0-1.0-569.0","0","0","55144","","null","","","null","63","","","","","","","","","","","","","","","",""
"","ISI","","html-keyboard-response","385","378838","0.0-1.0-570.0","0","0","55144","","29","","","68","63","d","","","","","","","","","","","","","","",""
"","S2","","html-keyboard-response","386","378862","0.0-1.0-571.0","0","0","55144","","22","","","75","63","","k","2","63","training","adjacent","ED","5","4","R.jpg","N.jpg","0","0","1","",""
"","feedback","","html-keyboard-response","387","379865","0.0-1.0-573.0-0.0","0","0","55144","","null","","","null","63","","","","","","","","","","","","","","","",""
"","ITI","","html-keyboard-response","388","380869","0.0-1.0-576.0","0","0","55144","","127","","","75","63","","","","","","","","","","","","","","","k",""
"","S1","","html-keyboard-response","389","381122","0.0-1.0-578.0","0","0","55144","","null","","","null","64","","","","","","","","","","","","","","","",""
"","ISI","","html-keyboard-response","390","383126","0.0-1.0-579.0","0","0","55144","","136","","","68","64","d","","","","","","","","","","","","","","",""
"","S2","","html-keyboard-response","391","383379","0.0-1.0-580.0","0","0","55144","","null","","","null","64","","NaN","","","","","","","","","","","","","",""
"","response","","html-keyboard-response","392","384889","0.0-1.0-581.0-0.0","0","0","55144","","1508","","","68","64","","","2","64","training","adjacent","BA","2","1","M.jpg","Q.jpg","1","0","0","",""
"","feedback","","html-keyboard-response","393","385892","0.0-1.0-582.0-0.0","0","0","55144","","null","","","null","64","","","","","","","","","","","","","","","",""
"","time_out","","html-keyboard-response","394","387895","0.0-1.0-584.0-0.0","0","0","55144","","null","","","null","64","","","","","","","","","","","","","","","",""
"","ITI","","html-keyboard-response","395","388897","0.0-1.0-585.0","0","0","55144","","305","","","68","64","","","","","","","","","","","","","","","d",""
"","S1","","html-keyboard-response","396","389150","0.0-1.0-587.0","0","0","55144","","null","","","null","65","","","","","","","","","","","","","","","",""
"","ISI","","html-keyboard-response","397","391153","0.0-1.0-588.0","0","0","55144","","8","","","75","65","k","","","","","","","","","","","","","","",""
"","S2","","html-keyboard-response","398","391292","0.0-1.0-589.0","0","0","55144","","137","","","75","65","","k","2","65","training","adjacent","DE","4","5","N.jpg","R.jpg","0","1","0","",""
"","feedback","","html-keyboard-response","399","392298","0.0-1.0-591.0-0.0","0","0","55144","","null","","","null","65","","","","","","","","","","","","","","","",""
"","time_out","","html-keyboard-response","400","394306","0.0-1.0-593.0-0.0","0","0","55144","","null","","","null","65","","","","","","","","","","","","","","","",""
"","ITI","","html-keyboard-response","401","395309","0.0-1.0-594.0","0","0","55144","","172","","","68","65","","","","","","","","","","","","","","","d",""
"","S1","","html-keyboard-response","402","395562","0.0-1.0-596.0","0","0","55144","","null","","","null","66","","","","","","","","","","","","","","","",""
"","ISI","","html-keyboard-response","403","397565","0.0-1.0-597.0","0","0","55144","","459","","","75","66","k","","","","","","","","","","","","","","",""
"","S2","","html-keyboard-response","404","397817","0.0-1.0-598.0","0","0","55144","","null","","","null","66","","NaN","","","","","","","","","","","","","",""
"","response","","html-keyboard-response","405","398158","0.0-1.0-599.0-0.0","0","0","55144","","339","","","68","66","","","2","66","training","adjacent","DC","4","3","N.jpg","P.jpg","1","0","0","",""
"","feedback","","html-keyboard-response","406","399160","0.0-1.0-600.0-0.0","0","0","55144","","null","","","null","66","","","","","","","","","","","","","","","",""
"","time_out","","html-keyboard-response","407","401162","0.0-1.0-602.0-0.0","0","0","55144","","null","","","null","66","","","","","","","","","","","","","","","",""
"","ITI","","html-keyboard-response","408","402165","0.0-1.0-603.0","0","0","55144","","871","","","75","66","","","","","","","","","","","","","","","k",""
"","S1","","html-keyboard-response","409","402418","0.0-1.0-605.0","0","0","55144","","null","","","null","67","","","","","","","","","","","","","","","",""
"","ISI","","html-keyboard-response","410","404421","0.0-1.0-606.0","0","0","55144","","190","","","68","67","d","","","","","","","","","","","","","","",""
"","S2","","html-keyboard-response","411","404491","0.0-1.0-607.0","0","0","55144","","68","","","68","67","","d","2","67","training","adjacent","AB","1","2","Q.jpg","M.jpg","1","1","1","",""
"","feedback","","html-keyboard-response","412","405495","0.0-1.0-609.0-0.0","0","0","55144","","null","","","null","67","","","","","","","","","","","","","","","",""
"","ITI","","html-keyboard-response","413","406498","0.0-1.0-612.0","0","0","55144","","160","","","68","67","","","","","","","","","","","","","","","d",""
"","S1","","html-keyboard-response","414","406751","0.0-1.0-614.0","0","0","55144","","null","","","null","68","","","","","","","","","","","","","","","",""
"","ISI","","html-keyboard-response","415","408753","0.0-1.0-615.0","0","0","55144","","87","","","75","68","k","","","","","","","","","","","","","","",""
"","S2","","html-keyboard-response","416","408971","0.0-1.0-616.0","0","0","55144","","216","","","68","68","","d","2","68","training","adjacent","ED","5","4","R.jpg","N.jpg","1","0","0","",""
"","feedback","","html-keyboard-response","417","409974","0.0-1.0-618.0-0.0","0","0","55144","","null","","","null","68","","","","","","","","","","","","","","","",""
"","time_out","","html-keyboard-response","418","411978","0.0-1.0-620.0-0.0","0","0","55144","","null","","","null","68","","","","","","","","","","","","","","","",""
"","ITI","","html-keyboard-response","419","412980","0.0-1.0-621.0","0","0","55144","","77","","","75","68","","","","","","","","","","","","","","","k",""
"","S1","","html-keyboard-response","420","413233","0.0-1.0-623.0","0","0","55144","","null","","","null","69","","","","","","","","","","","","","","","",""
"","ISI","","html-keyboard-response","421","415235","0.0-1.0-624.0","0","0","55144","","538","","","75","69","k","","","","","","","","","","","","","","",""
"","S2","","html-keyboard-response","422","415279","0.0-1.0-625.0","0","0","55144","","40","","","75","69","","k","2","69","training","adjacent","DE","4","5","N.jpg","R.jpg","0","1","0","",""
"","feedback","","html-keyboard-response","423","416283","0.0-1.0-627.0-0.0","0","0","55144","","null","","","null","69","","","","","","","","","","","","","","","",""
"","time_out","","html-keyboard-response","424","418286","0.0-1.0-629.0-0.0","0","0","55144","","null","","","null","69","","","","","","","","","","","","","","","",""
"","ITI","","html-keyboard-response","425","419289","0.0-1.0-630.0","0","0","55144","","87","","","68","69","","","","","","","","","","","","","","","d",""
"","S1","","html-keyboard-response","426","419542","0.0-1.0-632.0","0","0","55144","","null","","","null","70","","","","","","","","","","","","","","","",""
"","ISI","","html-keyboard-response","427","421545","0.0-1.0-633.0","0","0","55144","","147","","","75","70","k","","","","","","","","","","","","","","",""
"","S2","","html-keyboard-response","428","421660","0.0-1.0-634.0","0","0","55144","","113","","","68","70","","d","2","70","training","adjacent","DC","4","3","N.jpg","P.jpg","1","0","0","",""
"","feedback","","html-keyboard-response","429","422663","0.0-1.0-636.0-0.0","0","0","55144","","null","","","null","70","","","","","","","","","","","","","","","",""
"","time_out","","html-keyboard-response","430","424666","0.0-1.0-638.0-0.0","0","0","55144","","null","","","null","70","","","","","","","","","","","","","","","",""
"","ITI","","html-keyboard-response","431","425669","0.0-1.0-639.0","0","0","55144","","59","","","68","70","","","","","","","","","","","","","","","d",""
"","S1","","html-keyboard-response","432","425922","0.0-1.0-641.0","0","0","55144","","null","","","null","71","","","","","","","","","","","","","","","",""
"","ISI","","html-keyboard-response","433","427926","0.0-1.0-642.0","0","0","55144","","235","","","75","71","k","","","","","","","","","","","","","","",""
"","S2","","html-keyboard-response","434","428099","0.0-1.0-643.0","0","0","55144","","171","","","75","71","","k","2","71","training","adjacent","GF","7","6","L.jpg","O.jpg","0","0","1","",""
"","feedback","","html-keyboard-response","435","429103","0.0-1.0-645.0-0.0","0","0","55144","","null","","","null","71","","","","","","","","","","","","","","","",""
"","ITI","","html-keyboard-response","436","430107","0.0-1.0-648.0","0","0","55144","","131","","","75","71","","","","","","","","","","","","","","","k",""
"","S1","","html-keyboard-response","437","430361","0.0-1.0-650.0","0","0","55144","","null","","","null","72","","","","","","","","","","","","","","","",""
"","ISI","","html-keyboard-response","438","432364","0.0-1.0-651.0","0","0","55144","","109","","","75","72","k","","","","","","","","","","","","","","",""
"","S2","","html-keyboard-response","439","432376","0.0-1.0-652.0","0","0","55144","","10","","","75","72","","k","2","72","training","adjacent","ED","5","4","R.jpg","N.jpg","0","0","1","",""
"","feedback","","html-keyboard-response","440","433379","0.0-1.0-654.0-0.0","0","0","55144","","null","","","null","72","","","","","","","","","","","","","","","",""
"","ITI","","html-keyboard-response","441","434382","0.0-1.0-657.0","0","0","55144","","246","","","75","72","","","","","","","","","","","","","","","k",""
"","S1","","html-keyboard-response","442","434635","0.0-1.0-659.0","0","0","55144","","null","","","null","73","","","","","","","","","","","","","","","",""
"","ISI","","html-keyboard-response","443","436637","0.0-1.0-660.0","0","0","55144","","103","","","75","73","k","","","","","","","","","","","","","","",""
"","S2","","html-keyboard-response","444","436704","0.0-1.0-661.0","0","0","55144","","65","","","75","73","","k","2","73","training","adjacent","EF","5","6","R.jpg","O.jpg","0","1","0","",""
"","feedback","","html-keyboard-response","445","437709","0.0-1.0-663.0-0.0","0","0","55144","","null","","","null","73","","","","","","","","","","","","","","","",""
"","time_out","","html-keyboard-response","446","439712","0.0-1.0-665.0-0.0","0","0","55144","","null","","","null","73","","","","","","","","","","","","","","","",""
"","ITI","","html-keyboard-response","447","440715","0.0-1.0-666.0","0","0","55144","","19","","","75","73","","","","","","","","","","","","","","","k",""
"","S1","","html-keyboard-response","448","440970","0.0-1.0-668.0","0","0","55144","","null","","","null","74","","","","","","","","","","","","","","","",""
"","ISI","","html-keyboard-response","449","442972","0.0-1.0-669.0","0","0","55144","","226","","","68","74","d","","","","","","","","","","","","","","",""
"","S2","","html-keyboard-response","450","443106","0.0-1.0-670.0","0","0","55144","","132","","","75","74","","k","2","74","training","adjacent","CB","3","2","P.jpg","M.jpg","0","0","1","",""
"","feedback","","html-keyboard-response","451","444110","0.0-1.0-672.0-0.0","0","0","55144","","null","","","null","74","","","","","","","","","","","","","","","",""
"","ITI","","html-keyboard-response","452","445113","0.0-1.0-675.0","0","0","55144","","53","","","75","74","","","","","","","","","","","","","","","k",""
"","S1","","html-keyboard-response","453","445367","0.0-1.0-677.0","0","0","55144","","null","","","null","75","","","","","","","","","","","","","","","",""
"","ISI","","html-keyboard-response","454","447369","0.0-1.0-678.0","0","0","55144","","208","","","75","75","k","","","","","","","","","","","","","","",""
"","S2","","html-keyboard-response","455","447623","0.0-1.0-679.0","0","0","55144","","null","","","null","75","","NaN","","","","","","","","","","","","","",""
"","response","","html-keyboard-response","456","447705","0.0-1.0-680.0-0.0","0","0","55144","","81","","","75","75","","","2","75","training","adjacent","CB","3","2","P.jpg","M.jpg","0","0","1","",""
"","feedback","","html-keyboard-response","457","448709","0.0-1.0-681.0-0.0","0","0","55144","","null","","","null","75","","","","","","","","","","","","","","","",""
"","ITI","","html-keyboard-response","458","449711","0.0-1.0-684.0","0","0","55144","","6","","","75","75","","","","","","","","","","","","","","","k",""
"","S1","","html-keyboard-response","459","449964","0.0-1.0-686.0","0","0","55144","","null","","","null","76","","","","","","","","","","","","","","","",""
"","ISI","","html-keyboard-response","460","451967","0.0-1.0-687.0","0","0","55144","","112","","","75","76","k","","","","","","","","","","","","","","",""
"","S2","","html-keyboard-response","461","452069","0.0-1.0-688.0","0","0","55144","","100","","","68","76","","d","2","76","training","adjacent","CD","3","4","P.jpg","N.jpg","1","1","1","",""
"","feedback","","html-keyboard-response","462","453073","0.0-1.0-690.0-0.0","0","0","55144","","null","","","null","76","","","","","","","","","","","","","","","",""
"","ITI","","html-keyboard-response","463","454076","0.0-1.0-693.0","0","0","55144","","6","","","68","76","","","","","","","","","","","","","","","d",""
"","S1","","html-keyboard-response","464","454329","0.0-1.0-695.0","0","0","55144","","null","","","null","77","","","","","","","","","","","","","","","",""
"","ISI","","html-keyboard-response","465","456333","0.0-1.0-696.0","0","0","55144","","107","","","68","77","d","","","","","","","","","","","","","","",""
"","S2","","html-keyboard-response","466","456496","0.0-1.0-697.0","0","0","55144","","159","","","75","77","","k","2","77","training","adjacent","FG","6","7","O.jpg","L.jpg","0","1","0","",""
"","feedback","","html-keyboard-response","467","457499","0.0-1.0-699.0-0.0","0","0","55144","","null","","","null","77","","","","","","","","","","","","","","","",""
"","time_out","","html-keyboard-response","468","459502","0.0-1.0-701.0-0.0","0","0","55144","","null","","","null","77","","","","","","","","","","","","","","","",""
"","ITI","","html-keyboard-response","469","460505","0.0-1.0-702.0","0","0","55144","","271","","","75","77","","","","","","","","","","","","","","","k",""
"","S1","","html-keyboard-response","470","460758","0.0-1.0-704.0","0","0","55144","","null","","","null","78","","","","","","","","","","","","","","","",""
"","ISI","","html-keyboard-response","471","462760","0.0-1.0-705.0","0","0","55144","","340","","","75","78","k","","","","","","","","","","","","","","",""
"","S2","","html-keyboard-response","472","462973","0.0-1.0-706.0","0","0","55144","","211","","","68","78","","d","2","78","training","adjacent","FE","6","5","O.jpg","R.jpg","1","0","0","",""
"","feedback","","html-keyboard-response","473","463977","0.0-1.0-708.0-0.0","0","0","55144","","null","","","null","78","","","","","","","","","","","","","","","",""
"","time_out","","html-keyboard-response","474","465981","0.0-1.0-710.0-0.0","0","0","55144","","null","","","null","78","","","","","","","","","","","","","","","",""
"","ITI","","html-keyboard-response","475","466985","0.0-1.0-711.0","0","0","55144","","34","","","68","78","","","","","","","","","","","","","","","d",""
"","S1","","html-keyboard-response","476","467237","0.0-1.0-713.0","0","0","55144","","null","","","null","79","","","","","","","","","","","","","","","",""
"","ISI","","html-keyboard-response","477","469240","0.0-1.0-714.0","0","0","55144","","3","","","75","79","k","","","","","","","","","","","","","","",""
"","S2","","html-keyboard-response","478","469473","0.0-1.0-715.0","0","0","55144","","231","","","75","79","","k","2","79","training","adjacent","BA","2","1","M.jpg","Q.jpg","0","0","1","",""
"","feedback","","html-keyboard-response","479","470476","0.0-1.0-717.0-0.0","0","0","55144","","null","","","null","79","","","","","","","","","","","","","","","",""
"","ITI","","html-keyboard-response","480","471478","0.0-1.0-720.0","0","0","55144","","6","","","68","79","","","","","","","","","","","","","","","d",""
"","S1","","html-keyboard-response","481","471732","0.0-1.0-722.0","0","0","55144","","null","","","null","80","","","","","","","","","","","","","","","",""
"","ISI","","html-keyboard-response","482","473734","0.0-1.0-723.0","0","0","55144","","191","","","68","80","d","","","","","","","","","","","","","","",""
"","S2","","html-keyboard-response","483","473899","0.0-1.0-724.0","0","0","55144","","163","","","75","80","","k","2","80","training","adjacent","BC","2","3","M.jpg","P.jpg","0","1","0","",""
"","feedback","","html-keyboard-response","484","474903","0.0-1.0-726.0-0.0","0","0","55144","","null","","","null","80","","","","","","","","","","","","","","","",""
"","time_out","","html-keyboard-response","485","476926","0.0-1.0-728.0-0.0","0","0","55144","","null","","","null","80","","","","","","","","","","","","","","","",""
"","ITI","","html-keyboard-response","486","477928","0.0-1.0-729.0","0","0","55144","","66","","","68","80","","","","","","","","","","","","","","","d",""
"","S1","","html-keyboard-response","487","478181","0.0-1.0-731.0","0","0","55144","","null","","","null","81","","","","","","","","","","","","","","","",""
"","ISI","","html-keyboard-response","488","480184","0.0-1.0-732.0","0","0","55144","","201","","","68","81","d","","","","","","","","","","","","","","",""
"","S2","","html-keyboard-response","489","480205","0.0-1.0-733.0","0","0","55144","","19","","","68","81","","d","2","81","training","adjacent","CD","3","4","P.jpg","N.jpg","1","1","1","",""
"","feedback","","html-keyboard-response","490","481209","0.0-1.0-735.0-0.0","0","0","55144","","null","","","null","81","","","","","","","","","","","","","","","",""
"","ITI","","html-keyboard-response","491","482212","0.0-1.0-738.0","0","0","55144","","148","","","68","81","","","","","","","","","","","","","","","d",""
"","S1","","html-keyboard-response","492","482464","0.0-1.0-740.0","0","0","55144","","null","","","null","82","","","","","","","","","","","","","","","",""
"","ISI","","html-keyboard-response","493","484466","0.0-1.0-741.0","0","0","55144","","173","","","75","82","k","","","","","","","","","","","","","","",""
"","S2","","html-keyboard-response","494","484549","0.0-1.0-742.0","0","0","55144","","80","","","75","82","","k","2","82","training","adjacent","AB","1","2","Q.jpg","M.jpg","0","1","0","",""
"","feedback","","html-keyboard-response","495","485552","0.0-1.0-744.0-0.0","0","0","55144","","null","","","null","82","","","","","","","","","","","","","","","",""
"","time_out","","html-keyboard-response","496","487555","0.0-1.0-746.0-0.0","0","0","55144","","null","","","null","82","","","","","","","","","","","","","","","",""
"","ITI","","html-keyboard-response","497","488558","0.0-1.0-747.0","0","0","55144","","209","","","75","82","","","","","","","","","","","","","","","k",""
"","S1","","html-keyboard-response","498","488811","0.0-1.0-749.0","0","0","55144","","null","","","null","83","","","","","","","","","","","","","","","",""
"","ISI","","html-keyboard-response","499","490815","0.0-1.0-750.0","0","0","55144","","47","","","68","83","d","","","","","","","","","","","","","","",""
"","S2","","html-keyboard-response","500","490949","0.0-1.0-751.0","0","0","55144","","132","","","75","83","","k","2","83","training","adjacent","EF","5","6","R.jpg","O.jpg","0","1","0","",""
"","feedback","","html-keyboard-response","501","491953","0.0-1.0-753.0-0.0","0","0","55144","","null","","","null","83","","","","","","","","","","","","","","","",""
"","time_out","","html-keyboard-response","502","493958","0.0-1.0-755.0-0.0","0","0","55144","","null","","","null","83","","","","","","","","","","","","","","","",""
"","ITI","","html-keyboard-response","503","494960","0.0-1.0-756.0","0","0","55144","","167","","","75","83","","","","","","","","","","","","","","","k",""
"","S1","","html-keyboard-response","504","495213","0.0-1.0-758.0","0","0","55144","","null","","","null","84","","","","","","","","","","","","","","","",""
"","ISI","","html-keyboard-response","505","497216","0.0-1.0-759.0","0","0","55144","","315","","","68","84","d","","","","","","","","","","","","","","",""
"","S2","","html-keyboard-response","506","497294","0.0-1.0-760.0","0","0","55144","","75","","","68","84","","d","2","84","training","adjacent","BA","2","1","M.jpg","Q.jpg","1","0","0","",""
"","feedback","","html-keyboard-response","507","498299","0.0-1.0-762.0-0.0","0","0","55144","","null","","","null","84","","","","","","","","","","","","","","","",""
"","time_out","","html-keyboard-response","508","500302","0.0-1.0-764.0-0.0","0","0","55144","","null","","","null","84","","","","","","","","","","","","","","","",""
"","ITI","","html-keyboard-response","509","501304","0.0-1.0-765.0","0","0","55144","","181","","","68","84","","","","","","","","","","","","","","","d",""
"","S1","","html-keyboard-response","510","501558","0.0-1.0-767.0","0","0","55144","","null","","","null","85","","","","","","","","","","","","","","","",""
"","ISI","","html-keyboard-response","511","503560","0.0-1.0-768.0","0","0","55144","","125","","","75","85","k","","","","","","","","","","","","","","",""
"","S2","","html-keyboard-response","512","503620","0.0-1.0-769.0","0","0","55144","","58","","","68","85","","d","2","85","training","adjacent","DE","4","5","N.jpg","R.jpg","1","1","1","",""
"","feedback","","html-keyboard-response","513","504624","0.0-1.0-771.0-0.0","0","0","55144","","null","","","null","85","","","","","","","","","","","","","","","",""
"","ITI","","html-keyboard-response","514","505627","0.0-1.0-774.0","0","0","55144","","130","","","68","85","","","","","","","","","","","","","","","d",""
"","S1","","html-keyboard-response","515","505880","0.0-1.0-776.0","0","0","55144","","null","","","null","86","","","","","","","","","","","","","","","",""
"","ISI","","html-keyboard-response","516","507884","0.0-1.0-777.0","0","0","55144","","26","","","75","86","k","","","","","","","","","","","","","","",""
"","S2","","html-keyboard-response","517","508073","0.0-1.0-778.0","0","0","55144","","187","","","75","86","","k","2","86","training","adjacent","FG","6","7","O.jpg","L.jpg","0","1","0","",""
"","feedback","","html-keyboard-response","518","509076","0.0-1.0-780.0-0.0","0","0","55144","","null","","","null","86","","","","","","","","","","","","","","","",""
"","time_out","","html-keyboard-response","519","511079","0.0-1.0-782.0-0.0","0","0","55144","","null","","","null","86","","","","","","","","","","","","","","","",""
"","ITI","","html-keyboard-response","520","512082","0.0-1.0-783.0","0","0","55144","","123","","","75","86","","","","","","","","","","","","","","","k",""
"","S1","","html-keyboard-response","521","512335","0.0-1.0-785.0","0","0","55144","","null","","","null","87","","","","","","","","","","","","","","","",""
"","ISI","","html-keyboard-response","522","514342","0.0-1.0-786.0","0","0","55144","","276","","","75","87","k","","","","","","","","","","","","","","",""
"","S2","","html-keyboard-response","523","514358","0.0-1.0-787.0","0","0","55144","","13","","","75","87","","k","2","87","training","adjacent","CD","3","4","P.jpg","N.jpg","0","1","0","",""
"","feedback","","html-keyboard-response","524","515362","0.0-1.0-789.0-0.0","0","0","55144","","null","","","null","87","","","","","","","","","","","","","","","",""
"","time_out","","html-keyboard-response","525","517365","0.0-1.0-791.0-0.0","0","0","55144","","null","","","null","87","","","","","","","","","","","","","","","",""
"","ITI","","html-keyboard-response","526","518368","0.0-1.0-792.0","0","0","55144","","174","","","75","87","","","","","","","","","","","","","","","k",""
"","S1","","html-keyboard-response","527","518622","0.0-1.0-794.0","0","0","55144","","null","","","null","88","","","","","","","","","","","","","","","",""
"","ISI","","html-keyboard-response","528","520625","0.0-1.0-795.0","0","0","55144","","210","","","68","88","d","","","","","","","","","","","","","","",""
"","S2","","html-keyboard-response","529","520737","0.0-1.0-796.0","0","0","55144","","110","","","68","88","","d","2","88","training","adjacent","FG","6","7","O.jpg","L.jpg","1","1","1","",""
"","feedback","","html-keyboard-response","530","521740","0.0-1.0-798.0-0.0","0","0","55144","","null","","","null","88","","","","","","","","","","","","","","","",""
"","ITI","","html-keyboard-response","531","522742","0.0-1.0-801.0","0","0","55144","","216","","","75","88","","","","","","","","","","","","","","","k",""
"","S1","","html-keyboard-response","532","522996","0.0-1.0-803.0","0","0","55144","","null","","","null","89","","","","","","","","","","","","","","","",""
"","ISI","","html-keyboard-response","533","524999","0.0-1.0-804.0","0","0","55144","","93","","","68","89","d","","","","","","","","","","","","","","",""
"","S2","","html-keyboard-response","534","525116","0.0-1.0-805.0","0","0","55144","","114","","","68","89","","d","2","89","training","adjacent","FE","6","5","O.jpg","R.jpg","1","0","0","",""
"","feedback","","html-keyboard-response","535","526120","0.0-1.0-807.0-0.0","0","0","55144","","null","","","null","89","","","","","","","","","","","","","","","",""
"","time_out","","html-keyboard-response","536","528123","0.0-1.0-809.0-0.0","0","0","55144","","null","","","null","89","","","","","","","","","","","","","","","",""
"","ITI","","html-keyboard-response","537","529128","0.0-1.0-810.0","0","0","55144","","327","","","68","89","","","","","","","","","","","","","","","d",""
"","S1","","html-keyboard-response","538","529381","0.0-1.0-812.0","0","0","55144","","null","","","null","90","","","","","","","","","","","","","","","",""
"","ISI","","html-keyboard-response","539","531384","0.0-1.0-813.0","0","0","55144","","440","","","68","90","d","","","","","","","","","","","","","","",""
"","S2","","html-keyboard-response","540","531504","0.0-1.0-814.0","0","0","55144","","116","","","75","90","","k","2","90","training","adjacent","CB","3","2","P.jpg","M.jpg","0","0","1","",""
"","feedback","","html-keyboard-response","541","532508","0.0-1.0-816.0-0.0","0","0","55144","","null","","","null","90","","","","","","","","","","","","","","","",""
"","ITI","","html-keyboard-response","542","533511","0.0-1.0-819.0","0","0","55144","","555","","","68","90","","","","","","","","","","","","","","","d",""
"","S1","","html-keyboard-response","543","533764","0.0-1.0-821.0","0","0","55144","","null","","","null","91","","","","","","","","","","","","","","","",""
"","ISI","","html-keyboard-response","544","535766","0.0-1.0-822.0","0","0","55144","","352","","","68","91","d","","","","","","","","","","","","","","",""
"","S2","","html-keyboard-response","545","535862","0.0-1.0-823.0","0","0","55144","","94","","","75","91","","k","2","91","training","adjacent","GF","7","6","L.jpg","O.jpg","0","0","1","",""
"","feedback","","html-keyboard-response","546","536866","0.0-1.0-825.0-0.0","0","0","55144","","null","","","null","91","","","","","","","","","","","","","","","",""
"","ITI","","html-keyboard-response","547","537869","0.0-1.0-828.0","0","0","55144","","370","","","68","91","","","","","","","","","","","","","","","d",""
"","S1","","html-keyboard-response","548","538121","0.0-1.0-830.0","0","0","55144","","null","","","null","92","","","","","","","","","","","","","","","",""
"","ISI","","html-keyboard-response","549","540123","0.0-1.0-831.0","0","0","55144","","399","","","75","92","k","","","","","","","","","","","","","","",""
"","S2","","html-keyboard-response","550","540130","0.0-1.0-832.0","0","0","55144","","5","","","75","92","","k","2","92","training","adjacent","DE","4","5","N.jpg","R.jpg","0","1","0","",""
"","feedback","","html-keyboard-response","551","541134","0.0-1.0-834.0-0.0","0","0","55144","","null","","","null","92","","","","","","","","","","","","","","","",""
"","time_out","","html-keyboard-response","552","543137","0.0-1.0-836.0-0.0","0","0","55144","","null","","","null","92","","","","","","","","","","","","","","","",""
"","ITI","","html-keyboard-response","553","544139","0.0-1.0-837.0","0","0","55144","","198","","","75","92","","","","","","","","","","","","","","","k",""
"","S1","","html-keyboard-response","554","544393","0.0-1.0-839.0","0","0","55144","","null","","","null","93","","","","","","","","","","","","","","","",""
"","ISI","","html-keyboard-response","555","546395","0.0-1.0-840.0","0","0","55144","","2","","","68","93","d","","","","","","","","","","","","","","",""
"","S2","","html-keyboard-response","556","546649","0.0-1.0-841.0","0","0","55144","","null","","","null","93","","NaN","","","","","","","","","","","","","",""
"","response","","html-keyboard-response","557","546838","0.0-1.0-842.0-0.0","0","0","55144","","188","","","75","93","","","2","93","training","adjacent","EF","5","6","R.jpg","O.jpg","0","1","0","",""
"","feedback","","html-keyboard-response","558","547841","0.0-1.0-843.0-0.0","0","0","55144","","null","","","null","93","","","","","","","","","","","","","","","",""
"","time_out","","html-keyboard-response","559","549845","0.0-1.0-845.0-0.0","0","0","55144","","null","","","null","93","","","","","","","","","","","","","","","",""
"","ITI","","html-keyboard-response","560","550847","0.0-1.0-846.0","0","0","55144","","59","","","75","93","","","","","","","","","","","","","","","k",""
"","S1","","html-keyboard-response","561","551101","0.0-1.0-848.0","0","0","55144","","null","","","null","94","","","","","","","","","","","","","","","",""
"","ISI","","html-keyboard-response","562","553105","0.0-1.0-849.0","0","0","55144","","127","","","75","94","k","","","","","","","","","","","","","","",""
"","S2","","html-keyboard-response","563","553357","0.0-1.0-850.0","0","0","55144","","null","","","null","94","","NaN","","","","","","","","","","","","","",""
"","response","","html-keyboard-response","564","553591","0.0-1.0-851.0-0.0","0","0","55144","","231","","","75","94","","","2","94","training","adjacent","AB","1","2","Q.jpg","M.jpg","0","1","0","",""
"","feedback","","html-keyboard-response","565","554595","0.0-1.0-852.0-0.0","0","0","55144","","null","","","null","94","","","","","","","","","","","","","","","",""
"","time_out","","html-keyboard-response","566","556599","0.0-1.0-854.0-0.0","0","0","55144","","null","","","null","94","","","","","","","","","","","","","","","",""
"","ITI","","html-keyboard-response","567","557602","0.0-1.0-855.0","0","0","55144","","129","","","75","94","","","","","","","","","","","","","","","k",""
"","S1","","html-keyboard-response","568","557855","0.0-1.0-857.0","0","0","55144","","null","","","null","95","","","","","","","","","","","","","","","",""
"","ISI","","html-keyboard-response","569","559858","0.0-1.0-858.0","0","0","55144","","153","","","68","95","d","","","","","","","","","","","","","","",""
"","S2","","html-keyboard-response","570","559934","0.0-1.0-859.0","0","0","55144","","74","","","68","95","","d","2","95","training","adjacent","AB","1","2","Q.jpg","M.jpg","1","1","1","",""
"","feedback","","html-keyboard-response","571","560936","0.0-1.0-861.0-0.0","0","0","55144","","null","","","null","95","","","","","","","","","","","","","","","",""
"","ITI","","html-keyboard-response","572","561941","0.0-1.0-864.0","0","0","55144","","382","","","75","95","","","","","","","","","","","","","","","k",""
"","block_over","","html-keyboard-response","573","568888","0.0-1.0-865.0-0.0","0","0","55144","","6945","","","32","95","","","","","","","","","","","","","","","",""
"","S1","","html-keyboard-response","574","569141","0.0-1.0-866.0","0","0","55144","","null","","","null","96","","","","","","","","","","","","","","","",""
"","ISI","","html-keyboard-response","575","571144","0.0-1.0-867.0","0","0","55144","","24","","","68","96","d","","","","","","","","","","","","","","",""
"","S2","","html-keyboard-response","576","571215","0.0-1.0-868.0","0","0","55144","","69","","","68","96","","d","3","96","training","adjacent","EF","5","6","R.jpg","O.jpg","1","1","1","",""
"","feedback","","html-keyboard-response","577","572219","0.0-1.0-870.0-0.0","0","0","55144","","null","","","null","96","","","","","","","","","","","","","","","",""
"","ITI","","html-keyboard-response","578","573222","0.0-1.0-873.0","0","0","55144","","128","","","68","96","","","","","","","","","","","","","","","d",""
"","S1","","html-keyboard-response","579","573475","0.0-1.0-875.0","0","0","55144","","null","","","null","97","","","","","","","","","","","","","","","",""
"","ISI","","html-keyboard-response","580","575479","0.0-1.0-876.0","0","0","55144","","236","","","68","97","d","","","","","","","","","","","","","","",""
"","S2","","html-keyboard-response","581","575630","0.0-1.0-877.0","0","0","55144","","149","","","75","97","","k","3","97","training","adjacent","BA","2","1","M.jpg","Q.jpg","0","0","1","",""
"","feedback","","html-keyboard-response","582","576633","0.0-1.0-879.0-0.0","0","0","55144","","null","","","null","97","","","","","","","","","","","","","","","",""
"","ITI","","html-keyboard-response","583","577637","0.0-1.0-882.0","0","0","55144","","41","","","68","97","","","","","","","","","","","","","","","d",""
"","S1","","html-keyboard-response","584","577891","0.0-1.0-884.0","0","0","55144","","null","","","null","98","","","","","","","","","","","","","","","",""
"","ISI","","html-keyboard-response","585","579894","0.0-1.0-885.0","0","0","55144","","179","","","68","98","d","","","","","","","","","","","","","","",""
"","S2","","html-keyboard-response","586","579975","0.0-1.0-886.0","0","0","55144","","79","","","68","98","","d","3","98","training","adjacent","EF","5","6","R.jpg","O.jpg","1","1","1","",""
"","feedback","","html-keyboard-response","587","580978","0.0-1.0-888.0-0.0","0","0","55144","","null","","","null","98","","","","","","","","","","","","","","","",""
"","ITI","","html-keyboard-response","588","581981","0.0-1.0-891.0","0","0","55144","","290","","","68","98","","","","","","","","","","","","","","","d",""
"","S1","","html-keyboard-response","589","582235","0.0-1.0-893.0","0","0","55144","","null","","","null","99","","","","","","","","","","","","","","","",""
