"success","ttype","start_time","trial_type","trial_index","time_elapsed","internal_node_id","warning","missed_checkup","PID","view_history","rt","responses","repeat_instructions","key_press","index","keypress_isi","keypress_S2","block","trial_num","phase","group_type","pair_type","S1_stim","S2_stim","S1_img","S2_img","S1_chosen","S1_higher","accuracy","keypress_iti","total_bonus_tally"
"true","full_screen","d08052022hr1241","fullscreen","0","8110","0.0-0.0","0","0","93584","","","","","","","","","","","","","","","","","","","","","",""
"","instructions","","instructions","1","31412","0.0-1.0-0.0-0.0","0","0","93584","[{""page_index"":0,""viewing_time"":4917},{""page_index"":1,""viewing_time"":11687},{""page_index"":2,""viewing_time"":5461},{""page_index"":3,""viewing_time"":1236}]","23301","","","","","","","","","","","","","","","","","","","",""
"","comprehension_check","","survey-multi-choice","2","50740","0.0-1.0-0.0-1.0","0","0","93584","","19325","{""Q0"":""True"",""Q1"":""D"",""Q2"":""Only when the screen 'MAKE A CHOICE' is shown"",""Q3"":""Green mark"",""Q4"":""either D or K""}","1","","","","","","","","","","","","","","","","","",""
"","missed_instruction_checkup","","html-keyboard-response","3","52412","0.0-1.0-0.0-2.0-0.0","0","1","93584","","1670","","","32","","","","","","","","","","","","","","","","",""
"","instructions","","instructions","4","57610","0.0-1.0-0.1-0.1","0","0","93584","[{""page_index"":0,""viewing_time"":1486},{""page_index"":1,""viewing_time"":2536},{""page_index"":2,""viewing_time"":638},{""page_index"":3,""viewing_time"":536}]","5196","","","","","","","","","","","","","","","","","","","",""
"","comprehension_check","","survey-multi-choice","5","65449","0.0-1.0-0.1-1.1","0","0","93584","","7836","{""Q0"":""True"",""Q1"":""D"",""Q2"":""Once the second image appears and while the screen 'MAKE A CHOICE' is shown"",""Q3"":""Green mark"",""Q4"":""either D or K""}","0","","","","","","","","","","","","","","","","","",""
"","start_exp","","html-keyboard-response","6","66494","0.0-1.0-1.0","0","0","93584","","1042","","","32","","","","","","","","","","","","","","","","",""
"","S1","","html-keyboard-response","7","66753","0.0-1.0-2.0","0","0","93584","","null","","","null","0","","","","","","","","","","","","","","","",""
"","ISI","","html-keyboard-response","8","68754","0.0-1.0-3.0","0","0","93584","","null","","","null","0","NaN","","","","","","","","","","","","","","",""
"","S2","","html-keyboard-response","9","69008","0.0-1.0-4.0","0","0","93584","","null","","","null","0","","NaN","","","","","","","","","","","","","",""
"","response","","html-keyboard-response","10","70070","0.0-1.0-5.0-0.0","0","0","93584","","1060","","","68","0","","","1","0","training","adjacent","GF","7","6","R.jpg","L.jpg","1","0","0","",""
"","feedback","","html-keyboard-response","11","71072","0.0-1.0-6.0-0.0","0","0","93584","","null","","","null","0","","","","","","","","","","","","","","","",""
"","time_out","","html-keyboard-response","12","73074","0.0-1.0-8.0-0.0","0","0","93584","","null","","","null","0","","","","","","","","","","","","","","","",""
"","ITI","","html-keyboard-response","13","74076","0.0-1.0-9.0","0","0","93584","","null","","","null","0","","","","","","","","","","","","","","","NaN",""
"","S1","","html-keyboard-response","14","74328","0.0-1.0-11.0","0","0","93584","","null","","","null","1","","","","","","","","","","","","","","","",""
"","ISI","","html-keyboard-response","15","76329","0.0-1.0-12.0","0","0","93584","","845","","","75","1","k","","","","","","","","","","","","","","",""
"","S2","","html-keyboard-response","16","76581","0.0-1.0-13.0","0","0","93584","","null","","","null","1","","NaN","","","","","","","","","","","","","",""
"","response","","html-keyboard-response","17","77366","0.0-1.0-14.0-0.0","0","0","93584","","783","","","68","1","","","1","1","training","adjacent","FE","6","5","L.jpg","O.jpg","1","0","0","",""
"","feedback","","html-keyboard-response","18","78368","0.0-1.0-15.0-0.0","0","0","93584","","null","","","null","1","","","","","","","","","","","","","","","",""
"","time_out","","html-keyboard-response","19","80370","0.0-1.0-17.0-0.0","0","0","93584","","null","","","null","1","","","","","","","","","","","","","","","",""
"","ITI","","html-keyboard-response","20","81380","0.0-1.0-18.0","0","0","93584","","null","","","null","1","","","","","","","","","","","","","","","NaN",""
"","S1","","html-keyboard-response","21","81632","0.0-1.0-20.0","0","0","93584","","null","","","null","2","","","","","","","","","","","","","","","",""
"","ISI","","html-keyboard-response","22","83633","0.0-1.0-21.0","0","0","93584","","null","","","null","2","NaN","","","","","","","","","","","","","","",""
"","S2","","html-keyboard-response","23","83886","0.0-1.0-22.0","0","0","93584","","null","","","null","2","","NaN","","","","","","","","","","","","","",""
"","response","","html-keyboard-response","24","85535","0.0-1.0-23.0-0.0","0","0","93584","","1648","","","75","2","","","1","2","training","adjacent","GF","7","6","R.jpg","L.jpg","0","0","1","",""
"","feedback","","html-keyboard-response","25","86537","0.0-1.0-24.0-0.0","0","0","93584","","null","","","null","2","","","","","","","","","","","","","","","",""
"","ITI","","html-keyboard-response","26","87539","0.0-1.0-27.0","0","0","93584","","null","","","null","2","","","","","","","","","","","","","","","NaN",""
"","S1","","html-keyboard-response","27","87792","0.0-1.0-29.0","0","0","93584","","null","","","null","3","","","","","","","","","","","","","","","",""
"","ISI","","html-keyboard-response","28","89794","0.0-1.0-30.0","0","0","93584","","null","","","null","3","NaN","","","","","","","","","","","","","","",""
"","S2","","html-keyboard-response","29","90047","0.0-1.0-31.0","0","0","93584","","null","","","null","3","","NaN","","","","","","","","","","","","","",""
"","response","","html-keyboard-response","30","90815","0.0-1.0-32.0-0.0","0","0","93584","","768","","","68","3","","","1","3","training","adjacent","CB","3","2","M.jpg","Q.jpg","1","0","0","",""
"","feedback","","html-keyboard-response","31","91817","0.0-1.0-33.0-0.0","0","0","93584","","null","","","null","3","","","","","","","","","","","","","","","",""
"","time_out","","html-keyboard-response","32","93818","0.0-1.0-35.0-0.0","0","0","93584","","null","","","null","3","","","","","","","","","","","","","","","",""
"","ITI","","html-keyboard-response","33","94820","0.0-1.0-36.0","0","0","93584","","null","","","null","3","","","","","","","","","","","","","","","NaN",""
"","S1","","html-keyboard-response","34","95072","0.0-1.0-38.0","0","0","93584","","null","","","null","4","","","","","","","","","","","","","","","",""
"","ISI","","html-keyboard-response","35","97074","0.0-1.0-39.0","0","0","93584","","null","","","null","4","NaN","","","","","","","","","","","","","","",""
"","S2","","html-keyboard-response","36","97326","0.0-1.0-40.0","0","0","93584","","null","","","null","4","","NaN","","","","","","","","","","","","","",""
"","response","","html-keyboard-response","37","97905","0.0-1.0-41.0-0.0","0","0","93584","","578","","","68","4","","","1","4","training","adjacent","FG","6","7","L.jpg","R.jpg","1","1","1","",""
"","feedback","","html-keyboard-response","38","98907","0.0-1.0-42.0-0.0","0","0","93584","","null","","","null","4","","","","","","","","","","","","","","","",""
"","ITI","","html-keyboard-response","39","99909","0.0-1.0-45.0","0","0","93584","","null","","","null","4","","","","","","","","","","","","","","","NaN",""
"","S1","","html-keyboard-response","40","100161","0.0-1.0-47.0","0","0","93584","","null","","","null","5","","","","","","","","","","","","","","","",""
"","ISI","","html-keyboard-response","41","102162","0.0-1.0-48.0","0","0","93584","","null","","","null","5","NaN","","","","","","","","","","","","","","",""
"","S2","","html-keyboard-response","42","102414","0.0-1.0-49.0","0","0","93584","","null","","","null","5","","NaN","","","","","","","","","","","","","",""
"","response","","html-keyboard-response","43","103057","0.0-1.0-50.0-0.0","0","0","93584","","641","","","75","5","","","1","5","training","adjacent","ED","5","4","O.jpg","P.jpg","0","0","1","",""
"","feedback","","html-keyboard-response","44","104060","0.0-1.0-51.0-0.0","0","0","93584","","null","","","null","5","","","","","","","","","","","","","","","",""
"","ITI","","html-keyboard-response","45","105062","0.0-1.0-54.0","0","0","93584","","null","","","null","5","","","","","","","","","","","","","","","NaN",""
"","S1","","html-keyboard-response","46","105314","0.0-1.0-56.0","0","0","93584","","null","","","null","6","","","","","","","","","","","","","","","",""
"","ISI","","html-keyboard-response","47","107316","0.0-1.0-57.0","0","0","93584","","null","","","null","6","NaN","","","","","","","","","","","","","","",""
"","S2","","html-keyboard-response","48","107575","0.0-1.0-58.0","0","0","93584","","null","","","null","6","","NaN","","","","","","","","","","","","","",""
"","response","","html-keyboard-response","49","108266","0.0-1.0-59.0-0.0","0","0","93584","","690","","","75","6","","","1","6","training","adjacent","CD","3","4","M.jpg","P.jpg","0","1","0","",""
"","feedback","","html-keyboard-response","50","109268","0.0-1.0-60.0-0.0","0","0","93584","","null","","","null","6","","","","","","","","","","","","","","","",""
"","time_out","","html-keyboard-response","51","111270","0.0-1.0-62.0-0.0","0","0","93584","","null","","","null","6","","","","","","","","","","","","","","","",""
"","ITI","","html-keyboard-response","52","112272","0.0-1.0-63.0","0","0","93584","","null","","","null","6","","","","","","","","","","","","","","","NaN",""
"","S1","","html-keyboard-response","53","112524","0.0-1.0-65.0","0","0","93584","","null","","","null","7","","","","","","","","","","","","","","","",""
"","ISI","","html-keyboard-response","54","114527","0.0-1.0-66.0","0","0","93584","","null","","","null","7","NaN","","","","","","","","","","","","","","",""
"","S2","","html-keyboard-response","55","114778","0.0-1.0-67.0","0","0","93584","","null","","","null","7","","NaN","","","","","","","","","","","","","",""
"","response","","html-keyboard-response","56","115506","0.0-1.0-68.0-0.0","0","0","93584","","727","","","75","7","","","1","7","training","adjacent","CD","3","4","M.jpg","P.jpg","0","1","0","",""
"","feedback","","html-keyboard-response","57","116508","0.0-1.0-69.0-0.0","0","0","93584","","null","","","null","7","","","","","","","","","","","","","","","",""
"","time_out","","html-keyboard-response","58","118511","0.0-1.0-71.0-0.0","0","0","93584","","null","","","null","7","","","","","","","","","","","","","","","",""
"","ITI","","html-keyboard-response","59","119514","0.0-1.0-72.0","0","0","93584","","null","","","null","7","","","","","","","","","","","","","","","NaN",""
"","S1","","html-keyboard-response","60","119766","0.0-1.0-74.0","0","0","93584","","null","","","null","8","","","","","","","","","","","","","","","",""
"","ISI","","html-keyboard-response","61","121768","0.0-1.0-75.0","0","0","93584","","null","","","null","8","NaN","","","","","","","","","","","","","","",""
"","S2","","html-keyboard-response","62","122020","0.0-1.0-76.0","0","0","93584","","null","","","null","8","","NaN","","","","","","","","","","","","","",""
"","response","","html-keyboard-response","63","122819","0.0-1.0-77.0-0.0","0","0","93584","","797","","","68","8","","","1","8","training","adjacent","BC","2","3","Q.jpg","M.jpg","1","1","1","",""
"","feedback","","html-keyboard-response","64","123821","0.0-1.0-78.0-0.0","0","0","93584","","null","","","null","8","","","","","","","","","","","","","","","",""
"","ITI","","html-keyboard-response","65","124824","0.0-1.0-81.0","0","0","93584","","null","","","null","8","","","","","","","","","","","","","","","NaN",""
"","S1","","html-keyboard-response","66","125077","0.0-1.0-83.0","0","0","93584","","null","","","null","9","","","","","","","","","","","","","","","",""
"","ISI","","html-keyboard-response","67","127079","0.0-1.0-84.0","0","0","93584","","null","","","null","9","NaN","","","","","","","","","","","","","","",""
"","S2","","html-keyboard-response","68","127331","0.0-1.0-85.0","0","0","93584","","null","","","null","9","","NaN","","","","","","","","","","","","","",""
"","response","","html-keyboard-response","69","127876","0.0-1.0-86.0-0.0","0","0","93584","","542","","","68","9","","","1","9","training","adjacent","ED","5","4","O.jpg","P.jpg","1","0","0","",""
"","feedback","","html-keyboard-response","70","128878","0.0-1.0-87.0-0.0","0","0","93584","","null","","","null","9","","","","","","","","","","","","","","","",""
"","time_out","","html-keyboard-response","71","130880","0.0-1.0-89.0-0.0","0","0","93584","","null","","","null","9","","","","","","","","","","","","","","","",""
"","ITI","","html-keyboard-response","72","131882","0.0-1.0-90.0","0","0","93584","","null","","","null","9","","","","","","","","","","","","","","","NaN",""
"","S1","","html-keyboard-response","73","132134","0.0-1.0-92.0","0","0","93584","","null","","","null","10","","","","","","","","","","","","","","","",""
"","ISI","","html-keyboard-response","74","134136","0.0-1.0-93.0","0","0","93584","","null","","","null","10","NaN","","","","","","","","","","","","","","",""
"","S2","","html-keyboard-response","75","134388","0.0-1.0-94.0","0","0","93584","","null","","","null","10","","NaN","","","","","","","","","","","","","",""
"","response","","html-keyboard-response","76","134860","0.0-1.0-95.0-0.0","0","0","93584","","470","","","68","10","","","1","10","training","adjacent","BC","2","3","Q.jpg","M.jpg","1","1","1","",""
"","feedback","","html-keyboard-response","77","135862","0.0-1.0-96.0-0.0","0","0","93584","","null","","","null","10","","","","","","","","","","","","","","","",""
"","ITI","","html-keyboard-response","78","136864","0.0-1.0-99.0","0","0","93584","","null","","","null","10","","","","","","","","","","","","","","","NaN",""
"","S1","","html-keyboard-response","79","137117","0.0-1.0-101.0","0","0","93584","","null","","","null","11","","","","","","","","","","","","","","","",""
"","ISI","","html-keyboard-response","80","139119","0.0-1.0-102.0","0","0","93584","","null","","","null","11","NaN","","","","","","","","","","","","","","",""
"","S2","","html-keyboard-response","81","139371","0.0-1.0-103.0","0","0","93584","","null","","","null","11","","NaN","","","","","","","","","","","","","",""
"","response","","html-keyboard-response","82","140173","0.0-1.0-104.0-0.0","0","0","93584","","801","","","75","11","","","1","11","training","adjacent","DC","4","3","P.jpg","M.jpg","0","0","1","",""
"","feedback","","html-keyboard-response","83","141175","0.0-1.0-105.0-0.0","0","0","93584","","null","","","null","11","","","","","","","","","","","","","","","",""
"","ITI","","html-keyboard-response","84","142177","0.0-1.0-108.0","0","0","93584","","null","","","null","11","","","","","","","","","","","","","","","NaN",""
"","S1","","html-keyboard-response","85","142429","0.0-1.0-110.0","0","0","93584","","null","","","null","12","","","","","","","","","","","","","","","",""
"","ISI","","html-keyboard-response","86","144431","0.0-1.0-111.0","0","0","93584","","null","","","null","12","NaN","","","","","","","","","","","","","","",""
"","S2","","html-keyboard-response","87","144683","0.0-1.0-112.0","0","0","93584","","null","","","null","12","","NaN","","","","","","","","","","","","","",""
"","response","","html-keyboard-response","88","145133","0.0-1.0-113.0-0.0","0","0","93584","","449","","","68","12","","","1","12","training","adjacent","FG","6","7","L.jpg","R.jpg","1","1","1","",""
"","feedback","","html-keyboard-response","89","146135","0.0-1.0-114.0-0.0","0","0","93584","","null","","","null","12","","","","","","","","","","","","","","","",""
"","ITI","","html-keyboard-response","90","147137","0.0-1.0-117.0","0","0","93584","","null","","","null","12","","","","","","","","","","","","","","","NaN",""
"","S1","","html-keyboard-response","91","147390","0.0-1.0-119.0","0","0","93584","","null","","","null","13","","","","","","","","","","","","","","","",""
"","ISI","","html-keyboard-response","92","149391","0.0-1.0-120.0","0","0","93584","","null","","","null","13","NaN","","","","","","","","","","","","","","",""
"","S2","","html-keyboard-response","93","149644","0.0-1.0-121.0","0","0","93584","","null","","","null","13","","NaN","","","","","","","","","","","","","",""
"","response","","html-keyboard-response","94","150382","0.0-1.0-122.0-0.0","0","0","93584","","737","","","75","13","","","1","13","training","adjacent","AB","1","2","N.jpg","Q.jpg","0","1","0","",""
"","feedback","","html-keyboard-response","95","151384","0.0-1.0-123.0-0.0","0","0","93584","","null","","","null","13","","","","","","","","","","","","","","","",""
"","time_out","","html-keyboard-response","96","153386","0.0-1.0-125.0-0.0","0","0","93584","","null","","","null","13","","","","","","","","","","","","","","","",""
"","ITI","","html-keyboard-response","97","154389","0.0-1.0-126.0","0","0","93584","","null","","","null","13","","","","","","","","","","","","","","","NaN",""
"","S1","","html-keyboard-response","98","154642","0.0-1.0-128.0","0","0","93584","","null","","","null","14","","","","","","","","","","","","","","","",""
"","ISI","","html-keyboard-response","99","156644","0.0-1.0-129.0","0","0","93584","","null","","","null","14","NaN","","","","","","","","","","","","","","",""
"","S2","","html-keyboard-response","100","156897","0.0-1.0-130.0","0","0","93584","","null","","","null","14","","NaN","","","","","","","","","","","","","",""
"","response","","html-keyboard-response","101","157879","0.0-1.0-131.0-0.0","0","0","93584","","981","","","75","14","","","1","14","training","adjacent","CD","3","4","M.jpg","P.jpg","0","1","0","",""
"","feedback","","html-keyboard-response","102","158880","0.0-1.0-132.0-0.0","0","0","93584","","null","","","null","14","","","","","","","","","","","","","","","",""
"","time_out","","html-keyboard-response","103","160883","0.0-1.0-134.0-0.0","0","0","93584","","null","","","null","14","","","","","","","","","","","","","","","",""
"","ITI","","html-keyboard-response","104","161885","0.0-1.0-135.0","0","0","93584","","null","","","null","14","","","","","","","","","","","","","","","NaN",""
"","S1","","html-keyboard-response","105","162138","0.0-1.0-137.0","0","0","93584","","null","","","null","15","","","","","","","","","","","","","","","",""
"","ISI","","html-keyboard-response","106","164140","0.0-1.0-138.0","0","0","93584","","null","","","null","15","NaN","","","","","","","","","","","","","","",""
"","S2","","html-keyboard-response","107","164393","0.0-1.0-139.0","0","0","93584","","null","","","null","15","","NaN","","","","","","","","","","","","","",""
"","response","","html-keyboard-response","108","164728","0.0-1.0-140.0-0.0","0","0","93584","","332","","","68","15","","","1","15","training","adjacent","BA","2","1","Q.jpg","N.jpg","1","0","0","",""
"","feedback","","html-keyboard-response","109","165736","0.0-1.0-141.0-0.0","0","0","93584","","null","","","null","15","","","","","","","","","","","","","","","",""
"","time_out","","html-keyboard-response","110","167739","0.0-1.0-143.0-0.0","0","0","93584","","null","","","null","15","","","","","","","","","","","","","","","",""
"","ITI","","html-keyboard-response","111","168741","0.0-1.0-144.0","0","0","93584","","null","","","null","15","","","","","","","","","","","","","","","NaN",""
"","S1","","html-keyboard-response","112","168993","0.0-1.0-146.0","0","0","93584","","null","","","null","16","","","","","","","","","","","","","","","",""
"","ISI","","html-keyboard-response","113","170995","0.0-1.0-147.0","0","0","93584","","null","","","null","16","NaN","","","","","","","","","","","","","","",""
"","S2","","html-keyboard-response","114","171247","0.0-1.0-148.0","0","0","93584","","null","","","null","16","","NaN","","","","","","","","","","","","","",""
"","response","","html-keyboard-response","115","172392","0.0-1.0-149.0-0.0","0","0","93584","","1143","","","75","16","","","1","16","training","adjacent","EF","5","6","O.jpg","L.jpg","0","1","0","",""
"","feedback","","html-keyboard-response","116","173394","0.0-1.0-150.0-0.0","0","0","93584","","null","","","null","16","","","","","","","","","","","","","","","",""
"","time_out","","html-keyboard-response","117","175396","0.0-1.0-152.0-0.0","0","0","93584","","null","","","null","16","","","","","","","","","","","","","","","",""
"","ITI","","html-keyboard-response","118","176409","0.0-1.0-153.0","0","0","93584","","null","","","null","16","","","","","","","","","","","","","","","NaN",""
"","S1","","html-keyboard-response","119","176663","0.0-1.0-155.0","0","0","93584","","null","","","null","17","","","","","","","","","","","","","","","",""
"","ISI","","html-keyboard-response","120","178665","0.0-1.0-156.0","0","0","93584","","null","","","null","17","NaN","","","","","","","","","","","","","","",""
"","S2","","html-keyboard-response","121","178918","0.0-1.0-157.0","0","0","93584","","null","","","null","17","","NaN","","","","","","","","","","","","","",""
"","response","","html-keyboard-response","122","179641","0.0-1.0-158.0-0.0","0","0","93584","","722","","","68","17","","","1","17","training","adjacent","GF","7","6","R.jpg","L.jpg","1","0","0","",""
"","feedback","","html-keyboard-response","123","180643","0.0-1.0-159.0-0.0","0","0","93584","","null","","","null","17","","","","","","","","","","","","","","","",""
"","time_out","","html-keyboard-response","124","182645","0.0-1.0-161.0-0.0","0","0","93584","","null","","","null","17","","","","","","","","","","","","","","","",""
"","ITI","","html-keyboard-response","125","183647","0.0-1.0-162.0","0","0","93584","","null","","","null","17","","","","","","","","","","","","","","","NaN",""
"","S1","","html-keyboard-response","126","183899","0.0-1.0-164.0","0","0","93584","","null","","","null","18","","","","","","","","","","","","","","","",""
"","ISI","","html-keyboard-response","127","185901","0.0-1.0-165.0","0","0","93584","","null","","","null","18","NaN","","","","","","","","","","","","","","",""
"","S2","","html-keyboard-response","128","186154","0.0-1.0-166.0","0","0","93584","","null","","","null","18","","NaN","","","","","","","","","","","","","",""
"","response","","html-keyboard-response","129","186650","0.0-1.0-167.0-0.0","0","0","93584","","495","","","68","18","","","1","18","training","adjacent","DC","4","3","P.jpg","M.jpg","1","0","0","",""
"","feedback","","html-keyboard-response","130","187653","0.0-1.0-168.0-0.0","0","0","93584","","null","","","null","18","","","","","","","","","","","","","","","",""
"","time_out","","html-keyboard-response","131","189655","0.0-1.0-170.0-0.0","0","0","93584","","null","","","null","18","","","","","","","","","","","","","","","",""
"","ITI","","html-keyboard-response","132","190657","0.0-1.0-171.0","0","0","93584","","null","","","null","18","","","","","","","","","","","","","","","NaN",""
"","S1","","html-keyboard-response","133","190909","0.0-1.0-173.0","0","0","93584","","null","","","null","19","","","","","","","","","","","","","","","",""
"","ISI","","html-keyboard-response","134","192911","0.0-1.0-174.0","0","0","93584","","null","","","null","19","NaN","","","","","","","","","","","","","","",""
"","S2","","html-keyboard-response","135","193163","0.0-1.0-175.0","0","0","93584","","null","","","null","19","","NaN","","","","","","","","","","","","","",""
"","response","","html-keyboard-response","136","193787","0.0-1.0-176.0-0.0","0","0","93584","","622","","","75","19","","","1","19","training","adjacent","GF","7","6","R.jpg","L.jpg","0","0","1","",""
"","feedback","","html-keyboard-response","137","194789","0.0-1.0-177.0-0.0","0","0","93584","","null","","","null","19","","","","","","","","","","","","","","","",""
"","ITI","","html-keyboard-response","138","195792","0.0-1.0-180.0","0","0","93584","","null","","","null","19","","","","","","","","","","","","","","","NaN",""
"","S1","","html-keyboard-response","139","196044","0.0-1.0-182.0","0","0","93584","","null","","","null","20","","","","","","","","","","","","","","","",""
"","ISI","","html-keyboard-response","140","198045","0.0-1.0-183.0","0","0","93584","","null","","","null","20","NaN","","","","","","","","","","","","","","",""
"","S2","","html-keyboard-response","141","198298","0.0-1.0-184.0","0","0","93584","","null","","","null","20","","NaN","","","","","","","","","","","","","",""
"","response","","html-keyboard-response","142","198963","0.0-1.0-185.0-0.0","0","0","93584","","664","","","75","20","","","1","20","training","adjacent","FE","6","5","L.jpg","O.jpg","0","0","1","",""
"","feedback","","html-keyboard-response","143","199965","0.0-1.0-186.0-0.0","0","0","93584","","null","","","null","20","","","","","","","","","","","","","","","",""
"","ITI","","html-keyboard-response","144","200968","0.0-1.0-189.0","0","0","93584","","null","","","null","20","","","","","","","","","","","","","","","NaN",""
"","S1","","html-keyboard-response","145","201220","0.0-1.0-191.0","0","0","93584","","null","","","null","21","","","","","","","","","","","","","","","",""
"","ISI","","html-keyboard-response","146","203222","0.0-1.0-192.0","0","0","93584","","null","","","null","21","NaN","","","","","","","","","","","","","","",""
"","S2","","html-keyboard-response","147","203475","0.0-1.0-193.0","0","0","93584","","null","","","null","21","","NaN","","","","","","","","","","","","","",""
"","response","","html-keyboard-response","148","204140","0.0-1.0-194.0-0.0","0","0","93584","","663","","","68","21","","","1","21","training","adjacent","DE","4","5","P.jpg","O.jpg","1","1","1","",""
"","feedback","","html-keyboard-response","149","205142","0.0-1.0-195.0-0.0","0","0","93584","","null","","","null","21","","","","","","","","","","","","","","","",""
"","ITI","","html-keyboard-response","150","206145","0.0-1.0-198.0","0","0","93584","","null","","","null","21","","","","","","","","","","","","","","","NaN",""
"","S1","","html-keyboard-response","151","206397","0.0-1.0-200.0","0","0","93584","","null","","","null","22","","","","","","","","","","","","","","","",""
"","ISI","","html-keyboard-response","152","208399","0.0-1.0-201.0","0","0","93584","","null","","","null","22","NaN","","","","","","","","","","","","","","",""
"","S2","","html-keyboard-response","153","208651","0.0-1.0-202.0","0","0","93584","","null","","","null","22","","NaN","","","","","","","","","","","","","",""
"","response","","html-keyboard-response","154","209476","0.0-1.0-203.0-0.0","0","0","93584","","824","","","68","22","","","1","22","training","adjacent","BC","2","3","Q.jpg","M.jpg","1","1","1","",""
"","feedback","","html-keyboard-response","155","210479","0.0-1.0-204.0-0.0","0","0","93584","","null","","","null","22","","","","","","","","","","","","","","","",""
"","ITI","","html-keyboard-response","156","211482","0.0-1.0-207.0","0","0","93584","","null","","","null","22","","","","","","","","","","","","","","","NaN",""
"","S1","","html-keyboard-response","157","211733","0.0-1.0-209.0","0","0","93584","","null","","","null","23","","","","","","","","","","","","","","","",""
"","ISI","","html-keyboard-response","158","213736","0.0-1.0-210.0","0","0","93584","","null","","","null","23","NaN","","","","","","","","","","","","","","",""
"","S2","","html-keyboard-response","159","213998","0.0-1.0-211.0","0","0","93584","","null","","","null","23","","NaN","","","","","","","","","","","","","",""
"","response","","html-keyboard-response","160","214454","0.0-1.0-212.0-0.0","0","0","93584","","454","","","68","23","","","1","23","training","adjacent","BC","2","3","Q.jpg","M.jpg","1","1","1","",""
"","feedback","","html-keyboard-response","161","215456","0.0-1.0-213.0-0.0","0","0","93584","","null","","","null","23","","","","","","","","","","","","","","","",""
"","ITI","","html-keyboard-response","162","216459","0.0-1.0-216.0","0","0","93584","","null","","","null","23","","","","","","","","","","","","","","","NaN",""
"","S1","","html-keyboard-response","163","216711","0.0-1.0-218.0","0","0","93584","","null","","","null","24","","","","","","","","","","","","","","","",""
"","ISI","","html-keyboard-response","164","218713","0.0-1.0-219.0","0","0","93584","","null","","","null","24","NaN","","","","","","","","","","","","","","",""
"","S2","","html-keyboard-response","165","218966","0.0-1.0-220.0","0","0","93584","","null","","","null","24","","NaN","","","","","","","","","","","","","",""
"","response","","html-keyboard-response","166","219861","0.0-1.0-221.0-0.0","0","0","93584","","893","","","68","24","","","1","24","training","adjacent","ED","5","4","O.jpg","P.jpg","1","0","0","",""
"","feedback","","html-keyboard-response","167","220863","0.0-1.0-222.0-0.0","0","0","93584","","null","","","null","24","","","","","","","","","","","","","","","",""
"","time_out","","html-keyboard-response","168","222866","0.0-1.0-224.0-0.0","0","0","93584","","null","","","null","24","","","","","","","","","","","","","","","",""
"","ITI","","html-keyboard-response","169","223868","0.0-1.0-225.0","0","0","93584","","null","","","null","24","","","","","","","","","","","","","","","NaN",""
"","S1","","html-keyboard-response","170","224121","0.0-1.0-227.0","0","0","93584","","null","","","null","25","","","","","","","","","","","","","","","",""
"","ISI","","html-keyboard-response","171","226123","0.0-1.0-228.0","0","0","93584","","null","","","null","25","NaN","","","","","","","","","","","","","","",""
"","S2","","html-keyboard-response","172","226375","0.0-1.0-229.0","0","0","93584","","null","","","null","25","","NaN","","","","","","","","","","","","","",""
"","response","","html-keyboard-response","173","226886","0.0-1.0-230.0-0.0","0","0","93584","","510","","","75","25","","","1","25","training","adjacent","CB","3","2","M.jpg","Q.jpg","0","0","1","",""
"","feedback","","html-keyboard-response","174","227889","0.0-1.0-231.0-0.0","0","0","93584","","null","","","null","25","","","","","","","","","","","","","","","",""
"","ITI","","html-keyboard-response","175","228903","0.0-1.0-234.0","0","0","93584","","null","","","null","25","","","","","","","","","","","","","","","NaN",""
"","S1","","html-keyboard-response","176","229156","0.0-1.0-236.0","0","0","93584","","null","","","null","26","","","","","","","","","","","","","","","",""
"","ISI","","html-keyboard-response","177","231159","0.0-1.0-237.0","0","0","93584","","null","","","null","26","NaN","","","","","","","","","","","","","","",""
"","S2","","html-keyboard-response","178","231411","0.0-1.0-238.0","0","0","93584","","null","","","null","26","","NaN","","","","","","","","","","","","","",""
"","response","","html-keyboard-response","179","232143","0.0-1.0-239.0-0.0","0","0","93584","","731","","","75","26","","","1","26","training","adjacent","AB","1","2","N.jpg","Q.jpg","0","1","0","",""
"","feedback","","html-keyboard-response","180","233145","0.0-1.0-240.0-0.0","0","0","93584","","null","","","null","26","","","","","","","","","","","","","","","",""
"","time_out","","html-keyboard-response","181","235147","0.0-1.0-242.0-0.0","0","0","93584","","null","","","null","26","","","","","","","","","","","","","","","",""
"","ITI","","html-keyboard-response","182","236150","0.0-1.0-243.0","0","0","93584","","null","","","null","26","","","","","","","","","","","","","","","NaN",""
"","S1","","html-keyboard-response","183","236403","0.0-1.0-245.0","0","0","93584","","null","","","null","27","","","","","","","","","","","","","","","",""
"","ISI","","html-keyboard-response","184","238405","0.0-1.0-246.0","0","0","93584","","null","","","null","27","NaN","","","","","","","","","","","","","","",""
"","S2","","html-keyboard-response","185","238657","0.0-1.0-247.0","0","0","93584","","null","","","null","27","","NaN","","","","","","","","","","","","","",""
"","response","","html-keyboard-response","186","239328","0.0-1.0-248.0-0.0","0","0","93584","","669","","","75","27","","","1","27","training","adjacent","EF","5","6","O.jpg","L.jpg","0","1","0","",""
"","feedback","","html-keyboard-response","187","240330","0.0-1.0-249.0-0.0","0","0","93584","","null","","","null","27","","","","","","","","","","","","","","","",""
"","time_out","","html-keyboard-response","188","242332","0.0-1.0-251.0-0.0","0","0","93584","","null","","","null","27","","","","","","","","","","","","","","","",""
"","ITI","","html-keyboard-response","189","243333","0.0-1.0-252.0","0","0","93584","","null","","","null","27","","","","","","","","","","","","","","","NaN",""
"","S1","","html-keyboard-response","190","243586","0.0-1.0-254.0","0","0","93584","","null","","","null","28","","","","","","","","","","","","","","","",""
"","ISI","","html-keyboard-response","191","245588","0.0-1.0-255.0","0","0","93584","","null","","","null","28","NaN","","","","","","","","","","","","","","",""
"","S2","","html-keyboard-response","192","245840","0.0-1.0-256.0","0","0","93584","","null","","","null","28","","NaN","","","","","","","","","","","","","",""
"","response","","html-keyboard-response","193","246248","0.0-1.0-257.0-0.0","0","0","93584","","407","","","68","28","","","1","28","training","adjacent","DC","4","3","P.jpg","M.jpg","1","0","0","",""
"","feedback","","html-keyboard-response","194","247251","0.0-1.0-258.0-0.0","0","0","93584","","null","","","null","28","","","","","","","","","","","","","","","",""
"","time_out","","html-keyboard-response","195","249254","0.0-1.0-260.0-0.0","0","0","93584","","null","","","null","28","","","","","","","","","","","","","","","",""
"","ITI","","html-keyboard-response","196","250257","0.0-1.0-261.0","0","0","93584","","null","","","null","28","","","","","","","","","","","","","","","NaN",""
"","S1","","html-keyboard-response","197","250509","0.0-1.0-263.0","0","0","93584","","null","","","null","29","","","","","","","","","","","","","","","",""
"","ISI","","html-keyboard-response","198","252511","0.0-1.0-264.0","0","0","93584","","null","","","null","29","NaN","","","","","","","","","","","","","","",""
"","S2","","html-keyboard-response","199","252764","0.0-1.0-265.0","0","0","93584","","null","","","null","29","","NaN","","","","","","","","","","","","","",""
"","response","","html-keyboard-response","200","253074","0.0-1.0-266.0-0.0","0","0","93584","","309","","","68","29","","","1","29","training","adjacent","BA","2","1","Q.jpg","N.jpg","1","0","0","",""
"","feedback","","html-keyboard-response","201","254077","0.0-1.0-267.0-0.0","0","0","93584","","null","","","null","29","","","","","","","","","","","","","","","",""
"","time_out","","html-keyboard-response","202","256079","0.0-1.0-269.0-0.0","0","0","93584","","null","","","null","29","","","","","","","","","","","","","","","",""
"","ITI","","html-keyboard-response","203","257081","0.0-1.0-270.0","0","0","93584","","null","","","null","29","","","","","","","","","","","","","","","NaN",""
"","S1","","html-keyboard-response","204","257334","0.0-1.0-272.0","0","0","93584","","null","","","null","30","","","","","","","","","","","","","","","",""
"","ISI","","html-keyboard-response","205","259336","0.0-1.0-273.0","0","0","93584","","null","","","null","30","NaN","","","","","","","","","","","","","","",""
"","S2","","html-keyboard-response","206","259588","0.0-1.0-274.0","0","0","93584","","null","","","null","30","","NaN","","","","","","","","","","","","","",""
"","response","","html-keyboard-response","207","260098","0.0-1.0-275.0-0.0","0","0","93584","","508","","","68","30","","","1","30","training","adjacent","FE","6","5","L.jpg","O.jpg","1","0","0","",""
"","feedback","","html-keyboard-response","208","261101","0.0-1.0-276.0-0.0","0","0","93584","","null","","","null","30","","","","","","","","","","","","","","","",""
"","time_out","","html-keyboard-response","209","263103","0.0-1.0-278.0-0.0","0","0","93584","","null","","","null","30","","","","","","","","","","","","","","","",""
"","ITI","","html-keyboard-response","210","264106","0.0-1.0-279.0","0","0","93584","","null","","","null","30","","","","","","","","","","","","","","","NaN",""
"","S1","","html-keyboard-response","211","264366","0.0-1.0-281.0","0","0","93584","","null","","","null","31","","","","","","","","","","","","","","","",""
"","ISI","","html-keyboard-response","212","266368","0.0-1.0-282.0","0","0","93584","","null","","","null","31","NaN","","","","","","","","","","","","","","",""
"","S2","","html-keyboard-response","213","266619","0.0-1.0-283.0","0","0","93584","","null","","","null","31","","NaN","","","","","","","","","","","","","",""
"","response","","html-keyboard-response","214","267179","0.0-1.0-284.0-0.0","0","0","93584","","558","","","75","31","","","1","31","training","adjacent","DE","4","5","P.jpg","O.jpg","0","1","0","",""
"","feedback","","html-keyboard-response","215","268191","0.0-1.0-285.0-0.0","0","0","93584","","null","","","null","31","","","","","","","","","","","","","","","",""
"","time_out","","html-keyboard-response","216","270193","0.0-1.0-287.0-0.0","0","0","93584","","null","","","null","31","","","","","","","","","","","","","","","",""
"","ITI","","html-keyboard-response","217","271194","0.0-1.0-288.0","0","0","93584","","null","","","null","31","","","","","","","","","","","","","","","NaN",""
"","S1","","html-keyboard-response","218","271447","0.0-1.0-290.0","0","0","93584","","null","","","null","32","","","","","","","","","","","","","","","",""
"","ISI","","html-keyboard-response","219","273448","0.0-1.0-291.0","0","0","93584","","null","","","null","32","NaN","","","","","","","","","","","","","","",""
"","S2","","html-keyboard-response","220","273701","0.0-1.0-292.0","0","0","93584","","null","","","null","32","","NaN","","","","","","","","","","","","","",""
"","response","","html-keyboard-response","221","274100","0.0-1.0-293.0-0.0","0","0","93584","","398","","","68","32","","","1","32","training","adjacent","FG","6","7","L.jpg","R.jpg","1","1","1","",""
"","feedback","","html-keyboard-response","222","275103","0.0-1.0-294.0-0.0","0","0","93584","","null","","","null","32","","","","","","","","","","","","","","","",""
"","ITI","","html-keyboard-response","223","276105","0.0-1.0-297.0","0","0","93584","","null","","","null","32","","","","","","","","","","","","","","","NaN",""
"","S1","","html-keyboard-response","224","276357","0.0-1.0-299.0","0","0","93584","","null","","","null","33","","","","","","","","","","","","","","","",""
"","ISI","","html-keyboard-response","225","278358","0.0-1.0-300.0","0","0","93584","","null","","","null","33","NaN","","","","","","","","","","","","","","",""
"","S2","","html-keyboard-response","226","278611","0.0-1.0-301.0","0","0","93584","","null","","","null","33","","NaN","","","","","","","","","","","","","",""
"","response","","html-keyboard-response","227","279068","0.0-1.0-302.0-0.0","0","0","93584","","456","","","68","33","","","1","33","training","adjacent","FG","6","7","L.jpg","R.jpg","1","1","1","",""
"","feedback","","html-keyboard-response","228","280071","0.0-1.0-303.0-0.0","0","0","93584","","null","","","null","33","","","","","","","","","","","","","","","",""
"","ITI","","html-keyboard-response","229","281073","0.0-1.0-306.0","0","0","93584","","null","","","null","33","","","","","","","","","","","","","","","NaN",""
"","S1","","html-keyboard-response","230","281325","0.0-1.0-308.0","0","0","93584","","null","","","null","34","","","","","","","","","","","","","","","",""
"","ISI","","html-keyboard-response","231","283328","0.0-1.0-309.0","0","0","93584","","null","","","null","34","NaN","","","","","","","","","","","","","","",""
"","S2","","html-keyboard-response","232","283581","0.0-1.0-310.0","0","0","93584","","null","","","null","34","","NaN","","","","","","","","","","","","","",""
"","response","","html-keyboard-response","233","284893","0.0-1.0-311.0-0.0","0","0","93584","","1311","","","68","34","","","1","34","training","adjacent","FE","6","5","L.jpg","O.jpg","1","0","0","",""
"","feedback","","html-keyboard-response","234","285895","0.0-1.0-312.0-0.0","0","0","93584","","null","","","null","34","","","","","","","","","","","","","","","",""
"","time_out","","html-keyboard-response","235","287897","0.0-1.0-314.0-0.0","0","0","93584","","null","","","null","34","","","","","","","","","","","","","","","",""
"","ITI","","html-keyboard-response","236","288899","0.0-1.0-315.0","0","0","93584","","null","","","null","34","","","","","","","","","","","","","","","NaN",""
"","S1","","html-keyboard-response","237","289152","0.0-1.0-317.0","0","0","93584","","null","","","null","35","","","","","","","","","","","","","","","",""
"","ISI","","html-keyboard-response","238","291154","0.0-1.0-318.0","0","0","93584","","null","","","null","35","NaN","","","","","","","","","","","","","","",""
"","S2","","html-keyboard-response","239","291405","0.0-1.0-319.0","0","0","93584","","null","","","null","35","","NaN","","","","","","","","","","","","","",""
"","response","","html-keyboard-response","240","291980","0.0-1.0-320.0-0.0","0","0","93584","","574","","","75","35","","","1","35","training","adjacent","ED","5","4","O.jpg","P.jpg","0","0","1","",""
"","feedback","","html-keyboard-response","241","292983","0.0-1.0-321.0-0.0","0","0","93584","","null","","","null","35","","","","","","","","","","","","","","","",""
"","ITI","","html-keyboard-response","242","293997","0.0-1.0-324.0","0","0","93584","","null","","","null","35","","","","","","","","","","","","","","","NaN",""
"","S1","","html-keyboard-response","243","294249","0.0-1.0-326.0","0","0","93584","","null","","","null","36","","","","","","","","","","","","","","","",""
"","ISI","","html-keyboard-response","244","296252","0.0-1.0-327.0","0","0","93584","","null","","","null","36","NaN","","","","","","","","","","","","","","",""
"","S2","","html-keyboard-response","245","296506","0.0-1.0-328.0","0","0","93584","","null","","","null","36","","NaN","","","","","","","","","","","","","",""
"","response","","html-keyboard-response","246","297061","0.0-1.0-329.0-0.0","0","0","93584","","554","","","68","36","","","1","36","training","adjacent","BA","2","1","Q.jpg","N.jpg","1","0","0","",""
"","feedback","","html-keyboard-response","247","298063","0.0-1.0-330.0-0.0","0","0","93584","","null","","","null","36","","","","","","","","","","","","","","","",""
"","time_out","","html-keyboard-response","248","300065","0.0-1.0-332.0-0.0","0","0","93584","","null","","","null","36","","","","","","","","","","","","","","","",""
"","ITI","","html-keyboard-response","249","301068","0.0-1.0-333.0","0","0","93584","","null","","","null","36","","","","","","","","","","","","","","","NaN",""
"","S1","","html-keyboard-response","250","301320","0.0-1.0-335.0","0","0","93584","","null","","","null","37","","","","","","","","","","","","","","","",""
"","ISI","","html-keyboard-response","251","303322","0.0-1.0-336.0","0","0","93584","","null","","","null","37","NaN","","","","","","","","","","","","","","",""
"","S2","","html-keyboard-response","252","303574","0.0-1.0-337.0","0","0","93584","","null","","","null","37","","NaN","","","","","","","","","","","","","",""
"","response","","html-keyboard-response","253","304094","0.0-1.0-338.0-0.0","0","0","93584","","518","","","75","37","","","1","37","training","adjacent","BA","2","1","Q.jpg","N.jpg","0","0","1","",""
"","feedback","","html-keyboard-response","254","305097","0.0-1.0-339.0-0.0","0","0","93584","","null","","","null","37","","","","","","","","","","","","","","","",""
"","ITI","","html-keyboard-response","255","306100","0.0-1.0-342.0","0","0","93584","","null","","","null","37","","","","","","","","","","","","","","","NaN",""
"","S1","","html-keyboard-response","256","306353","0.0-1.0-344.0","0","0","93584","","null","","","null","38","","","","","","","","","","","","","","","",""
"","ISI","","html-keyboard-response","257","308355","0.0-1.0-345.0","0","0","93584","","null","","","null","38","NaN","","","","","","","","","","","","","","",""
"","S2","","html-keyboard-response","258","308607","0.0-1.0-346.0","0","0","93584","","null","","","null","38","","NaN","","","","","","","","","","","","","",""
"","response","","html-keyboard-response","259","309719","0.0-1.0-347.0-0.0","0","0","93584","","1110","","","75","38","","","1","38","training","adjacent","AB","1","2","N.jpg","Q.jpg","0","1","0","",""
"","feedback","","html-keyboard-response","260","310722","0.0-1.0-348.0-0.0","0","0","93584","","null","","","null","38","","","","","","","","","","","","","","","",""
"","time_out","","html-keyboard-response","261","312723","0.0-1.0-350.0-0.0","0","0","93584","","null","","","null","38","","","","","","","","","","","","","","","",""
"","ITI","","html-keyboard-response","262","313726","0.0-1.0-351.0","0","0","93584","","null","","","null","38","","","","","","","","","","","","","","","NaN",""
"","S1","","html-keyboard-response","263","313978","0.0-1.0-353.0","0","0","93584","","null","","","null","39","","","","","","","","","","","","","","","",""
"","ISI","","html-keyboard-response","264","315980","0.0-1.0-354.0","0","0","93584","","null","","","null","39","NaN","","","","","","","","","","","","","","",""
"","S2","","html-keyboard-response","265","316234","0.0-1.0-355.0","0","0","93584","","null","","","null","39","","NaN","","","","","","","","","","","","","",""
"","response","","html-keyboard-response","266","316959","0.0-1.0-356.0-0.0","0","0","93584","","724","","","75","39","","","1","39","training","adjacent","DE","4","5","P.jpg","O.jpg","0","1","0","",""
"","feedback","","html-keyboard-response","267","317962","0.0-1.0-357.0-0.0","0","0","93584","","null","","","null","39","","","","","","","","","","","","","","","",""
"","time_out","","html-keyboard-response","268","319964","0.0-1.0-359.0-0.0","0","0","93584","","null","","","null","39","","","","","","","","","","","","","","","",""
"","ITI","","html-keyboard-response","269","320966","0.0-1.0-360.0","0","0","93584","","null","","","null","39","","","","","","","","","","","","","","","NaN",""
"","S1","","html-keyboard-response","270","321218","0.0-1.0-362.0","0","0","93584","","null","","","null","40","","","","","","","","","","","","","","","",""
"","ISI","","html-keyboard-response","271","323220","0.0-1.0-363.0","0","0","93584","","null","","","null","40","NaN","","","","","","","","","","","","","","",""
"","S2","","html-keyboard-response","272","323473","0.0-1.0-364.0","0","0","93584","","null","","","null","40","","NaN","","","","","","","","","","","","","",""
"","response","","html-keyboard-response","273","324497","0.0-1.0-365.0-0.0","0","0","93584","","1021","","","68","40","","","1","40","training","adjacent","CB","3","2","M.jpg","Q.jpg","1","0","0","",""
"","feedback","","html-keyboard-response","274","325499","0.0-1.0-366.0-0.0","0","0","93584","","null","","","null","40","","","","","","","","","","","","","","","",""
"","time_out","","html-keyboard-response","275","327501","0.0-1.0-368.0-0.0","0","0","93584","","null","","","null","40","","","","","","","","","","","","","","","",""
"","ITI","","html-keyboard-response","276","328504","0.0-1.0-369.0","0","0","93584","","null","","","null","40","","","","","","","","","","","","","","","NaN",""
"","S1","","html-keyboard-response","277","328756","0.0-1.0-371.0","0","0","93584","","null","","","null","41","","","","","","","","","","","","","","","",""
"","ISI","","html-keyboard-response","278","330759","0.0-1.0-372.0","0","0","93584","","null","","","null","41","NaN","","","","","","","","","","","","","","",""
"","S2","","html-keyboard-response","279","331012","0.0-1.0-373.0","0","0","93584","","null","","","null","41","","NaN","","","","","","","","","","","","","",""
"","response","","html-keyboard-response","280","331456","0.0-1.0-374.0-0.0","0","0","93584","","444","","","75","41","","","1","41","training","adjacent","DC","4","3","P.jpg","M.jpg","0","0","1","",""
"","feedback","","html-keyboard-response","281","332474","0.0-1.0-375.0-0.0","0","0","93584","","null","","","null","41","","","","","","","","","","","","","","","",""
"","ITI","","html-keyboard-response","282","333477","0.0-1.0-378.0","0","0","93584","","null","","","null","41","","","","","","","","","","","","","","","NaN",""
"","S1","","html-keyboard-response","283","333729","0.0-1.0-380.0","0","0","93584","","null","","","null","42","","","","","","","","","","","","","","","",""
"","ISI","","html-keyboard-response","284","335732","0.0-1.0-381.0","0","0","93584","","null","","","null","42","NaN","","","","","","","","","","","","","","",""
"","S2","","html-keyboard-response","285","335985","0.0-1.0-382.0","0","0","93584","","null","","","null","42","","NaN","","","","","","","","","","","","","",""
"","response","","html-keyboard-response","286","336561","0.0-1.0-383.0-0.0","0","0","93584","","574","","","75","42","","","1","42","training","adjacent","DE","4","5","P.jpg","O.jpg","0","1","0","",""
"","feedback","","html-keyboard-response","287","337564","0.0-1.0-384.0-0.0","0","0","93584","","null","","","null","42","","","","","","","","","","","","","","","",""
"","time_out","","html-keyboard-response","288","339567","0.0-1.0-386.0-0.0","0","0","93584","","null","","","null","42","","","","","","","","","","","","","","","",""
"","ITI","","html-keyboard-response","289","340570","0.0-1.0-387.0","0","0","93584","","null","","","null","42","","","","","","","","","","","","","","","NaN",""
"","S1","","html-keyboard-response","290","340822","0.0-1.0-389.0","0","0","93584","","null","","","null","43","","","","","","","","","","","","","","","",""
"","ISI","","html-keyboard-response","291","342825","0.0-1.0-390.0","0","0","93584","","null","","","null","43","NaN","","","","","","","","","","","","","","",""
"","S2","","html-keyboard-response","292","343077","0.0-1.0-391.0","0","0","93584","","null","","","null","43","","NaN","","","","","","","","","","","","","",""
"","response","","html-keyboard-response","293","344106","0.0-1.0-392.0-0.0","0","0","93584","","1027","","","68","43","","","1","43","training","adjacent","AB","1","2","N.jpg","Q.jpg","1","1","1","",""
"","feedback","","html-keyboard-response","294","345109","0.0-1.0-393.0-0.0","0","0","93584","","null","","","null","43","","","","","","","","","","","","","","","",""
"","ITI","","html-keyboard-response","295","346112","0.0-1.0-396.0","0","0","93584","","null","","","null","43","","","","","","","","","","","","","","","NaN",""
"","S1","","html-keyboard-response","296","346364","0.0-1.0-398.0","0","0","93584","","null","","","null","44","","","","","","","","","","","","","","","",""
"","ISI","","html-keyboard-response","297","348366","0.0-1.0-399.0","0","0","93584","","null","","","null","44","NaN","","","","","","","","","","","","","","",""
"","S2","","html-keyboard-response","298","348634","0.0-1.0-400.0","0","0","93584","","null","","","null","44","","NaN","","","","","","","","","","","","","",""
"","response","","html-keyboard-response","299","349459","0.0-1.0-401.0-0.0","0","0","93584","","824","","","68","44","","","1","44","training","adjacent","EF","5","6","O.jpg","L.jpg","1","1","1","",""
"","feedback","","html-keyboard-response","300","350462","0.0-1.0-402.0-0.0","0","0","93584","","null","","","null","44","","","","","","","","","","","","","","","",""
"","ITI","","html-keyboard-response","301","351466","0.0-1.0-405.0","0","0","93584","","null","","","null","44","","","","","","","","","","","","","","","NaN",""
"","S1","","html-keyboard-response","302","351719","0.0-1.0-407.0","0","0","93584","","null","","","null","45","","","","","","","","","","","","","","","",""
"","ISI","","html-keyboard-response","303","353721","0.0-1.0-408.0","0","0","93584","","null","","","null","45","NaN","","","","","","","","","","","","","","",""
"","S2","","html-keyboard-response","304","353975","0.0-1.0-409.0","0","0","93584","","null","","","null","45","","NaN","","","","","","","","","","","","","",""
"","response","","html-keyboard-response","305","354884","0.0-1.0-410.0-0.0","0","0","93584","","908","","","75","45","","","1","45","training","adjacent","EF","5","6","O.jpg","L.jpg","0","1","0","",""
"","feedback","","html-keyboard-response","306","355887","0.0-1.0-411.0-0.0","0","0","93584","","null","","","null","45","","","","","","","","","","","","","","","",""
"","time_out","","html-keyboard-response","307","357890","0.0-1.0-413.0-0.0","0","0","93584","","null","","","null","45","","","","","","","","","","","","","","","",""
"","ITI","","html-keyboard-response","308","358892","0.0-1.0-414.0","0","0","93584","","null","","","null","45","","","","","","","","","","","","","","","NaN",""
"","S1","","html-keyboard-response","309","359144","0.0-1.0-416.0","0","0","93584","","null","","","null","46","","","","","","","","","","","","","","","",""
"","ISI","","html-keyboard-response","310","361146","0.0-1.0-417.0","0","0","93584","","null","","","null","46","NaN","","","","","","","","","","","","","","",""
"","S2","","html-keyboard-response","311","361399","0.0-1.0-418.0","0","0","93584","","null","","","null","46","","NaN","","","","","","","","","","","","","",""
"","response","","html-keyboard-response","312","362109","0.0-1.0-419.0-0.0","0","0","93584","","708","","","68","46","","","1","46","training","adjacent","CB","3","2","M.jpg","Q.jpg","1","0","0","",""
"","feedback","","html-keyboard-response","313","363112","0.0-1.0-420.0-0.0","0","0","93584","","null","","","null","46","","","","","","","","","","","","","","","",""
"","time_out","","html-keyboard-response","314","365113","0.0-1.0-422.0-0.0","0","0","93584","","null","","","null","46","","","","","","","","","","","","","","","",""
"","ITI","","html-keyboard-response","315","366116","0.0-1.0-423.0","0","0","93584","","null","","","null","46","","","","","","","","","","","","","","","NaN",""
"","S1","","html-keyboard-response","316","366370","0.0-1.0-425.0","0","0","93584","","null","","","null","47","","","","","","","","","","","","","","","",""
"","ISI","","html-keyboard-response","317","368372","0.0-1.0-426.0","0","0","93584","","null","","","null","47","NaN","","","","","","","","","","","","","","",""
"","S2","","html-keyboard-response","318","368625","0.0-1.0-427.0","0","0","93584","","null","","","null","47","","NaN","","","","","","","","","","","","","",""
"","response","","html-keyboard-response","319","369158","0.0-1.0-428.0-0.0","0","0","93584","","531","","","68","47","","","1","47","training","adjacent","CD","3","4","M.jpg","P.jpg","1","1","1","",""
"","feedback","","html-keyboard-response","320","370162","0.0-1.0-429.0-0.0","0","0","93584","","null","","","null","47","","","","","","","","","","","","","","","",""
"","ITI","","html-keyboard-response","321","371165","0.0-1.0-432.0","0","0","93584","","null","","","null","47","","","","","","","","","","","","","","","NaN",""
"","block_over","","html-keyboard-response","322","374527","0.0-1.0-433.0-0.0","0","0","93584","","3359","","","32","47","","","","","","","","","","","","","","","",""
"","S1","","html-keyboard-response","323","374779","0.0-1.0-434.0","0","0","93584","","null","","","null","48","","","","","","","","","","","","","","","",""
"","ISI","","html-keyboard-response","324","376782","0.0-1.0-435.0","0","0","93584","","null","","","null","48","NaN","","","","","","","","","","","","","","",""
"","S2","","html-keyboard-response","325","377035","0.0-1.0-436.0","0","0","93584","","null","","","null","48","","NaN","","","","","","","","","","","","","",""
"","response","","html-keyboard-response","326","377934","0.0-1.0-437.0-0.0","0","0","93584","","898","","","75","48","","","2","48","training","adjacent","FG","6","7","L.jpg","R.jpg","0","1","0","",""
"","feedback","","html-keyboard-response","327","378937","0.0-1.0-438.0-0.0","0","0","93584","","null","","","null","48","","","","","","","","","","","","","","","",""
"","time_out","","html-keyboard-response","328","380940","0.0-1.0-440.0-0.0","0","0","93584","","null","","","null","48","","","","","","","","","","","","","","","",""
"","ITI","","html-keyboard-response","329","381942","0.0-1.0-441.0","0","0","93584","","null","","","null","48","","","","","","","","","","","","","","","NaN",""
"","S1","","html-keyboard-response","330","382196","0.0-1.0-443.0","0","0","93584","","null","","","null","49","","","","","","","","","","","","","","","",""
"","ISI","","html-keyboard-response","331","384198","0.0-1.0-444.0","0","0","93584","","null","","","null","49","NaN","","","","","","","","","","","","","","",""
"","S2","","html-keyboard-response","332","384452","0.0-1.0-445.0","0","0","93584","","null","","","null","49","","NaN","","","","","","","","","","","","","",""
"","response","","html-keyboard-response","333","384920","0.0-1.0-446.0-0.0","0","0","93584","","465","","","68","49","","","2","49","training","adjacent","ED","5","4","O.jpg","P.jpg","1","0","0","",""
"","feedback","","html-keyboard-response","334","385923","0.0-1.0-447.0-0.0","0","0","93584","","null","","","null","49","","","","","","","","","","","","","","","",""
"","time_out","","html-keyboard-response","335","387925","0.0-1.0-449.0-0.0","0","0","93584","","null","","","null","49","","","","","","","","","","","","","","","",""
"","ITI","","html-keyboard-response","336","388927","0.0-1.0-450.0","0","0","93584","","null","","","null","49","","","","","","","","","","","","","","","NaN",""
"","S1","","html-keyboard-response","337","389180","0.0-1.0-452.0","0","0","93584","","null","","","null","50","","","","","","","","","","","","","","","",""
"","ISI","","html-keyboard-response","338","391182","0.0-1.0-453.0","0","0","93584","","null","","","null","50","NaN","","","","","","","","","","","","","","",""
"","S2","","html-keyboard-response","339","391435","0.0-1.0-454.0","0","0","93584","","null","","","null","50","","NaN","","","","","","","","","","","","","",""
"","response","","html-keyboard-response","340","392232","0.0-1.0-455.0-0.0","0","0","93584","","795","","","75","50","","","2","50","training","adjacent","CB","3","2","M.jpg","Q.jpg","0","0","1","",""
"","feedback","","html-keyboard-response","341","393235","0.0-1.0-456.0-0.0","0","0","93584","","null","","","null","50","","","","","","","","","","","","","","","",""
"","ITI","","html-keyboard-response","342","394238","0.0-1.0-459.0","0","0","93584","","null","","","null","50","","","","","","","","","","","","","","","NaN",""
"","S1","","html-keyboard-response","343","394491","0.0-1.0-461.0","0","0","93584","","null","","","null","51","","","","","","","","","","","","","","","",""
"","ISI","","html-keyboard-response","344","396493","0.0-1.0-462.0","0","0","93584","","null","","","null","51","NaN","","","","","","","","","","","","","","",""
"","S2","","html-keyboard-response","345","396746","0.0-1.0-463.0","0","0","93584","","null","","","null","51","","NaN","","","","","","","","","","","","","",""
"","response","","html-keyboard-response","346","397304","0.0-1.0-464.0-0.0","0","0","93584","","557","","","75","51","","","2","51","training","adjacent","CD","3","4","M.jpg","P.jpg","0","1","0","",""
"","feedback","","html-keyboard-response","347","398307","0.0-1.0-465.0-0.0","0","0","93584","","null","","","null","51","","","","","","","","","","","","","","","",""
"","time_out","","html-keyboard-response","348","400309","0.0-1.0-467.0-0.0","0","0","93584","","null","","","null","51","","","","","","","","","","","","","","","",""
"","ITI","","html-keyboard-response","349","401311","0.0-1.0-468.0","0","0","93584","","null","","","null","51","","","","","","","","","","","","","","","NaN",""
"","S1","","html-keyboard-response","350","401565","0.0-1.0-470.0","0","0","93584","","null","","","null","52","","","","","","","","","","","","","","","",""
"","ISI","","html-keyboard-response","351","403566","0.0-1.0-471.0","0","0","93584","","null","","","null","52","NaN","","","","","","","","","","","","","","",""
"","S2","","html-keyboard-response","352","403821","0.0-1.0-472.0","0","0","93584","","null","","","null","52","","NaN","","","","","","","","","","","","","",""
"","response","","html-keyboard-response","353","404337","0.0-1.0-473.0-0.0","0","0","93584","","515","","","68","52","","","2","52","training","adjacent","DC","4","3","P.jpg","M.jpg","1","0","0","",""
"","feedback","","html-keyboard-response","354","405352","0.0-1.0-474.0-0.0","0","0","93584","","null","","","null","52","","","","","","","","","","","","","","","",""
"","time_out","","html-keyboard-response","355","407355","0.0-1.0-476.0-0.0","0","0","93584","","null","","","null","52","","","","","","","","","","","","","","","",""
"","ITI","","html-keyboard-response","356","408357","0.0-1.0-477.0","0","0","93584","","null","","","null","52","","","","","","","","","","","","","","","NaN",""
"","S1","","html-keyboard-response","357","408614","0.0-1.0-479.0","0","0","93584","","null","","","null","53","","","","","","","","","","","","","","","",""
"","ISI","","html-keyboard-response","358","410617","0.0-1.0-480.0","0","0","93584","","null","","","null","53","NaN","","","","","","","","","","","","","","",""
"","S2","","html-keyboard-response","359","410871","0.0-1.0-481.0","0","0","93584","","null","","","null","53","","NaN","","","","","","","","","","","","","",""
"","response","","html-keyboard-response","360","412115","0.0-1.0-482.0-0.0","0","0","93584","","1242","","","75","53","","","2","53","training","adjacent","AB","1","2","N.jpg","Q.jpg","0","1","0","",""
"","feedback","","html-keyboard-response","361","413119","0.0-1.0-483.0-0.0","0","0","93584","","null","","","null","53","","","","","","","","","","","","","","","",""
"","time_out","","html-keyboard-response","362","415121","0.0-1.0-485.0-0.0","0","0","93584","","null","","","null","53","","","","","","","","","","","","","","","",""
"","ITI","","html-keyboard-response","363","416124","0.0-1.0-486.0","0","0","93584","","null","","","null","53","","","","","","","","","","","","","","","NaN",""
"","S1","","html-keyboard-response","364","416376","0.0-1.0-488.0","0","0","93584","","null","","","null","54","","","","","","","","","","","","","","","",""
"","ISI","","html-keyboard-response","365","418379","0.0-1.0-489.0","0","0","93584","","null","","","null","54","NaN","","","","","","","","","","","","","","",""
"","S2","","html-keyboard-response","366","418632","0.0-1.0-490.0","0","0","93584","","null","","","null","54","","NaN","","","","","","","","","","","","","",""
"","response","","html-keyboard-response","367","419018","0.0-1.0-491.0-0.0","0","0","93584","","385","","","75","54","","","2","54","training","adjacent","DC","4","3","P.jpg","M.jpg","0","0","1","",""
"","feedback","","html-keyboard-response","368","420022","0.0-1.0-492.0-0.0","0","0","93584","","null","","","null","54","","","","","","","","","","","","","","","",""
"","ITI","","html-keyboard-response","369","421024","0.0-1.0-495.0","0","0","93584","","null","","","null","54","","","","","","","","","","","","","","","NaN",""
"","S1","","html-keyboard-response","370","421277","0.0-1.0-497.0","0","0","93584","","null","","","null","55","","","","","","","","","","","","","","","",""
"","ISI","","html-keyboard-response","371","423279","0.0-1.0-498.0","0","0","93584","","null","","","null","55","NaN","","","","","","","","","","","","","","",""
"","S2","","html-keyboard-response","372","423531","0.0-1.0-499.0","0","0","93584","","null","","","null","55","","NaN","","","","","","","","","","","","","",""
"","response","","html-keyboard-response","373","424028","0.0-1.0-500.0-0.0","0","0","93584","","494","","","68","55","","","2","55","training","adjacent","FE","6","5","L.jpg","O.jpg","1","0","0","",""
"","feedback","","html-keyboard-response","374","425031","0.0-1.0-501.0-0.0","0","0","93584","","null","","","null","55","","","","","","","","","","","","","","","",""
"","time_out","","html-keyboard-response","375","427033","0.0-1.0-503.0-0.0","0","0","93584","","null","","","null","55","","","","","","","","","","","","","","","",""
"","ITI","","html-keyboard-response","376","428035","0.0-1.0-504.0","0","0","93584","","null","","","null","55","","","","","","","","","","","","","","","NaN",""
"","S1","","html-keyboard-response","377","428287","0.0-1.0-506.0","0","0","93584","","null","","","null","56","","","","","","","","","","","","","","","",""
"","ISI","","html-keyboard-response","378","430289","0.0-1.0-507.0","0","0","93584","","null","","","null","56","NaN","","","","","","","","","","","","","","",""
"","S2","","html-keyboard-response","379","430541","0.0-1.0-508.0","0","0","93584","","null","","","null","56","","NaN","","","","","","","","","","","","","",""
"","response","","html-keyboard-response","380","431172","0.0-1.0-509.0-0.0","0","0","93584","","629","","","75","56","","","2","56","training","adjacent","BA","2","1","Q.jpg","N.jpg","0","0","1","",""
"","feedback","","html-keyboard-response","381","432175","0.0-1.0-510.0-0.0","0","0","93584","","null","","","null","56","","","","","","","","","","","","","","","",""
"","ITI","","html-keyboard-response","382","433177","0.0-1.0-513.0","0","0","93584","","null","","","null","56","","","","","","","","","","","","","","","NaN",""
"","S1","","html-keyboard-response","383","433430","0.0-1.0-515.0","0","0","93584","","null","","","null","57","","","","","","","","","","","","","","","",""
"","ISI","","html-keyboard-response","384","435432","0.0-1.0-516.0","0","0","93584","","null","","","null","57","NaN","","","","","","","","","","","","","","",""
"","S2","","html-keyboard-response","385","435685","0.0-1.0-517.0","0","0","93584","","null","","","null","57","","NaN","","","","","","","","","","","","","",""
"","response","","html-keyboard-response","386","436437","0.0-1.0-518.0-0.0","0","0","93584","","751","","","68","57","","","2","57","training","adjacent","FG","6","7","L.jpg","R.jpg","1","1","1","",""
"","feedback","","html-keyboard-response","387","437439","0.0-1.0-519.0-0.0","0","0","93584","","null","","","null","57","","","","","","","","","","","","","","","",""
"","ITI","","html-keyboard-response","388","438441","0.0-1.0-522.0","0","0","93584","","null","","","null","57","","","","","","","","","","","","","","","NaN",""
"","S1","","html-keyboard-response","389","438694","0.0-1.0-524.0","0","0","93584","","null","","","null","58","","","","","","","","","","","","","","","",""
"","ISI","","html-keyboard-response","390","440696","0.0-1.0-525.0","0","0","93584","","null","","","null","58","NaN","","","","","","","","","","","","","","",""
"","S2","","html-keyboard-response","391","440949","0.0-1.0-526.0","0","0","93584","","null","","","null","58","","NaN","","","","","","","","","","","","","",""
"","response","","html-keyboard-response","392","441958","0.0-1.0-527.0-0.0","0","0","93584","","1007","","","75","58","","","2","58","training","adjacent","BC","2","3","Q.jpg","M.jpg","0","1","0","",""
"","feedback","","html-keyboard-response","393","442961","0.0-1.0-528.0-0.0","0","0","93584","","null","","","null","58","","","","","","","","","","","","","","","",""
"","time_out","","html-keyboard-response","394","444963","0.0-1.0-530.0-0.0","0","0","93584","","null","","","null","58","","","","","","","","","","","","","","","",""
"","ITI","","html-keyboard-response","395","445967","0.0-1.0-531.0","0","0","93584","","null","","","null","58","","","","","","","","","","","","","","","NaN",""
"","S1","","html-keyboard-response","396","446220","0.0-1.0-533.0","0","0","93584","","null","","","null","59","","","","","","","","","","","","","","","",""
"","ISI","","html-keyboard-response","397","448224","0.0-1.0-534.0","0","0","93584","","null","","","null","59","NaN","","","","","","","","","","","","","","",""
"","S2","","html-keyboard-response","398","448476","0.0-1.0-535.0","0","0","93584","","null","","","null","59","","NaN","","","","","","","","","","","","","",""
"","response","","html-keyboard-response","399","449070","0.0-1.0-536.0-0.0","0","0","93584","","592","","","68","59","","","2","59","training","adjacent","CB","3","2","M.jpg","Q.jpg","1","0","0","",""
"","feedback","","html-keyboard-response","400","450073","0.0-1.0-537.0-0.0","0","0","93584","","null","","","null","59","","","","","","","","","","","","","","","",""
"","time_out","","html-keyboard-response","401","452076","0.0-1.0-539.0-0.0","0","0","93584","","null","","","null","59","","","","","","","","","","","","","","","",""
"","ITI","","html-keyboard-response","402","453079","0.0-1.0-540.0","0","0","93584","","null","","","null","59","","","","","","","","","","","","","","","NaN",""
"","S1","","html-keyboard-response","403","453333","0.0-1.0-542.0","0","0","93584","","null","","","null","60","","","","","","","","","","","","","","","",""
"","ISI","","html-keyboard-response","404","455335","0.0-1.0-543.0","0","0","93584","","null","","","null","60","NaN","","","","","","","","","","","","","","",""
"","S2","","html-keyboard-response","405","455588","0.0-1.0-544.0","0","0","93584","","null","","","null","60","","NaN","","","","","","","","","","","","","",""
"","response","","html-keyboard-response","406","456111","0.0-1.0-545.0-0.0","0","0","93584","","521","","","75","60","","","2","60","training","adjacent","ED","5","4","O.jpg","P.jpg","0","0","1","",""
"","feedback","","html-keyboard-response","407","457114","0.0-1.0-546.0-0.0","0","0","93584","","null","","","null","60","","","","","","","","","","","","","","","",""
"","ITI","","html-keyboard-response","408","458117","0.0-1.0-549.0","0","0","93584","","null","","","null","60","","","","","","","","","","","","","","","NaN",""
"","S1","","html-keyboard-response","409","458370","0.0-1.0-551.0","0","0","93584","","null","","","null","61","","","","","","","","","","","","","","","",""
"","ISI","","html-keyboard-response","410","460372","0.0-1.0-552.0","0","0","93584","","null","","","null","61","NaN","","","","","","","","","","","","","","",""
"","S2","","html-keyboard-response","411","460625","0.0-1.0-553.0","0","0","93584","","null","","","null","61","","NaN","","","","","","","","","","","","","",""
"","response","","html-keyboard-response","412","461087","0.0-1.0-554.0-0.0","0","0","93584","","460","","","75","61","","","2","61","training","adjacent","BA","2","1","Q.jpg","N.jpg","0","0","1","",""
"","feedback","","html-keyboard-response","413","462090","0.0-1.0-555.0-0.0","0","0","93584","","null","","","null","61","","","","","","","","","","","","","","","",""
"","ITI","","html-keyboard-response","414","463094","0.0-1.0-558.0","0","0","93584","","null","","","null","61","","","","","","","","","","","","","","","NaN",""
"","S1","","html-keyboard-response","415","463347","0.0-1.0-560.0","0","0","93584","","null","","","null","62","","","","","","","","","","","","","","","",""
"","ISI","","html-keyboard-response","416","465350","0.0-1.0-561.0","0","0","93584","","null","","","null","62","NaN","","","","","","","","","","","","","","",""
"","S2","","html-keyboard-response","417","465603","0.0-1.0-562.0","0","0","93584","","null","","","null","62","","NaN","","","","","","","","","","","","","",""
"","response","","html-keyboard-response","418","466839","0.0-1.0-563.0-0.0","0","0","93584","","1235","","","75","62","","","2","62","training","adjacent","AB","1","2","N.jpg","Q.jpg","0","1","0","",""
"","feedback","","html-keyboard-response","419","467842","0.0-1.0-564.0-0.0","0","0","93584","","null","","","null","62","","","","","","","","","","","","","","","",""
"","time_out","","html-keyboard-response","420","469846","0.0-1.0-566.0-0.0","0","0","93584","","null","","","null","62","","","","","","","","","","","","","","","",""
"","ITI","","html-keyboard-response","421","470849","0.0-1.0-567.0","0","0","93584","","null","","","null","62","","","","","","","","","","","","","","","NaN",""
"","S1","","html-keyboard-response","422","471101","0.0-1.0-569.0","0","0","93584","","null","","","null","63","","","","","","","","","","","","","","","",""
"","ISI","","html-keyboard-response","423","473116","0.0-1.0-570.0","0","0","93584","","null","","","null","63","NaN","","","","","","","","","","","","","","",""
"","S2","","html-keyboard-response","424","473369","0.0-1.0-571.0","0","0","93584","","null","","","null","63","","NaN","","","","","","","","","","","","","",""
"","response","","html-keyboard-response","425","473728","0.0-1.0-572.0-0.0","0","0","93584","","357","","","68","63","","","2","63","training","adjacent","FG","6","7","L.jpg","R.jpg","1","1","1","",""
"","feedback","","html-keyboard-response","426","474732","0.0-1.0-573.0-0.0","0","0","93584","","null","","","null","63","","","","","","","","","","","","","","","",""
"","ITI","","html-keyboard-response","427","475736","0.0-1.0-576.0","0","0","93584","","null","","","null","63","","","","","","","","","","","","","","","NaN",""
"","S1","","html-keyboard-response","428","475993","0.0-1.0-578.0","0","0","93584","","null","","","null","64","","","","","","","","","","","","","","","",""
"","ISI","","html-keyboard-response","429","477996","0.0-1.0-579.0","0","0","93584","","null","","","null","64","NaN","","","","","","","","","","","","","","",""
"","S2","","html-keyboard-response","430","478249","0.0-1.0-580.0","0","0","93584","","null","","","null","64","","NaN","","","","","","","","","","","","","",""
"","response","","html-keyboard-response","431","479017","0.0-1.0-581.0-0.0","0","0","93584","","766","","","75","64","","","2","64","training","adjacent","CD","3","4","M.jpg","P.jpg","0","1","0","",""
"","feedback","","html-keyboard-response","432","480020","0.0-1.0-582.0-0.0","0","0","93584","","null","","","null","64","","","","","","","","","","","","","","","",""
"","time_out","","html-keyboard-response","433","482023","0.0-1.0-584.0-0.0","0","0","93584","","null","","","null","64","","","","","","","","","","","","","","","",""
"","ITI","","html-keyboard-response","434","483025","0.0-1.0-585.0","0","0","93584","","null","","","null","64","","","","","","","","","","","","","","","NaN",""
"","S1","","html-keyboard-response","435","483278","0.0-1.0-587.0","0","0","93584","","null","","","null","65","","","","","","","","","","","","","","","",""
"","ISI","","html-keyboard-response","436","485281","0.0-1.0-588.0","0","0","93584","","null","","","null","65","NaN","","","","","","","","","","","","","","",""
"","S2","","html-keyboard-response","437","485533","0.0-1.0-589.0","0","0","93584","","null","","","null","65","","NaN","","","","","","","","","","","","","",""
"","response","","html-keyboard-response","438","486074","0.0-1.0-590.0-0.0","0","0","93584","","538","","","75","65","","","2","65","training","adjacent","CB","3","2","M.jpg","Q.jpg","0","0","1","",""
"","feedback","","html-keyboard-response","439","487077","0.0-1.0-591.0-0.0","0","0","93584","","null","","","null","65","","","","","","","","","","","","","","","",""
"","ITI","","html-keyboard-response","440","488081","0.0-1.0-594.0","0","0","93584","","null","","","null","65","","","","","","","","","","","","","","","NaN",""
"","S1","","html-keyboard-response","441","488333","0.0-1.0-596.0","0","0","93584","","null","","","null","66","","","","","","","","","","","","","","","",""
"","ISI","","html-keyboard-response","442","490336","0.0-1.0-597.0","0","0","93584","","null","","","null","66","NaN","","","","","","","","","","","","","","",""
"","S2","","html-keyboard-response","443","490590","0.0-1.0-598.0","0","0","93584","","null","","","null","66","","NaN","","","","","","","","","","","","","",""
"","response","","html-keyboard-response","444","491202","0.0-1.0-599.0-0.0","0","0","93584","","610","","","68","66","","","2","66","training","adjacent","CB","3","2","M.jpg","Q.jpg","1","0","0","",""
"","feedback","","html-keyboard-response","445","492205","0.0-1.0-600.0-0.0","0","0","93584","","null","","","null","66","","","","","","","","","","","","","","","",""
"","time_out","","html-keyboard-response","446","494208","0.0-1.0-602.0-0.0","0","0","93584","","null","","","null","66","","","","","","","","","","","","","","","",""
"","ITI","","html-keyboard-response","447","495219","0.0-1.0-603.0","0","0","93584","","null","","","null","66","","","","","","","","","","","","","","","NaN",""
"","S1","","html-keyboard-response","448","495472","0.0-1.0-605.0","0","0","93584","","null","","","null","67","","","","","","","","","","","","","","","",""
"","ISI","","html-keyboard-response","449","497475","0.0-1.0-606.0","0","0","93584","","null","","","null","67","NaN","","","","","","","","","","","","","","",""
"","S2","","html-keyboard-response","450","497729","0.0-1.0-607.0","0","0","93584","","null","","","null","67","","NaN","","","","","","","","","","","","","",""
"","response","","html-keyboard-response","451","498435","0.0-1.0-608.0-0.0","0","0","93584","","703","","","75","67","","","2","67","training","adjacent","AB","1","2","N.jpg","Q.jpg","0","1","0","",""
"","feedback","","html-keyboard-response","452","499438","0.0-1.0-609.0-0.0","0","0","93584","","null","","","null","67","","","","","","","","","","","","","","","",""
"","time_out","","html-keyboard-response","453","501441","0.0-1.0-611.0-0.0","0","0","93584","","null","","","null","67","","","","","","","","","","","","","","","",""
"","ITI","","html-keyboard-response","454","502443","0.0-1.0-612.0","0","0","93584","","null","","","null","67","","","","","","","","","","","","","","","NaN",""
"","S1","","html-keyboard-response","455","502695","0.0-1.0-614.0","0","0","93584","","null","","","null","68","","","","","","","","","","","","","","","",""
"","ISI","","html-keyboard-response","456","504698","0.0-1.0-615.0","0","0","93584","","null","","","null","68","NaN","","","","","","","","","","","","","","",""
"","S2","","html-keyboard-response","457","504952","0.0-1.0-616.0","0","0","93584","","null","","","null","68","","NaN","","","","","","","","","","","","","",""
"","response","","html-keyboard-response","458","505691","0.0-1.0-617.0-0.0","0","0","93584","","737","","","75","68","","","2","68","training","adjacent","ED","5","4","O.jpg","P.jpg","0","0","1","",""
"","feedback","","html-keyboard-response","459","506693","0.0-1.0-618.0-0.0","0","0","93584","","null","","","null","68","","","","","","","","","","","","","","","",""
"","ITI","","html-keyboard-response","460","507696","0.0-1.0-621.0","0","0","93584","","null","","","null","68","","","","","","","","","","","","","","","NaN",""
"","S1","","html-keyboard-response","461","507949","0.0-1.0-623.0","0","0","93584","","null","","","null","69","","","","","","","","","","","","","","","",""
"","ISI","","html-keyboard-response","462","509952","0.0-1.0-624.0","0","0","93584","","null","","","null","69","NaN","","","","","","","","","","","","","","",""
"","S2","","html-keyboard-response","463","510206","0.0-1.0-625.0","0","0","93584","","null","","","null","69","","NaN","","","","","","","","","","","","","",""
"","response","","html-keyboard-response","464","510964","0.0-1.0-626.0-0.0","0","0","93584","","756","","","75","69","","","2","69","training","adjacent","BC","2","3","Q.jpg","M.jpg","0","1","0","",""
"","feedback","","html-keyboard-response","465","511967","0.0-1.0-627.0-0.0","0","0","93584","","null","","","null","69","","","","","","","","","","","","","","","",""
"","time_out","","html-keyboard-response","466","513971","0.0-1.0-629.0-0.0","0","0","93584","","null","","","null","69","","","","","","","","","","","","","","","",""
"","ITI","","html-keyboard-response","467","514972","0.0-1.0-630.0","0","0","93584","","null","","","null","69","","","","","","","","","","","","","","","NaN",""
"","S1","","html-keyboard-response","468","515225","0.0-1.0-632.0","0","0","93584","","null","","","null","70","","","","","","","","","","","","","","","",""
"","ISI","","html-keyboard-response","469","517228","0.0-1.0-633.0","0","0","93584","","null","","","null","70","NaN","","","","","","","","","","","","","","",""
"","S2","","html-keyboard-response","470","517481","0.0-1.0-634.0","0","0","93584","","null","","","null","70","","NaN","","","","","","","","","","","","","",""
"","response","","html-keyboard-response","471","518228","0.0-1.0-635.0-0.0","0","0","93584","","746","","","75","70","","","2","70","training","adjacent","BA","2","1","Q.jpg","N.jpg","0","0","1","",""
"","feedback","","html-keyboard-response","472","519230","0.0-1.0-636.0-0.0","0","0","93584","","null","","","null","70","","","","","","","","","","","","","","","",""
"","ITI","","html-keyboard-response","473","520233","0.0-1.0-639.0","0","0","93584","","null","","","null","70","","","","","","","","","","","","","","","NaN",""
"","S1","","html-keyboard-response","474","520486","0.0-1.0-641.0","0","0","93584","","null","","","null","71","","","","","","","","","","","","","","","",""
"","ISI","","html-keyboard-response","475","522488","0.0-1.0-642.0","0","0","93584","","null","","","null","71","NaN","","","","","","","","","","","","","","",""
"","S2","","html-keyboard-response","476","522740","0.0-1.0-643.0","0","0","93584","","null","","","null","71","","NaN","","","","","","","","","","","","","",""
"","response","","html-keyboard-response","477","523501","0.0-1.0-644.0-0.0","0","0","93584","","759","","","75","71","","","2","71","training","adjacent","CD","3","4","M.jpg","P.jpg","0","1","0","",""
"","feedback","","html-keyboard-response","478","524504","0.0-1.0-645.0-0.0","0","0","93584","","null","","","null","71","","","","","","","","","","","","","","","",""
"","time_out","","html-keyboard-response","479","526506","0.0-1.0-647.0-0.0","0","0","93584","","null","","","null","71","","","","","","","","","","","","","","","",""
"","ITI","","html-keyboard-response","480","527507","0.0-1.0-648.0","0","0","93584","","null","","","null","71","","","","","","","","","","","","","","","NaN",""
"","S1","","html-keyboard-response","481","527760","0.0-1.0-650.0","0","0","93584","","null","","","null","72","","","","","","","","","","","","","","","",""
"","ISI","","html-keyboard-response","482","529762","0.0-1.0-651.0","0","0","93584","","null","","","null","72","NaN","","","","","","","","","","","","","","",""
"","S2","","html-keyboard-response","483","530015","0.0-1.0-652.0","0","0","93584","","null","","","null","72","","NaN","","","","","","","","","","","","","",""
"","response","","html-keyboard-response","484","530958","0.0-1.0-653.0-0.0","0","0","93584","","941","","","68","72","","","2","72","training","adjacent","BC","2","3","Q.jpg","M.jpg","1","1","1","",""
"","feedback","","html-keyboard-response","485","531961","0.0-1.0-654.0-0.0","0","0","93584","","null","","","null","72","","","","","","","","","","","","","","","",""
"","ITI","","html-keyboard-response","486","532963","0.0-1.0-657.0","0","0","93584","","null","","","null","72","","","","","","","","","","","","","","","NaN",""
"","S1","","html-keyboard-response","487","533216","0.0-1.0-659.0","0","0","93584","","null","","","null","73","","","","","","","","","","","","","","","",""
"","ISI","","html-keyboard-response","488","535218","0.0-1.0-660.0","0","0","93584","","null","","","null","73","NaN","","","","","","","","","","","","","","",""
"","S2","","html-keyboard-response","489","535470","0.0-1.0-661.0","0","0","93584","","null","","","null","73","","NaN","","","","","","","","","","","","","",""
"","response","","html-keyboard-response","490","536015","0.0-1.0-662.0-0.0","0","0","93584","","543","","","68","73","","","2","73","training","adjacent","FE","6","5","L.jpg","O.jpg","1","0","0","",""
"","feedback","","html-keyboard-response","491","537018","0.0-1.0-663.0-0.0","0","0","93584","","null","","","null","73","","","","","","","","","","","","","","","",""
"","time_out","","html-keyboard-response","492","539020","0.0-1.0-665.0-0.0","0","0","93584","","null","","","null","73","","","","","","","","","","","","","","","",""
"","ITI","","html-keyboard-response","493","540022","0.0-1.0-666.0","0","0","93584","","null","","","null","73","","","","","","","","","","","","","","","NaN",""
"","S1","","html-keyboard-response","494","540276","0.0-1.0-668.0","0","0","93584","","null","","","null","74","","","","","","","","","","","","","","","",""
"","ISI","","html-keyboard-response","495","542278","0.0-1.0-669.0","0","0","93584","","null","","","null","74","NaN","","","","","","","","","","","","","","",""
"","S2","","html-keyboard-response","496","542531","0.0-1.0-670.0","0","0","93584","","null","","","null","74","","NaN","","","","","","","","","","","","","",""
"","response","","html-keyboard-response","497","543264","0.0-1.0-671.0-0.0","0","0","93584","","732","","","68","74","","","2","74","training","adjacent","GF","7","6","R.jpg","L.jpg","1","0","0","",""
"","feedback","","html-keyboard-response","498","544266","0.0-1.0-672.0-0.0","0","0","93584","","null","","","null","74","","","","","","","","","","","","","","","",""
"","time_out","","html-keyboard-response","499","546269","0.0-1.0-674.0-0.0","0","0","93584","","null","","","null","74","","","","","","","","","","","","","","","",""
"","ITI","","html-keyboard-response","500","547271","0.0-1.0-675.0","0","0","93584","","null","","","null","74","","","","","","","","","","","","","","","NaN",""
"","S1","","html-keyboard-response","501","547523","0.0-1.0-677.0","0","0","93584","","null","","","null","75","","","","","","","","","","","","","","","",""
"","ISI","","html-keyboard-response","502","549526","0.0-1.0-678.0","0","0","93584","","null","","","null","75","NaN","","","","","","","","","","","","","","",""
"","S2","","html-keyboard-response","503","549779","0.0-1.0-679.0","0","0","93584","","null","","","null","75","","NaN","","","","","","","","","","","","","",""
"","response","","html-keyboard-response","504","550344","0.0-1.0-680.0-0.0","0","0","93584","","564","","","75","75","","","2","75","training","adjacent","GF","7","6","R.jpg","L.jpg","0","0","1","",""
"","feedback","","html-keyboard-response","505","551346","0.0-1.0-681.0-0.0","0","0","93584","","null","","","null","75","","","","","","","","","","","","","","","",""
"","ITI","","html-keyboard-response","506","552349","0.0-1.0-684.0","0","0","93584","","null","","","null","75","","","","","","","","","","","","","","","NaN",""
"","S1","","html-keyboard-response","507","552602","0.0-1.0-686.0","0","0","93584","","null","","","null","76","","","","","","","","","","","","","","","",""
"","ISI","","html-keyboard-response","508","554604","0.0-1.0-687.0","0","0","93584","","null","","","null","76","NaN","","","","","","","","","","","","","","",""
"","S2","","html-keyboard-response","509","554856","0.0-1.0-688.0","0","0","93584","","null","","","null","76","","NaN","","","","","","","","","","","","","",""
"","response","","html-keyboard-response","510","555272","0.0-1.0-689.0-0.0","0","0","93584","","416","","","68","76","","","2","76","training","adjacent","DE","4","5","P.jpg","O.jpg","1","1","1","",""
"","feedback","","html-keyboard-response","511","556275","0.0-1.0-690.0-0.0","0","0","93584","","null","","","null","76","","","","","","","","","","","","","","","",""
"","ITI","","html-keyboard-response","512","557279","0.0-1.0-693.0","0","0","93584","","null","","","null","76","","","","","","","","","","","","","","","NaN",""
"","S1","","html-keyboard-response","513","557531","0.0-1.0-695.0","0","0","93584","","null","","","null","77","","","","","","","","","","","","","","","",""
"","ISI","","html-keyboard-response","514","559533","0.0-1.0-696.0","0","0","93584","","null","","","null","77","NaN","","","","","","","","","","","","","","",""
"","S2","","html-keyboard-response","515","559785","0.0-1.0-697.0","0","0","93584","","null","","","null","77","","NaN","","","","","","","","","","","","","",""
"","response","","html-keyboard-response","516","560521","0.0-1.0-698.0-0.0","0","0","93584","","735","","","68","77","","","2","77","training","adjacent","DC","4","3","P.jpg","M.jpg","1","0","0","",""
"","feedback","","html-keyboard-response","517","561525","0.0-1.0-699.0-0.0","0","0","93584","","null","","","null","77","","","","","","","","","","","","","","","",""
"","time_out","","html-keyboard-response","518","563527","0.0-1.0-701.0-0.0","0","0","93584","","null","","","null","77","","","","","","","","","","","","","","","",""
"","ITI","","html-keyboard-response","519","564530","0.0-1.0-702.0","0","0","93584","","null","","","null","77","","","","","","","","","","","","","","","NaN",""
"","S1","","html-keyboard-response","520","564782","0.0-1.0-704.0","0","0","93584","","null","","","null","78","","","","","","","","","","","","","","","",""
"","ISI","","html-keyboard-response","521","566785","0.0-1.0-705.0","0","0","93584","","null","","","null","78","NaN","","","","","","","","","","","","","","",""
"","S2","","html-keyboard-response","522","567037","0.0-1.0-706.0","0","0","93584","","null","","","null","78","","NaN","","","","","","","","","","","","","",""
"","response","","html-keyboard-response","523","568002","0.0-1.0-707.0-0.0","0","0","93584","","964","","","75","78","","","2","78","training","adjacent","EF","5","6","O.jpg","L.jpg","0","1","0","",""
"","feedback","","html-keyboard-response","524","569018","0.0-1.0-708.0-0.0","0","0","93584","","null","","","null","78","","","","","","","","","","","","","","","",""
"","time_out","","html-keyboard-response","525","571021","0.0-1.0-710.0-0.0","0","0","93584","","null","","","null","78","","","","","","","","","","","","","","","",""
"","ITI","","html-keyboard-response","526","572024","0.0-1.0-711.0","0","0","93584","","null","","","null","78","","","","","","","","","","","","","","","NaN",""
"","S1","","html-keyboard-response","527","572276","0.0-1.0-713.0","0","0","93584","","null","","","null","79","","","","","","","","","","","","","","","",""
"","ISI","","html-keyboard-response","528","574278","0.0-1.0-714.0","0","0","93584","","null","","","null","79","NaN","","","","","","","","","","","","","","",""
"","S2","","html-keyboard-response","529","574529","0.0-1.0-715.0","0","0","93584","","null","","","null","79","","NaN","","","","","","","","","","","","","",""
"","response","","html-keyboard-response","530","575163","0.0-1.0-716.0-0.0","0","0","93584","","632","","","75","79","","","2","79","training","adjacent","AB","1","2","N.jpg","Q.jpg","0","1","0","",""
"","feedback","","html-keyboard-response","531","576166","0.0-1.0-717.0-0.0","0","0","93584","","null","","","null","79","","","","","","","","","","","","","","","",""
"","time_out","","html-keyboard-response","532","578169","0.0-1.0-719.0-0.0","0","0","93584","","null","","","null","79","","","","","","","","","","","","","","","",""
"","ITI","","html-keyboard-response","533","579171","0.0-1.0-720.0","0","0","93584","","null","","","null","79","","","","","","","","","","","","","","","NaN",""
"","S1","","html-keyboard-response","534","579423","0.0-1.0-722.0","0","0","93584","","null","","","null","80","","","","","","","","","","","","","","","",""
"","ISI","","html-keyboard-response","535","581425","0.0-1.0-723.0","0","0","93584","","null","","","null","80","NaN","","","","","","","","","","","","","","",""
"","S2","","html-keyboard-response","536","581677","0.0-1.0-724.0","0","0","93584","","null","","","null","80","","NaN","","","","","","","","","","","","","",""
"","response","","html-keyboard-response","537","582084","0.0-1.0-725.0-0.0","0","0","93584","","405","","","75","80","","","2","80","training","adjacent","CD","3","4","M.jpg","P.jpg","0","1","0","",""
"","feedback","","html-keyboard-response","538","583088","0.0-1.0-726.0-0.0","0","0","93584","","null","","","null","80","","","","","","","","","","","","","","","",""
"","time_out","","html-keyboard-response","539","585092","0.0-1.0-728.0-0.0","0","0","93584","","null","","","null","80","","","","","","","","","","","","","","","",""
"","ITI","","html-keyboard-response","540","586095","0.0-1.0-729.0","0","0","93584","","null","","","null","80","","","","","","","","","","","","","","","NaN",""
"","S1","","html-keyboard-response","541","586347","0.0-1.0-731.0","0","0","93584","","null","","","null","81","","","","","","","","","","","","","","","",""
"","ISI","","html-keyboard-response","542","588350","0.0-1.0-732.0","0","0","93584","","null","","","null","81","NaN","","","","","","","","","","","","","","",""
"","S2","","html-keyboard-response","543","588603","0.0-1.0-733.0","0","0","93584","","null","","","null","81","","NaN","","","","","","","","","","","","","",""
"","response","","html-keyboard-response","544","589140","0.0-1.0-734.0-0.0","0","0","93584","","536","","","75","81","","","2","81","training","adjacent","EF","5","6","O.jpg","L.jpg","0","1","0","",""
"","feedback","","html-keyboard-response","545","590144","0.0-1.0-735.0-0.0","0","0","93584","","null","","","null","81","","","","","","","","","","","","","","","",""
"","time_out","","html-keyboard-response","546","592147","0.0-1.0-737.0-0.0","0","0","93584","","null","","","null","81","","","","","","","","","","","","","","","",""
"","ITI","","html-keyboard-response","547","593150","0.0-1.0-738.0","0","0","93584","","null","","","null","81","","","","","","","","","","","","","","","NaN",""
"","S1","","html-keyboard-response","548","593403","0.0-1.0-740.0","0","0","93584","","null","","","null","82","","","","","","","","","","","","","","","",""
"","ISI","","html-keyboard-response","549","595405","0.0-1.0-741.0","0","0","93584","","null","","","null","82","NaN","","","","","","","","","","","","","","",""
"","S2","","html-keyboard-response","550","595658","0.0-1.0-742.0","0","0","93584","","null","","","null","82","","NaN","","","","","","","","","","","","","",""
"","response","","html-keyboard-response","551","596292","0.0-1.0-743.0-0.0","0","0","93584","","633","","","75","82","","","2","82","training","adjacent","ED","5","4","O.jpg","P.jpg","0","0","1","",""
"","feedback","","html-keyboard-response","552","597295","0.0-1.0-744.0-0.0","0","0","93584","","null","","","null","82","","","","","","","","","","","","","","","",""
"","ITI","","html-keyboard-response","553","598299","0.0-1.0-747.0","0","0","93584","","null","","","null","82","","","","","","","","","","","","","","","NaN",""
"","S1","","html-keyboard-response","554","598551","0.0-1.0-749.0","0","0","93584","","null","","","null","83","","","","","","","","","","","","","","","",""
"","ISI","","html-keyboard-response","555","600554","0.0-1.0-750.0","0","0","93584","","null","","","null","83","NaN","","","","","","","","","","","","","","",""
"","S2","","html-keyboard-response","556","600806","0.0-1.0-751.0","0","0","93584","","null","","","null","83","","NaN","","","","","","","","","","","","","",""
"","response","","html-keyboard-response","557","601606","0.0-1.0-752.0-0.0","0","0","93584","","798","","","75","83","","","2","83","training","adjacent","GF","7","6","R.jpg","L.jpg","0","0","1","",""
"","feedback","","html-keyboard-response","558","602613","0.0-1.0-753.0-0.0","0","0","93584","","null","","","null","83","","","","","","","","","","","","","","","",""
"","ITI","","html-keyboard-response","559","603616","0.0-1.0-756.0","0","0","93584","","null","","","null","83","","","","","","","","","","","","","","","NaN",""
"","S1","","html-keyboard-response","560","603869","0.0-1.0-758.0","0","0","93584","","null","","","null","84","","","","","","","","","","","","","","","",""
"","ISI","","html-keyboard-response","561","605871","0.0-1.0-759.0","0","0","93584","","null","","","null","84","NaN","","","","","","","","","","","","","","",""
"","S2","","html-keyboard-response","562","606123","0.0-1.0-760.0","0","0","93584","","null","","","null","84","","NaN","","","","","","","","","","","","","",""
"","response","","html-keyboard-response","563","606606","0.0-1.0-761.0-0.0","0","0","93584","","482","","","68","84","","","2","84","training","adjacent","FE","6","5","L.jpg","O.jpg","1","0","0","",""
"","feedback","","html-keyboard-response","564","607610","0.0-1.0-762.0-0.0","0","0","93584","","null","","","null","84","","","","","","","","","","","","","","","",""
"","time_out","","html-keyboard-response","565","609613","0.0-1.0-764.0-0.0","0","0","93584","","null","","","null","84","","","","","","","","","","","","","","","",""
"","ITI","","html-keyboard-response","566","610617","0.0-1.0-765.0","0","0","93584","","null","","","null","84","","","","","","","","","","","","","","","NaN",""
"","S1","","html-keyboard-response","567","610869","0.0-1.0-767.0","0","0","93584","","null","","","null","85","","","","","","","","","","","","","","","",""
"","ISI","","html-keyboard-response","568","612871","0.0-1.0-768.0","0","0","93584","","null","","","null","85","NaN","","","","","","","","","","","","","","",""
"","S2","","html-keyboard-response","569","613123","0.0-1.0-769.0","0","0","93584","","null","","","null","85","","NaN","","","","","","","","","","","","","",""
"","response","","html-keyboard-response","570","613598","0.0-1.0-770.0-0.0","0","0","93584","","473","","","75","85","","","2","85","training","adjacent","BC","2","3","Q.jpg","M.jpg","0","1","0","",""
"","feedback","","html-keyboard-response","571","614601","0.0-1.0-771.0-0.0","0","0","93584","","null","","","null","85","","","","","","","","","","","","","","","",""
"","time_out","","html-keyboard-response","572","616604","0.0-1.0-773.0-0.0","0","0","93584","","null","","","null","85","","","","","","","","","","","","","","","",""
"","ITI","","html-keyboard-response","573","617606","0.0-1.0-774.0","0","0","93584","","null","","","null","85","","","","","","","","","","","","","","","NaN",""
"","S1","","html-keyboard-response","574","617858","0.0-1.0-776.0","0","0","93584","","null","","","null","86","","","","","","","","","","","","","","","",""
"","ISI","","html-keyboard-response","575","619860","0.0-1.0-777.0","0","0","93584","","null","","","null","86","NaN","","","","","","","","","","","","","","",""
"","S2","","html-keyboard-response","576","620114","0.0-1.0-778.0","0","0","93584","","null","","","null","86","","NaN","","","","","","","","","","","","","",""
"","response","","html-keyboard-response","577","620592","0.0-1.0-779.0-0.0","0","0","93584","","476","","","68","86","","","2","86","training","adjacent","FG","6","7","L.jpg","R.jpg","1","1","1","",""
"","feedback","","html-keyboard-response","578","621594","0.0-1.0-780.0-0.0","0","0","93584","","null","","","null","86","","","","","","","","","","","","","","","",""
"","ITI","","html-keyboard-response","579","622598","0.0-1.0-783.0","0","0","93584","","null","","","null","86","","","","","","","","","","","","","","","NaN",""
"","S1","","html-keyboard-response","580","622851","0.0-1.0-785.0","0","0","93584","","null","","","null","87","","","","","","","","","","","","","","","",""
"","ISI","","html-keyboard-response","581","624853","0.0-1.0-786.0","0","0","93584","","null","","","null","87","NaN","","","","","","","","","","","","","","",""
