"success","ttype","start_time","trial_type","trial_index","time_elapsed","internal_node_id","warning","missed_checkup","PID","view_history","rt","responses","repeat_instructions","key_press","index","keypress_isi","keypress_S2","block","trial_num","phase","group_type","pair_type","S1_stim","S2_stim","S1_img","S2_img","S1_chosen","S1_higher","accuracy","keypress_iti","total_bonus_tally"
"true","full_screen","d07292022hr1937","fullscreen","0","18369","0.0-0.0","0","0","34902","","","","","","","","","","","","","","","","","","","","","",""
"","instructions","","instructions","1","46082","0.0-1.0-0.0-0.0","0","0","34902","[{""page_index"":0,""viewing_time"":5571},{""page_index"":1,""viewing_time"":9740},{""page_index"":2,""viewing_time"":10609},{""page_index"":3,""viewing_time"":1785}]","27707","","","","","","","","","","","","","","","","","","","",""
"","comprehension_check","","survey-multi-choice","2","68334","0.0-1.0-0.0-1.0","0","0","34902","","22240","{""Q0"":""True"",""Q1"":""D"",""Q2"":""When you see the prompt 'MAKE A CHOICE' after the second image was presented"",""Q3"":""Green mark"",""Q4"":""either D or K""}","0","","","","","","","","","","","","","","","","","",""
"","start_exp","","html-keyboard-response","3","125685","0.0-1.0-1.0","0","0","34902","","57345","","","32","","","","","","","","","","","","","","","","",""
"","S1","","html-keyboard-response","4","125948","0.0-1.0-2.0","0","0","34902","","null","","","null","0","","","","","","","","","","","","","","","",""
"","ISI","","html-keyboard-response","5","127958","0.0-1.0-3.0","0","0","34902","","null","","","null","0","NaN","","","","","","","","","","","","","","",""
"","S2","","html-keyboard-response","6","128219","0.0-1.0-4.0","0","0","34902","","null","","","null","0","","NaN","","","","","","","","","","","","","",""
"","response","","html-keyboard-response","7","128712","0.0-1.0-5.0","0","0","34902","","483","","","75","0","","","1","0","training","adjacent","BA","2","1","M.jpg","L.jpg","0","0","1","",""
"","feedback","","html-keyboard-response","8","129734","0.0-1.0-6.0-0.0","0","0","34902","","null","","","null","0","","","","","","","","","","","","","","","",""
"","ITI","","html-keyboard-response","9","130751","0.0-1.0-9.0","0","0","34902","","null","","","null","0","","","","","","","","","","","","","","","NaN",""
"","S1","","html-keyboard-response","10","131010","0.0-1.0-11.0","0","0","34902","","null","","","null","1","","","","","","","","","","","","","","","",""
"","ISI","","html-keyboard-response","11","133021","0.0-1.0-12.0","0","0","34902","","null","","","null","1","NaN","","","","","","","","","","","","","","",""
"","S2","","html-keyboard-response","12","133279","0.0-1.0-13.0","0","0","34902","","null","","","null","1","","NaN","","","","","","","","","","","","","",""
"","response","","html-keyboard-response","13","133684","0.0-1.0-14.0","0","0","34902","","400","","","68","1","","","1","1","training","adjacent","DC","4","3","P.jpg","R.jpg","1","0","0","",""
"","feedback","","html-keyboard-response","14","134691","0.0-1.0-15.0-0.0","0","0","34902","","null","","","null","1","","","","","","","","","","","","","","","",""
"","time_out","","html-keyboard-response","15","136700","0.0-1.0-17.0-0.0","0","0","34902","","null","","","null","1","","","","","","","","","","","","","","","",""
"","ITI","","html-keyboard-response","16","137714","0.0-1.0-18.0","0","0","34902","","null","","","null","1","","","","","","","","","","","","","","","NaN",""
"","S1","","html-keyboard-response","17","137977","0.0-1.0-20.0","0","0","34902","","null","","","null","2","","","","","","","","","","","","","","","",""
"","ISI","","html-keyboard-response","18","139989","0.0-1.0-21.0","0","0","34902","","null","","","null","2","NaN","","","","","","","","","","","","","","",""
"","S2","","html-keyboard-response","19","140250","0.0-1.0-22.0","0","0","34902","","null","","","null","2","","NaN","","","","","","","","","","","","","",""
"","response","","html-keyboard-response","20","140580","0.0-1.0-23.0","0","0","34902","","324","","","68","2","","","1","2","training","adjacent","AB","1","2","L.jpg","M.jpg","1","1","1","",""
"","feedback","","html-keyboard-response","21","141589","0.0-1.0-24.0-0.0","0","0","34902","","null","","","null","2","","","","","","","","","","","","","","","",""
"","ITI","","html-keyboard-response","22","142599","0.0-1.0-27.0","0","0","34902","","null","","","null","2","","","","","","","","","","","","","","","NaN",""
"","S1","","html-keyboard-response","23","142871","0.0-1.0-29.0","0","0","34902","","null","","","null","3","","","","","","","","","","","","","","","",""
"","ISI","","html-keyboard-response","24","144877","0.0-1.0-30.0","0","0","34902","","null","","","null","3","NaN","","","","","","","","","","","","","","",""
"","S2","","html-keyboard-response","25","145139","0.0-1.0-31.0","0","0","34902","","null","","","null","3","","NaN","","","","","","","","","","","","","",""
"","response","","html-keyboard-response","26","145529","0.0-1.0-32.0","0","0","34902","","384","","","75","3","","","1","3","training","adjacent","DC","4","3","P.jpg","R.jpg","0","0","1","",""
"","feedback","","html-keyboard-response","27","146545","0.0-1.0-33.0-0.0","0","0","34902","","null","","","null","3","","","","","","","","","","","","","","","",""
"","ITI","","html-keyboard-response","28","147550","0.0-1.0-36.0","0","0","34902","","null","","","null","3","","","","","","","","","","","","","","","NaN",""
"","S1","","html-keyboard-response","29","147808","0.0-1.0-38.0","0","0","34902","","null","","","null","4","","","","","","","","","","","","","","","",""
"","ISI","","html-keyboard-response","30","149818","0.0-1.0-39.0","0","0","34902","","null","","","null","4","NaN","","","","","","","","","","","","","","",""
"","S2","","html-keyboard-response","31","150082","0.0-1.0-40.0","0","0","34902","","null","","","null","4","","NaN","","","","","","","","","","","","","",""
"","response","","html-keyboard-response","32","150525","0.0-1.0-41.0","0","0","34902","","437","","","68","4","","","1","4","training","adjacent","ED","5","4","Q.jpg","P.jpg","1","0","0","",""
"","feedback","","html-keyboard-response","33","151536","0.0-1.0-42.0-0.0","0","0","34902","","null","","","null","4","","","","","","","","","","","","","","","",""
"","time_out","","html-keyboard-response","34","153545","0.0-1.0-44.0-0.0","0","0","34902","","null","","","null","4","","","","","","","","","","","","","","","",""
"","ITI","","html-keyboard-response","35","154555","0.0-1.0-45.0","0","0","34902","","null","","","null","4","","","","","","","","","","","","","","","NaN",""
"","S1","","html-keyboard-response","36","154816","0.0-1.0-47.0","0","0","34902","","null","","","null","5","","","","","","","","","","","","","","","",""
"","ISI","","html-keyboard-response","37","156828","0.0-1.0-48.0","0","0","34902","","null","","","null","5","NaN","","","","","","","","","","","","","","",""
"","S2","","html-keyboard-response","38","157092","0.0-1.0-49.0","0","0","34902","","null","","","null","5","","NaN","","","","","","","","","","","","","",""
"","response","","html-keyboard-response","39","157839","0.0-1.0-50.0","0","0","34902","","741","","","68","5","","","1","5","training","adjacent","CB","3","2","R.jpg","M.jpg","1","0","0","",""
"","feedback","","html-keyboard-response","40","158847","0.0-1.0-51.0-0.0","0","0","34902","","null","","","null","5","","","","","","","","","","","","","","","",""
"","time_out","","html-keyboard-response","41","160859","0.0-1.0-53.0-0.0","0","0","34902","","null","","","null","5","","","","","","","","","","","","","","","",""
"","ITI","","html-keyboard-response","42","161867","0.0-1.0-54.0","0","0","34902","","null","","","null","5","","","","","","","","","","","","","","","NaN",""
"","S1","","html-keyboard-response","43","162128","0.0-1.0-56.0","0","0","34902","","null","","","null","6","","","","","","","","","","","","","","","",""
"","ISI","","html-keyboard-response","44","164139","0.0-1.0-57.0","0","0","34902","","null","","","null","6","NaN","","","","","","","","","","","","","","",""
"","S2","","html-keyboard-response","45","164401","0.0-1.0-58.0","0","0","34902","","null","","","null","6","","NaN","","","","","","","","","","","","","",""
"","response","","html-keyboard-response","46","164984","0.0-1.0-59.0","0","0","34902","","576","","","68","6","","","1","6","training","adjacent","CD","3","4","R.jpg","P.jpg","1","1","1","",""
"","feedback","","html-keyboard-response","47","165998","0.0-1.0-60.0-0.0","0","0","34902","","null","","","null","6","","","","","","","","","","","","","","","",""
"","ITI","","html-keyboard-response","48","167008","0.0-1.0-63.0","0","0","34902","","null","","","null","6","","","","","","","","","","","","","","","NaN",""
"","S1","","html-keyboard-response","49","167270","0.0-1.0-65.0","0","0","34902","","null","","","null","7","","","","","","","","","","","","","","","",""
"","ISI","","html-keyboard-response","50","169279","0.0-1.0-66.0","0","0","34902","","null","","","null","7","NaN","","","","","","","","","","","","","","",""
"","S2","","html-keyboard-response","51","169539","0.0-1.0-67.0","0","0","34902","","null","","","null","7","","NaN","","","","","","","","","","","","","",""
"","response","","html-keyboard-response","52","169949","0.0-1.0-68.0","0","0","34902","","404","","","68","7","","","1","7","training","adjacent","AB","1","2","L.jpg","M.jpg","1","1","1","",""
"","feedback","","html-keyboard-response","53","170961","0.0-1.0-69.0-0.0","0","0","34902","","null","","","null","7","","","","","","","","","","","","","","","",""
"","ITI","","html-keyboard-response","54","171971","0.0-1.0-72.0","0","0","34902","","null","","","null","7","","","","","","","","","","","","","","","NaN",""
"","S1","","html-keyboard-response","55","172234","0.0-1.0-74.0","0","0","34902","","null","","","null","8","","","","","","","","","","","","","","","",""
"","ISI","","html-keyboard-response","56","174241","0.0-1.0-75.0","0","0","34902","","null","","","null","8","NaN","","","","","","","","","","","","","","",""
"","S2","","html-keyboard-response","57","174502","0.0-1.0-76.0","0","0","34902","","null","","","null","8","","NaN","","","","","","","","","","","","","",""
"","response","","html-keyboard-response","58","174969","0.0-1.0-77.0","0","0","34902","","462","","","68","8","","","1","8","training","adjacent","AB","1","2","L.jpg","M.jpg","1","1","1","",""
"","feedback","","html-keyboard-response","59","175977","0.0-1.0-78.0-0.0","0","0","34902","","null","","","null","8","","","","","","","","","","","","","","","",""
"","ITI","","html-keyboard-response","60","176989","0.0-1.0-81.0","0","0","34902","","null","","","null","8","","","","","","","","","","","","","","","NaN",""
"","S1","","html-keyboard-response","61","177252","0.0-1.0-83.0","0","0","34902","","null","","","null","9","","","","","","","","","","","","","","","",""
"","ISI","","html-keyboard-response","62","179262","0.0-1.0-84.0","0","0","34902","","null","","","null","9","NaN","","","","","","","","","","","","","","",""
"","S2","","html-keyboard-response","63","179525","0.0-1.0-85.0","0","0","34902","","null","","","null","9","","NaN","","","","","","","","","","","","","",""
"","response","","html-keyboard-response","64","179995","0.0-1.0-86.0","0","0","34902","","464","","","75","9","","","1","9","training","adjacent","BA","2","1","M.jpg","L.jpg","0","0","1","",""
"","feedback","","html-keyboard-response","65","181004","0.0-1.0-87.0-0.0","0","0","34902","","null","","","null","9","","","","","","","","","","","","","","","",""
"","ITI","","html-keyboard-response","66","182015","0.0-1.0-90.0","0","0","34902","","null","","","null","9","","","","","","","","","","","","","","","NaN",""
"","S1","","html-keyboard-response","67","182278","0.0-1.0-92.0","0","0","34902","","null","","","null","10","","","","","","","","","","","","","","","",""
"","ISI","","html-keyboard-response","68","184290","0.0-1.0-93.0","0","0","34902","","null","","","null","10","NaN","","","","","","","","","","","","","","",""
"","S2","","html-keyboard-response","69","184549","0.0-1.0-94.0","0","0","34902","","null","","","null","10","","NaN","","","","","","","","","","","","","",""
"","response","","html-keyboard-response","70","185113","0.0-1.0-95.0","0","0","34902","","561","","","75","10","","","1","10","training","adjacent","BC","2","3","M.jpg","R.jpg","0","1","0","",""
"","feedback","","html-keyboard-response","71","186124","0.0-1.0-96.0-0.0","0","0","34902","","null","","","null","10","","","","","","","","","","","","","","","",""
"","time_out","","html-keyboard-response","72","188133","0.0-1.0-98.0-0.0","0","0","34902","","null","","","null","10","","","","","","","","","","","","","","","",""
"","ITI","","html-keyboard-response","73","189142","0.0-1.0-99.0","0","0","34902","","null","","","null","10","","","","","","","","","","","","","","","NaN",""
"","S1","","html-keyboard-response","74","189406","0.0-1.0-101.0","0","0","34902","","null","","","null","11","","","","","","","","","","","","","","","",""
"","ISI","","html-keyboard-response","75","191416","0.0-1.0-102.0","0","0","34902","","null","","","null","11","NaN","","","","","","","","","","","","","","",""
"","S2","","html-keyboard-response","76","191675","0.0-1.0-103.0","0","0","34902","","null","","","null","11","","NaN","","","","","","","","","","","","","",""
"","response","","html-keyboard-response","77","192181","0.0-1.0-104.0","0","0","34902","","498","","","68","11","","","1","11","training","adjacent","ED","5","4","Q.jpg","P.jpg","1","0","0","",""
"","feedback","","html-keyboard-response","78","193193","0.0-1.0-105.0-0.0","0","0","34902","","null","","","null","11","","","","","","","","","","","","","","","",""
"","time_out","","html-keyboard-response","79","195201","0.0-1.0-107.0-0.0","0","0","34902","","null","","","null","11","","","","","","","","","","","","","","","",""
"","ITI","","html-keyboard-response","80","196215","0.0-1.0-108.0","0","0","34902","","null","","","null","11","","","","","","","","","","","","","","","NaN",""
"","S1","","html-keyboard-response","81","196478","0.0-1.0-110.0","0","0","34902","","null","","","null","12","","","","","","","","","","","","","","","",""
"","ISI","","html-keyboard-response","82","198491","0.0-1.0-111.0","0","0","34902","","null","","","null","12","NaN","","","","","","","","","","","","","","",""
"","S2","","html-keyboard-response","83","198748","0.0-1.0-112.0","0","0","34902","","null","","","null","12","","NaN","","","","","","","","","","","","","",""
"","response","","html-keyboard-response","84","199344","0.0-1.0-113.0","0","0","34902","","589","","","68","12","","","1","12","training","adjacent","EF","5","6","Q.jpg","N.jpg","1","1","1","",""
"","feedback","","html-keyboard-response","85","200359","0.0-1.0-114.0-0.0","0","0","34902","","null","","","null","12","","","","","","","","","","","","","","","",""
"","ITI","","html-keyboard-response","86","201373","0.0-1.0-117.0","0","0","34902","","null","","","null","12","","","","","","","","","","","","","","","NaN",""
"","S1","","html-keyboard-response","87","201643","0.0-1.0-119.0","0","0","34902","","null","","","null","13","","","","","","","","","","","","","","","",""
"","ISI","","html-keyboard-response","88","203649","0.0-1.0-120.0","0","0","34902","","null","","","null","13","NaN","","","","","","","","","","","","","","",""
"","S2","","html-keyboard-response","89","203912","0.0-1.0-121.0","0","0","34902","","null","","","null","13","","NaN","","","","","","","","","","","","","",""
"","response","","html-keyboard-response","90","204547","0.0-1.0-122.0","0","0","34902","","629","","","68","13","","","1","13","training","adjacent","DE","4","5","P.jpg","Q.jpg","1","1","1","",""
"","feedback","","html-keyboard-response","91","205564","0.0-1.0-123.0-0.0","0","0","34902","","null","","","null","13","","","","","","","","","","","","","","","",""
"","ITI","","html-keyboard-response","92","206569","0.0-1.0-126.0","0","0","34902","","null","","","null","13","","","","","","","","","","","","","","","NaN",""
"","S1","","html-keyboard-response","93","206838","0.0-1.0-128.0","0","0","34902","","null","","","null","14","","","","","","","","","","","","","","","",""
"","ISI","","html-keyboard-response","94","208849","0.0-1.0-129.0","0","0","34902","","null","","","null","14","NaN","","","","","","","","","","","","","","",""
"","S2","","html-keyboard-response","95","209110","0.0-1.0-130.0","0","0","34902","","null","","","null","14","","NaN","","","","","","","","","","","","","",""
"","response","","html-keyboard-response","96","209457","0.0-1.0-131.0","0","0","34902","","340","","","75","14","","","1","14","training","adjacent","ED","5","4","Q.jpg","P.jpg","0","0","1","",""
"","feedback","","html-keyboard-response","97","210465","0.0-1.0-132.0-0.0","0","0","34902","","null","","","null","14","","","","","","","","","","","","","","","",""
"","ITI","","html-keyboard-response","98","211477","0.0-1.0-135.0","0","0","34902","","null","","","null","14","","","","","","","","","","","","","","","NaN",""
"","S1","","html-keyboard-response","99","211740","0.0-1.0-137.0","0","0","34902","","null","","","null","15","","","","","","","","","","","","","","","",""
"","ISI","","html-keyboard-response","100","213751","0.0-1.0-138.0","0","0","34902","","null","","","null","15","NaN","","","","","","","","","","","","","","",""
"","S2","","html-keyboard-response","101","214010","0.0-1.0-139.0","0","0","34902","","null","","","null","15","","NaN","","","","","","","","","","","","","",""
"","response","","html-keyboard-response","102","214436","0.0-1.0-140.0","0","0","34902","","419","","","68","15","","","1","15","training","adjacent","CD","3","4","R.jpg","P.jpg","1","1","1","",""
"","feedback","","html-keyboard-response","103","215460","0.0-1.0-141.0-0.0","0","0","34902","","null","","","null","15","","","","","","","","","","","","","","","",""
"","ITI","","html-keyboard-response","104","216471","0.0-1.0-144.0","0","0","34902","","null","","","null","15","","","","","","","","","","","","","","","NaN",""
"","S1","","html-keyboard-response","105","216733","0.0-1.0-146.0","0","0","34902","","null","","","null","16","","","","","","","","","","","","","","","",""
"","ISI","","html-keyboard-response","106","218741","0.0-1.0-147.0","0","0","34902","","null","","","null","16","NaN","","","","","","","","","","","","","","",""
"","S2","","html-keyboard-response","107","219000","0.0-1.0-148.0","0","0","34902","","null","","","null","16","","NaN","","","","","","","","","","","","","",""
"","response","","html-keyboard-response","108","219656","0.0-1.0-149.0","0","0","34902","","652","","","75","16","","","1","16","training","adjacent","FG","6","7","N.jpg","O.jpg","0","1","0","",""
"","feedback","","html-keyboard-response","109","220667","0.0-1.0-150.0-0.0","0","0","34902","","null","","","null","16","","","","","","","","","","","","","","","",""
"","time_out","","html-keyboard-response","110","222677","0.0-1.0-152.0-0.0","0","0","34902","","null","","","null","16","","","","","","","","","","","","","","","",""
"","ITI","","html-keyboard-response","111","223688","0.0-1.0-153.0","0","0","34902","","null","","","null","16","","","","","","","","","","","","","","","NaN",""
"","S1","","html-keyboard-response","112","223951","0.0-1.0-155.0","0","0","34902","","null","","","null","17","","","","","","","","","","","","","","","",""
"","ISI","","html-keyboard-response","113","225963","0.0-1.0-156.0","0","0","34902","","null","","","null","17","NaN","","","","","","","","","","","","","","",""
"","S2","","html-keyboard-response","114","226225","0.0-1.0-157.0","0","0","34902","","null","","","null","17","","NaN","","","","","","","","","","","","","",""
"","response","","html-keyboard-response","115","226787","0.0-1.0-158.0","0","0","34902","","557","","","68","17","","","1","17","training","adjacent","FE","6","5","N.jpg","Q.jpg","1","0","0","",""
"","feedback","","html-keyboard-response","116","227794","0.0-1.0-159.0-0.0","0","0","34902","","null","","","null","17","","","","","","","","","","","","","","","",""
"","time_out","","html-keyboard-response","117","229800","0.0-1.0-161.0-0.0","0","0","34902","","null","","","null","17","","","","","","","","","","","","","","","",""
"","ITI","","html-keyboard-response","118","230805","0.0-1.0-162.0","0","0","34902","","null","","","null","17","","","","","","","","","","","","","","","NaN",""
"","S1","","html-keyboard-response","119","231065","0.0-1.0-164.0","0","0","34902","","null","","","null","18","","","","","","","","","","","","","","","",""
"","ISI","","html-keyboard-response","120","233071","0.0-1.0-165.0","0","0","34902","","null","","","null","18","NaN","","","","","","","","","","","","","","",""
"","S2","","html-keyboard-response","121","233332","0.0-1.0-166.0","0","0","34902","","null","","","null","18","","NaN","","","","","","","","","","","","","",""
"","response","","html-keyboard-response","122","233942","0.0-1.0-167.0","0","0","34902","","604","","","75","18","","","1","18","training","adjacent","GF","7","6","O.jpg","N.jpg","0","0","1","",""
"","feedback","","html-keyboard-response","123","234956","0.0-1.0-168.0-0.0","0","0","34902","","null","","","null","18","","","","","","","","","","","","","","","",""
"","ITI","","html-keyboard-response","124","235970","0.0-1.0-171.0","0","0","34902","","null","","","null","18","","","","","","","","","","","","","","","NaN",""
"","S1","","html-keyboard-response","125","236232","0.0-1.0-173.0","0","0","34902","","null","","","null","19","","","","","","","","","","","","","","","",""
"","ISI","","html-keyboard-response","126","238242","0.0-1.0-174.0","0","0","34902","","null","","","null","19","NaN","","","","","","","","","","","","","","",""
"","S2","","html-keyboard-response","127","238502","0.0-1.0-175.0","0","0","34902","","null","","","null","19","","NaN","","","","","","","","","","","","","",""
"","response","","html-keyboard-response","128","238913","0.0-1.0-176.0","0","0","34902","","405","","","68","19","","","1","19","training","adjacent","EF","5","6","Q.jpg","N.jpg","1","1","1","",""
"","feedback","","html-keyboard-response","129","239926","0.0-1.0-177.0-0.0","0","0","34902","","null","","","null","19","","","","","","","","","","","","","","","",""
"","ITI","","html-keyboard-response","130","240935","0.0-1.0-180.0","0","0","34902","","null","","","null","19","","","","","","","","","","","","","","","NaN",""
"","S1","","html-keyboard-response","131","241197","0.0-1.0-182.0","0","0","34902","","null","","","null","20","","","","","","","","","","","","","","","",""
"","ISI","","html-keyboard-response","132","243204","0.0-1.0-183.0","0","0","34902","","null","","","null","20","NaN","","","","","","","","","","","","","","",""
"","S2","","html-keyboard-response","133","243463","0.0-1.0-184.0","0","0","34902","","null","","","null","20","","NaN","","","","","","","","","","","","","",""
"","response","","html-keyboard-response","134","244043","0.0-1.0-185.0","0","0","34902","","574","","","68","20","","","1","20","training","adjacent","EF","5","6","Q.jpg","N.jpg","1","1","1","",""
"","feedback","","html-keyboard-response","135","245051","0.0-1.0-186.0-0.0","0","0","34902","","null","","","null","20","","","","","","","","","","","","","","","",""
"","ITI","","html-keyboard-response","136","246060","0.0-1.0-189.0","0","0","34902","","null","","","null","20","","","","","","","","","","","","","","","NaN",""
"","S1","","html-keyboard-response","137","246331","0.0-1.0-191.0","0","0","34902","","null","","","null","21","","","","","","","","","","","","","","","",""
"","ISI","","html-keyboard-response","138","248343","0.0-1.0-192.0","0","0","34902","","null","","","null","21","NaN","","","","","","","","","","","","","","",""
"","S2","","html-keyboard-response","139","248602","0.0-1.0-193.0","0","0","34902","","null","","","null","21","","NaN","","","","","","","","","","","","","",""
"","response","","html-keyboard-response","140","249243","0.0-1.0-194.0","0","0","34902","","635","","","68","21","","","1","21","training","adjacent","FG","6","7","N.jpg","O.jpg","1","1","1","",""
"","feedback","","html-keyboard-response","141","250252","0.0-1.0-195.0-0.0","0","0","34902","","null","","","null","21","","","","","","","","","","","","","","","",""
"","ITI","","html-keyboard-response","142","251265","0.0-1.0-198.0","0","0","34902","","null","","","null","21","","","","","","","","","","","","","","","NaN",""
"","S1","","html-keyboard-response","143","251526","0.0-1.0-200.0","0","0","34902","","null","","","null","22","","","","","","","","","","","","","","","",""
"","ISI","","html-keyboard-response","144","253535","0.0-1.0-201.0","0","0","34902","","null","","","null","22","NaN","","","","","","","","","","","","","","",""
"","S2","","html-keyboard-response","145","253791","0.0-1.0-202.0","0","0","34902","","null","","","null","22","","NaN","","","","","","","","","","","","","",""
"","response","","html-keyboard-response","146","254257","0.0-1.0-203.0","0","0","34902","","460","","","68","22","","","1","22","training","adjacent","BC","2","3","M.jpg","R.jpg","1","1","1","",""
"","feedback","","html-keyboard-response","147","255279","0.0-1.0-204.0-0.0","0","0","34902","","null","","","null","22","","","","","","","","","","","","","","","",""
"","ITI","","html-keyboard-response","148","256287","0.0-1.0-207.0","0","0","34902","","null","","","null","22","","","","","","","","","","","","","","","NaN",""
"","S1","","html-keyboard-response","149","256549","0.0-1.0-209.0","0","0","34902","","null","","","null","23","","","","","","","","","","","","","","","",""
"","ISI","","html-keyboard-response","150","258556","0.0-1.0-210.0","0","0","34902","","null","","","null","23","NaN","","","","","","","","","","","","","","",""
"","S2","","html-keyboard-response","151","258820","0.0-1.0-211.0","0","0","34902","","null","","","null","23","","NaN","","","","","","","","","","","","","",""
"","response","","html-keyboard-response","152","259332","0.0-1.0-212.0","0","0","34902","","505","","","68","23","","","1","23","training","adjacent","EF","5","6","Q.jpg","N.jpg","1","1","1","",""
"","feedback","","html-keyboard-response","153","260344","0.0-1.0-213.0-0.0","0","0","34902","","null","","","null","23","","","","","","","","","","","","","","","",""
"","ITI","","html-keyboard-response","154","261356","0.0-1.0-216.0","0","0","34902","","null","","","null","23","","","","","","","","","","","","","","","NaN",""
"","S1","","html-keyboard-response","155","261616","0.0-1.0-218.0","0","0","34902","","null","","","null","24","","","","","","","","","","","","","","","",""
"","ISI","","html-keyboard-response","156","263625","0.0-1.0-219.0","0","0","34902","","null","","","null","24","NaN","","","","","","","","","","","","","","",""
"","S2","","html-keyboard-response","157","263896","0.0-1.0-220.0","0","0","34902","","null","","","null","24","","NaN","","","","","","","","","","","","","",""
"","response","","html-keyboard-response","158","264555","0.0-1.0-221.0","0","0","34902","","652","","","75","24","","","1","24","training","adjacent","CB","3","2","R.jpg","M.jpg","0","0","1","",""
"","feedback","","html-keyboard-response","159","265563","0.0-1.0-222.0-0.0","0","0","34902","","null","","","null","24","","","","","","","","","","","","","","","",""
"","ITI","","html-keyboard-response","160","266575","0.0-1.0-225.0","0","0","34902","","null","","","null","24","","","","","","","","","","","","","","","NaN",""
"","S1","","html-keyboard-response","161","266833","0.0-1.0-227.0","0","0","34902","","null","","","null","25","","","","","","","","","","","","","","","",""
"","ISI","","html-keyboard-response","162","268842","0.0-1.0-228.0","0","0","34902","","null","","","null","25","NaN","","","","","","","","","","","","","","",""
"","S2","","html-keyboard-response","163","269105","0.0-1.0-229.0","0","0","34902","","null","","","null","25","","NaN","","","","","","","","","","","","","",""
"","response","","html-keyboard-response","164","269747","0.0-1.0-230.0","0","0","34902","","635","","","68","25","","","1","25","training","adjacent","DE","4","5","P.jpg","Q.jpg","1","1","1","",""
"","feedback","","html-keyboard-response","165","270760","0.0-1.0-231.0-0.0","0","0","34902","","null","","","null","25","","","","","","","","","","","","","","","",""
"","ITI","","html-keyboard-response","166","271771","0.0-1.0-234.0","0","0","34902","","null","","","null","25","","","","","","","","","","","","","","","NaN",""
"","S1","","html-keyboard-response","167","272033","0.0-1.0-236.0","0","0","34902","","null","","","null","26","","","","","","","","","","","","","","","",""
"","ISI","","html-keyboard-response","168","274040","0.0-1.0-237.0","0","0","34902","","null","","","null","26","NaN","","","","","","","","","","","","","","",""
"","S2","","html-keyboard-response","169","274297","0.0-1.0-238.0","0","0","34902","","null","","","null","26","","NaN","","","","","","","","","","","","","",""
"","response","","html-keyboard-response","170","274815","0.0-1.0-239.0","0","0","34902","","511","","","75","26","","","1","26","training","adjacent","FE","6","5","N.jpg","Q.jpg","0","0","1","",""
"","feedback","","html-keyboard-response","171","275834","0.0-1.0-240.0-0.0","0","0","34902","","null","","","null","26","","","","","","","","","","","","","","","",""
"","ITI","","html-keyboard-response","172","276844","0.0-1.0-243.0","0","0","34902","","null","","","null","26","","","","","","","","","","","","","","","NaN",""
"","S1","","html-keyboard-response","173","277108","0.0-1.0-245.0","0","0","34902","","null","","","null","27","","","","","","","","","","","","","","","",""
"","ISI","","html-keyboard-response","174","279114","0.0-1.0-246.0","0","0","34902","","null","","","null","27","NaN","","","","","","","","","","","","","","",""
"","S2","","html-keyboard-response","175","279375","0.0-1.0-247.0","0","0","34902","","null","","","null","27","","NaN","","","","","","","","","","","","","",""
"","response","","html-keyboard-response","176","279933","0.0-1.0-248.0","0","0","34902","","549","","","68","27","","","1","27","training","adjacent","DE","4","5","P.jpg","Q.jpg","1","1","1","",""
"","feedback","","html-keyboard-response","177","280945","0.0-1.0-249.0-0.0","0","0","34902","","null","","","null","27","","","","","","","","","","","","","","","",""
"","ITI","","html-keyboard-response","178","281959","0.0-1.0-252.0","0","0","34902","","null","","","null","27","","","","","","","","","","","","","","","NaN",""
"","S1","","html-keyboard-response","179","282222","0.0-1.0-254.0","0","0","34902","","null","","","null","28","","","","","","","","","","","","","","","",""
"","ISI","","html-keyboard-response","180","284233","0.0-1.0-255.0","0","0","34902","","null","","","null","28","NaN","","","","","","","","","","","","","","",""
"","S2","","html-keyboard-response","181","284489","0.0-1.0-256.0","0","0","34902","","null","","","null","28","","NaN","","","","","","","","","","","","","",""
"","response","","html-keyboard-response","182","284945","0.0-1.0-257.0","0","0","34902","","450","","","75","28","","","1","28","training","adjacent","BA","2","1","M.jpg","L.jpg","0","0","1","",""
"","feedback","","html-keyboard-response","183","285960","0.0-1.0-258.0-0.0","0","0","34902","","null","","","null","28","","","","","","","","","","","","","","","",""
"","ITI","","html-keyboard-response","184","286968","0.0-1.0-261.0","0","0","34902","","null","","","null","28","","","","","","","","","","","","","","","NaN",""
"","S1","","html-keyboard-response","185","287231","0.0-1.0-263.0","0","0","34902","","null","","","null","29","","","","","","","","","","","","","","","",""
"","ISI","","html-keyboard-response","186","289236","0.0-1.0-264.0","0","0","34902","","null","","","null","29","NaN","","","","","","","","","","","","","","",""
"","S2","","html-keyboard-response","187","289498","0.0-1.0-265.0","0","0","34902","","null","","","null","29","","NaN","","","","","","","","","","","","","",""
"","response","","html-keyboard-response","188","289748","0.0-1.0-266.0","0","0","34902","","243","","","68","29","","","1","29","training","adjacent","DC","4","3","P.jpg","R.jpg","1","0","0","",""
"","feedback","","html-keyboard-response","189","290756","0.0-1.0-267.0-0.0","0","0","34902","","null","","","null","29","","","","","","","","","","","","","","","",""
"","time_out","","html-keyboard-response","190","292765","0.0-1.0-269.0-0.0","0","0","34902","","null","","","null","29","","","","","","","","","","","","","","","",""
"","ITI","","html-keyboard-response","191","293778","0.0-1.0-270.0","0","0","34902","","null","","","null","29","","","","","","","","","","","","","","","NaN",""
"","S1","","html-keyboard-response","192","294039","0.0-1.0-272.0","0","0","34902","","null","","","null","30","","","","","","","","","","","","","","","",""
"","ISI","","html-keyboard-response","193","296051","0.0-1.0-273.0","0","0","34902","","null","","","null","30","NaN","","","","","","","","","","","","","","",""
"","S2","","html-keyboard-response","194","296312","0.0-1.0-274.0","0","0","34902","","null","","","null","30","","NaN","","","","","","","","","","","","","",""
"","response","","html-keyboard-response","195","296797","0.0-1.0-275.0","0","0","34902","","478","","","68","30","","","1","30","training","adjacent","BC","2","3","M.jpg","R.jpg","1","1","1","",""
"","feedback","","html-keyboard-response","196","297811","0.0-1.0-276.0-0.0","0","0","34902","","null","","","null","30","","","","","","","","","","","","","","","",""
"","ITI","","html-keyboard-response","197","298828","0.0-1.0-279.0","0","0","34902","","null","","","null","30","","","","","","","","","","","","","","","NaN",""
"","S1","","html-keyboard-response","198","299099","0.0-1.0-281.0","0","0","34902","","null","","","null","31","","","","","","","","","","","","","","","",""
"","ISI","","html-keyboard-response","199","301107","0.0-1.0-282.0","0","0","34902","","null","","","null","31","NaN","","","","","","","","","","","","","","",""
"","S2","","html-keyboard-response","200","301369","0.0-1.0-283.0","0","0","34902","","null","","","null","31","","NaN","","","","","","","","","","","","","",""
"","response","","html-keyboard-response","201","301582","0.0-1.0-284.0","0","0","34902","","208","","","75","31","","","1","31","training","adjacent","GF","7","6","O.jpg","N.jpg","0","0","1","",""
"","feedback","","html-keyboard-response","202","302593","0.0-1.0-285.0-0.0","0","0","34902","","null","","","null","31","","","","","","","","","","","","","","","",""
"","ITI","","html-keyboard-response","203","303605","0.0-1.0-288.0","0","0","34902","","null","","","null","31","","","","","","","","","","","","","","","NaN",""
"","S1","","html-keyboard-response","204","303868","0.0-1.0-290.0","0","0","34902","","null","","","null","32","","","","","","","","","","","","","","","",""
"","ISI","","html-keyboard-response","205","305887","0.0-1.0-291.0","0","0","34902","","null","","","null","32","NaN","","","","","","","","","","","","","","",""
"","S2","","html-keyboard-response","206","306149","0.0-1.0-292.0","0","0","34902","","null","","","null","32","","NaN","","","","","","","","","","","","","",""
"","response","","html-keyboard-response","207","306603","0.0-1.0-293.0","0","0","34902","","449","","","68","32","","","1","32","training","adjacent","FG","6","7","N.jpg","O.jpg","1","1","1","",""
"","feedback","","html-keyboard-response","208","307610","0.0-1.0-294.0-0.0","0","0","34902","","null","","","null","32","","","","","","","","","","","","","","","",""
"","ITI","","html-keyboard-response","209","308629","0.0-1.0-297.0","0","0","34902","","null","","","null","32","","","","","","","","","","","","","","","NaN",""
"","S1","","html-keyboard-response","210","308890","0.0-1.0-299.0","0","0","34902","","null","","","null","33","","","","","","","","","","","","","","","",""
"","ISI","","html-keyboard-response","211","310899","0.0-1.0-300.0","0","0","34902","","null","","","null","33","NaN","","","","","","","","","","","","","","",""
"","S2","","html-keyboard-response","212","311161","0.0-1.0-301.0","0","0","34902","","null","","","null","33","","NaN","","","","","","","","","","","","","",""
"","response","","html-keyboard-response","213","311657","0.0-1.0-302.0","0","0","34902","","490","","","75","33","","","1","33","training","adjacent","CB","3","2","R.jpg","M.jpg","0","0","1","",""
"","feedback","","html-keyboard-response","214","312675","0.0-1.0-303.0-0.0","0","0","34902","","null","","","null","33","","","","","","","","","","","","","","","",""
"","ITI","","html-keyboard-response","215","313685","0.0-1.0-306.0","0","0","34902","","null","","","null","33","","","","","","","","","","","","","","","NaN",""
"","S1","","html-keyboard-response","216","313947","0.0-1.0-308.0","0","0","34902","","null","","","null","34","","","","","","","","","","","","","","","",""
"","ISI","","html-keyboard-response","217","315965","0.0-1.0-309.0","0","0","34902","","null","","","null","34","NaN","","","","","","","","","","","","","","",""
"","S2","","html-keyboard-response","218","316228","0.0-1.0-310.0","0","0","34902","","null","","","null","34","","NaN","","","","","","","","","","","","","",""
"","response","","html-keyboard-response","219","316488","0.0-1.0-311.0","0","0","34902","","253","","","75","34","","","1","34","training","adjacent","GF","7","6","O.jpg","N.jpg","0","0","1","",""
"","feedback","","html-keyboard-response","220","317502","0.0-1.0-312.0-0.0","0","0","34902","","null","","","null","34","","","","","","","","","","","","","","","",""
"","ITI","","html-keyboard-response","221","318513","0.0-1.0-315.0","0","0","34902","","null","","","null","34","","","","","","","","","","","","","","","NaN",""
"","S1","","html-keyboard-response","222","318774","0.0-1.0-317.0","0","0","34902","","null","","","null","35","","","","","","","","","","","","","","","",""
"","ISI","","html-keyboard-response","223","320792","0.0-1.0-318.0","0","0","34902","","null","","","null","35","NaN","","","","","","","","","","","","","","",""
"","S2","","html-keyboard-response","224","321051","0.0-1.0-319.0","0","0","34902","","null","","","null","35","","NaN","","","","","","","","","","","","","",""
"","response","","html-keyboard-response","225","321458","0.0-1.0-320.0","0","0","34902","","400","","","68","35","","","1","35","training","adjacent","DC","4","3","P.jpg","R.jpg","1","0","0","",""
"","feedback","","html-keyboard-response","226","322468","0.0-1.0-321.0-0.0","0","0","34902","","null","","","null","35","","","","","","","","","","","","","","","",""
"","time_out","","html-keyboard-response","227","324480","0.0-1.0-323.0-0.0","0","0","34902","","null","","","null","35","","","","","","","","","","","","","","","",""
"","ITI","","html-keyboard-response","228","325493","0.0-1.0-324.0","0","0","34902","","null","","","null","35","","","","","","","","","","","","","","","NaN",""
"","S1","","html-keyboard-response","229","325753","0.0-1.0-326.0","0","0","34902","","null","","","null","36","","","","","","","","","","","","","","","",""
"","ISI","","html-keyboard-response","230","327760","0.0-1.0-327.0","0","0","34902","","null","","","null","36","NaN","","","","","","","","","","","","","","",""
"","S2","","html-keyboard-response","231","328021","0.0-1.0-328.0","0","0","34902","","null","","","null","36","","NaN","","","","","","","","","","","","","",""
"","response","","html-keyboard-response","232","328333","0.0-1.0-329.0","0","0","34902","","305","","","68","36","","","1","36","training","adjacent","DE","4","5","P.jpg","Q.jpg","1","1","1","",""
"","feedback","","html-keyboard-response","233","329346","0.0-1.0-330.0-0.0","0","0","34902","","null","","","null","36","","","","","","","","","","","","","","","",""
"","ITI","","html-keyboard-response","234","330358","0.0-1.0-333.0","0","0","34902","","null","","","null","36","","","","","","","","","","","","","","","NaN",""
"","S1","","html-keyboard-response","235","330619","0.0-1.0-335.0","0","0","34902","","null","","","null","37","","","","","","","","","","","","","","","",""
"","ISI","","html-keyboard-response","236","332626","0.0-1.0-336.0","0","0","34902","","null","","","null","37","NaN","","","","","","","","","","","","","","",""
"","S2","","html-keyboard-response","237","332888","0.0-1.0-337.0","0","0","34902","","null","","","null","37","","NaN","","","","","","","","","","","","","",""
"","response","","html-keyboard-response","238","333160","0.0-1.0-338.0","0","0","34902","","267","","","68","37","","","1","37","training","adjacent","BC","2","3","M.jpg","R.jpg","1","1","1","",""
"","feedback","","html-keyboard-response","239","334169","0.0-1.0-339.0-0.0","0","0","34902","","null","","","null","37","","","","","","","","","","","","","","","",""
"","ITI","","html-keyboard-response","240","335186","0.0-1.0-342.0","0","0","34902","","null","","","null","37","","","","","","","","","","","","","","","NaN",""
"","S1","","html-keyboard-response","241","335447","0.0-1.0-344.0","0","0","34902","","null","","","null","38","","","","","","","","","","","","","","","",""
"","ISI","","html-keyboard-response","242","337461","0.0-1.0-345.0","0","0","34902","","null","","","null","38","NaN","","","","","","","","","","","","","","",""
"","S2","","html-keyboard-response","243","337723","0.0-1.0-346.0","0","0","34902","","null","","","null","38","","NaN","","","","","","","","","","","","","",""
"","response","","html-keyboard-response","244","338161","0.0-1.0-347.0","0","0","34902","","431","","","68","38","","","1","38","training","adjacent","GF","7","6","O.jpg","N.jpg","1","0","0","",""
"","feedback","","html-keyboard-response","245","339177","0.0-1.0-348.0-0.0","0","0","34902","","null","","","null","38","","","","","","","","","","","","","","","",""
"","time_out","","html-keyboard-response","246","341186","0.0-1.0-350.0-0.0","0","0","34902","","null","","","null","38","","","","","","","","","","","","","","","",""
"","ITI","","html-keyboard-response","247","342195","0.0-1.0-351.0","0","0","34902","","null","","","null","38","","","","","","","","","","","","","","","NaN",""
"","S1","","html-keyboard-response","248","342456","0.0-1.0-353.0","0","0","34902","","null","","","null","39","","","","","","","","","","","","","","","",""
"","ISI","","html-keyboard-response","249","344465","0.0-1.0-354.0","0","0","34902","","null","","","null","39","NaN","","","","","","","","","","","","","","",""
"","S2","","html-keyboard-response","250","344726","0.0-1.0-355.0","0","0","34902","","null","","","null","39","","NaN","","","","","","","","","","","","","",""
"","response","","html-keyboard-response","251","345164","0.0-1.0-356.0","0","0","34902","","431","","","68","39","","","1","39","training","adjacent","FG","6","7","N.jpg","O.jpg","1","1","1","",""
"","feedback","","html-keyboard-response","252","346182","0.0-1.0-357.0-0.0","0","0","34902","","null","","","null","39","","","","","","","","","","","","","","","",""
"","ITI","","html-keyboard-response","253","347195","0.0-1.0-360.0","0","0","34902","","null","","","null","39","","","","","","","","","","","","","","","NaN",""
"","S1","","html-keyboard-response","254","347457","0.0-1.0-362.0","0","0","34902","","null","","","null","40","","","","","","","","","","","","","","","",""
"","ISI","","html-keyboard-response","255","349464","0.0-1.0-363.0","0","0","34902","","null","","","null","40","NaN","","","","","","","","","","","","","","",""
"","S2","","html-keyboard-response","256","349725","0.0-1.0-364.0","0","0","34902","","null","","","null","40","","NaN","","","","","","","","","","","","","",""
"","response","","html-keyboard-response","257","350155","0.0-1.0-365.0","0","0","34902","","424","","","75","40","","","1","40","training","adjacent","FE","6","5","N.jpg","Q.jpg","0","0","1","",""
"","feedback","","html-keyboard-response","258","351161","0.0-1.0-366.0-0.0","0","0","34902","","null","","","null","40","","","","","","","","","","","","","","","",""
"","ITI","","html-keyboard-response","259","352171","0.0-1.0-369.0","0","0","34902","","null","","","null","40","","","","","","","","","","","","","","","NaN",""
"","S1","","html-keyboard-response","260","352433","0.0-1.0-371.0","0","0","34902","","null","","","null","41","","","","","","","","","","","","","","","",""
"","ISI","","html-keyboard-response","261","354442","0.0-1.0-372.0","0","0","34902","","null","","","null","41","NaN","","","","","","","","","","","","","","",""
"","S2","","html-keyboard-response","262","354703","0.0-1.0-373.0","0","0","34902","","null","","","null","41","","NaN","","","","","","","","","","","","","",""
"","response","","html-keyboard-response","263","355128","0.0-1.0-374.0","0","0","34902","","419","","","68","41","","","1","41","training","adjacent","AB","1","2","L.jpg","M.jpg","1","1","1","",""
"","feedback","","html-keyboard-response","264","356141","0.0-1.0-375.0-0.0","0","0","34902","","null","","","null","41","","","","","","","","","","","","","","","",""
"","ITI","","html-keyboard-response","265","357151","0.0-1.0-378.0","0","0","34902","","null","","","null","41","","","","","","","","","","","","","","","NaN",""
"","S1","","html-keyboard-response","266","357412","0.0-1.0-380.0","0","0","34902","","null","","","null","42","","","","","","","","","","","","","","","",""
"","ISI","","html-keyboard-response","267","359418","0.0-1.0-381.0","0","0","34902","","null","","","null","42","NaN","","","","","","","","","","","","","","",""
"","S2","","html-keyboard-response","268","359679","0.0-1.0-382.0","0","0","34902","","null","","","null","42","","NaN","","","","","","","","","","","","","",""
"","response","","html-keyboard-response","269","360103","0.0-1.0-383.0","0","0","34902","","418","","","75","42","","","1","42","training","adjacent","CB","3","2","R.jpg","M.jpg","0","0","1","",""
"","feedback","","html-keyboard-response","270","361113","0.0-1.0-384.0-0.0","0","0","34902","","null","","","null","42","","","","","","","","","","","","","","","",""
"","ITI","","html-keyboard-response","271","362123","0.0-1.0-387.0","0","0","34902","","null","","","null","42","","","","","","","","","","","","","","","NaN",""
"","S1","","html-keyboard-response","272","362383","0.0-1.0-389.0","0","0","34902","","null","","","null","43","","","","","","","","","","","","","","","",""
"","ISI","","html-keyboard-response","273","364389","0.0-1.0-390.0","0","0","34902","","null","","","null","43","NaN","","","","","","","","","","","","","","",""
"","S2","","html-keyboard-response","274","364651","0.0-1.0-391.0","0","0","34902","","null","","","null","43","","NaN","","","","","","","","","","","","","",""
"","response","","html-keyboard-response","275","365182","0.0-1.0-392.0","0","0","34902","","526","","","75","43","","","1","43","training","adjacent","FE","6","5","N.jpg","Q.jpg","0","0","1","",""
"","feedback","","html-keyboard-response","276","366196","0.0-1.0-393.0-0.0","0","0","34902","","null","","","null","43","","","","","","","","","","","","","","","",""
"","ITI","","html-keyboard-response","277","367205","0.0-1.0-396.0","0","0","34902","","null","","","null","43","","","","","","","","","","","","","","","NaN",""
"","S1","","html-keyboard-response","278","367476","0.0-1.0-398.0","0","0","34902","","null","","","null","44","","","","","","","","","","","","","","","",""
"","ISI","","html-keyboard-response","279","369487","0.0-1.0-399.0","0","0","34902","","null","","","null","44","NaN","","","","","","","","","","","","","","",""
"","S2","","html-keyboard-response","280","369747","0.0-1.0-400.0","0","0","34902","","null","","","null","44","","NaN","","","","","","","","","","","","","",""
"","response","","html-keyboard-response","281","370147","0.0-1.0-401.0","0","0","34902","","395","","","68","44","","","1","44","training","adjacent","CD","3","4","R.jpg","P.jpg","1","1","1","",""
"","feedback","","html-keyboard-response","282","371163","0.0-1.0-402.0-0.0","0","0","34902","","null","","","null","44","","","","","","","","","","","","","","","",""
"","ITI","","html-keyboard-response","283","372169","0.0-1.0-405.0","0","0","34902","","null","","","null","44","","","","","","","","","","","","","","","NaN",""
"","S1","","html-keyboard-response","284","372430","0.0-1.0-407.0","0","0","34902","","null","","","null","45","","","","","","","","","","","","","","","",""
"","ISI","","html-keyboard-response","285","374442","0.0-1.0-408.0","0","0","34902","","null","","","null","45","NaN","","","","","","","","","","","","","","",""
"","S2","","html-keyboard-response","286","374704","0.0-1.0-409.0","0","0","34902","","null","","","null","45","","NaN","","","","","","","","","","","","","",""
"","response","","html-keyboard-response","287","375116","0.0-1.0-410.0","0","0","34902","","406","","","75","45","","","1","45","training","adjacent","ED","5","4","Q.jpg","P.jpg","0","0","1","",""
"","feedback","","html-keyboard-response","288","376127","0.0-1.0-411.0-0.0","0","0","34902","","null","","","null","45","","","","","","","","","","","","","","","",""
"","ITI","","html-keyboard-response","289","377142","0.0-1.0-414.0","0","0","34902","","null","","","null","45","","","","","","","","","","","","","","","NaN",""
"","S1","","html-keyboard-response","290","377406","0.0-1.0-416.0","0","0","34902","","null","","","null","46","","","","","","","","","","","","","","","",""
"","ISI","","html-keyboard-response","291","379420","0.0-1.0-417.0","0","0","34902","","null","","","null","46","NaN","","","","","","","","","","","","","","",""
"","S2","","html-keyboard-response","292","379682","0.0-1.0-418.0","0","0","34902","","null","","","null","46","","NaN","","","","","","","","","","","","","",""
"","response","","html-keyboard-response","293","379971","0.0-1.0-419.0","0","0","34902","","283","","","75","46","","","1","46","training","adjacent","BA","2","1","M.jpg","L.jpg","0","0","1","",""
"","feedback","","html-keyboard-response","294","380979","0.0-1.0-420.0-0.0","0","0","34902","","null","","","null","46","","","","","","","","","","","","","","","",""
"","ITI","","html-keyboard-response","295","381990","0.0-1.0-423.0","0","0","34902","","null","","","null","46","","","","","","","","","","","","","","","NaN",""
"","S1","","html-keyboard-response","296","382252","0.0-1.0-425.0","0","0","34902","","null","","","null","47","","","","","","","","","","","","","","","",""
"","ISI","","html-keyboard-response","297","384260","0.0-1.0-426.0","0","0","34902","","null","","","null","47","NaN","","","","","","","","","","","","","","",""
"","S2","","html-keyboard-response","298","384522","0.0-1.0-427.0","0","0","34902","","null","","","null","47","","NaN","","","","","","","","","","","","","",""
"","response","","html-keyboard-response","299","385037","0.0-1.0-428.0","0","0","34902","","508","","","75","47","","","1","47","training","adjacent","CD","3","4","R.jpg","P.jpg","0","1","0","",""
"","feedback","","html-keyboard-response","300","386044","0.0-1.0-429.0-0.0","0","0","34902","","null","","","null","47","","","","","","","","","","","","","","","",""
"","time_out","","html-keyboard-response","301","388052","0.0-1.0-431.0-0.0","0","0","34902","","null","","","null","47","","","","","","","","","","","","","","","",""
"","ITI","","html-keyboard-response","302","389062","0.0-1.0-432.0","0","0","34902","","null","","","null","47","","","","","","","","","","","","","","","NaN",""
"","block_over","","html-keyboard-response","303","392429","0.0-1.0-433.0-0.0","0","0","34902","","3358","","","32","47","","","","","","","","","","","","","","","",""
"","S1","","html-keyboard-response","304","392687","0.0-1.0-434.0","0","0","34902","","null","","","null","48","","","","","","","","","","","","","","","",""
"","ISI","","html-keyboard-response","305","394693","0.0-1.0-435.0","0","0","34902","","null","","","null","48","NaN","","","","","","","","","","","","","","",""
"","S2","","html-keyboard-response","306","394955","0.0-1.0-436.0","0","0","34902","","null","","","null","48","","NaN","","","","","","","","","","","","","",""
"","response","","html-keyboard-response","307","395186","0.0-1.0-437.0","0","0","34902","","226","","","68","48","","","2","48","training","adjacent","AB","1","2","L.jpg","M.jpg","1","1","1","",""
"","feedback","","html-keyboard-response","308","396204","0.0-1.0-438.0-0.0","0","0","34902","","null","","","null","48","","","","","","","","","","","","","","","",""
"","ITI","","html-keyboard-response","309","397212","0.0-1.0-441.0","0","0","34902","","null","","","null","48","","","","","","","","","","","","","","","NaN",""
"","S1","","html-keyboard-response","310","397473","0.0-1.0-443.0","0","0","34902","","null","","","null","49","","","","","","","","","","","","","","","",""
"","ISI","","html-keyboard-response","311","399483","0.0-1.0-444.0","0","0","34902","","null","","","null","49","NaN","","","","","","","","","","","","","","",""
"","S2","","html-keyboard-response","312","399742","0.0-1.0-445.0","0","0","34902","","null","","","null","49","","NaN","","","","","","","","","","","","","",""
"","response","","html-keyboard-response","313","400492","0.0-1.0-446.0","0","0","34902","","743","","","68","49","","","2","49","training","adjacent","BC","2","3","M.jpg","R.jpg","1","1","1","",""
"","feedback","","html-keyboard-response","314","401500","0.0-1.0-447.0-0.0","0","0","34902","","null","","","null","49","","","","","","","","","","","","","","","",""
"","ITI","","html-keyboard-response","315","402508","0.0-1.0-450.0","0","0","34902","","null","","","null","49","","","","","","","","","","","","","","","NaN",""
"","S1","","html-keyboard-response","316","402770","0.0-1.0-452.0","0","0","34902","","null","","","null","50","","","","","","","","","","","","","","","",""
"","ISI","","html-keyboard-response","317","404781","0.0-1.0-453.0","0","0","34902","","null","","","null","50","NaN","","","","","","","","","","","","","","",""
"","S2","","html-keyboard-response","318","405045","0.0-1.0-454.0","0","0","34902","","null","","","null","50","","NaN","","","","","","","","","","","","","",""
"","response","","html-keyboard-response","319","405503","0.0-1.0-455.0","0","0","34902","","454","","","68","50","","","2","50","training","adjacent","DE","4","5","P.jpg","Q.jpg","1","1","1","",""
"","feedback","","html-keyboard-response","320","406518","0.0-1.0-456.0-0.0","0","0","34902","","null","","","null","50","","","","","","","","","","","","","","","",""
"","ITI","","html-keyboard-response","321","407525","0.0-1.0-459.0","0","0","34902","","null","","","null","50","","","","","","","","","","","","","","","NaN",""
"","S1","","html-keyboard-response","322","407784","0.0-1.0-461.0","0","0","34902","","null","","","null","51","","","","","","","","","","","","","","","",""
"","ISI","","html-keyboard-response","323","409794","0.0-1.0-462.0","0","0","34902","","null","","","null","51","NaN","","","","","","","","","","","","","","",""
"","S2","","html-keyboard-response","324","410055","0.0-1.0-463.0","0","0","34902","","null","","","null","51","","NaN","","","","","","","","","","","","","",""
"","response","","html-keyboard-response","325","410447","0.0-1.0-464.0","0","0","34902","","386","","","68","51","","","2","51","training","adjacent","EF","5","6","Q.jpg","N.jpg","1","1","1","",""
"","feedback","","html-keyboard-response","326","411461","0.0-1.0-465.0-0.0","0","0","34902","","null","","","null","51","","","","","","","","","","","","","","","",""
"","ITI","","html-keyboard-response","327","412471","0.0-1.0-468.0","0","0","34902","","null","","","null","51","","","","","","","","","","","","","","","NaN",""
"","S1","","html-keyboard-response","328","412734","0.0-1.0-470.0","0","0","34902","","null","","","null","52","","","","","","","","","","","","","","","",""
"","ISI","","html-keyboard-response","329","414745","0.0-1.0-471.0","0","0","34902","","null","","","null","52","NaN","","","","","","","","","","","","","","",""
"","S2","","html-keyboard-response","330","415006","0.0-1.0-472.0","0","0","34902","","null","","","null","52","","NaN","","","","","","","","","","","","","",""
"","response","","html-keyboard-response","331","415860","0.0-1.0-473.0","0","0","34902","","848","","","75","52","","","2","52","training","adjacent","DE","4","5","P.jpg","Q.jpg","0","1","0","",""
"","feedback","","html-keyboard-response","332","416871","0.0-1.0-474.0-0.0","0","0","34902","","null","","","null","52","","","","","","","","","","","","","","","",""
"","time_out","","html-keyboard-response","333","418882","0.0-1.0-476.0-0.0","0","0","34902","","null","","","null","52","","","","","","","","","","","","","","","",""
"","ITI","","html-keyboard-response","334","419887","0.0-1.0-477.0","0","0","34902","","null","","","null","52","","","","","","","","","","","","","","","NaN",""
"","S1","","html-keyboard-response","335","420149","0.0-1.0-479.0","0","0","34902","","null","","","null","53","","","","","","","","","","","","","","","",""
"","ISI","","html-keyboard-response","336","422162","0.0-1.0-480.0","0","0","34902","","null","","","null","53","NaN","","","","","","","","","","","","","","",""
"","S2","","html-keyboard-response","337","422418","0.0-1.0-481.0","0","0","34902","","null","","","null","53","","NaN","","","","","","","","","","","","","",""
"","response","","html-keyboard-response","338","422819","0.0-1.0-482.0","0","0","34902","","395","","","75","53","","","2","53","training","adjacent","FE","6","5","N.jpg","Q.jpg","0","0","1","",""
"","feedback","","html-keyboard-response","339","423841","0.0-1.0-483.0-0.0","0","0","34902","","null","","","null","53","","","","","","","","","","","","","","","",""
"","ITI","","html-keyboard-response","340","424854","0.0-1.0-486.0","0","0","34902","","null","","","null","53","","","","","","","","","","","","","","","NaN",""
"","S1","","html-keyboard-response","341","425114","0.0-1.0-488.0","0","0","34902","","null","","","null","54","","","","","","","","","","","","","","","",""
"","ISI","","html-keyboard-response","342","427121","0.0-1.0-489.0","0","0","34902","","null","","","null","54","NaN","","","","","","","","","","","","","","",""
"","S2","","html-keyboard-response","343","427385","0.0-1.0-490.0","0","0","34902","","null","","","null","54","","NaN","","","","","","","","","","","","","",""
"","response","","html-keyboard-response","344","427791","0.0-1.0-491.0","0","0","34902","","399","","","68","54","","","2","54","training","adjacent","FG","6","7","N.jpg","O.jpg","1","1","1","",""
"","feedback","","html-keyboard-response","345","428798","0.0-1.0-492.0-0.0","0","0","34902","","null","","","null","54","","","","","","","","","","","","","","","",""
"","ITI","","html-keyboard-response","346","429808","0.0-1.0-495.0","0","0","34902","","null","","","null","54","","","","","","","","","","","","","","","NaN",""
"","S1","","html-keyboard-response","347","430070","0.0-1.0-497.0","0","0","34902","","null","","","null","55","","","","","","","","","","","","","","","",""
"","ISI","","html-keyboard-response","348","432081","0.0-1.0-498.0","0","0","34902","","null","","","null","55","NaN","","","","","","","","","","","","","","",""
"","S2","","html-keyboard-response","349","432345","0.0-1.0-499.0","0","0","34902","","null","","","null","55","","NaN","","","","","","","","","","","","","",""
"","response","","html-keyboard-response","350","432988","0.0-1.0-500.0","0","0","34902","","636","","","75","55","","","2","55","training","adjacent","FE","6","5","N.jpg","Q.jpg","0","0","1","",""
"","feedback","","html-keyboard-response","351","433999","0.0-1.0-501.0-0.0","0","0","34902","","null","","","null","55","","","","","","","","","","","","","","","",""
"","ITI","","html-keyboard-response","352","435011","0.0-1.0-504.0","0","0","34902","","null","","","null","55","","","","","","","","","","","","","","","NaN",""
"","S1","","html-keyboard-response","353","435273","0.0-1.0-506.0","0","0","34902","","null","","","null","56","","","","","","","","","","","","","","","",""
"","ISI","","html-keyboard-response","354","437286","0.0-1.0-507.0","0","0","34902","","null","","","null","56","NaN","","","","","","","","","","","","","","",""
"","S2","","html-keyboard-response","355","437549","0.0-1.0-508.0","0","0","34902","","null","","","null","56","","NaN","","","","","","","","","","","","","",""
"","response","","html-keyboard-response","356","438208","0.0-1.0-509.0","0","0","34902","","652","","","68","56","","","2","56","training","adjacent","CB","3","2","R.jpg","M.jpg","1","0","0","",""
"","feedback","","html-keyboard-response","357","439228","0.0-1.0-510.0-0.0","0","0","34902","","null","","","null","56","","","","","","","","","","","","","","","",""
"","time_out","","html-keyboard-response","358","441237","0.0-1.0-512.0-0.0","0","0","34902","","null","","","null","56","","","","","","","","","","","","","","","",""
"","ITI","","html-keyboard-response","359","442247","0.0-1.0-513.0","0","0","34902","","null","","","null","56","","","","","","","","","","","","","","","NaN",""
"","S1","","html-keyboard-response","360","442504","0.0-1.0-515.0","0","0","34902","","null","","","null","57","","","","","","","","","","","","","","","",""
"","ISI","","html-keyboard-response","361","444508","0.0-1.0-516.0","0","0","34902","","null","","","null","57","NaN","","","","","","","","","","","","","","",""
"","S2","","html-keyboard-response","362","444771","0.0-1.0-517.0","0","0","34902","","null","","","null","57","","NaN","","","","","","","","","","","","","",""
"","response","","html-keyboard-response","363","445533","0.0-1.0-518.0","0","0","34902","","758","","","75","57","","","2","57","training","adjacent","ED","5","4","Q.jpg","P.jpg","0","0","1","",""
"","feedback","","html-keyboard-response","364","446541","0.0-1.0-519.0-0.0","0","0","34902","","null","","","null","57","","","","","","","","","","","","","","","",""
"","ITI","","html-keyboard-response","365","447554","0.0-1.0-522.0","0","0","34902","","null","","","null","57","","","","","","","","","","","","","","","NaN",""
"","S1","","html-keyboard-response","366","447814","0.0-1.0-524.0","0","0","34902","","null","","","null","58","","","","","","","","","","","","","","","",""
"","ISI","","html-keyboard-response","367","449822","0.0-1.0-525.0","0","0","34902","","null","","","null","58","NaN","","","","","","","","","","","","","","",""
"","S2","","html-keyboard-response","368","450083","0.0-1.0-526.0","0","0","34902","","null","","","null","58","","NaN","","","","","","","","","","","","","",""
"","response","","html-keyboard-response","369","450434","0.0-1.0-527.0","0","0","34902","","344","","","68","58","","","2","58","training","adjacent","EF","5","6","Q.jpg","N.jpg","1","1","1","",""
"","feedback","","html-keyboard-response","370","451447","0.0-1.0-528.0-0.0","0","0","34902","","null","","","null","58","","","","","","","","","","","","","","","",""
"","ITI","","html-keyboard-response","371","452461","0.0-1.0-531.0","0","0","34902","","null","","","null","58","","","","","","","","","","","","","","","NaN",""
"","S1","","html-keyboard-response","372","452722","0.0-1.0-533.0","0","0","34902","","null","","","null","59","","","","","","","","","","","","","","","",""
"","ISI","","html-keyboard-response","373","454730","0.0-1.0-534.0","0","0","34902","","null","","","null","59","NaN","","","","","","","","","","","","","","",""
"","S2","","html-keyboard-response","374","454995","0.0-1.0-535.0","0","0","34902","","null","","","null","59","","NaN","","","","","","","","","","","","","",""
"","response","","html-keyboard-response","375","455626","0.0-1.0-536.0","0","0","34902","","624","","","75","59","","","2","59","training","adjacent","CD","3","4","R.jpg","P.jpg","0","1","0","",""
"","feedback","","html-keyboard-response","376","456634","0.0-1.0-537.0-0.0","0","0","34902","","null","","","null","59","","","","","","","","","","","","","","","",""
"","time_out","","html-keyboard-response","377","458645","0.0-1.0-539.0-0.0","0","0","34902","","null","","","null","59","","","","","","","","","","","","","","","",""
"","ITI","","html-keyboard-response","378","459659","0.0-1.0-540.0","0","0","34902","","null","","","null","59","","","","","","","","","","","","","","","NaN",""
"","S1","","html-keyboard-response","379","459920","0.0-1.0-542.0","0","0","34902","","null","","","null","60","","","","","","","","","","","","","","","",""
"","ISI","","html-keyboard-response","380","461929","0.0-1.0-543.0","0","0","34902","","null","","","null","60","NaN","","","","","","","","","","","","","","",""
"","S2","","html-keyboard-response","381","462192","0.0-1.0-544.0","0","0","34902","","null","","","null","60","","NaN","","","","","","","","","","","","","",""
"","response","","html-keyboard-response","382","462689","0.0-1.0-545.0","0","0","34902","","491","","","75","60","","","2","60","training","adjacent","CD","3","4","R.jpg","P.jpg","0","1","0","",""
"","feedback","","html-keyboard-response","383","463696","0.0-1.0-546.0-0.0","0","0","34902","","null","","","null","60","","","","","","","","","","","","","","","",""
"","time_out","","html-keyboard-response","384","465703","0.0-1.0-548.0-0.0","0","0","34902","","null","","","null","60","","","","","","","","","","","","","","","",""
"","ITI","","html-keyboard-response","385","466711","0.0-1.0-549.0","0","0","34902","","null","","","null","60","","","","","","","","","","","","","","","NaN",""
"","S1","","html-keyboard-response","386","466973","0.0-1.0-551.0","0","0","34902","","null","","","null","61","","","","","","","","","","","","","","","",""
"","ISI","","html-keyboard-response","387","468984","0.0-1.0-552.0","0","0","34902","","null","","","null","61","NaN","","","","","","","","","","","","","","",""
"","S2","","html-keyboard-response","388","469244","0.0-1.0-553.0","0","0","34902","","null","","","null","61","","NaN","","","","","","","","","","","","","",""
"","response","","html-keyboard-response","389","469690","0.0-1.0-554.0","0","0","34902","","442","","","68","61","","","2","61","training","adjacent","BC","2","3","M.jpg","R.jpg","1","1","1","",""
"","feedback","","html-keyboard-response","390","470697","0.0-1.0-555.0-0.0","0","0","34902","","null","","","null","61","","","","","","","","","","","","","","","",""
"","ITI","","html-keyboard-response","391","471709","0.0-1.0-558.0","0","0","34902","","null","","","null","61","","","","","","","","","","","","","","","NaN",""
"","S1","","html-keyboard-response","392","471971","0.0-1.0-560.0","0","0","34902","","null","","","null","62","","","","","","","","","","","","","","","",""
"","ISI","","html-keyboard-response","393","473983","0.0-1.0-561.0","0","0","34902","","null","","","null","62","NaN","","","","","","","","","","","","","","",""
"","S2","","html-keyboard-response","394","474246","0.0-1.0-562.0","0","0","34902","","null","","","null","62","","NaN","","","","","","","","","","","","","",""
"","response","","html-keyboard-response","395","474597","0.0-1.0-563.0","0","0","34902","","343","","","75","62","","","2","62","training","adjacent","GF","7","6","O.jpg","N.jpg","0","0","1","",""
"","feedback","","html-keyboard-response","396","475605","0.0-1.0-564.0-0.0","0","0","34902","","null","","","null","62","","","","","","","","","","","","","","","",""
"","ITI","","html-keyboard-response","397","476612","0.0-1.0-567.0","0","0","34902","","null","","","null","62","","","","","","","","","","","","","","","NaN",""
"","S1","","html-keyboard-response","398","476872","0.0-1.0-569.0","0","0","34902","","null","","","null","63","","","","","","","","","","","","","","","",""
"","ISI","","html-keyboard-response","399","478883","0.0-1.0-570.0","0","0","34902","","null","","","null","63","NaN","","","","","","","","","","","","","","",""
"","S2","","html-keyboard-response","400","479145","0.0-1.0-571.0","0","0","34902","","null","","","null","63","","NaN","","","","","","","","","","","","","",""
"","response","","html-keyboard-response","401","479728","0.0-1.0-572.0","0","0","34902","","578","","","68","63","","","2","63","training","adjacent","DC","4","3","P.jpg","R.jpg","1","0","0","",""
"","feedback","","html-keyboard-response","402","480743","0.0-1.0-573.0-0.0","0","0","34902","","null","","","null","63","","","","","","","","","","","","","","","",""
"","time_out","","html-keyboard-response","403","482758","0.0-1.0-575.0-0.0","0","0","34902","","null","","","null","63","","","","","","","","","","","","","","","",""
"","ITI","","html-keyboard-response","404","483763","0.0-1.0-576.0","0","0","34902","","null","","","null","63","","","","","","","","","","","","","","","NaN",""
"","S1","","html-keyboard-response","405","484022","0.0-1.0-578.0","0","0","34902","","null","","","null","64","","","","","","","","","","","","","","","",""
"","ISI","","html-keyboard-response","406","486036","0.0-1.0-579.0","0","0","34902","","null","","","null","64","NaN","","","","","","","","","","","","","","",""
"","S2","","html-keyboard-response","407","486298","0.0-1.0-580.0","0","0","34902","","null","","","null","64","","NaN","","","","","","","","","","","","","",""
"","response","","html-keyboard-response","408","486648","0.0-1.0-581.0","0","0","34902","","346","","","68","64","","","2","64","training","adjacent","AB","1","2","L.jpg","M.jpg","1","1","1","",""
"","feedback","","html-keyboard-response","409","487654","0.0-1.0-582.0-0.0","0","0","34902","","null","","","null","64","","","","","","","","","","","","","","","",""
"","ITI","","html-keyboard-response","410","488661","0.0-1.0-585.0","0","0","34902","","null","","","null","64","","","","","","","","","","","","","","","NaN",""
"","S1","","html-keyboard-response","411","488917","0.0-1.0-587.0","0","0","34902","","null","","","null","65","","","","","","","","","","","","","","","",""
"","ISI","","html-keyboard-response","412","490925","0.0-1.0-588.0","0","0","34902","","null","","","null","65","NaN","","","","","","","","","","","","","","",""
"","S2","","html-keyboard-response","413","491199","0.0-1.0-589.0","0","0","34902","","null","","","null","65","","NaN","","","","","","","","","","","","","",""
"","response","","html-keyboard-response","414","491864","0.0-1.0-590.0","0","0","34902","","660","","","75","65","","","2","65","training","adjacent","CB","3","2","R.jpg","M.jpg","0","0","1","",""
"","feedback","","html-keyboard-response","415","492872","0.0-1.0-591.0-0.0","0","0","34902","","null","","","null","65","","","","","","","","","","","","","","","",""
"","ITI","","html-keyboard-response","416","493881","0.0-1.0-594.0","0","0","34902","","null","","","null","65","","","","","","","","","","","","","","","NaN",""
"","S1","","html-keyboard-response","417","494142","0.0-1.0-596.0","0","0","34902","","null","","","null","66","","","","","","","","","","","","","","","",""
"","ISI","","html-keyboard-response","418","496150","0.0-1.0-597.0","0","0","34902","","null","","","null","66","NaN","","","","","","","","","","","","","","",""
"","S2","","html-keyboard-response","419","496415","0.0-1.0-598.0","0","0","34902","","null","","","null","66","","NaN","","","","","","","","","","","","","",""
"","response","","html-keyboard-response","420","496799","0.0-1.0-599.0","0","0","34902","","377","","","68","66","","","2","66","training","adjacent","EF","5","6","Q.jpg","N.jpg","1","1","1","",""
"","feedback","","html-keyboard-response","421","497807","0.0-1.0-600.0-0.0","0","0","34902","","null","","","null","66","","","","","","","","","","","","","","","",""
"","ITI","","html-keyboard-response","422","498829","0.0-1.0-603.0","0","0","34902","","null","","","null","66","","","","","","","","","","","","","","","NaN",""
"","S1","","html-keyboard-response","423","499090","0.0-1.0-605.0","0","0","34902","","null","","","null","67","","","","","","","","","","","","","","","",""
"","ISI","","html-keyboard-response","424","501100","0.0-1.0-606.0","0","0","34902","","null","","","null","67","NaN","","","","","","","","","","","","","","",""
"","S2","","html-keyboard-response","425","501355","0.0-1.0-607.0","0","0","34902","","null","","","null","67","","NaN","","","","","","","","","","","","","",""
"","response","","html-keyboard-response","426","501965","0.0-1.0-608.0","0","0","34902","","604","","","75","67","","","2","67","training","adjacent","CB","3","2","R.jpg","M.jpg","0","0","1","",""
"","feedback","","html-keyboard-response","427","502979","0.0-1.0-609.0-0.0","0","0","34902","","null","","","null","67","","","","","","","","","","","","","","","",""
"","ITI","","html-keyboard-response","428","503990","0.0-1.0-612.0","0","0","34902","","null","","","null","67","","","","","","","","","","","","","","","NaN",""
"","S1","","html-keyboard-response","429","504257","0.0-1.0-614.0","0","0","34902","","null","","","null","68","","","","","","","","","","","","","","","",""
"","ISI","","html-keyboard-response","430","506262","0.0-1.0-615.0","0","0","34902","","null","","","null","68","NaN","","","","","","","","","","","","","","",""
"","S2","","html-keyboard-response","431","506525","0.0-1.0-616.0","0","0","34902","","null","","","null","68","","NaN","","","","","","","","","","","","","",""
"","response","","html-keyboard-response","432","507313","0.0-1.0-617.0","0","0","34902","","782","","","68","68","","","2","68","training","adjacent","EF","5","6","Q.jpg","N.jpg","1","1","1","",""
"","feedback","","html-keyboard-response","433","508321","0.0-1.0-618.0-0.0","0","0","34902","","null","","","null","68","","","","","","","","","","","","","","","",""
"","ITI","","html-keyboard-response","434","509330","0.0-1.0-621.0","0","0","34902","","null","","","null","68","","","","","","","","","","","","","","","NaN",""
"","S1","","html-keyboard-response","435","509592","0.0-1.0-623.0","0","0","34902","","null","","","null","69","","","","","","","","","","","","","","","",""
"","ISI","","html-keyboard-response","436","511602","0.0-1.0-624.0","0","0","34902","","null","","","null","69","NaN","","","","","","","","","","","","","","",""
"","S2","","html-keyboard-response","437","511863","0.0-1.0-625.0","0","0","34902","","null","","","null","69","","NaN","","","","","","","","","","","","","",""
"","response","","html-keyboard-response","438","512281","0.0-1.0-626.0","0","0","34902","","411","","","75","69","","","2","69","training","adjacent","BA","2","1","M.jpg","L.jpg","0","0","1","",""
"","feedback","","html-keyboard-response","439","513302","0.0-1.0-627.0-0.0","0","0","34902","","null","","","null","69","","","","","","","","","","","","","","","",""
"","ITI","","html-keyboard-response","440","514317","0.0-1.0-630.0","0","0","34902","","null","","","null","69","","","","","","","","","","","","","","","NaN",""
"","S1","","html-keyboard-response","441","514578","0.0-1.0-632.0","0","0","34902","","null","","","null","70","","","","","","","","","","","","","","","",""
"","ISI","","html-keyboard-response","442","516587","0.0-1.0-633.0","0","0","34902","","null","","","null","70","NaN","","","","","","","","","","","","","","",""
"","S2","","html-keyboard-response","443","516849","0.0-1.0-634.0","0","0","34902","","null","","","null","70","","NaN","","","","","","","","","","","","","",""
"","response","","html-keyboard-response","444","516997","0.0-1.0-635.0","0","0","34902","","143","","","75","70","","","2","70","training","adjacent","GF","7","6","O.jpg","N.jpg","0","0","1","",""
"","feedback","","html-keyboard-response","445","518024","0.0-1.0-636.0-0.0","0","0","34902","","null","","","null","70","","","","","","","","","","","","","","","",""
"","ITI","","html-keyboard-response","446","519038","0.0-1.0-639.0","0","0","34902","","null","","","null","70","","","","","","","","","","","","","","","NaN",""
"","S1","","html-keyboard-response","447","519300","0.0-1.0-641.0","0","0","34902","","null","","","null","71","","","","","","","","","","","","","","","",""
"","ISI","","html-keyboard-response","448","521307","0.0-1.0-642.0","0","0","34902","","null","","","null","71","NaN","","","","","","","","","","","","","","",""
"","S2","","html-keyboard-response","449","521570","0.0-1.0-643.0","0","0","34902","","null","","","null","71","","NaN","","","","","","","","","","","","","",""
"","response","","html-keyboard-response","450","522076","0.0-1.0-644.0","0","0","34902","","498","","","68","71","","","2","71","training","adjacent","FG","6","7","N.jpg","O.jpg","1","1","1","",""
"","feedback","","html-keyboard-response","451","523084","0.0-1.0-645.0-0.0","0","0","34902","","null","","","null","71","","","","","","","","","","","","","","","",""
"","ITI","","html-keyboard-response","452","524094","0.0-1.0-648.0","0","0","34902","","null","","","null","71","","","","","","","","","","","","","","","NaN",""
"","S1","","html-keyboard-response","453","524356","0.0-1.0-650.0","0","0","34902","","null","","","null","72","","","","","","","","","","","","","","","",""
"","ISI","","html-keyboard-response","454","526366","0.0-1.0-651.0","0","0","34902","","null","","","null","72","NaN","","","","","","","","","","","","","","",""
"","S2","","html-keyboard-response","455","526629","0.0-1.0-652.0","0","0","34902","","null","","","null","72","","NaN","","","","","","","","","","","","","",""
"","response","","html-keyboard-response","456","527049","0.0-1.0-653.0","0","0","34902","","414","","","75","72","","","2","72","training","adjacent","FE","6","5","N.jpg","Q.jpg","0","0","1","",""
"","feedback","","html-keyboard-response","457","528073","0.0-1.0-654.0-0.0","0","0","34902","","null","","","null","72","","","","","","","","","","","","","","","",""
"","ITI","","html-keyboard-response","458","529082","0.0-1.0-657.0","0","0","34902","","null","","","null","72","","","","","","","","","","","","","","","NaN",""
"","S1","","html-keyboard-response","459","529344","0.0-1.0-659.0","0","0","34902","","null","","","null","73","","","","","","","","","","","","","","","",""
"","ISI","","html-keyboard-response","460","531352","0.0-1.0-660.0","0","0","34902","","null","","","null","73","NaN","","","","","","","","","","","","","","",""
"","S2","","html-keyboard-response","461","531617","0.0-1.0-661.0","0","0","34902","","null","","","null","73","","NaN","","","","","","","","","","","","","",""
"","response","","html-keyboard-response","462","532003","0.0-1.0-662.0","0","0","34902","","380","","","75","73","","","2","73","training","adjacent","BA","2","1","M.jpg","L.jpg","0","0","1","",""
"","feedback","","html-keyboard-response","463","533016","0.0-1.0-663.0-0.0","0","0","34902","","null","","","null","73","","","","","","","","","","","","","","","",""
"","ITI","","html-keyboard-response","464","534026","0.0-1.0-666.0","0","0","34902","","null","","","null","73","","","","","","","","","","","","","","","NaN",""
"","S1","","html-keyboard-response","465","534289","0.0-1.0-668.0","0","0","34902","","null","","","null","74","","","","","","","","","","","","","","","",""
"","ISI","","html-keyboard-response","466","536295","0.0-1.0-669.0","0","0","34902","","null","","","null","74","NaN","","","","","","","","","","","","","","",""
"","S2","","html-keyboard-response","467","536556","0.0-1.0-670.0","0","0","34902","","null","","","null","74","","NaN","","","","","","","","","","","","","",""
"","response","","html-keyboard-response","468","537226","0.0-1.0-671.0","0","0","34902","","667","","","68","74","","","2","74","training","adjacent","BC","2","3","M.jpg","R.jpg","1","1","1","",""
"","feedback","","html-keyboard-response","469","538237","0.0-1.0-672.0-0.0","0","0","34902","","null","","","null","74","","","","","","","","","","","","","","","",""
"","ITI","","html-keyboard-response","470","539245","0.0-1.0-675.0","0","0","34902","","null","","","null","74","","","","","","","","","","","","","","","NaN",""
"","S1","","html-keyboard-response","471","539507","0.0-1.0-677.0","0","0","34902","","null","","","null","75","","","","","","","","","","","","","","","",""
"","ISI","","html-keyboard-response","472","541514","0.0-1.0-678.0","0","0","34902","","null","","","null","75","NaN","","","","","","","","","","","","","","",""
"","S2","","html-keyboard-response","473","541777","0.0-1.0-679.0","0","0","34902","","null","","","null","75","","NaN","","","","","","","","","","","","","",""
"","response","","html-keyboard-response","474","542018","0.0-1.0-680.0","0","0","34902","","236","","","75","75","","","2","75","training","adjacent","FE","6","5","N.jpg","Q.jpg","0","0","1","",""
"","feedback","","html-keyboard-response","475","543038","0.0-1.0-681.0-0.0","0","0","34902","","null","","","null","75","","","","","","","","","","","","","","","",""
"","ITI","","html-keyboard-response","476","544048","0.0-1.0-684.0","0","0","34902","","null","","","null","75","","","","","","","","","","","","","","","NaN",""
"","S1","","html-keyboard-response","477","544311","0.0-1.0-686.0","0","0","34902","","null","","","null","76","","","","","","","","","","","","","","","",""
"","ISI","","html-keyboard-response","478","546321","0.0-1.0-687.0","0","0","34902","","null","","","null","76","NaN","","","","","","","","","","","","","","",""
"","S2","","html-keyboard-response","479","546584","0.0-1.0-688.0","0","0","34902","","null","","","null","76","","NaN","","","","","","","","","","","","","",""
"","response","","html-keyboard-response","480","546872","0.0-1.0-689.0","0","0","34902","","282","","","75","76","","","2","76","training","adjacent","GF","7","6","O.jpg","N.jpg","0","0","1","",""
"","feedback","","html-keyboard-response","481","547894","0.0-1.0-690.0-0.0","0","0","34902","","null","","","null","76","","","","","","","","","","","","","","","",""
"","ITI","","html-keyboard-response","482","548904","0.0-1.0-693.0","0","0","34902","","null","","","null","76","","","","","","","","","","","","","","","NaN",""
"","S1","","html-keyboard-response","483","549160","0.0-1.0-695.0","0","0","34902","","null","","","null","77","","","","","","","","","","","","","","","",""
"","ISI","","html-keyboard-response","484","551171","0.0-1.0-696.0","0","0","34902","","null","","","null","77","NaN","","","","","","","","","","","","","","",""
"","S2","","html-keyboard-response","485","551433","0.0-1.0-697.0","0","0","34902","","null","","","null","77","","NaN","","","","","","","","","","","","","",""
"","response","","html-keyboard-response","486","551839","0.0-1.0-698.0","0","0","34902","","400","","","68","77","","","2","77","training","adjacent","FG","6","7","N.jpg","O.jpg","1","1","1","",""
"","feedback","","html-keyboard-response","487","552858","0.0-1.0-699.0-0.0","0","0","34902","","null","","","null","77","","","","","","","","","","","","","","","",""
"","ITI","","html-keyboard-response","488","553870","0.0-1.0-702.0","0","0","34902","","null","","","null","77","","","","","","","","","","","","","","","NaN",""
"","S1","","html-keyboard-response","489","554131","0.0-1.0-704.0","0","0","34902","","null","","","null","78","","","","","","","","","","","","","","","",""
"","ISI","","html-keyboard-response","490","556145","0.0-1.0-705.0","0","0","34902","","null","","","null","78","NaN","","","","","","","","","","","","","","",""
"","S2","","html-keyboard-response","491","556407","0.0-1.0-706.0","0","0","34902","","null","","","null","78","","NaN","","","","","","","","","","","","","",""
"","response","","html-keyboard-response","492","556892","0.0-1.0-707.0","0","0","34902","","478","","","75","78","","","2","78","training","adjacent","BA","2","1","M.jpg","L.jpg","0","0","1","",""
"","feedback","","html-keyboard-response","493","557902","0.0-1.0-708.0-0.0","0","0","34902","","null","","","null","78","","","","","","","","","","","","","","","",""
"","ITI","","html-keyboard-response","494","558913","0.0-1.0-711.0","0","0","34902","","null","","","null","78","","","","","","","","","","","","","","","NaN",""
"","S1","","html-keyboard-response","495","559175","0.0-1.0-713.0","0","0","34902","","null","","","null","79","","","","","","","","","","","","","","","",""
"","ISI","","html-keyboard-response","496","561186","0.0-1.0-714.0","0","0","34902","","null","","","null","79","NaN","","","","","","","","","","","","","","",""
"","S2","","html-keyboard-response","497","561449","0.0-1.0-715.0","0","0","34902","","null","","","null","79","","NaN","","","","","","","","","","","","","",""
"","response","","html-keyboard-response","498","561816","0.0-1.0-716.0","0","0","34902","","360","","","68","79","","","2","79","training","adjacent","CD","3","4","R.jpg","P.jpg","1","1","1","",""
"","feedback","","html-keyboard-response","499","562828","0.0-1.0-717.0-0.0","0","0","34902","","null","","","null","79","","","","","","","","","","","","","","","",""
"","ITI","","html-keyboard-response","500","563847","0.0-1.0-720.0","0","0","34902","","null","","","null","79","","","","","","","","","","","","","","","NaN",""
"","S1","","html-keyboard-response","501","564107","0.0-1.0-722.0","0","0","34902","","null","","","null","80","","","","","","","","","","","","","","","",""
"","ISI","","html-keyboard-response","502","566119","0.0-1.0-723.0","0","0","34902","","null","","","null","80","NaN","","","","","","","","","","","","","","",""
"","S2","","html-keyboard-response","503","566381","0.0-1.0-724.0","0","0","34902","","null","","","null","80","","NaN","","","","","","","","","","","","","",""
"","response","","html-keyboard-response","504","566789","0.0-1.0-725.0","0","0","34902","","403","","","75","80","","","2","80","training","adjacent","DE","4","5","P.jpg","Q.jpg","0","1","0","",""
"","feedback","","html-keyboard-response","505","567804","0.0-1.0-726.0-0.0","0","0","34902","","null","","","null","80","","","","","","","","","","","","","","","",""
"","time_out","","html-keyboard-response","506","569812","0.0-1.0-728.0-0.0","0","0","34902","","null","","","null","80","","","","","","","","","","","","","","","",""
"","ITI","","html-keyboard-response","507","570824","0.0-1.0-729.0","0","0","34902","","null","","","null","80","","","","","","","","","","","","","","","NaN",""
"","S1","","html-keyboard-response","508","571084","0.0-1.0-731.0","0","0","34902","","null","","","null","81","","","","","","","","","","","","","","","",""
"","ISI","","html-keyboard-response","509","573092","0.0-1.0-732.0","0","0","34902","","null","","","null","81","NaN","","","","","","","","","","","","","","",""
"","S2","","html-keyboard-response","510","573354","0.0-1.0-733.0","0","0","34902","","null","","","null","81","","NaN","","","","","","","","","","","","","",""
"","response","","html-keyboard-response","511","574200","0.0-1.0-734.0","0","0","34902","","839","","","75","81","","","2","81","training","adjacent","ED","5","4","Q.jpg","P.jpg","0","0","1","",""
"","feedback","","html-keyboard-response","512","575212","0.0-1.0-735.0-0.0","0","0","34902","","null","","","null","81","","","","","","","","","","","","","","","",""
"","ITI","","html-keyboard-response","513","576221","0.0-1.0-738.0","0","0","34902","","null","","","null","81","","","","","","","","","","","","","","","NaN",""
"","S1","","html-keyboard-response","514","576483","0.0-1.0-740.0","0","0","34902","","null","","","null","82","","","","","","","","","","","","","","","",""
"","ISI","","html-keyboard-response","515","578491","0.0-1.0-741.0","0","0","34902","","null","","","null","82","NaN","","","","","","","","","","","","","","",""
"","S2","","html-keyboard-response","516","578752","0.0-1.0-742.0","0","0","34902","","null","","","null","82","","NaN","","","","","","","","","","","","","",""
"","response","","html-keyboard-response","517","579548","0.0-1.0-743.0","0","0","34902","","789","","","68","82","","","2","82","training","adjacent","BC","2","3","M.jpg","R.jpg","1","1","1","",""
"","feedback","","html-keyboard-response","518","580560","0.0-1.0-744.0-0.0","0","0","34902","","null","","","null","82","","","","","","","","","","","","","","","",""
"","ITI","","html-keyboard-response","519","581570","0.0-1.0-747.0","0","0","34902","","null","","","null","82","","","","","","","","","","","","","","","NaN",""
"","S1","","html-keyboard-response","520","581832","0.0-1.0-749.0","0","0","34902","","null","","","null","83","","","","","","","","","","","","","","","",""
"","ISI","","html-keyboard-response","521","583843","0.0-1.0-750.0","0","0","34902","","null","","","null","83","NaN","","","","","","","","","","","","","","",""
"","S2","","html-keyboard-response","522","584104","0.0-1.0-751.0","0","0","34902","","null","","","null","83","","NaN","","","","","","","","","","","","","",""
"","response","","html-keyboard-response","523","585071","0.0-1.0-752.0","0","0","34902","","961","","","75","83","","","2","83","training","adjacent","DC","4","3","P.jpg","R.jpg","0","0","1","",""
"","feedback","","html-keyboard-response","524","586083","0.0-1.0-753.0-0.0","0","0","34902","","null","","","null","83","","","","","","","","","","","","","","","",""
"","ITI","","html-keyboard-response","525","587090","0.0-1.0-756.0","0","0","34902","","null","","","null","83","","","","","","","","","","","","","","","NaN",""
"","S1","","html-keyboard-response","526","587353","0.0-1.0-758.0","0","0","34902","","null","","","null","84","","","","","","","","","","","","","","","",""
"","ISI","","html-keyboard-response","527","589365","0.0-1.0-759.0","0","0","34902","","null","","","null","84","NaN","","","","","","","","","","","","","","",""
"","S2","","html-keyboard-response","528","589628","0.0-1.0-760.0","0","0","34902","","null","","","null","84","","NaN","","","","","","","","","","","","","",""
"","response","","html-keyboard-response","529","590557","0.0-1.0-761.0","0","0","34902","","923","","","68","84","","","2","84","training","adjacent","ED","5","4","Q.jpg","P.jpg","1","0","0","",""
"","feedback","","html-keyboard-response","530","591569","0.0-1.0-762.0-0.0","0","0","34902","","null","","","null","84","","","","","","","","","","","","","","","",""
"","time_out","","html-keyboard-response","531","593582","0.0-1.0-764.0-0.0","0","0","34902","","null","","","null","84","","","","","","","","","","","","","","","",""
"","ITI","","html-keyboard-response","532","594591","0.0-1.0-765.0","0","0","34902","","null","","","null","84","","","","","","","","","","","","","","","NaN",""
"","S1","","html-keyboard-response","533","594850","0.0-1.0-767.0","0","0","34902","","null","","","null","85","","","","","","","","","","","","","","","",""
"","ISI","","html-keyboard-response","534","596863","0.0-1.0-768.0","0","0","34902","","null","","","null","85","NaN","","","","","","","","","","","","","","",""
"","S2","","html-keyboard-response","535","597125","0.0-1.0-769.0","0","0","34902","","null","","","null","85","","NaN","","","","","","","","","","","","","",""
"","response","","html-keyboard-response","536","598167","0.0-1.0-770.0","0","0","34902","","1037","","","68","85","","","2","85","training","adjacent","CD","3","4","R.jpg","P.jpg","1","1","1","",""
"","feedback","","html-keyboard-response","537","599177","0.0-1.0-771.0-0.0","0","0","34902","","null","","","null","85","","","","","","","","","","","","","","","",""
"","ITI","","html-keyboard-response","538","600188","0.0-1.0-774.0","0","0","34902","","null","","","null","85","","","","","","","","","","","","","","","NaN",""
"","S1","","html-keyboard-response","539","600451","0.0-1.0-776.0","0","0","34902","","null","","","null","86","","","","","","","","","","","","","","","",""
"","ISI","","html-keyboard-response","540","602462","0.0-1.0-777.0","0","0","34902","","null","","","null","86","NaN","","","","","","","","","","","","","","",""
"","S2","","html-keyboard-response","541","602722","0.0-1.0-778.0","0","0","34902","","null","","","null","86","","NaN","","","","","","","","","","","","","",""
"","response","","html-keyboard-response","542","603262","0.0-1.0-779.0","0","0","34902","","534","","","75","86","","","2","86","training","adjacent","CB","3","2","R.jpg","M.jpg","0","0","1","",""
"","feedback","","html-keyboard-response","543","604283","0.0-1.0-780.0-0.0","0","0","34902","","null","","","null","86","","","","","","","","","","","","","","","",""
"","ITI","","html-keyboard-response","544","605299","0.0-1.0-783.0","0","0","34902","","null","","","null","86","","","","","","","","","","","","","","","NaN",""
"","S1","","html-keyboard-response","545","605571","0.0-1.0-785.0","0","0","34902","","null","","","null","87","","","","","","","","","","","","","","","",""
"","ISI","","html-keyboard-response","546","607576","0.0-1.0-786.0","0","0","34902","","null","","","null","87","NaN","","","","","","","","","","","","","","",""
"","S2","","html-keyboard-response","547","607838","0.0-1.0-787.0","0","0","34902","","null","","","null","87","","NaN","","","","","","","","","","","","","",""
"","response","","html-keyboard-response","548","608787","0.0-1.0-788.0","0","0","34902","","944","","","75","87","","","2","87","training","adjacent","DC","4","3","P.jpg","R.jpg","0","0","1","",""
"","feedback","","html-keyboard-response","549","609796","0.0-1.0-789.0-0.0","0","0","34902","","null","","","null","87","","","","","","","","","","","","","","","",""
"","ITI","","html-keyboard-response","550","610803","0.0-1.0-792.0","0","0","34902","","null","","","null","87","","","","","","","","","","","","","","","NaN",""
"","S1","","html-keyboard-response","551","611060","0.0-1.0-794.0","0","0","34902","","null","","","null","88","","","","","","","","","","","","","","","",""
"","ISI","","html-keyboard-response","552","613067","0.0-1.0-795.0","0","0","34902","","null","","","null","88","NaN","","","","","","","","","","","","","","",""
"","S2","","html-keyboard-response","553","613329","0.0-1.0-796.0","0","0","34902","","null","","","null","88","","NaN","","","","","","","","","","","","","",""
"","response","","html-keyboard-response","554","614090","0.0-1.0-797.0","0","0","34902","","756","","","68","88","","","2","88","training","adjacent","DE","4","5","P.jpg","Q.jpg","1","1","1","",""
"","feedback","","html-keyboard-response","555","615103","0.0-1.0-798.0-0.0","0","0","34902","","null","","","null","88","","","","","","","","","","","","","","","",""
"","ITI","","html-keyboard-response","556","616115","0.0-1.0-801.0","0","0","34902","","null","","","null","88","","","","","","","","","","","","","","","NaN",""
"","S1","","html-keyboard-response","557","616377","0.0-1.0-803.0","0","0","34902","","null","","","null","89","","","","","","","","","","","","","","","",""
"","ISI","","html-keyboard-response","558","618384","0.0-1.0-804.0","0","0","34902","","null","","","null","89","NaN","","","","","","","","","","","","","","",""
"","S2","","html-keyboard-response","559","618646","0.0-1.0-805.0","0","0","34902","","null","","","null","89","","NaN","","","","","","","","","","","","","",""
"","response","","html-keyboard-response","560","618990","0.0-1.0-806.0","0","0","34902","","337","","","68","89","","","2","89","training","adjacent","FG","6","7","N.jpg","O.jpg","1","1","1","",""
"","feedback","","html-keyboard-response","561","620004","0.0-1.0-807.0-0.0","0","0","34902","","null","","","null","89","","","","","","","","","","","","","","","",""
"","ITI","","html-keyboard-response","562","621016","0.0-1.0-810.0","0","0","34902","","null","","","null","89","","","","","","","","","","","","","","","NaN",""
"","S1","","html-keyboard-response","563","621278","0.0-1.0-812.0","0","0","34902","","null","","","null","90","","","","","","","","","","","","","","","",""
"","ISI","","html-keyboard-response","564","623284","0.0-1.0-813.0","0","0","34902","","null","","","null","90","NaN","","","","","","","","","","","","","","",""
"","S2","","html-keyboard-response","565","623546","0.0-1.0-814.0","0","0","34902","","null","","","null","90","","NaN","","","","","","","","","","","","","",""
"","response","","html-keyboard-response","566","623917","0.0-1.0-815.0","0","0","34902","","364","","","75","90","","","2","90","training","adjacent","BA","2","1","M.jpg","L.jpg","0","0","1","",""
"","feedback","","html-keyboard-response","567","624924","0.0-1.0-816.0-0.0","0","0","34902","","null","","","null","90","","","","","","","","","","","","","","","",""
"","ITI","","html-keyboard-response","568","625936","0.0-1.0-819.0","0","0","34902","","null","","","null","90","","","","","","","","","","","","","","","NaN",""
"","S1","","html-keyboard-response","569","626195","0.0-1.0-821.0","0","0","34902","","null","","","null","91","","","","","","","","","","","","","","","",""
"","ISI","","html-keyboard-response","570","628204","0.0-1.0-822.0","0","0","34902","","null","","","null","91","NaN","","","","","","","","","","","","","","",""
"","S2","","html-keyboard-response","571","628465","0.0-1.0-823.0","0","0","34902","","null","","","null","91","","NaN","","","","","","","","","","","","","",""
"","response","","html-keyboard-response","572","629307","0.0-1.0-824.0","0","0","34902","","835","","","68","91","","","2","91","training","adjacent","ED","5","4","Q.jpg","P.jpg","1","0","0","",""
"","feedback","","html-keyboard-response","573","630325","0.0-1.0-825.0-0.0","0","0","34902","","null","","","null","91","","","","","","","","","","","","","","","",""
"","time_out","","html-keyboard-response","574","632336","0.0-1.0-827.0-0.0","0","0","34902","","null","","","null","91","","","","","","","","","","","","","","","",""
"","ITI","","html-keyboard-response","575","633348","0.0-1.0-828.0","0","0","34902","","null","","","null","91","","","","","","","","","","","","","","","NaN",""
"","S1","","html-keyboard-response","576","633609","0.0-1.0-830.0","0","0","34902","","null","","","null","92","","","","","","","","","","","","","","","",""
"","ISI","","html-keyboard-response","577","635619","0.0-1.0-831.0","0","0","34902","","null","","","null","92","NaN","","","","","","","","","","","","","","",""
"","S2","","html-keyboard-response","578","635879","0.0-1.0-832.0","0","0","34902","","null","","","null","92","","NaN","","","","","","","","","","","","","",""
"","response","","html-keyboard-response","579","636905","0.0-1.0-833.0","0","0","34902","","1021","","","75","92","","","2","92","training","adjacent","DC","4","3","P.jpg","R.jpg","0","0","1","",""
"","feedback","","html-keyboard-response","580","637913","0.0-1.0-834.0-0.0","0","0","34902","","null","","","null","92","","","","","","","","","","","","","","","",""
"","ITI","","html-keyboard-response","581","638933","0.0-1.0-837.0","0","0","34902","","null","","","null","92","","","","","","","","","","","","","","","NaN",""
"","S1","","html-keyboard-response","582","639195","0.0-1.0-839.0","0","0","34902","","null","","","null","93","","","","","","","","","","","","","","","",""
"","ISI","","html-keyboard-response","583","641207","0.0-1.0-840.0","0","0","34902","","null","","","null","93","NaN","","","","","","","","","","","","","","",""
"","S2","","html-keyboard-response","584","641469","0.0-1.0-841.0","0","0","34902","","null","","","null","93","","NaN","","","","","","","","","","","","","",""
