"success","ttype","start_time","trial_type","trial_index","time_elapsed","internal_node_id","warning","missed_checkup","PID","view_history","rt","responses","repeat_instructions","key_press","index","keypress_isi","keypress_S2","block","trial_num","phase","group_type","pair_type","S1_stim","S2_stim","S1_img","S2_img","S1_chosen","S1_higher","accuracy","keypress_iti","total_bonus_tally"
"true","full_screen","d03072023hr2040","fullscreen","0","6966","0.0-0.0","0","0","86626","","","","","","","","","","","","","","","","","","","","","",""
"","instructions","","instructions","1","50174","0.0-1.0-0.0-0.0","0","0","86626","[{""page_index"":0,""viewing_time"":7262},{""page_index"":1,""viewing_time"":30540},{""page_index"":2,""viewing_time"":4344},{""page_index"":3,""viewing_time"":1056}]","43203","","","","","","","","","","","","","","","","","","","",""
"","comprehension_check","","survey-multi-choice","2","62942","0.0-1.0-0.0-1.0","0","0","86626","","12760","{""Q0"":""True"",""Q1"":""D"",""Q2"":""Once the second image appears and while the screen 'MAKE A CHOICE' is shown"",""Q3"":""Green mark"",""Q4"":""either D or K""}","0","","","","","","","","","","","","","","","","","",""
"","start_exp","","html-keyboard-response","3","65794","0.0-1.0-1.0","0","0","86626","","2846","","","32","","","","","","","","","","","","","","","","",""
"","S1","","html-keyboard-response","4","66060","0.0-1.0-2.0","0","0","86626","","null","","","null","0","","","","","","","","","","","","","","","",""
"","ISI","","html-keyboard-response","5","67075","0.0-1.0-3.0","0","0","86626","","null","","","null","0","NaN","","","","","","","","","","","","","","",""
"","S2","","html-keyboard-response","6","67340","0.0-1.0-4.0","0","0","86626","","null","","","null","0","","NaN","","","","","","","","","","","","","",""
"","response","","html-keyboard-response","7","68353","0.0-1.0-5.0-0.0","0","0","86626","","1006","","","75","0","","","1","0","training","adjacent","DC","4","3","M.jpg","Q.jpg","0","0","1","",""
"","feedback","","html-keyboard-response","8","69362","0.0-1.0-6.0-0.0","0","0","86626","","null","","","null","0","","","","","","","","","","","","","","","",""
"","ITI","","html-keyboard-response","9","70377","0.0-1.0-9.0","0","0","86626","","null","","","null","0","","","","","","","","","","","","","","","NaN",""
"","S1","","html-keyboard-response","10","70644","0.0-1.0-11.0","0","0","86626","","null","","","null","1","","","","","","","","","","","","","","","",""
"","ISI","","html-keyboard-response","11","71659","0.0-1.0-12.0","0","0","86626","","null","","","null","1","NaN","","","","","","","","","","","","","","",""
"","S2","","html-keyboard-response","12","71923","0.0-1.0-13.0","0","0","86626","","null","","","null","1","","NaN","","","","","","","","","","","","","",""
"","response","","html-keyboard-response","13","72608","0.0-1.0-14.0-0.0","0","0","86626","","680","","","68","1","","","1","1","training","adjacent","BC","2","3","L.jpg","Q.jpg","1","1","1","",""
"","feedback","","html-keyboard-response","14","73618","0.0-1.0-15.0-0.0","0","0","86626","","null","","","null","1","","","","","","","","","","","","","","","",""
"","ITI","","html-keyboard-response","15","74633","0.0-1.0-18.0","0","0","86626","","null","","","null","1","","","","","","","","","","","","","","","NaN",""
"","S1","","html-keyboard-response","16","74897","0.0-1.0-20.0","0","0","86626","","null","","","null","2","","","","","","","","","","","","","","","",""
"","ISI","","html-keyboard-response","17","75905","0.0-1.0-21.0","0","0","86626","","null","","","null","2","NaN","","","","","","","","","","","","","","",""
"","S2","","html-keyboard-response","18","76169","0.0-1.0-22.0","0","0","86626","","null","","","null","2","","NaN","","","","","","","","","","","","","",""
"","response","","html-keyboard-response","19","76785","0.0-1.0-23.0-0.0","0","0","86626","","611","","","75","2","","","1","2","training","adjacent","DC","4","3","M.jpg","Q.jpg","0","0","1","",""
"","feedback","","html-keyboard-response","20","77794","0.0-1.0-24.0-0.0","0","0","86626","","null","","","null","2","","","","","","","","","","","","","","","",""
"","ITI","","html-keyboard-response","21","78812","0.0-1.0-27.0","0","0","86626","","null","","","null","2","","","","","","","","","","","","","","","NaN",""
"","S1","","html-keyboard-response","22","79074","0.0-1.0-29.0","0","0","86626","","null","","","null","3","","","","","","","","","","","","","","","",""
"","ISI","","html-keyboard-response","23","80082","0.0-1.0-30.0","0","0","86626","","null","","","null","3","NaN","","","","","","","","","","","","","","",""
"","S2","","html-keyboard-response","24","80349","0.0-1.0-31.0","0","0","86626","","null","","","null","3","","NaN","","","","","","","","","","","","","",""
"","response","","html-keyboard-response","25","81041","0.0-1.0-32.0-0.0","0","0","86626","","686","","","68","3","","","1","3","training","adjacent","FG","6","7","N.jpg","O.jpg","1","1","1","",""
"","feedback","","html-keyboard-response","26","82050","0.0-1.0-33.0-0.0","0","0","86626","","null","","","null","3","","","","","","","","","","","","","","","",""
"","ITI","","html-keyboard-response","27","83065","0.0-1.0-36.0","0","0","86626","","null","","","null","3","","","","","","","","","","","","","","","NaN",""
"","S1","","html-keyboard-response","28","83330","0.0-1.0-38.0","0","0","86626","","null","","","null","4","","","","","","","","","","","","","","","",""
"","ISI","","html-keyboard-response","29","84345","0.0-1.0-39.0","0","0","86626","","null","","","null","4","NaN","","","","","","","","","","","","","","",""
"","S2","","html-keyboard-response","30","84610","0.0-1.0-40.0","0","0","86626","","null","","","null","4","","NaN","","","","","","","","","","","","","",""
"","response","","html-keyboard-response","31","84801","0.0-1.0-41.0-0.0","0","0","86626","","185","","","68","4","","","1","4","training","adjacent","FG","6","7","N.jpg","O.jpg","1","1","1","",""
"","feedback","","html-keyboard-response","32","85809","0.0-1.0-42.0-0.0","0","0","86626","","null","","","null","4","","","","","","","","","","","","","","","",""
"","ITI","","html-keyboard-response","33","86818","0.0-1.0-45.0","0","0","86626","","null","","","null","4","","","","","","","","","","","","","","","NaN",""
"","S1","","html-keyboard-response","34","87084","0.0-1.0-47.0","0","0","86626","","null","","","null","5","","","","","","","","","","","","","","","",""
"","ISI","","html-keyboard-response","35","88098","0.0-1.0-48.0","0","0","86626","","null","","","null","5","NaN","","","","","","","","","","","","","","",""
"","S2","","html-keyboard-response","36","88362","0.0-1.0-49.0","0","0","86626","","null","","","null","5","","NaN","","","","","","","","","","","","","",""
"","response","","html-keyboard-response","37","89042","0.0-1.0-50.0-0.0","0","0","86626","","674","","","75","5","","","1","5","training","adjacent","BA","2","1","L.jpg","P.jpg","0","0","1","",""
"","feedback","","html-keyboard-response","38","90056","0.0-1.0-51.0-0.0","0","0","86626","","null","","","null","5","","","","","","","","","","","","","","","",""
"","ITI","","html-keyboard-response","39","91064","0.0-1.0-54.0","0","0","86626","","null","","","null","5","","","","","","","","","","","","","","","NaN",""
"","S1","","html-keyboard-response","40","91329","0.0-1.0-56.0","0","0","86626","","null","","","null","6","","","","","","","","","","","","","","","",""
"","ISI","","html-keyboard-response","41","92338","0.0-1.0-57.0","0","0","86626","","null","","","null","6","NaN","","","","","","","","","","","","","","",""
"","S2","","html-keyboard-response","42","92603","0.0-1.0-58.0","0","0","86626","","null","","","null","6","","NaN","","","","","","","","","","","","","",""
"","response","","html-keyboard-response","43","93217","0.0-1.0-59.0-0.0","0","0","86626","","608","","","68","6","","","1","6","training","adjacent","DC","4","3","M.jpg","Q.jpg","1","0","0","",""
"","feedback","","html-keyboard-response","44","94226","0.0-1.0-60.0-0.0","0","0","86626","","null","","","null","6","","","","","","","","","","","","","","","",""
"","time_out","","html-keyboard-response","45","96232","0.0-1.0-62.0-0.0","0","0","86626","","null","","","null","6","","","","","","","","","","","","","","","",""
"","ITI","","html-keyboard-response","46","97239","0.0-1.0-63.0","0","0","86626","","null","","","null","6","","","","","","","","","","","","","","","NaN",""
"","S1","","html-keyboard-response","47","97505","0.0-1.0-65.0","0","0","86626","","null","","","null","7","","","","","","","","","","","","","","","",""
"","ISI","","html-keyboard-response","48","98513","0.0-1.0-66.0","0","0","86626","","603","","","75","7","k","","","","","","","","","","","","","","",""
"","S2","","html-keyboard-response","49","98776","0.0-1.0-67.0","0","0","86626","","null","","","null","7","","NaN","","","","","","","","","","","","","",""
"","response","","html-keyboard-response","50","99497","0.0-1.0-68.0-0.0","0","0","86626","","716","","","68","7","","","1","7","training","adjacent","CD","3","4","Q.jpg","M.jpg","1","1","1","",""
"","feedback","","html-keyboard-response","51","100504","0.0-1.0-69.0-0.0","0","0","86626","","null","","","null","7","","","","","","","","","","","","","","","",""
"","ITI","","html-keyboard-response","52","101512","0.0-1.0-72.0","0","0","86626","","null","","","null","7","","","","","","","","","","","","","","","NaN",""
"","S1","","html-keyboard-response","53","101778","0.0-1.0-74.0","0","0","86626","","null","","","null","8","","","","","","","","","","","","","","","",""
"","ISI","","html-keyboard-response","54","102795","0.0-1.0-75.0","0","0","86626","","null","","","null","8","NaN","","","","","","","","","","","","","","",""
"","S2","","html-keyboard-response","55","103057","0.0-1.0-76.0","0","0","86626","","null","","","null","8","","NaN","","","","","","","","","","","","","",""
"","response","","html-keyboard-response","56","103528","0.0-1.0-77.0-0.0","0","0","86626","","466","","","68","8","","","1","8","training","adjacent","CB","3","2","Q.jpg","L.jpg","1","0","0","",""
"","feedback","","html-keyboard-response","57","104539","0.0-1.0-78.0-0.0","0","0","86626","","null","","","null","8","","","","","","","","","","","","","","","",""
"","time_out","","html-keyboard-response","58","106549","0.0-1.0-80.0-0.0","0","0","86626","","null","","","null","8","","","","","","","","","","","","","","","",""
"","ITI","","html-keyboard-response","59","107562","0.0-1.0-81.0","0","0","86626","","null","","","null","8","","","","","","","","","","","","","","","NaN",""
"","S1","","html-keyboard-response","60","107825","0.0-1.0-83.0","0","0","86626","","null","","","null","9","","","","","","","","","","","","","","","",""
"","ISI","","html-keyboard-response","61","108833","0.0-1.0-84.0","0","0","86626","","null","","","null","9","NaN","","","","","","","","","","","","","","",""
"","S2","","html-keyboard-response","62","109095","0.0-1.0-85.0","0","0","86626","","null","","","null","9","","NaN","","","","","","","","","","","","","",""
"","response","","html-keyboard-response","63","109694","0.0-1.0-86.0-0.0","0","0","86626","","596","","","75","9","","","1","9","training","adjacent","DC","4","3","M.jpg","Q.jpg","0","0","1","",""
"","feedback","","html-keyboard-response","64","110705","0.0-1.0-87.0-0.0","0","0","86626","","null","","","null","9","","","","","","","","","","","","","","","",""
"","ITI","","html-keyboard-response","65","111720","0.0-1.0-90.0","0","0","86626","","null","","","null","9","","","","","","","","","","","","","","","NaN",""
"","S1","","html-keyboard-response","66","111985","0.0-1.0-92.0","0","0","86626","","null","","","null","10","","","","","","","","","","","","","","","",""
"","ISI","","html-keyboard-response","67","112995","0.0-1.0-93.0","0","0","86626","","null","","","null","10","NaN","","","","","","","","","","","","","","",""
"","S2","","html-keyboard-response","68","113255","0.0-1.0-94.0","0","0","86626","","null","","","null","10","","NaN","","","","","","","","","","","","","",""
"","response","","html-keyboard-response","69","114905","0.0-1.0-95.0-0.0","0","0","86626","","1645","","","75","10","","","1","10","training","adjacent","EF","5","6","R.jpg","N.jpg","0","1","0","",""
"","feedback","","html-keyboard-response","70","115921","0.0-1.0-96.0-0.0","0","0","86626","","null","","","null","10","","","","","","","","","","","","","","","",""
"","time_out","","html-keyboard-response","71","117936","0.0-1.0-98.0-0.0","0","0","86626","","null","","","null","10","","","","","","","","","","","","","","","",""
"","ITI","","html-keyboard-response","72","118945","0.0-1.0-99.0","0","0","86626","","null","","","null","10","","","","","","","","","","","","","","","NaN",""
"","S1","","html-keyboard-response","73","119205","0.0-1.0-101.0","0","0","86626","","null","","","null","11","","","","","","","","","","","","","","","",""
"","ISI","","html-keyboard-response","74","120216","0.0-1.0-102.0","0","0","86626","","null","","","null","11","NaN","","","","","","","","","","","","","","",""
"","S2","","html-keyboard-response","75","120481","0.0-1.0-103.0","0","0","86626","","null","","","null","11","","NaN","","","","","","","","","","","","","",""
"","response","","html-keyboard-response","76","120897","0.0-1.0-104.0-0.0","0","0","86626","","411","","","68","11","","","1","11","training","adjacent","GF","7","6","O.jpg","N.jpg","1","0","0","",""
"","feedback","","html-keyboard-response","77","121914","0.0-1.0-105.0-0.0","0","0","86626","","null","","","null","11","","","","","","","","","","","","","","","",""
"","time_out","","html-keyboard-response","78","123927","0.0-1.0-107.0-0.0","0","0","86626","","null","","","null","11","","","","","","","","","","","","","","","",""
"","ITI","","html-keyboard-response","79","124935","0.0-1.0-108.0","0","0","86626","","null","","","null","11","","","","","","","","","","","","","","","NaN",""
"","S1","","html-keyboard-response","80","125201","0.0-1.0-110.0","0","0","86626","","null","","","null","12","","","","","","","","","","","","","","","",""
"","ISI","","html-keyboard-response","81","126215","0.0-1.0-111.0","0","0","86626","","null","","","null","12","NaN","","","","","","","","","","","","","","",""
"","S2","","html-keyboard-response","82","126480","0.0-1.0-112.0","0","0","86626","","null","","","null","12","","NaN","","","","","","","","","","","","","",""
"","response","","html-keyboard-response","83","126957","0.0-1.0-113.0-0.0","0","0","86626","","473","","","75","12","","","1","12","training","adjacent","EF","5","6","R.jpg","N.jpg","0","1","0","",""
"","feedback","","html-keyboard-response","84","127968","0.0-1.0-114.0-0.0","0","0","86626","","null","","","null","12","","","","","","","","","","","","","","","",""
"","time_out","","html-keyboard-response","85","129978","0.0-1.0-116.0-0.0","0","0","86626","","null","","","null","12","","","","","","","","","","","","","","","",""
"","ITI","","html-keyboard-response","86","130993","0.0-1.0-117.0","0","0","86626","","null","","","null","12","","","","","","","","","","","","","","","NaN",""
"","S1","","html-keyboard-response","87","131259","0.0-1.0-119.0","0","0","86626","","null","","","null","13","","","","","","","","","","","","","","","",""
"","ISI","","html-keyboard-response","88","132271","0.0-1.0-120.0","0","0","86626","","null","","","null","13","NaN","","","","","","","","","","","","","","",""
"","S2","","html-keyboard-response","89","132534","0.0-1.0-121.0","0","0","86626","","null","","","null","13","","NaN","","","","","","","","","","","","","",""
"","response","","html-keyboard-response","90","132968","0.0-1.0-122.0-0.0","0","0","86626","","429","","","68","13","","","1","13","training","adjacent","BA","2","1","L.jpg","P.jpg","1","0","0","",""
"","feedback","","html-keyboard-response","91","133984","0.0-1.0-123.0-0.0","0","0","86626","","null","","","null","13","","","","","","","","","","","","","","","",""
"","time_out","","html-keyboard-response","92","135989","0.0-1.0-125.0-0.0","0","0","86626","","null","","","null","13","","","","","","","","","","","","","","","",""
"","ITI","","html-keyboard-response","93","137002","0.0-1.0-126.0","0","0","86626","","null","","","null","13","","","","","","","","","","","","","","","NaN",""
"","S1","","html-keyboard-response","94","137264","0.0-1.0-128.0","0","0","86626","","null","","","null","14","","","","","","","","","","","","","","","",""
"","ISI","","html-keyboard-response","95","138272","0.0-1.0-129.0","0","0","86626","","null","","","null","14","NaN","","","","","","","","","","","","","","",""
"","S2","","html-keyboard-response","96","138521","0.0-1.0-130.0","0","0","86626","","244","","","75","14","","k","1","14","training","adjacent","CB","3","2","Q.jpg","L.jpg","0","0","1","",""
"","feedback","","html-keyboard-response","97","139536","0.0-1.0-132.0-0.0","0","0","86626","","null","","","null","14","","","","","","","","","","","","","","","",""
"","ITI","","html-keyboard-response","98","140544","0.0-1.0-135.0","0","0","86626","","null","","","null","14","","","","","","","","","","","","","","","NaN",""
"","S1","","html-keyboard-response","99","140810","0.0-1.0-137.0","0","0","86626","","null","","","null","15","","","","","","","","","","","","","","","",""
"","ISI","","html-keyboard-response","100","141824","0.0-1.0-138.0","0","0","86626","","null","","","null","15","NaN","","","","","","","","","","","","","","",""
"","S2","","html-keyboard-response","101","142086","0.0-1.0-139.0","0","0","86626","","null","","","null","15","","NaN","","","","","","","","","","","","","",""
"","response","","html-keyboard-response","102","142409","0.0-1.0-140.0-0.0","0","0","86626","","317","","","75","15","","","1","15","training","adjacent","CB","3","2","Q.jpg","L.jpg","0","0","1","",""
"","feedback","","html-keyboard-response","103","143424","0.0-1.0-141.0-0.0","0","0","86626","","null","","","null","15","","","","","","","","","","","","","","","",""
"","ITI","","html-keyboard-response","104","144433","0.0-1.0-144.0","0","0","86626","","null","","","null","15","","","","","","","","","","","","","","","NaN",""
"","S1","","html-keyboard-response","105","144693","0.0-1.0-146.0","0","0","86626","","null","","","null","16","","","","","","","","","","","","","","","",""
"","ISI","","html-keyboard-response","106","145704","0.0-1.0-147.0","0","0","86626","","null","","","null","16","NaN","","","","","","","","","","","","","","",""
"","S2","","html-keyboard-response","107","145968","0.0-1.0-148.0","0","0","86626","","null","","","null","16","","NaN","","","","","","","","","","","","","",""
"","response","","html-keyboard-response","108","146425","0.0-1.0-149.0-0.0","0","0","86626","","452","","","68","16","","","1","16","training","adjacent","CD","3","4","Q.jpg","M.jpg","1","1","1","",""
"","feedback","","html-keyboard-response","109","147442","0.0-1.0-150.0-0.0","0","0","86626","","null","","","null","16","","","","","","","","","","","","","","","",""
"","ITI","","html-keyboard-response","110","148454","0.0-1.0-153.0","0","0","86626","","null","","","null","16","","","","","","","","","","","","","","","NaN",""
"","S1","","html-keyboard-response","111","148720","0.0-1.0-155.0","0","0","86626","","null","","","null","17","","","","","","","","","","","","","","","",""
"","ISI","","html-keyboard-response","112","149728","0.0-1.0-156.0","0","0","86626","","null","","","null","17","NaN","","","","","","","","","","","","","","",""
"","S2","","html-keyboard-response","113","149990","0.0-1.0-157.0","0","0","86626","","null","","","null","17","","NaN","","","","","","","","","","","","","",""
"","response","","html-keyboard-response","114","150513","0.0-1.0-158.0-0.0","0","0","86626","","517","","","68","17","","","1","17","training","adjacent","ED","5","4","R.jpg","M.jpg","1","0","0","",""
"","feedback","","html-keyboard-response","115","151526","0.0-1.0-159.0-0.0","0","0","86626","","null","","","null","17","","","","","","","","","","","","","","","",""
"","time_out","","html-keyboard-response","116","153535","0.0-1.0-161.0-0.0","0","0","86626","","null","","","null","17","","","","","","","","","","","","","","","",""
"","ITI","","html-keyboard-response","117","154543","0.0-1.0-162.0","0","0","86626","","null","","","null","17","","","","","","","","","","","","","","","NaN",""
"","S1","","html-keyboard-response","118","154806","0.0-1.0-164.0","0","0","86626","","null","","","null","18","","","","","","","","","","","","","","","",""
"","ISI","","html-keyboard-response","119","155818","0.0-1.0-165.0","0","0","86626","","null","","","null","18","NaN","","","","","","","","","","","","","","",""
"","S2","","html-keyboard-response","120","156080","0.0-1.0-166.0","0","0","86626","","null","","","null","18","","NaN","","","","","","","","","","","","","",""
"","response","","html-keyboard-response","121","157404","0.0-1.0-167.0-0.0","0","0","86626","","1322","","","68","18","","","1","18","training","adjacent","BC","2","3","L.jpg","Q.jpg","1","1","1","",""
"","feedback","","html-keyboard-response","122","158415","0.0-1.0-168.0-0.0","0","0","86626","","null","","","null","18","","","","","","","","","","","","","","","",""
"","ITI","","html-keyboard-response","123","159423","0.0-1.0-171.0","0","0","86626","","null","","","null","18","","","","","","","","","","","","","","","NaN",""
"","S1","","html-keyboard-response","124","159689","0.0-1.0-173.0","0","0","86626","","null","","","null","19","","","","","","","","","","","","","","","",""
"","ISI","","html-keyboard-response","125","160703","0.0-1.0-174.0","0","0","86626","","null","","","null","19","NaN","","","","","","","","","","","","","","",""
"","S2","","html-keyboard-response","126","160967","0.0-1.0-175.0","0","0","86626","","null","","","null","19","","NaN","","","","","","","","","","","","","",""
"","response","","html-keyboard-response","127","162432","0.0-1.0-176.0-0.0","0","0","86626","","1460","","","75","19","","","1","19","training","adjacent","EF","5","6","R.jpg","N.jpg","0","1","0","",""
"","feedback","","html-keyboard-response","128","163450","0.0-1.0-177.0-0.0","0","0","86626","","null","","","null","19","","","","","","","","","","","","","","","",""
"","time_out","","html-keyboard-response","129","165465","0.0-1.0-179.0-0.0","0","0","86626","","null","","","null","19","","","","","","","","","","","","","","","",""
"","ITI","","html-keyboard-response","130","166479","0.0-1.0-180.0","0","0","86626","","null","","","null","19","","","","","","","","","","","","","","","NaN",""
"","S1","","html-keyboard-response","131","166746","0.0-1.0-182.0","0","0","86626","","null","","","null","20","","","","","","","","","","","","","","","",""
"","ISI","","html-keyboard-response","132","167759","0.0-1.0-183.0","0","0","86626","","null","","","null","20","NaN","","","","","","","","","","","","","","",""
"","S2","","html-keyboard-response","133","168025","0.0-1.0-184.0","0","0","86626","","null","","","null","20","","NaN","","","","","","","","","","","","","",""
"","response","","html-keyboard-response","134","168680","0.0-1.0-185.0-0.0","0","0","86626","","650","","","68","20","","","1","20","training","adjacent","GF","7","6","O.jpg","N.jpg","1","0","0","",""
"","feedback","","html-keyboard-response","135","169695","0.0-1.0-186.0-0.0","0","0","86626","","null","","","null","20","","","","","","","","","","","","","","","",""
"","time_out","","html-keyboard-response","136","171711","0.0-1.0-188.0-0.0","0","0","86626","","null","","","null","20","","","","","","","","","","","","","","","",""
"","ITI","","html-keyboard-response","137","172725","0.0-1.0-189.0","0","0","86626","","null","","","null","20","","","","","","","","","","","","","","","NaN",""
"","S1","","html-keyboard-response","138","172983","0.0-1.0-191.0","0","0","86626","","null","","","null","21","","","","","","","","","","","","","","","",""
"","ISI","","html-keyboard-response","139","173993","0.0-1.0-192.0","0","0","86626","","null","","","null","21","NaN","","","","","","","","","","","","","","",""
"","S2","","html-keyboard-response","140","174255","0.0-1.0-193.0","0","0","86626","","null","","","null","21","","NaN","","","","","","","","","","","","","",""
"","response","","html-keyboard-response","141","175025","0.0-1.0-194.0-0.0","0","0","86626","","765","","","75","21","","","1","21","training","adjacent","EF","5","6","R.jpg","N.jpg","0","1","0","",""
"","feedback","","html-keyboard-response","142","176041","0.0-1.0-195.0-0.0","0","0","86626","","null","","","null","21","","","","","","","","","","","","","","","",""
"","time_out","","html-keyboard-response","143","178055","0.0-1.0-197.0-0.0","0","0","86626","","null","","","null","21","","","","","","","","","","","","","","","",""
"","ITI","","html-keyboard-response","144","179071","0.0-1.0-198.0","0","0","86626","","null","","","null","21","","","","","","","","","","","","","","","NaN",""
"","S1","","html-keyboard-response","145","179334","0.0-1.0-200.0","0","0","86626","","null","","","null","22","","","","","","","","","","","","","","","",""
"","ISI","","html-keyboard-response","146","180345","0.0-1.0-201.0","0","0","86626","","null","","","null","22","NaN","","","","","","","","","","","","","","",""
"","S2","","html-keyboard-response","147","180607","0.0-1.0-202.0","0","0","86626","","null","","","null","22","","NaN","","","","","","","","","","","","","",""
"","response","","html-keyboard-response","148","180841","0.0-1.0-203.0-0.0","0","0","86626","","229","","","68","22","","","1","22","training","adjacent","FE","6","5","N.jpg","R.jpg","1","0","0","",""
"","feedback","","html-keyboard-response","149","181855","0.0-1.0-204.0-0.0","0","0","86626","","null","","","null","22","","","","","","","","","","","","","","","",""
"","time_out","","html-keyboard-response","150","183871","0.0-1.0-206.0-0.0","0","0","86626","","null","","","null","22","","","","","","","","","","","","","","","",""
"","ITI","","html-keyboard-response","151","184880","0.0-1.0-207.0","0","0","86626","","null","","","null","22","","","","","","","","","","","","","","","NaN",""
"","S1","","html-keyboard-response","152","185141","0.0-1.0-209.0","0","0","86626","","null","","","null","23","","","","","","","","","","","","","","","",""
"","ISI","","html-keyboard-response","153","186149","0.0-1.0-210.0","0","0","86626","","null","","","null","23","NaN","","","","","","","","","","","","","","",""
"","S2","","html-keyboard-response","154","186415","0.0-1.0-211.0","0","0","86626","","null","","","null","23","","NaN","","","","","","","","","","","","","",""
"","response","","html-keyboard-response","155","186769","0.0-1.0-212.0-0.0","0","0","86626","","348","","","75","23","","","1","23","training","adjacent","CB","3","2","Q.jpg","L.jpg","0","0","1","",""
"","feedback","","html-keyboard-response","156","187782","0.0-1.0-213.0-0.0","0","0","86626","","null","","","null","23","","","","","","","","","","","","","","","",""
"","ITI","","html-keyboard-response","157","188799","0.0-1.0-216.0","0","0","86626","","null","","","null","23","","","","","","","","","","","","","","","NaN",""
"","S1","","html-keyboard-response","158","189061","0.0-1.0-218.0","0","0","86626","","null","","","null","24","","","","","","","","","","","","","","","",""
"","ISI","","html-keyboard-response","159","190073","0.0-1.0-219.0","0","0","86626","","null","","","null","24","NaN","","","","","","","","","","","","","","",""
"","S2","","html-keyboard-response","160","190335","0.0-1.0-220.0","0","0","86626","","null","","","null","24","","NaN","","","","","","","","","","","","","",""
"","response","","html-keyboard-response","161","191577","0.0-1.0-221.0-0.0","0","0","86626","","1236","","","75","24","","","1","24","training","adjacent","GF","7","6","O.jpg","N.jpg","0","0","1","",""
"","feedback","","html-keyboard-response","162","192590","0.0-1.0-222.0-0.0","0","0","86626","","null","","","null","24","","","","","","","","","","","","","","","",""
"","ITI","","html-keyboard-response","163","193597","0.0-1.0-225.0","0","0","86626","","null","","","null","24","","","","","","","","","","","","","","","NaN",""
"","S1","","html-keyboard-response","164","193861","0.0-1.0-227.0","0","0","86626","","null","","","null","25","","","","","","","","","","","","","","","",""
"","ISI","","html-keyboard-response","165","194873","0.0-1.0-228.0","0","0","86626","","null","","","null","25","NaN","","","","","","","","","","","","","","",""
"","S2","","html-keyboard-response","166","195135","0.0-1.0-229.0","0","0","86626","","null","","","null","25","","NaN","","","","","","","","","","","","","",""
"","response","","html-keyboard-response","167","196894","0.0-1.0-230.0-0.0","0","0","86626","","null","","","null","25","","","1","25","training","adjacent","FG","6","7","N.jpg","O.jpg","NaN","1","0","",""
"","too_slow_prompt","","html-keyboard-response","168","197909","0.0-1.0-232.0-0.0","1","0","86626","","null","","","null","","","","","","","","","","","","","","","","",""
"","time_out","","html-keyboard-response","169","199918","0.0-1.0-233.0-0.0","0","0","86626","","null","","","null","25","","","","","","","","","","","","","","","",""
"","ITI","","html-keyboard-response","170","200925","0.0-1.0-234.0","0","0","86626","","null","","","null","25","","","","","","","","","","","","","","","NaN",""
"","S1","","html-keyboard-response","171","201192","0.0-1.0-236.0","0","0","86626","","null","","","null","26","","","","","","","","","","","","","","","",""
"","ISI","","html-keyboard-response","172","202206","0.0-1.0-237.0","0","0","86626","","null","","","null","26","NaN","","","","","","","","","","","","","","",""
"","S2","","html-keyboard-response","173","202473","0.0-1.0-238.0","0","0","86626","","null","","","null","26","","NaN","","","","","","","","","","","","","",""
"","response","","html-keyboard-response","174","202809","0.0-1.0-239.0-0.0","0","0","86626","","330","","","75","26","","","1","26","training","adjacent","AB","1","2","P.jpg","L.jpg","0","1","0","",""
"","feedback","","html-keyboard-response","175","203822","0.0-1.0-240.0-0.0","0","0","86626","","null","","","null","26","","","","","","","","","","","","","","","",""
"","time_out","","html-keyboard-response","176","205829","0.0-1.0-242.0-0.0","0","0","86626","","null","","","null","26","","","","","","","","","","","","","","","",""
"","ITI","","html-keyboard-response","177","206840","0.0-1.0-243.0","0","0","86626","","null","","","null","26","","","","","","","","","","","","","","","NaN",""
"","S1","","html-keyboard-response","178","207102","0.0-1.0-245.0","0","0","86626","","null","","","null","27","","","","","","","","","","","","","","","",""
"","ISI","","html-keyboard-response","179","208121","0.0-1.0-246.0","0","0","86626","","null","","","null","27","NaN","","","","","","","","","","","","","","",""
"","S2","","html-keyboard-response","180","208382","0.0-1.0-247.0","0","0","86626","","null","","","null","27","","NaN","","","","","","","","","","","","","",""
"","response","","html-keyboard-response","181","208713","0.0-1.0-248.0-0.0","0","0","86626","","325","","","68","27","","","1","27","training","adjacent","DE","4","5","M.jpg","R.jpg","1","1","1","",""
"","feedback","","html-keyboard-response","182","209726","0.0-1.0-249.0-0.0","0","0","86626","","null","","","null","27","","","","","","","","","","","","","","","",""
"","ITI","","html-keyboard-response","183","210738","0.0-1.0-252.0","0","0","86626","","null","","","null","27","","","","","","","","","","","","","","","NaN",""
"","S1","","html-keyboard-response","184","210997","0.0-1.0-254.0","0","0","86626","","null","","","null","28","","","","","","","","","","","","","","","",""
"","ISI","","html-keyboard-response","185","212007","0.0-1.0-255.0","0","0","86626","","null","","","null","28","NaN","","","","","","","","","","","","","","",""
"","S2","","html-keyboard-response","186","212270","0.0-1.0-256.0","0","0","86626","","null","","","null","28","","NaN","","","","","","","","","","","","","",""
"","response","","html-keyboard-response","187","212758","0.0-1.0-257.0-0.0","0","0","86626","","484","","","68","28","","","1","28","training","adjacent","DE","4","5","M.jpg","R.jpg","1","1","1","",""
"","feedback","","html-keyboard-response","188","213774","0.0-1.0-258.0-0.0","0","0","86626","","null","","","null","28","","","","","","","","","","","","","","","",""
"","ITI","","html-keyboard-response","189","214788","0.0-1.0-261.0","0","0","86626","","null","","","null","28","","","","","","","","","","","","","","","NaN",""
"","S1","","html-keyboard-response","190","215053","0.0-1.0-263.0","0","0","86626","","null","","","null","29","","","","","","","","","","","","","","","",""
"","ISI","","html-keyboard-response","191","216061","0.0-1.0-264.0","0","0","86626","","null","","","null","29","NaN","","","","","","","","","","","","","","",""
"","S2","","html-keyboard-response","192","216324","0.0-1.0-265.0","0","0","86626","","null","","","null","29","","NaN","","","","","","","","","","","","","",""
"","response","","html-keyboard-response","193","216913","0.0-1.0-266.0-0.0","0","0","86626","","583","","","75","29","","","1","29","training","adjacent","BC","2","3","L.jpg","Q.jpg","0","1","0","",""
"","feedback","","html-keyboard-response","194","217928","0.0-1.0-267.0-0.0","0","0","86626","","null","","","null","29","","","","","","","","","","","","","","","",""
"","time_out","","html-keyboard-response","195","219944","0.0-1.0-269.0-0.0","0","0","86626","","null","","","null","29","","","","","","","","","","","","","","","",""
"","ITI","","html-keyboard-response","196","220957","0.0-1.0-270.0","0","0","86626","","null","","","null","29","","","","","","","","","","","","","","","NaN",""
"","S1","","html-keyboard-response","197","221223","0.0-1.0-272.0","0","0","86626","","null","","","null","30","","","","","","","","","","","","","","","",""
"","ISI","","html-keyboard-response","198","222238","0.0-1.0-273.0","0","0","86626","","null","","","null","30","NaN","","","","","","","","","","","","","","",""
"","S2","","html-keyboard-response","199","222500","0.0-1.0-274.0","0","0","86626","","null","","","null","30","","NaN","","","","","","","","","","","","","",""
"","response","","html-keyboard-response","200","222921","0.0-1.0-275.0-0.0","0","0","86626","","415","","","68","30","","","1","30","training","adjacent","AB","1","2","P.jpg","L.jpg","1","1","1","",""
"","feedback","","html-keyboard-response","201","223933","0.0-1.0-276.0-0.0","0","0","86626","","null","","","null","30","","","","","","","","","","","","","","","",""
"","ITI","","html-keyboard-response","202","224941","0.0-1.0-279.0","0","0","86626","","null","","","null","30","","","","","","","","","","","","","","","NaN",""
"","S1","","html-keyboard-response","203","225208","0.0-1.0-281.0","0","0","86626","","null","","","null","31","","","","","","","","","","","","","","","",""
"","ISI","","html-keyboard-response","204","226221","0.0-1.0-282.0","0","0","86626","","null","","","null","31","NaN","","","","","","","","","","","","","","",""
"","S2","","html-keyboard-response","205","226484","0.0-1.0-283.0","0","0","86626","","null","","","null","31","","NaN","","","","","","","","","","","","","",""
"","response","","html-keyboard-response","206","226889","0.0-1.0-284.0-0.0","0","0","86626","","399","","","75","31","","","1","31","training","adjacent","FG","6","7","N.jpg","O.jpg","0","1","0","",""
"","feedback","","html-keyboard-response","207","227901","0.0-1.0-285.0-0.0","0","0","86626","","null","","","null","31","","","","","","","","","","","","","","","",""
"","time_out","","html-keyboard-response","208","229908","0.0-1.0-287.0-0.0","0","0","86626","","null","","","null","31","","","","","","","","","","","","","","","",""
"","ITI","","html-keyboard-response","209","230920","0.0-1.0-288.0","0","0","86626","","null","","","null","31","","","","","","","","","","","","","","","NaN",""
"","S1","","html-keyboard-response","210","231181","0.0-1.0-290.0","0","0","86626","","null","","","null","32","","","","","","","","","","","","","","","",""
"","ISI","","html-keyboard-response","211","232189","0.0-1.0-291.0","0","0","86626","","null","","","null","32","NaN","","","","","","","","","","","","","","",""
"","S2","","html-keyboard-response","212","232452","0.0-1.0-292.0","0","0","86626","","null","","","null","32","","NaN","","","","","","","","","","","","","",""
"","response","","html-keyboard-response","213","232913","0.0-1.0-293.0-0.0","0","0","86626","","456","","","68","32","","","1","32","training","adjacent","ED","5","4","R.jpg","M.jpg","1","0","0","",""
"","feedback","","html-keyboard-response","214","233923","0.0-1.0-294.0-0.0","0","0","86626","","null","","","null","32","","","","","","","","","","","","","","","",""
"","time_out","","html-keyboard-response","215","235933","0.0-1.0-296.0-0.0","0","0","86626","","null","","","null","32","","","","","","","","","","","","","","","",""
"","ITI","","html-keyboard-response","216","236951","0.0-1.0-297.0","0","0","86626","","null","","","null","32","","","","","","","","","","","","","","","NaN",""
"","S1","","html-keyboard-response","217","237213","0.0-1.0-299.0","0","0","86626","","null","","","null","33","","","","","","","","","","","","","","","",""
"","ISI","","html-keyboard-response","218","238221","0.0-1.0-300.0","0","0","86626","","null","","","null","33","NaN","","","","","","","","","","","","","","",""
"","S2","","html-keyboard-response","219","238487","0.0-1.0-301.0","0","0","86626","","null","","","null","33","","NaN","","","","","","","","","","","","","",""
"","response","","html-keyboard-response","220","238873","0.0-1.0-302.0-0.0","0","0","86626","","380","","","75","33","","","1","33","training","adjacent","FE","6","5","N.jpg","R.jpg","0","0","1","",""
"","feedback","","html-keyboard-response","221","239885","0.0-1.0-303.0-0.0","0","0","86626","","null","","","null","33","","","","","","","","","","","","","","","",""
"","ITI","","html-keyboard-response","222","240901","0.0-1.0-306.0","0","0","86626","","null","","","null","33","","","","","","","","","","","","","","","NaN",""
"","S1","","html-keyboard-response","223","241165","0.0-1.0-308.0","0","0","86626","","null","","","null","34","","","","","","","","","","","","","","","",""
"","ISI","","html-keyboard-response","224","242181","0.0-1.0-309.0","0","0","86626","","null","","","null","34","NaN","","","","","","","","","","","","","","",""
"","S2","","html-keyboard-response","225","242445","0.0-1.0-310.0","0","0","86626","","null","","","null","34","","NaN","","","","","","","","","","","","","",""
"","response","","html-keyboard-response","226","242953","0.0-1.0-311.0-0.0","0","0","86626","","503","","","68","34","","","1","34","training","adjacent","CD","3","4","Q.jpg","M.jpg","1","1","1","",""
"","feedback","","html-keyboard-response","227","243965","0.0-1.0-312.0-0.0","0","0","86626","","null","","","null","34","","","","","","","","","","","","","","","",""
"","ITI","","html-keyboard-response","228","244981","0.0-1.0-315.0","0","0","86626","","null","","","null","34","","","","","","","","","","","","","","","NaN",""
"","S1","","html-keyboard-response","229","245245","0.0-1.0-317.0","0","0","86626","","null","","","null","35","","","","","","","","","","","","","","","",""
"","ISI","","html-keyboard-response","230","246263","0.0-1.0-318.0","0","0","86626","","null","","","null","35","NaN","","","","","","","","","","","","","","",""
"","S2","","html-keyboard-response","231","246524","0.0-1.0-319.0","0","0","86626","","null","","","null","35","","NaN","","","","","","","","","","","","","",""
"","response","","html-keyboard-response","232","246848","0.0-1.0-320.0-0.0","0","0","86626","","319","","","75","35","","","1","35","training","adjacent","AB","1","2","P.jpg","L.jpg","0","1","0","",""
"","feedback","","html-keyboard-response","233","247862","0.0-1.0-321.0-0.0","0","0","86626","","null","","","null","35","","","","","","","","","","","","","","","",""
"","time_out","","html-keyboard-response","234","249879","0.0-1.0-323.0-0.0","0","0","86626","","null","","","null","35","","","","","","","","","","","","","","","",""
"","ITI","","html-keyboard-response","235","250892","0.0-1.0-324.0","0","0","86626","","null","","","null","35","","","","","","","","","","","","","","","NaN",""
"","S1","","html-keyboard-response","236","251157","0.0-1.0-326.0","0","0","86626","","null","","","null","36","","","","","","","","","","","","","","","",""
"","ISI","","html-keyboard-response","237","252173","0.0-1.0-327.0","0","0","86626","","null","","","null","36","NaN","","","","","","","","","","","","","","",""
"","S2","","html-keyboard-response","238","252438","0.0-1.0-328.0","0","0","86626","","null","","","null","36","","NaN","","","","","","","","","","","","","",""
"","response","","html-keyboard-response","239","253097","0.0-1.0-329.0-0.0","0","0","86626","","653","","","75","36","","","1","36","training","adjacent","BA","2","1","L.jpg","P.jpg","0","0","1","",""
"","feedback","","html-keyboard-response","240","254110","0.0-1.0-330.0-0.0","0","0","86626","","null","","","null","36","","","","","","","","","","","","","","","",""
"","ITI","","html-keyboard-response","241","255123","0.0-1.0-333.0","0","0","86626","","null","","","null","36","","","","","","","","","","","","","","","NaN",""
"","S1","","html-keyboard-response","242","255389","0.0-1.0-335.0","0","0","86626","","null","","","null","37","","","","","","","","","","","","","","","",""
"","ISI","","html-keyboard-response","243","256407","0.0-1.0-336.0","0","0","86626","","null","","","null","37","NaN","","","","","","","","","","","","","","",""
"","S2","","html-keyboard-response","244","256668","0.0-1.0-337.0","0","0","86626","","null","","","null","37","","NaN","","","","","","","","","","","","","",""
"","response","","html-keyboard-response","245","258431","0.0-1.0-338.0-0.0","0","0","86626","","null","","","null","37","","","1","37","training","adjacent","GF","7","6","O.jpg","N.jpg","NaN","0","0","",""
"","too_slow_prompt","","html-keyboard-response","246","259442","0.0-1.0-340.0-0.0","1","0","86626","","null","","","null","","","","","","","","","","","","","","","","",""
"","time_out","","html-keyboard-response","247","261452","0.0-1.0-341.0-0.0","0","0","86626","","null","","","null","37","","","","","","","","","","","","","","","",""
"","ITI","","html-keyboard-response","248","262467","0.0-1.0-342.0","0","0","86626","","null","","","null","37","","","","","","","","","","","","","","","NaN",""
"","S1","","html-keyboard-response","249","262732","0.0-1.0-344.0","0","0","86626","","null","","","null","38","","","","","","","","","","","","","","","",""
"","ISI","","html-keyboard-response","250","263740","0.0-1.0-345.0","0","0","86626","","null","","","null","38","NaN","","","","","","","","","","","","","","",""
"","S2","","html-keyboard-response","251","264002","0.0-1.0-346.0","0","0","86626","","null","","","null","38","","NaN","","","","","","","","","","","","","",""
"","response","","html-keyboard-response","252","264360","0.0-1.0-347.0-0.0","0","0","86626","","353","","","68","38","","","1","38","training","adjacent","BA","2","1","L.jpg","P.jpg","1","0","0","",""
"","feedback","","html-keyboard-response","253","265372","0.0-1.0-348.0-0.0","0","0","86626","","null","","","null","38","","","","","","","","","","","","","","","",""
"","time_out","","html-keyboard-response","254","267380","0.0-1.0-350.0-0.0","0","0","86626","","null","","","null","38","","","","","","","","","","","","","","","",""
"","ITI","","html-keyboard-response","255","268397","0.0-1.0-351.0","0","0","86626","","null","","","null","38","","","","","","","","","","","","","","","NaN",""
"","S1","","html-keyboard-response","256","268659","0.0-1.0-353.0","0","0","86626","","null","","","null","39","","","","","","","","","","","","","","","",""
"","ISI","","html-keyboard-response","257","269670","0.0-1.0-354.0","0","0","86626","","null","","","null","39","NaN","","","","","","","","","","","","","","",""
"","S2","","html-keyboard-response","258","269932","0.0-1.0-355.0","0","0","86626","","null","","","null","39","","NaN","","","","","","","","","","","","","",""
"","response","","html-keyboard-response","259","270224","0.0-1.0-356.0-0.0","0","0","86626","","287","","","75","39","","","1","39","training","adjacent","ED","5","4","R.jpg","M.jpg","0","0","1","",""
"","feedback","","html-keyboard-response","260","271235","0.0-1.0-357.0-0.0","0","0","86626","","null","","","null","39","","","","","","","","","","","","","","","",""
"","ITI","","html-keyboard-response","261","272242","0.0-1.0-360.0","0","0","86626","","null","","","null","39","","","","","","","","","","","","","","","NaN",""
"","S1","","html-keyboard-response","262","272504","0.0-1.0-362.0","0","0","86626","","null","","","null","40","","","","","","","","","","","","","","","",""
"","ISI","","html-keyboard-response","263","273513","0.0-1.0-363.0","0","0","86626","","null","","","null","40","NaN","","","","","","","","","","","","","","",""
"","S2","","html-keyboard-response","264","273772","0.0-1.0-364.0","0","0","86626","","null","","","null","40","","NaN","","","","","","","","","","","","","",""
"","response","","html-keyboard-response","265","274207","0.0-1.0-365.0-0.0","0","0","86626","","430","","","75","40","","","1","40","training","adjacent","FE","6","5","N.jpg","R.jpg","0","0","1","",""
"","feedback","","html-keyboard-response","266","275221","0.0-1.0-366.0-0.0","0","0","86626","","null","","","null","40","","","","","","","","","","","","","","","",""
"","ITI","","html-keyboard-response","267","276236","0.0-1.0-369.0","0","0","86626","","null","","","null","40","","","","","","","","","","","","","","","NaN",""
"","S1","","html-keyboard-response","268","276498","0.0-1.0-371.0","0","0","86626","","null","","","null","41","","","","","","","","","","","","","","","",""
"","ISI","","html-keyboard-response","269","277510","0.0-1.0-372.0","0","0","86626","","null","","","null","41","NaN","","","","","","","","","","","","","","",""
"","S2","","html-keyboard-response","270","277772","0.0-1.0-373.0","0","0","86626","","null","","","null","41","","NaN","","","","","","","","","","","","","",""
"","response","","html-keyboard-response","271","278144","0.0-1.0-374.0-0.0","0","0","86626","","367","","","75","41","","","1","41","training","adjacent","DE","4","5","M.jpg","R.jpg","0","1","0","",""
"","feedback","","html-keyboard-response","272","279157","0.0-1.0-375.0-0.0","0","0","86626","","null","","","null","41","","","","","","","","","","","","","","","",""
"","time_out","","html-keyboard-response","273","281170","0.0-1.0-377.0-0.0","0","0","86626","","null","","","null","41","","","","","","","","","","","","","","","",""
"","ITI","","html-keyboard-response","274","282179","0.0-1.0-378.0","0","0","86626","","null","","","null","41","","","","","","","","","","","","","","","NaN",""
"","S1","","html-keyboard-response","275","282444","0.0-1.0-380.0","0","0","86626","","null","","","null","42","","","","","","","","","","","","","","","",""
"","ISI","","html-keyboard-response","276","283457","0.0-1.0-381.0","0","0","86626","","263","","","68","42","d","","","","","","","","","","","","","","",""
"","S2","","html-keyboard-response","277","283718","0.0-1.0-382.0","0","0","86626","","null","","","null","42","","NaN","","","","","","","","","","","","","",""
"","response","","html-keyboard-response","278","283808","0.0-1.0-383.0-0.0","0","0","86626","","85","","","68","42","","","1","42","training","adjacent","AB","1","2","P.jpg","L.jpg","1","1","1","",""
"","feedback","","html-keyboard-response","279","284818","0.0-1.0-384.0-0.0","0","0","86626","","null","","","null","42","","","","","","","","","","","","","","","",""
"","ITI","","html-keyboard-response","280","285826","0.0-1.0-387.0","0","0","86626","","null","","","null","42","","","","","","","","","","","","","","","NaN",""
"","S1","","html-keyboard-response","281","286092","0.0-1.0-389.0","0","0","86626","","null","","","null","43","","","","","","","","","","","","","","","",""
"","ISI","","html-keyboard-response","282","287099","0.0-1.0-390.0","0","0","86626","","null","","","null","43","NaN","","","","","","","","","","","","","","",""
"","S2","","html-keyboard-response","283","287364","0.0-1.0-391.0","0","0","86626","","null","","","null","43","","NaN","","","","","","","","","","","","","",""
"","response","","html-keyboard-response","284","287934","0.0-1.0-392.0-0.0","0","0","86626","","567","","","68","43","","","1","43","training","adjacent","ED","5","4","R.jpg","M.jpg","1","0","0","",""
"","feedback","","html-keyboard-response","285","288950","0.0-1.0-393.0-0.0","0","0","86626","","null","","","null","43","","","","","","","","","","","","","","","",""
"","time_out","","html-keyboard-response","286","290961","0.0-1.0-395.0-0.0","0","0","86626","","null","","","null","43","","","","","","","","","","","","","","","",""
"","ITI","","html-keyboard-response","287","291970","0.0-1.0-396.0","0","0","86626","","null","","","null","43","","","","","","","","","","","","","","","NaN",""
"","S1","","html-keyboard-response","288","292235","0.0-1.0-398.0","0","0","86626","","null","","","null","44","","","","","","","","","","","","","","","",""
"","ISI","","html-keyboard-response","289","293243","0.0-1.0-399.0","0","0","86626","","null","","","null","44","NaN","","","","","","","","","","","","","","",""
"","S2","","html-keyboard-response","290","293510","0.0-1.0-400.0","0","0","86626","","null","","","null","44","","NaN","","","","","","","","","","","","","",""
"","response","","html-keyboard-response","291","293960","0.0-1.0-401.0-0.0","0","0","86626","","445","","","75","44","","","1","44","training","adjacent","FE","6","5","N.jpg","R.jpg","0","0","1","",""
"","feedback","","html-keyboard-response","292","294971","0.0-1.0-402.0-0.0","0","0","86626","","null","","","null","44","","","","","","","","","","","","","","","",""
"","ITI","","html-keyboard-response","293","295978","0.0-1.0-405.0","0","0","86626","","null","","","null","44","","","","","","","","","","","","","","","NaN",""
"","S1","","html-keyboard-response","294","296242","0.0-1.0-407.0","0","0","86626","","null","","","null","45","","","","","","","","","","","","","","","",""
"","ISI","","html-keyboard-response","295","297249","0.0-1.0-408.0","0","0","86626","","null","","","null","45","NaN","","","","","","","","","","","","","","",""
"","S2","","html-keyboard-response","296","297515","0.0-1.0-409.0","0","0","86626","","null","","","null","45","","NaN","","","","","","","","","","","","","",""
"","response","","html-keyboard-response","297","299275","0.0-1.0-410.0-0.0","0","0","86626","","null","","","null","45","","","1","45","training","adjacent","CD","3","4","Q.jpg","M.jpg","NaN","1","0","",""
"","too_slow_prompt","","html-keyboard-response","298","300289","0.0-1.0-412.0-0.0","1","0","86626","","null","","","null","","","","","","","","","","","","","","","","",""
"","time_out","","html-keyboard-response","299","302299","0.0-1.0-413.0-0.0","0","0","86626","","null","","","null","45","","","","","","","","","","","","","","","",""
"","ITI","","html-keyboard-response","300","303316","0.0-1.0-414.0","0","0","86626","","null","","","null","45","","","","","","","","","","","","","","","NaN",""
"","S1","","html-keyboard-response","301","303579","0.0-1.0-416.0","0","0","86626","","null","","","null","46","","","","","","","","","","","","","","","",""
"","ISI","","html-keyboard-response","302","304587","0.0-1.0-417.0","0","0","86626","","null","","","null","46","NaN","","","","","","","","","","","","","","",""
"","S2","","html-keyboard-response","303","304849","0.0-1.0-418.0","0","0","86626","","null","","","null","46","","NaN","","","","","","","","","","","","","",""
"","response","","html-keyboard-response","304","305169","0.0-1.0-419.0-0.0","0","0","86626","","315","","","68","46","","","1","46","training","adjacent","BC","2","3","L.jpg","Q.jpg","1","1","1","",""
"","feedback","","html-keyboard-response","305","306179","0.0-1.0-420.0-0.0","0","0","86626","","null","","","null","46","","","","","","","","","","","","","","","",""
"","ITI","","html-keyboard-response","306","307185","0.0-1.0-423.0","0","0","86626","","null","","","null","46","","","","","","","","","","","","","","","NaN",""
"","S1","","html-keyboard-response","307","307451","0.0-1.0-425.0","0","0","86626","","null","","","null","47","","","","","","","","","","","","","","","",""
"","ISI","","html-keyboard-response","308","308461","0.0-1.0-426.0","0","0","86626","","null","","","null","47","NaN","","","","","","","","","","","","","","",""
"","S2","","html-keyboard-response","309","308721","0.0-1.0-427.0","0","0","86626","","null","","","null","47","","NaN","","","","","","","","","","","","","",""
"","response","","html-keyboard-response","310","309016","0.0-1.0-428.0-0.0","0","0","86626","","290","","","75","47","","","1","47","training","adjacent","DE","4","5","M.jpg","R.jpg","0","1","0","",""
"","feedback","","html-keyboard-response","311","310029","0.0-1.0-429.0-0.0","0","0","86626","","null","","","null","47","","","","","","","","","","","","","","","",""
"","time_out","","html-keyboard-response","312","312041","0.0-1.0-431.0-0.0","0","0","86626","","null","","","null","47","","","","","","","","","","","","","","","",""
"","ITI","","html-keyboard-response","313","313051","0.0-1.0-432.0","0","0","86626","","null","","","null","47","","","","","","","","","","","","","","","NaN",""
"","block_over","","html-keyboard-response","314","316225","0.0-1.0-433.0-0.0","0","0","86626","","3167","","","32","47","","","","","","","","","","","","","","","",""
"","S1","","html-keyboard-response","315","316491","0.0-1.0-434.0","0","0","86626","","null","","","null","48","","","","","","","","","","","","","","","",""
"","ISI","","html-keyboard-response","316","317504","0.0-1.0-435.0","0","0","86626","","368","","","75","48","k","","","","","","","","","","","","","","",""
"","S2","","html-keyboard-response","317","317761","0.0-1.0-436.0","0","0","86626","","null","","","null","48","","NaN","","","","","","","","","","","","","",""
"","response","","html-keyboard-response","318","318185","0.0-1.0-437.0-0.0","0","0","86626","","418","","","75","48","","","2","48","training","adjacent","FG","6","7","N.jpg","O.jpg","0","1","0","",""
"","feedback","","html-keyboard-response","319","319194","0.0-1.0-438.0-0.0","0","0","86626","","null","","","null","48","","","","","","","","","","","","","","","",""
"","time_out","","html-keyboard-response","320","321208","0.0-1.0-440.0-0.0","0","0","86626","","null","","","null","48","","","","","","","","","","","","","","","",""
"","ITI","","html-keyboard-response","321","322218","0.0-1.0-441.0","0","0","86626","","null","","","null","48","","","","","","","","","","","","","","","NaN",""
"","S1","","html-keyboard-response","322","322481","0.0-1.0-443.0","0","0","86626","","null","","","null","49","","","","","","","","","","","","","","","",""
"","ISI","","html-keyboard-response","323","323488","0.0-1.0-444.0","0","0","86626","","null","","","null","49","NaN","","","","","","","","","","","","","","",""
"","S2","","html-keyboard-response","324","323747","0.0-1.0-445.0","0","0","86626","","null","","","null","49","","NaN","","","","","","","","","","","","","",""
"","response","","html-keyboard-response","325","324063","0.0-1.0-446.0-0.0","0","0","86626","","312","","","68","49","","","2","49","training","adjacent","FE","6","5","N.jpg","R.jpg","1","0","0","",""
"","feedback","","html-keyboard-response","326","325077","0.0-1.0-447.0-0.0","0","0","86626","","null","","","null","49","","","","","","","","","","","","","","","",""
"","time_out","","html-keyboard-response","327","327091","0.0-1.0-449.0-0.0","0","0","86626","","null","","","null","49","","","","","","","","","","","","","","","",""
"","ITI","","html-keyboard-response","328","328101","0.0-1.0-450.0","0","0","86626","","null","","","null","49","","","","","","","","","","","","","","","NaN",""
"","S1","","html-keyboard-response","329","328362","0.0-1.0-452.0","0","0","86626","","null","","","null","50","","","","","","","","","","","","","","","",""
"","ISI","","html-keyboard-response","330","329370","0.0-1.0-453.0","0","0","86626","","null","","","null","50","NaN","","","","","","","","","","","","","","",""
"","S2","","html-keyboard-response","331","329636","0.0-1.0-454.0","0","0","86626","","null","","","null","50","","NaN","","","","","","","","","","","","","",""
"","response","","html-keyboard-response","332","329967","0.0-1.0-455.0-0.0","0","0","86626","","326","","","75","50","","","2","50","training","adjacent","BA","2","1","L.jpg","P.jpg","0","0","1","",""
"","feedback","","html-keyboard-response","333","330978","0.0-1.0-456.0-0.0","0","0","86626","","null","","","null","50","","","","","","","","","","","","","","","",""
"","ITI","","html-keyboard-response","334","331988","0.0-1.0-459.0","0","0","86626","","null","","","null","50","","","","","","","","","","","","","","","NaN",""
"","S1","","html-keyboard-response","335","332250","0.0-1.0-461.0","0","0","86626","","null","","","null","51","","","","","","","","","","","","","","","",""
"","ISI","","html-keyboard-response","336","333258","0.0-1.0-462.0","0","0","86626","","null","","","null","51","NaN","","","","","","","","","","","","","","",""
"","S2","","html-keyboard-response","337","333525","0.0-1.0-463.0","0","0","86626","","null","","","null","51","","NaN","","","","","","","","","","","","","",""
"","response","","html-keyboard-response","338","333928","0.0-1.0-464.0-0.0","0","0","86626","","398","","","68","51","","","2","51","training","adjacent","BC","2","3","L.jpg","Q.jpg","1","1","1","",""
"","feedback","","html-keyboard-response","339","334938","0.0-1.0-465.0-0.0","0","0","86626","","null","","","null","51","","","","","","","","","","","","","","","",""
"","ITI","","html-keyboard-response","340","335955","0.0-1.0-468.0","0","0","86626","","null","","","null","51","","","","","","","","","","","","","","","NaN",""
"","S1","","html-keyboard-response","341","336218","0.0-1.0-470.0","0","0","86626","","null","","","null","52","","","","","","","","","","","","","","","",""
"","ISI","","html-keyboard-response","342","337226","0.0-1.0-471.0","0","0","86626","","null","","","null","52","NaN","","","","","","","","","","","","","","",""
"","S2","","html-keyboard-response","343","337488","0.0-1.0-472.0","0","0","86626","","null","","","null","52","","NaN","","","","","","","","","","","","","",""
"","response","","html-keyboard-response","344","337832","0.0-1.0-473.0-0.0","0","0","86626","","339","","","75","52","","","2","52","training","adjacent","AB","1","2","P.jpg","L.jpg","0","1","0","",""
"","feedback","","html-keyboard-response","345","338842","0.0-1.0-474.0-0.0","0","0","86626","","null","","","null","52","","","","","","","","","","","","","","","",""
"","time_out","","html-keyboard-response","346","340858","0.0-1.0-476.0-0.0","0","0","86626","","null","","","null","52","","","","","","","","","","","","","","","",""
"","ITI","","html-keyboard-response","347","341865","0.0-1.0-477.0","0","0","86626","","null","","","null","52","","","","","","","","","","","","","","","NaN",""
"","S1","","html-keyboard-response","348","342132","0.0-1.0-479.0","0","0","86626","","null","","","null","53","","","","","","","","","","","","","","","",""
"","ISI","","html-keyboard-response","349","343148","0.0-1.0-480.0","0","0","86626","","null","","","null","53","NaN","","","","","","","","","","","","","","",""
"","S2","","html-keyboard-response","350","343409","0.0-1.0-481.0","0","0","86626","","null","","","null","53","","NaN","","","","","","","","","","","","","",""
"","response","","html-keyboard-response","351","343905","0.0-1.0-482.0-0.0","0","0","86626","","490","","","68","53","","","2","53","training","adjacent","ED","5","4","R.jpg","M.jpg","1","0","0","",""
"","feedback","","html-keyboard-response","352","344914","0.0-1.0-483.0-0.0","0","0","86626","","null","","","null","53","","","","","","","","","","","","","","","",""
"","time_out","","html-keyboard-response","353","346929","0.0-1.0-485.0-0.0","0","0","86626","","null","","","null","53","","","","","","","","","","","","","","","",""
"","ITI","","html-keyboard-response","354","347935","0.0-1.0-486.0","0","0","86626","","null","","","null","53","","","","","","","","","","","","","","","NaN",""
"","S1","","html-keyboard-response","355","348202","0.0-1.0-488.0","0","0","86626","","null","","","null","54","","","","","","","","","","","","","","","",""
"","ISI","","html-keyboard-response","356","349220","0.0-1.0-489.0","0","0","86626","","null","","","null","54","NaN","","","","","","","","","","","","","","",""
"","S2","","html-keyboard-response","357","349482","0.0-1.0-490.0","0","0","86626","","null","","","null","54","","NaN","","","","","","","","","","","","","",""
"","response","","html-keyboard-response","358","349865","0.0-1.0-491.0-0.0","0","0","86626","","377","","","75","54","","","2","54","training","adjacent","ED","5","4","R.jpg","M.jpg","0","0","1","",""
"","feedback","","html-keyboard-response","359","350874","0.0-1.0-492.0-0.0","0","0","86626","","null","","","null","54","","","","","","","","","","","","","","","",""
"","ITI","","html-keyboard-response","360","351888","0.0-1.0-495.0","0","0","86626","","null","","","null","54","","","","","","","","","","","","","","","NaN",""
"","S1","","html-keyboard-response","361","352155","0.0-1.0-497.0","0","0","86626","","null","","","null","55","","","","","","","","","","","","","","","",""
"","ISI","","html-keyboard-response","362","353168","0.0-1.0-498.0","0","0","86626","","null","","","null","55","NaN","","","","","","","","","","","","","","",""
"","S2","","html-keyboard-response","363","353434","0.0-1.0-499.0","0","0","86626","","null","","","null","55","","NaN","","","","","","","","","","","","","",""
"","response","","html-keyboard-response","364","355193","0.0-1.0-500.0-0.0","0","0","86626","","null","","","null","55","","","2","55","training","adjacent","CD","3","4","Q.jpg","M.jpg","NaN","1","0","",""
"","too_slow_prompt","","html-keyboard-response","365","356201","0.0-1.0-502.0-0.0","1","0","86626","","null","","","null","","","","","","","","","","","","","","","","",""
"","time_out","","html-keyboard-response","366","358210","0.0-1.0-503.0-0.0","0","0","86626","","null","","","null","55","","","","","","","","","","","","","","","",""
"","ITI","","html-keyboard-response","367","359227","0.0-1.0-504.0","0","0","86626","","null","","","null","55","","","","","","","","","","","","","","","NaN",""
"","S1","","html-keyboard-response","368","359488","0.0-1.0-506.0","0","0","86626","","null","","","null","56","","","","","","","","","","","","","","","",""
"","ISI","","html-keyboard-response","369","360495","0.0-1.0-507.0","0","0","86626","","null","","","null","56","NaN","","","","","","","","","","","","","","",""
"","S2","","html-keyboard-response","370","360761","0.0-1.0-508.0","0","0","86626","","null","","","null","56","","NaN","","","","","","","","","","","","","",""
"","response","","html-keyboard-response","371","361137","0.0-1.0-509.0-0.0","0","0","86626","","370","","","68","56","","","2","56","training","adjacent","DE","4","5","M.jpg","R.jpg","1","1","1","",""
"","feedback","","html-keyboard-response","372","362147","0.0-1.0-510.0-0.0","0","0","86626","","null","","","null","56","","","","","","","","","","","","","","","",""
"","ITI","","html-keyboard-response","373","363161","0.0-1.0-513.0","0","0","86626","","null","","","null","56","","","","","","","","","","","","","","","NaN",""
"","S1","","html-keyboard-response","374","363427","0.0-1.0-515.0","0","0","86626","","null","","","null","57","","","","","","","","","","","","","","","",""
"","ISI","","html-keyboard-response","375","364441","0.0-1.0-516.0","0","0","86626","","null","","","null","57","NaN","","","","","","","","","","","","","","",""
"","S2","","html-keyboard-response","376","364704","0.0-1.0-517.0","0","0","86626","","null","","","null","57","","NaN","","","","","","","","","","","","","",""
"","response","","html-keyboard-response","377","365680","0.0-1.0-518.0-0.0","0","0","86626","","971","","","75","57","","","2","57","training","adjacent","BA","2","1","L.jpg","P.jpg","0","0","1","",""
"","feedback","","html-keyboard-response","378","366688","0.0-1.0-519.0-0.0","0","0","86626","","null","","","null","57","","","","","","","","","","","","","","","",""
"","ITI","","html-keyboard-response","379","367699","0.0-1.0-522.0","0","0","86626","","null","","","null","57","","","","","","","","","","","","","","","NaN",""
"","S1","","html-keyboard-response","380","367961","0.0-1.0-524.0","0","0","86626","","null","","","null","58","","","","","","","","","","","","","","","",""
"","ISI","","html-keyboard-response","381","368968","0.0-1.0-525.0","0","0","86626","","null","","","null","58","NaN","","","","","","","","","","","","","","",""
"","S2","","html-keyboard-response","382","369233","0.0-1.0-526.0","0","0","86626","","null","","","null","58","","NaN","","","","","","","","","","","","","",""
"","response","","html-keyboard-response","383","369960","0.0-1.0-527.0-0.0","0","0","86626","","721","","","68","58","","","2","58","training","adjacent","GF","7","6","O.jpg","N.jpg","1","0","0","",""
"","feedback","","html-keyboard-response","384","370969","0.0-1.0-528.0-0.0","0","0","86626","","null","","","null","58","","","","","","","","","","","","","","","",""
"","time_out","","html-keyboard-response","385","372984","0.0-1.0-530.0-0.0","0","0","86626","","null","","","null","58","","","","","","","","","","","","","","","",""
"","ITI","","html-keyboard-response","386","373994","0.0-1.0-531.0","0","0","86626","","null","","","null","58","","","","","","","","","","","","","","","NaN",""
"","S1","","html-keyboard-response","387","374258","0.0-1.0-533.0","0","0","86626","","null","","","null","59","","","","","","","","","","","","","","","",""
"","ISI","","html-keyboard-response","388","375273","0.0-1.0-534.0","0","0","86626","","null","","","null","59","NaN","","","","","","","","","","","","","","",""
"","S2","","html-keyboard-response","389","375535","0.0-1.0-535.0","0","0","86626","","null","","","null","59","","NaN","","","","","","","","","","","","","",""
"","response","","html-keyboard-response","390","375840","0.0-1.0-536.0-0.0","0","0","86626","","300","","","75","59","","","2","59","training","adjacent","DC","4","3","M.jpg","Q.jpg","0","0","1","",""
"","feedback","","html-keyboard-response","391","376851","0.0-1.0-537.0-0.0","0","0","86626","","null","","","null","59","","","","","","","","","","","","","","","",""
"","ITI","","html-keyboard-response","392","377865","0.0-1.0-540.0","0","0","86626","","null","","","null","59","","","","","","","","","","","","","","","NaN",""
"","S1","","html-keyboard-response","393","378129","0.0-1.0-542.0","0","0","86626","","null","","","null","60","","","","","","","","","","","","","","","",""
"","ISI","","html-keyboard-response","394","379147","0.0-1.0-543.0","0","0","86626","","null","","","null","60","NaN","","","","","","","","","","","","","","",""
"","S2","","html-keyboard-response","395","379411","0.0-1.0-544.0","0","0","86626","","null","","","null","60","","NaN","","","","","","","","","","","","","",""
"","response","","html-keyboard-response","396","379816","0.0-1.0-545.0-0.0","0","0","86626","","400","","","68","60","","","2","60","training","adjacent","FG","6","7","N.jpg","O.jpg","1","1","1","",""
"","feedback","","html-keyboard-response","397","380834","0.0-1.0-546.0-0.0","0","0","86626","","null","","","null","60","","","","","","","","","","","","","","","",""
"","ITI","","html-keyboard-response","398","381848","0.0-1.0-549.0","0","0","86626","","null","","","null","60","","","","","","","","","","","","","","","NaN",""
"","S1","","html-keyboard-response","399","382115","0.0-1.0-551.0","0","0","86626","","null","","","null","61","","","","","","","","","","","","","","","",""
"","ISI","","html-keyboard-response","400","383128","0.0-1.0-552.0","0","0","86626","","null","","","null","61","NaN","","","","","","","","","","","","","","",""
"","S2","","html-keyboard-response","401","383395","0.0-1.0-553.0","0","0","86626","","null","","","null","61","","NaN","","","","","","","","","","","","","",""
"","response","","html-keyboard-response","402","383945","0.0-1.0-554.0-0.0","0","0","86626","","544","","","75","61","","","2","61","training","adjacent","EF","5","6","R.jpg","N.jpg","0","1","0","",""
"","feedback","","html-keyboard-response","403","384962","0.0-1.0-555.0-0.0","0","0","86626","","null","","","null","61","","","","","","","","","","","","","","","",""
"","time_out","","html-keyboard-response","404","386977","0.0-1.0-557.0-0.0","0","0","86626","","null","","","null","61","","","","","","","","","","","","","","","",""
"","ITI","","html-keyboard-response","405","387992","0.0-1.0-558.0","0","0","86626","","null","","","null","61","","","","","","","","","","","","","","","NaN",""
"","S1","","html-keyboard-response","406","388258","0.0-1.0-560.0","0","0","86626","","null","","","null","62","","","","","","","","","","","","","","","",""
"","ISI","","html-keyboard-response","407","389273","0.0-1.0-561.0","0","0","86626","","null","","","null","62","NaN","","","","","","","","","","","","","","",""
"","S2","","html-keyboard-response","408","389537","0.0-1.0-562.0","0","0","86626","","null","","","null","62","","NaN","","","","","","","","","","","","","",""
"","response","","html-keyboard-response","409","389937","0.0-1.0-563.0-0.0","0","0","86626","","394","","","68","62","","","2","62","training","adjacent","BC","2","3","L.jpg","Q.jpg","1","1","1","",""
"","feedback","","html-keyboard-response","410","390952","0.0-1.0-564.0-0.0","0","0","86626","","null","","","null","62","","","","","","","","","","","","","","","",""
"","ITI","","html-keyboard-response","411","391966","0.0-1.0-567.0","0","0","86626","","null","","","null","62","","","","","","","","","","","","","","","NaN",""
"","S1","","html-keyboard-response","412","392234","0.0-1.0-569.0","0","0","86626","","null","","","null","63","","","","","","","","","","","","","","","",""
"","ISI","","html-keyboard-response","413","393247","0.0-1.0-570.0","0","0","86626","","null","","","null","63","NaN","","","","","","","","","","","","","","",""
"","S2","","html-keyboard-response","414","393512","0.0-1.0-571.0","0","0","86626","","null","","","null","63","","NaN","","","","","","","","","","","","","",""
"","response","","html-keyboard-response","415","393872","0.0-1.0-572.0-0.0","0","0","86626","","355","","","68","63","","","2","63","training","adjacent","GF","7","6","O.jpg","N.jpg","1","0","0","",""
"","feedback","","html-keyboard-response","416","394888","0.0-1.0-573.0-0.0","0","0","86626","","null","","","null","63","","","","","","","","","","","","","","","",""
"","time_out","","html-keyboard-response","417","396906","0.0-1.0-575.0-0.0","0","0","86626","","null","","","null","63","","","","","","","","","","","","","","","",""
"","ITI","","html-keyboard-response","418","397922","0.0-1.0-576.0","0","0","86626","","null","","","null","63","","","","","","","","","","","","","","","NaN",""
"","S1","","html-keyboard-response","419","398183","0.0-1.0-578.0","0","0","86626","","null","","","null","64","","","","","","","","","","","","","","","",""
"","ISI","","html-keyboard-response","420","399194","0.0-1.0-579.0","0","0","86626","","null","","","null","64","NaN","","","","","","","","","","","","","","",""
"","S2","","html-keyboard-response","421","399454","0.0-1.0-580.0","0","0","86626","","null","","","null","64","","NaN","","","","","","","","","","","","","",""
"","response","","html-keyboard-response","422","399809","0.0-1.0-581.0-0.0","0","0","86626","","349","","","75","64","","","2","64","training","adjacent","DE","4","5","M.jpg","R.jpg","0","1","0","",""
"","feedback","","html-keyboard-response","423","400824","0.0-1.0-582.0-0.0","0","0","86626","","null","","","null","64","","","","","","","","","","","","","","","",""
"","time_out","","html-keyboard-response","424","402840","0.0-1.0-584.0-0.0","0","0","86626","","null","","","null","64","","","","","","","","","","","","","","","",""
"","ITI","","html-keyboard-response","425","403848","0.0-1.0-585.0","0","0","86626","","null","","","null","64","","","","","","","","","","","","","","","NaN",""
"","S1","","html-keyboard-response","426","404114","0.0-1.0-587.0","0","0","86626","","null","","","null","65","","","","","","","","","","","","","","","",""
"","ISI","","html-keyboard-response","427","405128","0.0-1.0-588.0","0","0","86626","","null","","","null","65","NaN","","","","","","","","","","","","","","",""
"","S2","","html-keyboard-response","428","405394","0.0-1.0-589.0","0","0","86626","","null","","","null","65","","NaN","","","","","","","","","","","","","",""
"","response","","html-keyboard-response","429","405936","0.0-1.0-590.0-0.0","0","0","86626","","536","","","68","65","","","2","65","training","adjacent","GF","7","6","O.jpg","N.jpg","1","0","0","",""
"","feedback","","html-keyboard-response","430","406952","0.0-1.0-591.0-0.0","0","0","86626","","null","","","null","65","","","","","","","","","","","","","","","",""
"","time_out","","html-keyboard-response","431","408968","0.0-1.0-593.0-0.0","0","0","86626","","null","","","null","65","","","","","","","","","","","","","","","",""
"","ITI","","html-keyboard-response","432","409986","0.0-1.0-594.0","0","0","86626","","null","","","null","65","","","","","","","","","","","","","","","NaN",""
"","S1","","html-keyboard-response","433","410247","0.0-1.0-596.0","0","0","86626","","null","","","null","66","","","","","","","","","","","","","","","",""
"","ISI","","html-keyboard-response","434","411255","0.0-1.0-597.0","0","0","86626","","null","","","null","66","NaN","","","","","","","","","","","","","","",""
"","S2","","html-keyboard-response","435","411518","0.0-1.0-598.0","0","0","86626","","null","","","null","66","","NaN","","","","","","","","","","","","","",""
"","response","","html-keyboard-response","436","411992","0.0-1.0-599.0-0.0","0","0","86626","","469","","","75","66","","","2","66","training","adjacent","CB","3","2","Q.jpg","L.jpg","0","0","1","",""
"","feedback","","html-keyboard-response","437","413006","0.0-1.0-600.0-0.0","0","0","86626","","null","","","null","66","","","","","","","","","","","","","","","",""
"","ITI","","html-keyboard-response","438","414014","0.0-1.0-603.0","0","0","86626","","null","","","null","66","","","","","","","","","","","","","","","NaN",""
"","S1","","html-keyboard-response","439","414280","0.0-1.0-605.0","0","0","86626","","null","","","null","67","","","","","","","","","","","","","","","",""
"","ISI","","html-keyboard-response","440","415294","0.0-1.0-606.0","0","0","86626","","null","","","null","67","NaN","","","","","","","","","","","","","","",""
"","S2","","html-keyboard-response","441","415559","0.0-1.0-607.0","0","0","86626","","null","","","null","67","","NaN","","","","","","","","","","","","","",""
"","response","","html-keyboard-response","442","415996","0.0-1.0-608.0-0.0","0","0","86626","","433","","","75","67","","","2","67","training","adjacent","EF","5","6","R.jpg","N.jpg","0","1","0","",""
"","feedback","","html-keyboard-response","443","417009","0.0-1.0-609.0-0.0","0","0","86626","","null","","","null","67","","","","","","","","","","","","","","","",""
"","time_out","","html-keyboard-response","444","419025","0.0-1.0-611.0-0.0","0","0","86626","","null","","","null","67","","","","","","","","","","","","","","","",""
"","ITI","","html-keyboard-response","445","420039","0.0-1.0-612.0","0","0","86626","","null","","","null","67","","","","","","","","","","","","","","","NaN",""
"","S1","","html-keyboard-response","446","420306","0.0-1.0-614.0","0","0","86626","","null","","","null","68","","","","","","","","","","","","","","","",""
"","ISI","","html-keyboard-response","447","421319","0.0-1.0-615.0","0","0","86626","","null","","","null","68","NaN","","","","","","","","","","","","","","",""
"","S2","","html-keyboard-response","448","421582","0.0-1.0-616.0","0","0","86626","","null","","","null","68","","NaN","","","","","","","","","","","","","",""
"","response","","html-keyboard-response","449","422032","0.0-1.0-617.0-0.0","0","0","86626","","445","","","68","68","","","2","68","training","adjacent","FE","6","5","N.jpg","R.jpg","1","0","0","",""
"","feedback","","html-keyboard-response","450","423047","0.0-1.0-618.0-0.0","0","0","86626","","null","","","null","68","","","","","","","","","","","","","","","",""
"","time_out","","html-keyboard-response","451","425063","0.0-1.0-620.0-0.0","0","0","86626","","null","","","null","68","","","","","","","","","","","","","","","",""
"","ITI","","html-keyboard-response","452","426073","0.0-1.0-621.0","0","0","86626","","null","","","null","68","","","","","","","","","","","","","","","NaN",""
"","S1","","html-keyboard-response","453","426334","0.0-1.0-623.0","0","0","86626","","null","","","null","69","","","","","","","","","","","","","","","",""
"","ISI","","html-keyboard-response","454","427341","0.0-1.0-624.0","0","0","86626","","null","","","null","69","NaN","","","","","","","","","","","","","","",""
"","S2","","html-keyboard-response","455","427607","0.0-1.0-625.0","0","0","86626","","null","","","null","69","","NaN","","","","","","","","","","","","","",""
"","response","","html-keyboard-response","456","428056","0.0-1.0-626.0-0.0","0","0","86626","","444","","","75","69","","","2","69","training","adjacent","AB","1","2","P.jpg","L.jpg","0","1","0","",""
"","feedback","","html-keyboard-response","457","429072","0.0-1.0-627.0-0.0","0","0","86626","","null","","","null","69","","","","","","","","","","","","","","","",""
"","time_out","","html-keyboard-response","458","431085","0.0-1.0-629.0-0.0","0","0","86626","","null","","","null","69","","","","","","","","","","","","","","","",""
"","ITI","","html-keyboard-response","459","432093","0.0-1.0-630.0","0","0","86626","","null","","","null","69","","","","","","","","","","","","","","","NaN",""
"","S1","","html-keyboard-response","460","432359","0.0-1.0-632.0","0","0","86626","","null","","","null","70","","","","","","","","","","","","","","","",""
"","ISI","","html-keyboard-response","461","433375","0.0-1.0-633.0","0","0","86626","","null","","","null","70","NaN","","","","","","","","","","","","","","",""
"","S2","","html-keyboard-response","462","433639","0.0-1.0-634.0","0","0","86626","","null","","","null","70","","NaN","","","","","","","","","","","","","",""
"","response","","html-keyboard-response","463","434073","0.0-1.0-635.0-0.0","0","0","86626","","428","","","68","70","","","2","70","training","adjacent","ED","5","4","R.jpg","M.jpg","1","0","0","",""
"","feedback","","html-keyboard-response","464","435084","0.0-1.0-636.0-0.0","0","0","86626","","null","","","null","70","","","","","","","","","","","","","","","",""
"","time_out","","html-keyboard-response","465","437094","0.0-1.0-638.0-0.0","0","0","86626","","null","","","null","70","","","","","","","","","","","","","","","",""
"","ITI","","html-keyboard-response","466","438102","0.0-1.0-639.0","0","0","86626","","null","","","null","70","","","","","","","","","","","","","","","NaN",""
"","S1","","html-keyboard-response","467","438365","0.0-1.0-641.0","0","0","86626","","null","","","null","71","","","","","","","","","","","","","","","",""
"","ISI","","html-keyboard-response","468","439375","0.0-1.0-642.0","0","0","86626","","null","","","null","71","NaN","","","","","","","","","","","","","","",""
"","S2","","html-keyboard-response","469","439639","0.0-1.0-643.0","0","0","86626","","null","","","null","71","","NaN","","","","","","","","","","","","","",""
"","response","","html-keyboard-response","470","440144","0.0-1.0-644.0-0.0","0","0","86626","","500","","","75","71","","","2","71","training","adjacent","AB","1","2","P.jpg","L.jpg","0","1","0","",""
"","feedback","","html-keyboard-response","471","441158","0.0-1.0-645.0-0.0","0","0","86626","","null","","","null","71","","","","","","","","","","","","","","","",""
"","time_out","","html-keyboard-response","472","443174","0.0-1.0-647.0-0.0","0","0","86626","","null","","","null","71","","","","","","","","","","","","","","","",""
"","ITI","","html-keyboard-response","473","444185","0.0-1.0-648.0","0","0","86626","","null","","","null","71","","","","","","","","","","","","","","","NaN",""
"","S1","","html-keyboard-response","474","444444","0.0-1.0-650.0","0","0","86626","","null","","","null","72","","","","","","","","","","","","","","","",""
"","ISI","","html-keyboard-response","475","445457","0.0-1.0-651.0","0","0","86626","","null","","","null","72","NaN","","","","","","","","","","","","","","",""
"","S2","","html-keyboard-response","476","445718","0.0-1.0-652.0","0","0","86626","","null","","","null","72","","NaN","","","","","","","","","","","","","",""
"","response","","html-keyboard-response","477","446145","0.0-1.0-653.0-0.0","0","0","86626","","420","","","68","72","","","2","72","training","adjacent","DC","4","3","M.jpg","Q.jpg","1","0","0","",""
"","feedback","","html-keyboard-response","478","447158","0.0-1.0-654.0-0.0","0","0","86626","","null","","","null","72","","","","","","","","","","","","","","","",""
"","time_out","","html-keyboard-response","479","449174","0.0-1.0-656.0-0.0","0","0","86626","","null","","","null","72","","","","","","","","","","","","","","","",""
"","ITI","","html-keyboard-response","480","450185","0.0-1.0-657.0","0","0","86626","","null","","","null","72","","","","","","","","","","","","","","","NaN",""
"","S1","","html-keyboard-response","481","450449","0.0-1.0-659.0","0","0","86626","","null","","","null","73","","","","","","","","","","","","","","","",""
"","ISI","","html-keyboard-response","482","451462","0.0-1.0-660.0","0","0","86626","","null","","","null","73","NaN","","","","","","","","","","","","","","",""
"","S2","","html-keyboard-response","483","451724","0.0-1.0-661.0","0","0","86626","","null","","","null","73","","NaN","","","","","","","","","","","","","",""
"","response","","html-keyboard-response","484","452167","0.0-1.0-662.0-0.0","0","0","86626","","437","","","75","73","","","2","73","training","adjacent","FG","6","7","N.jpg","O.jpg","0","1","0","",""
"","feedback","","html-keyboard-response","485","453184","0.0-1.0-663.0-0.0","0","0","86626","","null","","","null","73","","","","","","","","","","","","","","","",""
"","time_out","","html-keyboard-response","486","455201","0.0-1.0-665.0-0.0","0","0","86626","","null","","","null","73","","","","","","","","","","","","","","","",""
"","ITI","","html-keyboard-response","487","456214","0.0-1.0-666.0","0","0","86626","","null","","","null","73","","","","","","","","","","","","","","","NaN",""
"","S1","","html-keyboard-response","488","456476","0.0-1.0-668.0","0","0","86626","","null","","","null","74","","","","","","","","","","","","","","","",""
"","ISI","","html-keyboard-response","489","457485","0.0-1.0-669.0","0","0","86626","","null","","","null","74","NaN","","","","","","","","","","","","","","",""
"","S2","","html-keyboard-response","490","457752","0.0-1.0-670.0","0","0","86626","","null","","","null","74","","NaN","","","","","","","","","","","","","",""
"","response","","html-keyboard-response","491","457757","0.0-1.0-671.0-0.0","0","0","86626","","2","","","68","74","","","2","74","training","adjacent","CD","3","4","Q.jpg","M.jpg","1","1","1","",""
"","feedback","","html-keyboard-response","492","458769","0.0-1.0-672.0-0.0","0","0","86626","","null","","","null","74","","","","","","","","","","","","","","","",""
"","ITI","","html-keyboard-response","493","459784","0.0-1.0-675.0","0","0","86626","","null","","","null","74","","","","","","","","","","","","","","","NaN",""
"","S1","","html-keyboard-response","494","460048","0.0-1.0-677.0","0","0","86626","","null","","","null","75","","","","","","","","","","","","","","","",""
"","ISI","","html-keyboard-response","495","461062","0.0-1.0-678.0","0","0","86626","","null","","","null","75","NaN","","","","","","","","","","","","","","",""
"","S2","","html-keyboard-response","496","461323","0.0-1.0-679.0","0","0","86626","","null","","","null","75","","NaN","","","","","","","","","","","","","",""
"","response","","html-keyboard-response","497","461662","0.0-1.0-680.0-0.0","0","0","86626","","335","","","75","75","","","2","75","training","adjacent","CB","3","2","Q.jpg","L.jpg","0","0","1","",""
"","feedback","","html-keyboard-response","498","462678","0.0-1.0-681.0-0.0","0","0","86626","","null","","","null","75","","","","","","","","","","","","","","","",""
"","ITI","","html-keyboard-response","499","463695","0.0-1.0-684.0","0","0","86626","","null","","","null","75","","","","","","","","","","","","","","","NaN",""
"","S1","","html-keyboard-response","500","463958","0.0-1.0-686.0","0","0","86626","","null","","","null","76","","","","","","","","","","","","","","","",""
"","ISI","","html-keyboard-response","501","464966","0.0-1.0-687.0","0","0","86626","","null","","","null","76","NaN","","","","","","","","","","","","","","",""
"","S2","","html-keyboard-response","502","465229","0.0-1.0-688.0","0","0","86626","","null","","","null","76","","NaN","","","","","","","","","","","","","",""
"","response","","html-keyboard-response","503","465680","0.0-1.0-689.0-0.0","0","0","86626","","446","","","75","76","","","2","76","training","adjacent","FG","6","7","N.jpg","O.jpg","0","1","0","",""
"","feedback","","html-keyboard-response","504","466694","0.0-1.0-690.0-0.0","0","0","86626","","null","","","null","76","","","","","","","","","","","","","","","",""
"","time_out","","html-keyboard-response","505","468710","0.0-1.0-692.0-0.0","0","0","86626","","null","","","null","76","","","","","","","","","","","","","","","",""
"","ITI","","html-keyboard-response","506","469724","0.0-1.0-693.0","0","0","86626","","null","","","null","76","","","","","","","","","","","","","","","NaN",""
"","S1","","html-keyboard-response","507","469991","0.0-1.0-695.0","0","0","86626","","null","","","null","77","","","","","","","","","","","","","","","",""
"","ISI","","html-keyboard-response","508","471005","0.0-1.0-696.0","0","0","86626","","null","","","null","77","NaN","","","","","","","","","","","","","","",""
"","S2","","html-keyboard-response","509","471270","0.0-1.0-697.0","0","0","86626","","null","","","null","77","","NaN","","","","","","","","","","","","","",""
"","response","","html-keyboard-response","510","471808","0.0-1.0-698.0-0.0","0","0","86626","","533","","","68","77","","","2","77","training","adjacent","EF","5","6","R.jpg","N.jpg","1","1","1","",""
"","feedback","","html-keyboard-response","511","472822","0.0-1.0-699.0-0.0","0","0","86626","","null","","","null","77","","","","","","","","","","","","","","","",""
"","ITI","","html-keyboard-response","512","473836","0.0-1.0-702.0","0","0","86626","","null","","","null","77","","","","","","","","","","","","","","","NaN",""
"","S1","","html-keyboard-response","513","474102","0.0-1.0-704.0","0","0","86626","","null","","","null","78","","","","","","","","","","","","","","","",""
"","ISI","","html-keyboard-response","514","475109","0.0-1.0-705.0","0","0","86626","","null","","","null","78","NaN","","","","","","","","","","","","","","",""
"","S2","","html-keyboard-response","515","475373","0.0-1.0-706.0","0","0","86626","","null","","","null","78","","NaN","","","","","","","","","","","","","",""
"","response","","html-keyboard-response","516","475880","0.0-1.0-707.0-0.0","0","0","86626","","502","","","75","78","","","2","78","training","adjacent","BA","2","1","L.jpg","P.jpg","0","0","1","",""
"","feedback","","html-keyboard-response","517","476892","0.0-1.0-708.0-0.0","0","0","86626","","null","","","null","78","","","","","","","","","","","","","","","",""
"","ITI","","html-keyboard-response","518","477904","0.0-1.0-711.0","0","0","86626","","null","","","null","78","","","","","","","","","","","","","","","NaN",""
"","S1","","html-keyboard-response","519","478165","0.0-1.0-713.0","0","0","86626","","null","","","null","79","","","","","","","","","","","","","","","",""
"","ISI","","html-keyboard-response","520","479180","0.0-1.0-714.0","0","0","86626","","null","","","null","79","NaN","","","","","","","","","","","","","","",""
"","S2","","html-keyboard-response","521","479445","0.0-1.0-715.0","0","0","86626","","null","","","null","79","","NaN","","","","","","","","","","","","","",""
"","response","","html-keyboard-response","522","479832","0.0-1.0-716.0-0.0","0","0","86626","","382","","","75","79","","","2","79","training","adjacent","CB","3","2","Q.jpg","L.jpg","0","0","1","",""
"","feedback","","html-keyboard-response","523","480844","0.0-1.0-717.0-0.0","0","0","86626","","null","","","null","79","","","","","","","","","","","","","","","",""
"","ITI","","html-keyboard-response","524","481856","0.0-1.0-720.0","0","0","86626","","null","","","null","79","","","","","","","","","","","","","","","NaN",""
"","S1","","html-keyboard-response","525","482117","0.0-1.0-722.0","0","0","86626","","null","","","null","80","","","","","","","","","","","","","","","",""
"","ISI","","html-keyboard-response","526","483126","0.0-1.0-723.0","0","0","86626","","null","","","null","80","NaN","","","","","","","","","","","","","","",""
"","S2","","html-keyboard-response","527","483392","0.0-1.0-724.0","0","0","86626","","null","","","null","80","","NaN","","","","","","","","","","","","","",""
"","response","","html-keyboard-response","528","483769","0.0-1.0-725.0-0.0","0","0","86626","","371","","","75","80","","","2","80","training","adjacent","CB","3","2","Q.jpg","L.jpg","0","0","1","",""
"","feedback","","html-keyboard-response","529","484784","0.0-1.0-726.0-0.0","0","0","86626","","null","","","null","80","","","","","","","","","","","","","","","",""
"","ITI","","html-keyboard-response","530","485797","0.0-1.0-729.0","0","0","86626","","null","","","null","80","","","","","","","","","","","","","","","NaN",""
"","S1","","html-keyboard-response","531","486063","0.0-1.0-731.0","0","0","86626","","null","","","null","81","","","","","","","","","","","","","","","",""
"","ISI","","html-keyboard-response","532","487077","0.0-1.0-732.0","0","0","86626","","null","","","null","81","NaN","","","","","","","","","","","","","","",""
"","S2","","html-keyboard-response","533","487343","0.0-1.0-733.0","0","0","86626","","null","","","null","81","","NaN","","","","","","","","","","","","","",""
"","response","","html-keyboard-response","534","487817","0.0-1.0-734.0-0.0","0","0","86626","","468","","","75","81","","","2","81","training","adjacent","AB","1","2","P.jpg","L.jpg","0","1","0","",""
"","feedback","","html-keyboard-response","535","488831","0.0-1.0-735.0-0.0","0","0","86626","","null","","","null","81","","","","","","","","","","","","","","","",""
"","time_out","","html-keyboard-response","536","490844","0.0-1.0-737.0-0.0","0","0","86626","","null","","","null","81","","","","","","","","","","","","","","","",""
"","ITI","","html-keyboard-response","537","491851","0.0-1.0-738.0","0","0","86626","","null","","","null","81","","","","","","","","","","","","","","","NaN",""
"","S1","","html-keyboard-response","538","492116","0.0-1.0-740.0","0","0","86626","","null","","","null","82","","","","","","","","","","","","","","","",""
"","ISI","","html-keyboard-response","539","493125","0.0-1.0-741.0","0","0","86626","","null","","","null","82","NaN","","","","","","","","","","","","","","",""
"","S2","","html-keyboard-response","540","493390","0.0-1.0-742.0","0","0","86626","","null","","","null","82","","NaN","","","","","","","","","","","","","",""
"","response","","html-keyboard-response","541","494440","0.0-1.0-743.0-0.0","0","0","86626","","1044","","","68","82","","","2","82","training","adjacent","BA","2","1","L.jpg","P.jpg","1","0","0","",""
"","feedback","","html-keyboard-response","542","495452","0.0-1.0-744.0-0.0","0","0","86626","","null","","","null","82","","","","","","","","","","","","","","","",""
"","time_out","","html-keyboard-response","543","497463","0.0-1.0-746.0-0.0","0","0","86626","","null","","","null","82","","","","","","","","","","","","","","","",""
"","ITI","","html-keyboard-response","544","498475","0.0-1.0-747.0","0","0","86626","","null","","","null","82","","","","","","","","","","","","","","","NaN",""
"","S1","","html-keyboard-response","545","498740","0.0-1.0-749.0","0","0","86626","","null","","","null","83","","","","","","","","","","","","","","","",""
"","ISI","","html-keyboard-response","546","499750","0.0-1.0-750.0","0","0","86626","","null","","","null","83","NaN","","","","","","","","","","","","","","",""
"","S2","","html-keyboard-response","547","500011","0.0-1.0-751.0","0","0","86626","","null","","","null","83","","NaN","","","","","","","","","","","","","",""
"","response","","html-keyboard-response","548","500432","0.0-1.0-752.0-0.0","0","0","86626","","416","","","75","83","","","2","83","training","adjacent","FE","6","5","N.jpg","R.jpg","0","0","1","",""
"","feedback","","html-keyboard-response","549","501444","0.0-1.0-753.0-0.0","0","0","86626","","null","","","null","83","","","","","","","","","","","","","","","",""
"","ITI","","html-keyboard-response","550","502452","0.0-1.0-756.0","0","0","86626","","null","","","null","83","","","","","","","","","","","","","","","NaN",""
"","S1","","html-keyboard-response","551","502714","0.0-1.0-758.0","0","0","86626","","null","","","null","84","","","","","","","","","","","","","","","",""
"","ISI","","html-keyboard-response","552","503724","0.0-1.0-759.0","0","0","86626","","553","","","68","84","d","","","","","","","","","","","","","","",""
"","S2","","html-keyboard-response","553","503989","0.0-1.0-760.0","0","0","86626","","null","","","null","84","","NaN","","","","","","","","","","","","","",""
"","response","","html-keyboard-response","554","504440","0.0-1.0-761.0-0.0","0","0","86626","","446","","","75","84","","","2","84","training","adjacent","DE","4","5","M.jpg","R.jpg","0","1","0","",""
"","feedback","","html-keyboard-response","555","505451","0.0-1.0-762.0-0.0","0","0","86626","","null","","","null","84","","","","","","","","","","","","","","","",""
"","time_out","","html-keyboard-response","556","507461","0.0-1.0-764.0-0.0","0","0","86626","","null","","","null","84","","","","","","","","","","","","","","","",""
"","ITI","","html-keyboard-response","557","508479","0.0-1.0-765.0","0","0","86626","","null","","","null","84","","","","","","","","","","","","","","","NaN",""
"","S1","","html-keyboard-response","558","508743","0.0-1.0-767.0","0","0","86626","","null","","","null","85","","","","","","","","","","","","","","","",""
"","ISI","","html-keyboard-response","559","509759","0.0-1.0-768.0","0","0","86626","","null","","","null","85","NaN","","","","","","","","","","","","","","",""
"","S2","","html-keyboard-response","560","510021","0.0-1.0-769.0","0","0","86626","","null","","","null","85","","NaN","","","","","","","","","","","","","",""
"","response","","html-keyboard-response","561","510440","0.0-1.0-770.0-0.0","0","0","86626","","414","","","75","85","","","2","85","training","adjacent","DC","4","3","M.jpg","Q.jpg","0","0","1","",""
"","feedback","","html-keyboard-response","562","511451","0.0-1.0-771.0-0.0","0","0","86626","","null","","","null","85","","","","","","","","","","","","","","","",""
"","ITI","","html-keyboard-response","563","512463","0.0-1.0-774.0","0","0","86626","","null","","","null","85","","","","","","","","","","","","","","","NaN",""
"","S1","","html-keyboard-response","564","512724","0.0-1.0-776.0","0","0","86626","","null","","","null","86","","","","","","","","","","","","","","","",""
"","ISI","","html-keyboard-response","565","513732","0.0-1.0-777.0","0","0","86626","","null","","","null","86","NaN","","","","","","","","","","","","","","",""
"","S2","","html-keyboard-response","566","513997","0.0-1.0-778.0","0","0","86626","","null","","","null","86","","NaN","","","","","","","","","","","","","",""
"","response","","html-keyboard-response","567","514491","0.0-1.0-779.0-0.0","0","0","86626","","491","","","68","86","","","2","86","training","adjacent","BC","2","3","L.jpg","Q.jpg","1","1","1","",""
"","feedback","","html-keyboard-response","568","515502","0.0-1.0-780.0-0.0","0","0","86626","","null","","","null","86","","","","","","","","","","","","","","","",""
"","ITI","","html-keyboard-response","569","516517","0.0-1.0-783.0","0","0","86626","","null","","","null","86","","","","","","","","","","","","","","","NaN",""
"","S1","","html-keyboard-response","570","516783","0.0-1.0-785.0","0","0","86626","","null","","","null","87","","","","","","","","","","","","","","","",""
"","ISI","","html-keyboard-response","571","517796","0.0-1.0-786.0","0","0","86626","","null","","","null","87","NaN","","","","","","","","","","","","","","",""
"","S2","","html-keyboard-response","572","518059","0.0-1.0-787.0","0","0","86626","","null","","","null","87","","NaN","","","","","","","","","","","","","",""
"","response","","html-keyboard-response","573","518911","0.0-1.0-788.0-0.0","0","0","86626","","847","","","68","87","","","2","87","training","adjacent","DE","4","5","M.jpg","R.jpg","1","1","1","",""
"","feedback","","html-keyboard-response","574","519924","0.0-1.0-789.0-0.0","0","0","86626","","null","","","null","87","","","","","","","","","","","","","","","",""
"","ITI","","html-keyboard-response","575","520939","0.0-1.0-792.0","0","0","86626","","null","","","null","87","","","","","","","","","","","","","","","NaN",""
"","S1","","html-keyboard-response","576","521204","0.0-1.0-794.0","0","0","86626","","null","","","null","88","","","","","","","","","","","","","","","",""
"","ISI","","html-keyboard-response","577","522212","0.0-1.0-795.0","0","0","86626","","null","","","null","88","NaN","","","","","","","","","","","","","","",""
"","S2","","html-keyboard-response","578","522474","0.0-1.0-796.0","0","0","86626","","null","","","null","88","","NaN","","","","","","","","","","","","","",""
"","response","","html-keyboard-response","579","523512","0.0-1.0-797.0-0.0","0","0","86626","","1033","","","68","88","","","2","88","training","adjacent","FE","6","5","N.jpg","R.jpg","1","0","0","",""
"","feedback","","html-keyboard-response","580","524527","0.0-1.0-798.0-0.0","0","0","86626","","null","","","null","88","","","","","","","","","","","","","","","",""
"","time_out","","html-keyboard-response","581","526542","0.0-1.0-800.0-0.0","0","0","86626","","null","","","null","88","","","","","","","","","","","","","","","",""
"","ITI","","html-keyboard-response","582","527556","0.0-1.0-801.0","0","0","86626","","null","","","null","88","","","","","","","","","","","","","","","NaN",""
