"success","ttype","start_time","trial_type","trial_index","time_elapsed","internal_node_id","warning","missed_checkup","PID","view_history","rt","responses","repeat_instructions","key_press","index","keypress_isi","keypress_S2","block","trial_num","phase","group_type","pair_type","S1_stim","S2_stim","S1_img","S2_img","S1_chosen","S1_higher","accuracy","keypress_iti","total_bonus_tally"
"true","full_screen","d03032023hr1939","fullscreen","0","7551","0.0-0.0","0","0","49508","","","","","","","","","","","","","","","","","","","","","",""
"","instructions","","instructions","1","71733","0.0-1.0-0.0-0.0","0","0","49508","[{""page_index"":0,""viewing_time"":4121},{""page_index"":1,""viewing_time"":22015},{""page_index"":2,""viewing_time"":35470},{""page_index"":3,""viewing_time"":2570}]","64177","","","","","","","","","","","","","","","","","","","",""
"","comprehension_check","","survey-multi-choice","2","97143","0.0-1.0-0.0-1.0","0","0","49508","","25401","{""Q0"":""True"",""Q1"":""D"",""Q2"":""Only when the screen 'MAKE A CHOICE' is shown"",""Q3"":""Green mark"",""Q4"":""either D or K""}","1","","","","","","","","","","","","","","","","","",""
"","missed_instruction_checkup","","html-keyboard-response","3","98995","0.0-1.0-0.0-2.0-0.0","0","1","49508","","1846","","","32","","","","","","","","","","","","","","","","",""
"","instructions","","instructions","4","138325","0.0-1.0-0.1-0.1","0","0","49508","[{""page_index"":0,""viewing_time"":6030},{""page_index"":1,""viewing_time"":23895},{""page_index"":2,""viewing_time"":8202},{""page_index"":3,""viewing_time"":1200}]","39328","","","","","","","","","","","","","","","","","","","",""
"","comprehension_check","","survey-multi-choice","5","161045","0.0-1.0-0.1-1.1","0","0","49508","","22712","{""Q0"":""False"",""Q1"":""D"",""Q2"":""Once the second image appears and while the screen 'MAKE A CHOICE' is shown"",""Q3"":""Green mark"",""Q4"":""either D or K""}","1","","","","","","","","","","","","","","","","","",""
"","missed_instruction_checkup","","html-keyboard-response","6","162370","0.0-1.0-0.1-2.1-0.1","0","1","49508","","1321","","","32","","","","","","","","","","","","","","","","",""
"","instructions","","instructions","7","167931","0.0-1.0-0.2-0.2","0","0","49508","[{""page_index"":0,""viewing_time"":1802},{""page_index"":1,""viewing_time"":1054},{""page_index"":2,""viewing_time"":777},{""page_index"":3,""viewing_time"":1926}]","5560","","","","","","","","","","","","","","","","","","","",""
"","comprehension_check","","survey-multi-choice","8","176979","0.0-1.0-0.2-1.2","0","0","49508","","9040","{""Q0"":""True"",""Q1"":""D"",""Q2"":""Once the second image appears and while the screen 'MAKE A CHOICE' is shown"",""Q3"":""Green mark"",""Q4"":""either D or K""}","0","","","","","","","","","","","","","","","","","",""
"","start_exp","","html-keyboard-response","9","177882","0.0-1.0-1.0","0","0","49508","","900","","","32","","","","","","","","","","","","","","","","",""
"","S1","","html-keyboard-response","10","178140","0.0-1.0-2.0","0","0","49508","","null","","","null","0","","","","","","","","","","","","","","","",""
"","ISI","","html-keyboard-response","11","178644","0.0-1.0-3.0","0","0","49508","","null","","","null","0","NaN","","","","","","","","","","","","","","",""
"","S2","","html-keyboard-response","12","178898","0.0-1.0-4.0","0","0","49508","","null","","","null","0","","NaN","","","","","","","","","","","","","",""
"","response","","html-keyboard-response","13","179842","0.0-1.0-5.0-0.0","0","0","49508","","942","","","75","0","","","1","0","training","adjacent","BC","2","3","P.jpg","O.jpg","0","1","0","",""
"","feedback","","html-keyboard-response","14","180848","0.0-1.0-6.0-0.0","0","0","49508","","null","","","null","0","","","","","","","","","","","","","","","",""
"","time_out","","html-keyboard-response","15","182852","0.0-1.0-8.0-0.0","0","0","49508","","null","","","null","0","","","","","","","","","","","","","","","",""
"","ITI","","html-keyboard-response","16","183860","0.0-1.0-9.0","0","0","49508","","602","","","32","0","","","","","","","","","","","","","","","space",""
"","S1","","html-keyboard-response","17","184114","0.0-1.0-11.0","0","0","49508","","null","","","null","1","","","","","","","","","","","","","","","",""
"","ISI","","html-keyboard-response","18","184622","0.0-1.0-12.0","0","0","49508","","null","","","null","1","NaN","","","","","","","","","","","","","","",""
"","S2","","html-keyboard-response","19","184884","0.0-1.0-13.0","0","0","49508","","null","","","null","1","","NaN","","","","","","","","","","","","","",""
"","response","","html-keyboard-response","20","185312","0.0-1.0-14.0-0.0","0","0","49508","","426","","","68","1","","","1","1","training","adjacent","CB","3","2","O.jpg","P.jpg","1","0","0","",""
"","feedback","","html-keyboard-response","21","186317","0.0-1.0-15.0-0.0","0","0","49508","","null","","","null","1","","","","","","","","","","","","","","","",""
"","time_out","","html-keyboard-response","22","188321","0.0-1.0-17.0-0.0","0","0","49508","","null","","","null","1","","","","","","","","","","","","","","","",""
"","ITI","","html-keyboard-response","23","189332","0.0-1.0-18.0","0","0","49508","","null","","","null","1","","","","","","","","","","","","","","","NaN",""
"","S1","","html-keyboard-response","24","189590","0.0-1.0-20.0","0","0","49508","","null","","","null","2","","","","","","","","","","","","","","","",""
"","ISI","","html-keyboard-response","25","190100","0.0-1.0-21.0","0","0","49508","","null","","","null","2","NaN","","","","","","","","","","","","","","",""
"","S2","","html-keyboard-response","26","190365","0.0-1.0-22.0","0","0","49508","","null","","","null","2","","NaN","","","","","","","","","","","","","",""
"","response","","html-keyboard-response","27","190715","0.0-1.0-23.0-0.0","0","0","49508","","347","","","75","2","","","1","2","training","adjacent","BA","2","1","P.jpg","R.jpg","0","0","1","",""
"","feedback","","html-keyboard-response","28","191719","0.0-1.0-24.0-0.0","0","0","49508","","null","","","null","2","","","","","","","","","","","","","","","",""
"","ITI","","html-keyboard-response","29","192733","0.0-1.0-27.0","0","0","49508","","null","","","null","2","","","","","","","","","","","","","","","NaN",""
"","S1","","html-keyboard-response","30","192989","0.0-1.0-29.0","0","0","49508","","null","","","null","3","","","","","","","","","","","","","","","",""
"","ISI","","html-keyboard-response","31","193497","0.0-1.0-30.0","0","0","49508","","null","","","null","3","NaN","","","","","","","","","","","","","","",""
"","S2","","html-keyboard-response","32","193757","0.0-1.0-31.0","0","0","49508","","null","","","null","3","","NaN","","","","","","","","","","","","","",""
"","response","","html-keyboard-response","33","193916","0.0-1.0-32.0-0.0","0","0","49508","","156","","","68","3","","","1","3","training","adjacent","DC","4","3","L.jpg","O.jpg","1","0","0","",""
"","feedback","","html-keyboard-response","34","194921","0.0-1.0-33.0-0.0","0","0","49508","","null","","","null","3","","","","","","","","","","","","","","","",""
"","time_out","","html-keyboard-response","35","196932","0.0-1.0-35.0-0.0","0","0","49508","","null","","","null","3","","","","","","","","","","","","","","","",""
"","ITI","","html-keyboard-response","36","197936","0.0-1.0-36.0","0","0","49508","","null","","","null","3","","","","","","","","","","","","","","","NaN",""
"","S1","","html-keyboard-response","37","198192","0.0-1.0-38.0","0","0","49508","","null","","","null","4","","","","","","","","","","","","","","","",""
"","ISI","","html-keyboard-response","38","198703","0.0-1.0-39.0","0","0","49508","","null","","","null","4","NaN","","","","","","","","","","","","","","",""
"","S2","","html-keyboard-response","39","198963","0.0-1.0-40.0","0","0","49508","","null","","","null","4","","NaN","","","","","","","","","","","","","",""
"","response","","html-keyboard-response","40","199350","0.0-1.0-41.0-0.0","0","0","49508","","385","","","68","4","","","1","4","training","adjacent","FE","6","5","N.jpg","M.jpg","1","0","0","",""
"","feedback","","html-keyboard-response","41","200360","0.0-1.0-42.0-0.0","0","0","49508","","null","","","null","4","","","","","","","","","","","","","","","",""
"","time_out","","html-keyboard-response","42","202365","0.0-1.0-44.0-0.0","0","0","49508","","null","","","null","4","","","","","","","","","","","","","","","",""
"","ITI","","html-keyboard-response","43","203388","0.0-1.0-45.0","0","0","49508","","null","","","null","4","","","","","","","","","","","","","","","NaN",""
"","S1","","html-keyboard-response","44","203653","0.0-1.0-47.0","0","0","49508","","null","","","null","5","","","","","","","","","","","","","","","",""
"","ISI","","html-keyboard-response","45","204163","0.0-1.0-48.0","0","0","49508","","null","","","null","5","NaN","","","","","","","","","","","","","","",""
"","S2","","html-keyboard-response","46","204427","0.0-1.0-49.0","0","0","49508","","null","","","null","5","","NaN","","","","","","","","","","","","","",""
"","response","","html-keyboard-response","47","204588","0.0-1.0-50.0-0.0","0","0","49508","","159","","","68","5","","","1","5","training","adjacent","EF","5","6","M.jpg","N.jpg","1","1","1","",""
"","feedback","","html-keyboard-response","48","205593","0.0-1.0-51.0-0.0","0","0","49508","","null","","","null","5","","","","","","","","","","","","","","","",""
"","ITI","","html-keyboard-response","49","206597","0.0-1.0-54.0","0","0","49508","","null","","","null","5","","","","","","","","","","","","","","","NaN",""
"","S1","","html-keyboard-response","50","206853","0.0-1.0-56.0","0","0","49508","","null","","","null","6","","","","","","","","","","","","","","","",""
"","ISI","","html-keyboard-response","51","207364","0.0-1.0-57.0","0","0","49508","","null","","","null","6","NaN","","","","","","","","","","","","","","",""
"","S2","","html-keyboard-response","52","207618","0.0-1.0-58.0","0","0","49508","","null","","","null","6","","NaN","","","","","","","","","","","","","",""
"","response","","html-keyboard-response","53","207777","0.0-1.0-59.0-0.0","0","0","49508","","156","","","75","6","","","1","6","training","adjacent","FG","6","7","N.jpg","Q.jpg","0","1","0","",""
"","feedback","","html-keyboard-response","54","208787","0.0-1.0-60.0-0.0","0","0","49508","","null","","","null","6","","","","","","","","","","","","","","","",""
"","time_out","","html-keyboard-response","55","210793","0.0-1.0-62.0-0.0","0","0","49508","","null","","","null","6","","","","","","","","","","","","","","","",""
"","ITI","","html-keyboard-response","56","211804","0.0-1.0-63.0","0","0","49508","","null","","","null","6","","","","","","","","","","","","","","","NaN",""
"","S1","","html-keyboard-response","57","212069","0.0-1.0-65.0","0","0","49508","","null","","","null","7","","","","","","","","","","","","","","","",""
"","ISI","","html-keyboard-response","58","212573","0.0-1.0-66.0","0","0","49508","","null","","","null","7","NaN","","","","","","","","","","","","","","",""
"","S2","","html-keyboard-response","59","212831","0.0-1.0-67.0","0","0","49508","","null","","","null","7","","NaN","","","","","","","","","","","","","",""
"","response","","html-keyboard-response","60","213128","0.0-1.0-68.0-0.0","0","0","49508","","295","","","68","7","","","1","7","training","adjacent","DC","4","3","L.jpg","O.jpg","1","0","0","",""
"","feedback","","html-keyboard-response","61","214138","0.0-1.0-69.0-0.0","0","0","49508","","null","","","null","7","","","","","","","","","","","","","","","",""
"","time_out","","html-keyboard-response","62","216151","0.0-1.0-71.0-0.0","0","0","49508","","null","","","null","7","","","","","","","","","","","","","","","",""
"","ITI","","html-keyboard-response","63","217157","0.0-1.0-72.0","0","0","49508","","null","","","null","7","","","","","","","","","","","","","","","NaN",""
"","S1","","html-keyboard-response","64","217415","0.0-1.0-74.0","0","0","49508","","null","","","null","8","","","","","","","","","","","","","","","",""
"","ISI","","html-keyboard-response","65","217921","0.0-1.0-75.0","0","0","49508","","null","","","null","8","NaN","","","","","","","","","","","","","","",""
"","S2","","html-keyboard-response","66","218174","0.0-1.0-76.0","0","0","49508","","null","","","null","8","","NaN","","","","","","","","","","","","","",""
"","response","","html-keyboard-response","67","218457","0.0-1.0-77.0-0.0","0","0","49508","","282","","","68","8","","","1","8","training","adjacent","DE","4","5","L.jpg","M.jpg","1","1","1","",""
"","feedback","","html-keyboard-response","68","219470","0.0-1.0-78.0-0.0","0","0","49508","","null","","","null","8","","","","","","","","","","","","","","","",""
"","ITI","","html-keyboard-response","69","220475","0.0-1.0-81.0","0","0","49508","","null","","","null","8","","","","","","","","","","","","","","","NaN",""
"","S1","","html-keyboard-response","70","220731","0.0-1.0-83.0","0","0","49508","","null","","","null","9","","","","","","","","","","","","","","","",""
"","ISI","","html-keyboard-response","71","221236","0.0-1.0-84.0","0","0","49508","","null","","","null","9","NaN","","","","","","","","","","","","","","",""
"","S2","","html-keyboard-response","72","221494","0.0-1.0-85.0","0","0","49508","","null","","","null","9","","NaN","","","","","","","","","","","","","",""
"","response","","html-keyboard-response","73","221714","0.0-1.0-86.0-0.0","0","0","49508","","219","","","75","9","","","1","9","training","adjacent","DE","4","5","L.jpg","M.jpg","0","1","0","",""
"","feedback","","html-keyboard-response","74","222728","0.0-1.0-87.0-0.0","0","0","49508","","null","","","null","9","","","","","","","","","","","","","","","",""
"","time_out","","html-keyboard-response","75","224737","0.0-1.0-89.0-0.0","0","0","49508","","null","","","null","9","","","","","","","","","","","","","","","",""
"","ITI","","html-keyboard-response","76","225746","0.0-1.0-90.0","0","0","49508","","null","","","null","9","","","","","","","","","","","","","","","NaN",""
"","S1","","html-keyboard-response","77","225999","0.0-1.0-92.0","0","0","49508","","null","","","null","10","","","","","","","","","","","","","","","",""
"","ISI","","html-keyboard-response","78","226514","0.0-1.0-93.0","0","0","49508","","null","","","null","10","NaN","","","","","","","","","","","","","","",""
"","S2","","html-keyboard-response","79","226769","0.0-1.0-94.0","0","0","49508","","null","","","null","10","","NaN","","","","","","","","","","","","","",""
"","response","","html-keyboard-response","80","226960","0.0-1.0-95.0-0.0","0","0","49508","","188","","","75","10","","","1","10","training","adjacent","FG","6","7","N.jpg","Q.jpg","0","1","0","",""
"","feedback","","html-keyboard-response","81","227967","0.0-1.0-96.0-0.0","0","0","49508","","null","","","null","10","","","","","","","","","","","","","","","",""
"","time_out","","html-keyboard-response","82","229975","0.0-1.0-98.0-0.0","0","0","49508","","null","","","null","10","","","","","","","","","","","","","","","",""
"","ITI","","html-keyboard-response","83","230981","0.0-1.0-99.0","0","0","49508","","null","","","null","10","","","","","","","","","","","","","","","NaN",""
"","S1","","html-keyboard-response","84","231240","0.0-1.0-101.0","0","0","49508","","null","","","null","11","","","","","","","","","","","","","","","",""
"","ISI","","html-keyboard-response","85","231751","0.0-1.0-102.0","0","0","49508","","null","","","null","11","NaN","","","","","","","","","","","","","","",""
"","S2","","html-keyboard-response","86","232006","0.0-1.0-103.0","0","0","49508","","null","","","null","11","","NaN","","","","","","","","","","","","","",""
"","response","","html-keyboard-response","87","232211","0.0-1.0-104.0-0.0","0","0","49508","","202","","","75","11","","","1","11","training","adjacent","AB","1","2","R.jpg","P.jpg","0","1","0","",""
"","feedback","","html-keyboard-response","88","233221","0.0-1.0-105.0-0.0","0","0","49508","","null","","","null","11","","","","","","","","","","","","","","","",""
"","time_out","","html-keyboard-response","89","235231","0.0-1.0-107.0-0.0","0","0","49508","","null","","","null","11","","","","","","","","","","","","","","","",""
"","ITI","","html-keyboard-response","90","236239","0.0-1.0-108.0","0","0","49508","","null","","","null","11","","","","","","","","","","","","","","","NaN",""
"","S1","","html-keyboard-response","91","236495","0.0-1.0-110.0","0","0","49508","","null","","","null","12","","","","","","","","","","","","","","","",""
"","ISI","","html-keyboard-response","92","237002","0.0-1.0-111.0","0","0","49508","","null","","","null","12","NaN","","","","","","","","","","","","","","",""
"","S2","","html-keyboard-response","93","237260","0.0-1.0-112.0","0","0","49508","","null","","","null","12","","NaN","","","","","","","","","","","","","",""
"","response","","html-keyboard-response","94","237342","0.0-1.0-113.0-0.0","0","0","49508","","79","","","75","12","","","1","12","training","adjacent","CB","3","2","O.jpg","P.jpg","0","0","1","",""
"","feedback","","html-keyboard-response","95","238352","0.0-1.0-114.0-0.0","0","0","49508","","null","","","null","12","","","","","","","","","","","","","","","",""
"","ITI","","html-keyboard-response","96","239359","0.0-1.0-117.0","0","0","49508","","null","","","null","12","","","","","","","","","","","","","","","NaN",""
"","S1","","html-keyboard-response","97","239616","0.0-1.0-119.0","0","0","49508","","null","","","null","13","","","","","","","","","","","","","","","",""
"","ISI","","html-keyboard-response","98","240124","0.0-1.0-120.0","0","0","49508","","null","","","null","13","NaN","","","","","","","","","","","","","","",""
"","S2","","html-keyboard-response","99","240380","0.0-1.0-121.0","0","0","49508","","null","","","null","13","","NaN","","","","","","","","","","","","","",""
"","response","","html-keyboard-response","100","240717","0.0-1.0-122.0-0.0","0","0","49508","","334","","","75","13","","","1","13","training","adjacent","FE","6","5","N.jpg","M.jpg","0","0","1","",""
"","feedback","","html-keyboard-response","101","241735","0.0-1.0-123.0-0.0","0","0","49508","","null","","","null","13","","","","","","","","","","","","","","","",""
"","ITI","","html-keyboard-response","102","242744","0.0-1.0-126.0","0","0","49508","","null","","","null","13","","","","","","","","","","","","","","","NaN",""
"","S1","","html-keyboard-response","103","243002","0.0-1.0-128.0","0","0","49508","","null","","","null","14","","","","","","","","","","","","","","","",""
"","ISI","","html-keyboard-response","104","243506","0.0-1.0-129.0","0","0","49508","","null","","","null","14","NaN","","","","","","","","","","","","","","",""
"","S2","","html-keyboard-response","105","243764","0.0-1.0-130.0","0","0","49508","","null","","","null","14","","NaN","","","","","","","","","","","","","",""
"","response","","html-keyboard-response","106","244150","0.0-1.0-131.0-0.0","0","0","49508","","383","","","68","14","","","1","14","training","adjacent","BC","2","3","P.jpg","O.jpg","1","1","1","",""
"","feedback","","html-keyboard-response","107","245159","0.0-1.0-132.0-0.0","0","0","49508","","null","","","null","14","","","","","","","","","","","","","","","",""
"","ITI","","html-keyboard-response","108","246168","0.0-1.0-135.0","0","0","49508","","null","","","null","14","","","","","","","","","","","","","","","NaN",""
"","S1","","html-keyboard-response","109","246426","0.0-1.0-137.0","0","0","49508","","null","","","null","15","","","","","","","","","","","","","","","",""
"","ISI","","html-keyboard-response","110","246932","0.0-1.0-138.0","0","0","49508","","null","","","null","15","NaN","","","","","","","","","","","","","","",""
"","S2","","html-keyboard-response","111","247191","0.0-1.0-139.0","0","0","49508","","null","","","null","15","","NaN","","","","","","","","","","","","","",""
"","response","","html-keyboard-response","112","247481","0.0-1.0-140.0-0.0","0","0","49508","","288","","","68","15","","","1","15","training","adjacent","DE","4","5","L.jpg","M.jpg","1","1","1","",""
"","feedback","","html-keyboard-response","113","248495","0.0-1.0-141.0-0.0","0","0","49508","","null","","","null","15","","","","","","","","","","","","","","","",""
"","ITI","","html-keyboard-response","114","249502","0.0-1.0-144.0","0","0","49508","","null","","","null","15","","","","","","","","","","","","","","","NaN",""
"","S1","","html-keyboard-response","115","249761","0.0-1.0-146.0","0","0","49508","","null","","","null","16","","","","","","","","","","","","","","","",""
"","ISI","","html-keyboard-response","116","250271","0.0-1.0-147.0","0","0","49508","","null","","","null","16","NaN","","","","","","","","","","","","","","",""
"","S2","","html-keyboard-response","117","250529","0.0-1.0-148.0","0","0","49508","","null","","","null","16","","NaN","","","","","","","","","","","","","",""
"","response","","html-keyboard-response","118","250614","0.0-1.0-149.0-0.0","0","0","49508","","82","","","75","16","","","1","16","training","adjacent","CB","3","2","O.jpg","P.jpg","0","0","1","",""
"","feedback","","html-keyboard-response","119","251621","0.0-1.0-150.0-0.0","0","0","49508","","null","","","null","16","","","","","","","","","","","","","","","",""
"","ITI","","html-keyboard-response","120","252631","0.0-1.0-153.0","0","0","49508","","null","","","null","16","","","","","","","","","","","","","","","NaN",""
"","S1","","html-keyboard-response","121","252888","0.0-1.0-155.0","0","0","49508","","null","","","null","17","","","","","","","","","","","","","","","",""
"","ISI","","html-keyboard-response","122","253398","0.0-1.0-156.0","0","0","49508","","null","","","null","17","NaN","","","","","","","","","","","","","","",""
"","S2","","html-keyboard-response","123","253656","0.0-1.0-157.0","0","0","49508","","null","","","null","17","","NaN","","","","","","","","","","","","","",""
"","response","","html-keyboard-response","124","253758","0.0-1.0-158.0-0.0","0","0","49508","","100","","","68","17","","","1","17","training","adjacent","GF","7","6","Q.jpg","N.jpg","1","0","0","",""
"","feedback","","html-keyboard-response","125","254765","0.0-1.0-159.0-0.0","0","0","49508","","null","","","null","17","","","","","","","","","","","","","","","",""
"","time_out","","html-keyboard-response","126","256770","0.0-1.0-161.0-0.0","0","0","49508","","null","","","null","17","","","","","","","","","","","","","","","",""
"","ITI","","html-keyboard-response","127","257782","0.0-1.0-162.0","0","0","49508","","null","","","null","17","","","","","","","","","","","","","","","NaN",""
"","S1","","html-keyboard-response","128","258038","0.0-1.0-164.0","0","0","49508","","null","","","null","18","","","","","","","","","","","","","","","",""
"","ISI","","html-keyboard-response","129","258547","0.0-1.0-165.0","0","0","49508","","null","","","null","18","NaN","","","","","","","","","","","","","","",""
"","S2","","html-keyboard-response","130","258813","0.0-1.0-166.0","0","0","49508","","null","","","null","18","","NaN","","","","","","","","","","","","","",""
"","response","","html-keyboard-response","131","259149","0.0-1.0-167.0-0.0","0","0","49508","","333","","","68","18","","","1","18","training","adjacent","CD","3","4","O.jpg","L.jpg","1","1","1","",""
"","feedback","","html-keyboard-response","132","260155","0.0-1.0-168.0-0.0","0","0","49508","","null","","","null","18","","","","","","","","","","","","","","","",""
"","ITI","","html-keyboard-response","133","261162","0.0-1.0-171.0","0","0","49508","","null","","","null","18","","","","","","","","","","","","","","","NaN",""
"","S1","","html-keyboard-response","134","261418","0.0-1.0-173.0","0","0","49508","","null","","","null","19","","","","","","","","","","","","","","","",""
"","ISI","","html-keyboard-response","135","261925","0.0-1.0-174.0","0","0","49508","","null","","","null","19","NaN","","","","","","","","","","","","","","",""
"","S2","","html-keyboard-response","136","262180","0.0-1.0-175.0","0","0","49508","","null","","","null","19","","NaN","","","","","","","","","","","","","",""
"","response","","html-keyboard-response","137","262251","0.0-1.0-176.0-0.0","0","0","49508","","69","","","75","19","","","1","19","training","adjacent","BA","2","1","P.jpg","R.jpg","0","0","1","",""
"","feedback","","html-keyboard-response","138","263267","0.0-1.0-177.0-0.0","0","0","49508","","null","","","null","19","","","","","","","","","","","","","","","",""
"","ITI","","html-keyboard-response","139","264280","0.0-1.0-180.0","0","0","49508","","null","","","null","19","","","","","","","","","","","","","","","NaN",""
"","S1","","html-keyboard-response","140","264534","0.0-1.0-182.0","0","0","49508","","null","","","null","20","","","","","","","","","","","","","","","",""
"","ISI","","html-keyboard-response","141","265038","0.0-1.0-183.0","0","0","49508","","null","","","null","20","NaN","","","","","","","","","","","","","","",""
"","S2","","html-keyboard-response","142","265282","0.0-1.0-184.0","0","0","49508","","240","","","75","20","","k","1","20","training","adjacent","CD","3","4","O.jpg","L.jpg","0","1","0","",""
"","feedback","","html-keyboard-response","143","266288","0.0-1.0-186.0-0.0","0","0","49508","","null","","","null","20","","","","","","","","","","","","","","","",""
"","time_out","","html-keyboard-response","144","268295","0.0-1.0-188.0-0.0","0","0","49508","","null","","","null","20","","","","","","","","","","","","","","","",""
"","ITI","","html-keyboard-response","145","269298","0.0-1.0-189.0","0","0","49508","","null","","","null","20","","","","","","","","","","","","","","","NaN",""
"","S1","","html-keyboard-response","146","269558","0.0-1.0-191.0","0","0","49508","","null","","","null","21","","","","","","","","","","","","","","","",""
"","ISI","","html-keyboard-response","147","270063","0.0-1.0-192.0","0","0","49508","","null","","","null","21","NaN","","","","","","","","","","","","","","",""
"","S2","","html-keyboard-response","148","270321","0.0-1.0-193.0","0","0","49508","","null","","","null","21","","NaN","","","","","","","","","","","","","",""
"","response","","html-keyboard-response","149","270853","0.0-1.0-194.0-0.0","0","0","49508","","530","","","68","21","","","1","21","training","adjacent","GF","7","6","Q.jpg","N.jpg","1","0","0","",""
"","feedback","","html-keyboard-response","150","271857","0.0-1.0-195.0-0.0","0","0","49508","","null","","","null","21","","","","","","","","","","","","","","","",""
"","time_out","","html-keyboard-response","151","273863","0.0-1.0-197.0-0.0","0","0","49508","","null","","","null","21","","","","","","","","","","","","","","","",""
"","ITI","","html-keyboard-response","152","274869","0.0-1.0-198.0","0","0","49508","","null","","","null","21","","","","","","","","","","","","","","","NaN",""
"","S1","","html-keyboard-response","153","275125","0.0-1.0-200.0","0","0","49508","","null","","","null","22","","","","","","","","","","","","","","","",""
"","ISI","","html-keyboard-response","154","275634","0.0-1.0-201.0","0","0","49508","","null","","","null","22","NaN","","","","","","","","","","","","","","",""
"","S2","","html-keyboard-response","155","275894","0.0-1.0-202.0","0","0","49508","","null","","","null","22","","NaN","","","","","","","","","","","","","",""
"","response","","html-keyboard-response","156","276444","0.0-1.0-203.0-0.0","0","0","49508","","548","","","75","22","","","1","22","training","adjacent","BC","2","3","P.jpg","O.jpg","0","1","0","",""
"","feedback","","html-keyboard-response","157","277456","0.0-1.0-204.0-0.0","0","0","49508","","null","","","null","22","","","","","","","","","","","","","","","",""
"","time_out","","html-keyboard-response","158","279460","0.0-1.0-206.0-0.0","0","0","49508","","null","","","null","22","","","","","","","","","","","","","","","",""
"","ITI","","html-keyboard-response","159","280469","0.0-1.0-207.0","0","0","49508","","null","","","null","22","","","","","","","","","","","","","","","NaN",""
"","S1","","html-keyboard-response","160","280724","0.0-1.0-209.0","0","0","49508","","null","","","null","23","","","","","","","","","","","","","","","",""
"","ISI","","html-keyboard-response","161","281234","0.0-1.0-210.0","0","0","49508","","null","","","null","23","NaN","","","","","","","","","","","","","","",""
"","S2","","html-keyboard-response","162","281496","0.0-1.0-211.0","0","0","49508","","null","","","null","23","","NaN","","","","","","","","","","","","","",""
"","response","","html-keyboard-response","163","281580","0.0-1.0-212.0-0.0","0","0","49508","","83","","","75","23","","","1","23","training","adjacent","CB","3","2","O.jpg","P.jpg","0","0","1","",""
"","feedback","","html-keyboard-response","164","282590","0.0-1.0-213.0-0.0","0","0","49508","","null","","","null","23","","","","","","","","","","","","","","","",""
"","ITI","","html-keyboard-response","165","283596","0.0-1.0-216.0","0","0","49508","","null","","","null","23","","","","","","","","","","","","","","","NaN",""
"","S1","","html-keyboard-response","166","283851","0.0-1.0-218.0","0","0","49508","","null","","","null","24","","","","","","","","","","","","","","","",""
"","ISI","","html-keyboard-response","167","284364","0.0-1.0-219.0","0","0","49508","","null","","","null","24","NaN","","","","","","","","","","","","","","",""
"","S2","","html-keyboard-response","168","284618","0.0-1.0-220.0","0","0","49508","","null","","","null","24","","NaN","","","","","","","","","","","","","",""
"","response","","html-keyboard-response","169","284856","0.0-1.0-221.0-0.0","0","0","49508","","236","","","75","24","","","1","24","training","adjacent","EF","5","6","M.jpg","N.jpg","0","1","0","",""
"","feedback","","html-keyboard-response","170","285859","0.0-1.0-222.0-0.0","0","0","49508","","null","","","null","24","","","","","","","","","","","","","","","",""
"","time_out","","html-keyboard-response","171","287865","0.0-1.0-224.0-0.0","0","0","49508","","null","","","null","24","","","","","","","","","","","","","","","",""
"","ITI","","html-keyboard-response","172","288871","0.0-1.0-225.0","0","0","49508","","null","","","null","24","","","","","","","","","","","","","","","NaN",""
"","S1","","html-keyboard-response","173","289133","0.0-1.0-227.0","0","0","49508","","null","","","null","25","","","","","","","","","","","","","","","",""
"","ISI","","html-keyboard-response","174","289642","0.0-1.0-228.0","0","0","49508","","null","","","null","25","NaN","","","","","","","","","","","","","","",""
"","S2","","html-keyboard-response","175","289896","0.0-1.0-229.0","0","0","49508","","null","","","null","25","","NaN","","","","","","","","","","","","","",""
"","response","","html-keyboard-response","176","290041","0.0-1.0-230.0-0.0","0","0","49508","","143","","","75","25","","","1","25","training","adjacent","BA","2","1","P.jpg","R.jpg","0","0","1","",""
"","feedback","","html-keyboard-response","177","291048","0.0-1.0-231.0-0.0","0","0","49508","","null","","","null","25","","","","","","","","","","","","","","","",""
"","ITI","","html-keyboard-response","178","292051","0.0-1.0-234.0","0","0","49508","","null","","","null","25","","","","","","","","","","","","","","","NaN",""
"","S1","","html-keyboard-response","179","292311","0.0-1.0-236.0","0","0","49508","","null","","","null","26","","","","","","","","","","","","","","","",""
"","ISI","","html-keyboard-response","180","292815","0.0-1.0-237.0","0","0","49508","","null","","","null","26","NaN","","","","","","","","","","","","","","",""
"","S2","","html-keyboard-response","181","293069","0.0-1.0-238.0","0","0","49508","","null","","","null","26","","NaN","","","","","","","","","","","","","",""
"","response","","html-keyboard-response","182","293116","0.0-1.0-239.0-0.0","0","0","49508","","45","","","75","26","","","1","26","training","adjacent","DC","4","3","L.jpg","O.jpg","0","0","1","",""
"","feedback","","html-keyboard-response","183","294124","0.0-1.0-240.0-0.0","0","0","49508","","null","","","null","26","","","","","","","","","","","","","","","",""
"","ITI","","html-keyboard-response","184","295131","0.0-1.0-243.0","0","0","49508","","null","","","null","26","","","","","","","","","","","","","","","NaN",""
"","S1","","html-keyboard-response","185","295391","0.0-1.0-245.0","0","0","49508","","null","","","null","27","","","","","","","","","","","","","","","",""
"","ISI","","html-keyboard-response","186","295900","0.0-1.0-246.0","0","0","49508","","null","","","null","27","NaN","","","","","","","","","","","","","","",""
"","S2","","html-keyboard-response","187","296158","0.0-1.0-247.0","0","0","49508","","null","","","null","27","","NaN","","","","","","","","","","","","","",""
"","response","","html-keyboard-response","188","296556","0.0-1.0-248.0-0.0","0","0","49508","","395","","","68","27","","","1","27","training","adjacent","CD","3","4","O.jpg","L.jpg","1","1","1","",""
"","feedback","","html-keyboard-response","189","297565","0.0-1.0-249.0-0.0","0","0","49508","","null","","","null","27","","","","","","","","","","","","","","","",""
"","ITI","","html-keyboard-response","190","298575","0.0-1.0-252.0","0","0","49508","","null","","","null","27","","","","","","","","","","","","","","","NaN",""
"","S1","","html-keyboard-response","191","298831","0.0-1.0-254.0","0","0","49508","","null","","","null","28","","","","","","","","","","","","","","","",""
"","ISI","","html-keyboard-response","192","299342","0.0-1.0-255.0","0","0","49508","","null","","","null","28","NaN","","","","","","","","","","","","","","",""
"","S2","","html-keyboard-response","193","299599","0.0-1.0-256.0","0","0","49508","","null","","","null","28","","NaN","","","","","","","","","","","","","",""
"","response","","html-keyboard-response","194","299862","0.0-1.0-257.0-0.0","0","0","49508","","260","","","68","28","","","1","28","training","adjacent","ED","5","4","M.jpg","L.jpg","1","0","0","",""
"","feedback","","html-keyboard-response","195","300867","0.0-1.0-258.0-0.0","0","0","49508","","null","","","null","28","","","","","","","","","","","","","","","",""
"","time_out","","html-keyboard-response","196","302875","0.0-1.0-260.0-0.0","0","0","49508","","null","","","null","28","","","","","","","","","","","","","","","",""
"","ITI","","html-keyboard-response","197","303882","0.0-1.0-261.0","0","0","49508","","null","","","null","28","","","","","","","","","","","","","","","NaN",""
"","S1","","html-keyboard-response","198","304140","0.0-1.0-263.0","0","0","49508","","null","","","null","29","","","","","","","","","","","","","","","",""
"","ISI","","html-keyboard-response","199","304649","0.0-1.0-264.0","0","0","49508","","null","","","null","29","NaN","","","","","","","","","","","","","","",""
"","S2","","html-keyboard-response","200","304906","0.0-1.0-265.0","0","0","49508","","null","","","null","29","","NaN","","","","","","","","","","","","","",""
"","response","","html-keyboard-response","201","305024","0.0-1.0-266.0-0.0","0","0","49508","","116","","","68","29","","","1","29","training","adjacent","AB","1","2","R.jpg","P.jpg","1","1","1","",""
"","feedback","","html-keyboard-response","202","306030","0.0-1.0-267.0-0.0","0","0","49508","","null","","","null","29","","","","","","","","","","","","","","","",""
"","ITI","","html-keyboard-response","203","307038","0.0-1.0-270.0","0","0","49508","","null","","","null","29","","","","","","","","","","","","","","","NaN",""
"","S1","","html-keyboard-response","204","307291","0.0-1.0-272.0","0","0","49508","","null","","","null","30","","","","","","","","","","","","","","","",""
"","ISI","","html-keyboard-response","205","307799","0.0-1.0-273.0","0","0","49508","","null","","","null","30","NaN","","","","","","","","","","","","","","",""
"","S2","","html-keyboard-response","206","308055","0.0-1.0-274.0","0","0","49508","","null","","","null","30","","NaN","","","","","","","","","","","","","",""
"","response","","html-keyboard-response","207","308236","0.0-1.0-275.0-0.0","0","0","49508","","178","","","75","30","","","1","30","training","adjacent","FE","6","5","N.jpg","M.jpg","0","0","1","",""
"","feedback","","html-keyboard-response","208","309242","0.0-1.0-276.0-0.0","0","0","49508","","null","","","null","30","","","","","","","","","","","","","","","",""
"","ITI","","html-keyboard-response","209","310252","0.0-1.0-279.0","0","0","49508","","null","","","null","30","","","","","","","","","","","","","","","NaN",""
"","S1","","html-keyboard-response","210","310511","0.0-1.0-281.0","0","0","49508","","null","","","null","31","","","","","","","","","","","","","","","",""
"","ISI","","html-keyboard-response","211","311017","0.0-1.0-282.0","0","0","49508","","null","","","null","31","NaN","","","","","","","","","","","","","","",""
"","S2","","html-keyboard-response","212","311274","0.0-1.0-283.0","0","0","49508","","null","","","null","31","","NaN","","","","","","","","","","","","","",""
"","response","","html-keyboard-response","213","311349","0.0-1.0-284.0-0.0","0","0","49508","","74","","","75","31","","","1","31","training","adjacent","AB","1","2","R.jpg","P.jpg","0","1","0","",""
"","feedback","","html-keyboard-response","214","312360","0.0-1.0-285.0-0.0","0","0","49508","","null","","","null","31","","","","","","","","","","","","","","","",""
"","time_out","","html-keyboard-response","215","314368","0.0-1.0-287.0-0.0","0","0","49508","","null","","","null","31","","","","","","","","","","","","","","","",""
"","ITI","","html-keyboard-response","216","315381","0.0-1.0-288.0","0","0","49508","","null","","","null","31","","","","","","","","","","","","","","","NaN",""
"","S1","","html-keyboard-response","217","315634","0.0-1.0-290.0","0","0","49508","","null","","","null","32","","","","","","","","","","","","","","","",""
"","ISI","","html-keyboard-response","218","316141","0.0-1.0-291.0","0","0","49508","","null","","","null","32","NaN","","","","","","","","","","","","","","",""
"","S2","","html-keyboard-response","219","316402","0.0-1.0-292.0","0","0","49508","","null","","","null","32","","NaN","","","","","","","","","","","","","",""
"","response","","html-keyboard-response","220","316493","0.0-1.0-293.0-0.0","0","0","49508","","89","","","68","32","","","1","32","training","adjacent","CD","3","4","O.jpg","L.jpg","1","1","1","",""
"","feedback","","html-keyboard-response","221","317502","0.0-1.0-294.0-0.0","0","0","49508","","null","","","null","32","","","","","","","","","","","","","","","",""
"","ITI","","html-keyboard-response","222","318509","0.0-1.0-297.0","0","0","49508","","null","","","null","32","","","","","","","","","","","","","","","NaN",""
"","S1","","html-keyboard-response","223","318764","0.0-1.0-299.0","0","0","49508","","null","","","null","33","","","","","","","","","","","","","","","",""
"","ISI","","html-keyboard-response","224","319274","0.0-1.0-300.0","0","0","49508","","null","","","null","33","NaN","","","","","","","","","","","","","","",""
"","S2","","html-keyboard-response","225","319529","0.0-1.0-301.0","0","0","49508","","null","","","null","33","","NaN","","","","","","","","","","","","","",""
"","response","","html-keyboard-response","226","319559","0.0-1.0-302.0-0.0","0","0","49508","","27","","","75","33","","","1","33","training","adjacent","DE","4","5","L.jpg","M.jpg","0","1","0","",""
"","feedback","","html-keyboard-response","227","320567","0.0-1.0-303.0-0.0","0","0","49508","","null","","","null","33","","","","","","","","","","","","","","","",""
"","time_out","","html-keyboard-response","228","322570","0.0-1.0-305.0-0.0","0","0","49508","","null","","","null","33","","","","","","","","","","","","","","","",""
"","ITI","","html-keyboard-response","229","323576","0.0-1.0-306.0","0","0","49508","","null","","","null","33","","","","","","","","","","","","","","","NaN",""
"","S1","","html-keyboard-response","230","323834","0.0-1.0-308.0","0","0","49508","","null","","","null","34","","","","","","","","","","","","","","","",""
"","ISI","","html-keyboard-response","231","324342","0.0-1.0-309.0","0","0","49508","","null","","","null","34","NaN","","","","","","","","","","","","","","",""
"","S2","","html-keyboard-response","232","324596","0.0-1.0-310.0","0","0","49508","","null","","","null","34","","NaN","","","","","","","","","","","","","",""
"","response","","html-keyboard-response","233","324674","0.0-1.0-311.0-0.0","0","0","49508","","75","","","75","34","","","1","34","training","adjacent","GF","7","6","Q.jpg","N.jpg","0","0","1","",""
"","feedback","","html-keyboard-response","234","325685","0.0-1.0-312.0-0.0","0","0","49508","","null","","","null","34","","","","","","","","","","","","","","","",""
"","ITI","","html-keyboard-response","235","326691","0.0-1.0-315.0","0","0","49508","","null","","","null","34","","","","","","","","","","","","","","","NaN",""
"","S1","","html-keyboard-response","236","326944","0.0-1.0-317.0","0","0","49508","","null","","","null","35","","","","","","","","","","","","","","","",""
"","ISI","","html-keyboard-response","237","327448","0.0-1.0-318.0","0","0","49508","","null","","","null","35","NaN","","","","","","","","","","","","","","",""
"","S2","","html-keyboard-response","238","327701","0.0-1.0-319.0","0","0","49508","","null","","","null","35","","NaN","","","","","","","","","","","","","",""
"","response","","html-keyboard-response","239","327896","0.0-1.0-320.0-0.0","0","0","49508","","192","","","68","35","","","1","35","training","adjacent","BC","2","3","P.jpg","O.jpg","1","1","1","",""
"","feedback","","html-keyboard-response","240","328905","0.0-1.0-321.0-0.0","0","0","49508","","null","","","null","35","","","","","","","","","","","","","","","",""
"","ITI","","html-keyboard-response","241","329910","0.0-1.0-324.0","0","0","49508","","null","","","null","35","","","","","","","","","","","","","","","NaN",""
"","S1","","html-keyboard-response","242","330167","0.0-1.0-326.0","0","0","49508","","null","","","null","36","","","","","","","","","","","","","","","",""
"","ISI","","html-keyboard-response","243","330678","0.0-1.0-327.0","0","0","49508","","null","","","null","36","NaN","","","","","","","","","","","","","","",""
"","S2","","html-keyboard-response","244","330935","0.0-1.0-328.0","0","0","49508","","null","","","null","36","","NaN","","","","","","","","","","","","","",""
"","response","","html-keyboard-response","245","331055","0.0-1.0-329.0-0.0","0","0","49508","","118","","","68","36","","","1","36","training","adjacent","EF","5","6","M.jpg","N.jpg","1","1","1","",""
"","feedback","","html-keyboard-response","246","332065","0.0-1.0-330.0-0.0","0","0","49508","","null","","","null","36","","","","","","","","","","","","","","","",""
"","ITI","","html-keyboard-response","247","333071","0.0-1.0-333.0","0","0","49508","","null","","","null","36","","","","","","","","","","","","","","","NaN",""
"","S1","","html-keyboard-response","248","333328","0.0-1.0-335.0","0","0","49508","","null","","","null","37","","","","","","","","","","","","","","","",""
"","ISI","","html-keyboard-response","249","333839","0.0-1.0-336.0","0","0","49508","","null","","","null","37","NaN","","","","","","","","","","","","","","",""
"","S2","","html-keyboard-response","250","334031","0.0-1.0-337.0","0","0","49508","","189","","","75","37","","k","1","37","training","adjacent","DC","4","3","L.jpg","O.jpg","0","0","1","",""
"","feedback","","html-keyboard-response","251","335040","0.0-1.0-339.0-0.0","0","0","49508","","null","","","null","37","","","","","","","","","","","","","","","",""
"","ITI","","html-keyboard-response","252","336047","0.0-1.0-342.0","0","0","49508","","null","","","null","37","","","","","","","","","","","","","","","NaN",""
"","S1","","html-keyboard-response","253","336300","0.0-1.0-344.0","0","0","49508","","null","","","null","38","","","","","","","","","","","","","","","",""
"","ISI","","html-keyboard-response","254","336805","0.0-1.0-345.0","0","0","49508","","null","","","null","38","NaN","","","","","","","","","","","","","","",""
"","S2","","html-keyboard-response","255","337063","0.0-1.0-346.0","0","0","49508","","null","","","null","38","","NaN","","","","","","","","","","","","","",""
"","response","","html-keyboard-response","256","337169","0.0-1.0-347.0-0.0","0","0","49508","","104","","","75","38","","","1","38","training","adjacent","ED","5","4","M.jpg","L.jpg","0","0","1","",""
"","feedback","","html-keyboard-response","257","338179","0.0-1.0-348.0-0.0","0","0","49508","","null","","","null","38","","","","","","","","","","","","","","","",""
"","ITI","","html-keyboard-response","258","339187","0.0-1.0-351.0","0","0","49508","","null","","","null","38","","","","","","","","","","","","","","","NaN",""
"","S1","","html-keyboard-response","259","339443","0.0-1.0-353.0","0","0","49508","","null","","","null","39","","","","","","","","","","","","","","","",""
"","ISI","","html-keyboard-response","260","339951","0.0-1.0-354.0","0","0","49508","","null","","","null","39","NaN","","","","","","","","","","","","","","",""
"","S2","","html-keyboard-response","261","340208","0.0-1.0-355.0","0","0","49508","","null","","","null","39","","NaN","","","","","","","","","","","","","",""
"","response","","html-keyboard-response","262","340213","0.0-1.0-356.0-0.0","0","0","49508","","3","","","68","39","","","1","39","training","adjacent","AB","1","2","R.jpg","P.jpg","1","1","1","",""
"","feedback","","html-keyboard-response","263","341220","0.0-1.0-357.0-0.0","0","0","49508","","null","","","null","39","","","","","","","","","","","","","","","",""
"","ITI","","html-keyboard-response","264","342225","0.0-1.0-360.0","0","0","49508","","null","","","null","39","","","","","","","","","","","","","","","NaN",""
"","S1","","html-keyboard-response","265","342490","0.0-1.0-362.0","0","0","49508","","null","","","null","40","","","","","","","","","","","","","","","",""
"","ISI","","html-keyboard-response","266","343002","0.0-1.0-363.0","0","0","49508","","null","","","null","40","NaN","","","","","","","","","","","","","","",""
"","S2","","html-keyboard-response","267","343259","0.0-1.0-364.0","0","0","49508","","null","","","null","40","","NaN","","","","","","","","","","","","","",""
"","response","","html-keyboard-response","268","343328","0.0-1.0-365.0-0.0","0","0","49508","","66","","","68","40","","","1","40","training","adjacent","FE","6","5","N.jpg","M.jpg","1","0","0","",""
"","feedback","","html-keyboard-response","269","344339","0.0-1.0-366.0-0.0","0","0","49508","","null","","","null","40","","","","","","","","","","","","","","","",""
"","time_out","","html-keyboard-response","270","346346","0.0-1.0-368.0-0.0","0","0","49508","","null","","","null","40","","","","","","","","","","","","","","","",""
"","ITI","","html-keyboard-response","271","347351","0.0-1.0-369.0","0","0","49508","","null","","","null","40","","","","","","","","","","","","","","","NaN",""
"","S1","","html-keyboard-response","272","347606","0.0-1.0-371.0","0","0","49508","","null","","","null","41","","","","","","","","","","","","","","","",""
"","ISI","","html-keyboard-response","273","348110","0.0-1.0-372.0","0","0","49508","","null","","","null","41","NaN","","","","","","","","","","","","","","",""
"","S2","","html-keyboard-response","274","348374","0.0-1.0-373.0","0","0","49508","","null","","","null","41","","NaN","","","","","","","","","","","","","",""
"","response","","html-keyboard-response","275","348548","0.0-1.0-374.0-0.0","0","0","49508","","172","","","68","41","","","1","41","training","adjacent","FG","6","7","N.jpg","Q.jpg","1","1","1","",""
"","feedback","","html-keyboard-response","276","349551","0.0-1.0-375.0-0.0","0","0","49508","","null","","","null","41","","","","","","","","","","","","","","","",""
"","ITI","","html-keyboard-response","277","350554","0.0-1.0-378.0","0","0","49508","","null","","","null","41","","","","","","","","","","","","","","","NaN",""
"","S1","","html-keyboard-response","278","350811","0.0-1.0-380.0","0","0","49508","","null","","","null","42","","","","","","","","","","","","","","","",""
"","ISI","","html-keyboard-response","279","351320","0.0-1.0-381.0","0","0","49508","","null","","","null","42","NaN","","","","","","","","","","","","","","",""
"","S2","","html-keyboard-response","280","351575","0.0-1.0-382.0","0","0","49508","","null","","","null","42","","NaN","","","","","","","","","","","","","",""
"","response","","html-keyboard-response","281","351607","0.0-1.0-383.0-0.0","0","0","49508","","31","","","75","42","","","1","42","training","adjacent","BA","2","1","P.jpg","R.jpg","0","0","1","",""
"","feedback","","html-keyboard-response","282","352611","0.0-1.0-384.0-0.0","0","0","49508","","null","","","null","42","","","","","","","","","","","","","","","",""
"","ITI","","html-keyboard-response","283","353619","0.0-1.0-387.0","0","0","49508","","null","","","null","42","","","","","","","","","","","","","","","NaN",""
"","S1","","html-keyboard-response","284","353874","0.0-1.0-389.0","0","0","49508","","null","","","null","43","","","","","","","","","","","","","","","",""
"","ISI","","html-keyboard-response","285","354383","0.0-1.0-390.0","0","0","49508","","null","","","null","43","NaN","","","","","","","","","","","","","","",""
"","S2","","html-keyboard-response","286","354639","0.0-1.0-391.0","0","0","49508","","null","","","null","43","","NaN","","","","","","","","","","","","","",""
"","response","","html-keyboard-response","287","354685","0.0-1.0-392.0-0.0","0","0","49508","","43","","","75","43","","","1","43","training","adjacent","ED","5","4","M.jpg","L.jpg","0","0","1","",""
"","feedback","","html-keyboard-response","288","355694","0.0-1.0-393.0-0.0","0","0","49508","","null","","","null","43","","","","","","","","","","","","","","","",""
"","ITI","","html-keyboard-response","289","356705","0.0-1.0-396.0","0","0","49508","","null","","","null","43","","","","","","","","","","","","","","","NaN",""
"","S1","","html-keyboard-response","290","356962","0.0-1.0-398.0","0","0","49508","","null","","","null","44","","","","","","","","","","","","","","","",""
"","ISI","","html-keyboard-response","291","357473","0.0-1.0-399.0","0","0","49508","","null","","","null","44","NaN","","","","","","","","","","","","","","",""
"","S2","","html-keyboard-response","292","357729","0.0-1.0-400.0","0","0","49508","","null","","","null","44","","NaN","","","","","","","","","","","","","",""
"","response","","html-keyboard-response","293","357822","0.0-1.0-401.0-0.0","0","0","49508","","91","","","68","44","","","1","44","training","adjacent","ED","5","4","M.jpg","L.jpg","1","0","0","",""
"","feedback","","html-keyboard-response","294","358834","0.0-1.0-402.0-0.0","0","0","49508","","null","","","null","44","","","","","","","","","","","","","","","",""
"","time_out","","html-keyboard-response","295","360839","0.0-1.0-404.0-0.0","0","0","49508","","null","","","null","44","","","","","","","","","","","","","","","",""
"","ITI","","html-keyboard-response","296","361855","0.0-1.0-405.0","0","0","49508","","430","","","32","44","","","","","","","","","","","","","","","space",""
"","S1","","html-keyboard-response","297","362115","0.0-1.0-407.0","0","0","49508","","null","","","null","45","","","","","","","","","","","","","","","",""
"","ISI","","html-keyboard-response","298","362620","0.0-1.0-408.0","0","0","49508","","null","","","null","45","NaN","","","","","","","","","","","","","","",""
"","S2","","html-keyboard-response","299","362878","0.0-1.0-409.0","0","0","49508","","null","","","null","45","","NaN","","","","","","","","","","","","","",""
"","response","","html-keyboard-response","300","363254","0.0-1.0-410.0-0.0","0","0","49508","","374","","","68","45","","","1","45","training","adjacent","GF","7","6","Q.jpg","N.jpg","1","0","0","",""
"","feedback","","html-keyboard-response","301","364262","0.0-1.0-411.0-0.0","0","0","49508","","null","","","null","45","","","","","","","","","","","","","","","",""
"","time_out","","html-keyboard-response","302","366268","0.0-1.0-413.0-0.0","0","0","49508","","null","","","null","45","","","","","","","","","","","","","","","",""
"","ITI","","html-keyboard-response","303","367282","0.0-1.0-414.0","0","0","49508","","null","","","null","45","","","","","","","","","","","","","","","NaN",""
"","S1","","html-keyboard-response","304","367542","0.0-1.0-416.0","0","0","49508","","null","","","null","46","","","","","","","","","","","","","","","",""
"","ISI","","html-keyboard-response","305","368047","0.0-1.0-417.0","0","0","49508","","null","","","null","46","NaN","","","","","","","","","","","","","","",""
"","S2","","html-keyboard-response","306","368306","0.0-1.0-418.0","0","0","49508","","null","","","null","46","","NaN","","","","","","","","","","","","","",""
"","response","","html-keyboard-response","307","368309","0.0-1.0-419.0-0.0","0","0","49508","","1","","","68","46","","","1","46","training","adjacent","EF","5","6","M.jpg","N.jpg","1","1","1","",""
"","feedback","","html-keyboard-response","308","369317","0.0-1.0-420.0-0.0","0","0","49508","","null","","","null","46","","","","","","","","","","","","","","","",""
"","ITI","","html-keyboard-response","309","370328","0.0-1.0-423.0","0","0","49508","","null","","","null","46","","","","","","","","","","","","","","","NaN",""
"","S1","","html-keyboard-response","310","370583","0.0-1.0-425.0","0","0","49508","","null","","","null","47","","","","","","","","","","","","","","","",""
"","ISI","","html-keyboard-response","311","371095","0.0-1.0-426.0","0","0","49508","","null","","","null","47","NaN","","","","","","","","","","","","","","",""
"","S2","","html-keyboard-response","312","371349","0.0-1.0-427.0","0","0","49508","","null","","","null","47","","NaN","","","","","","","","","","","","","",""
"","response","","html-keyboard-response","313","371368","0.0-1.0-428.0-0.0","0","0","49508","","17","","","75","47","","","1","47","training","adjacent","FG","6","7","N.jpg","Q.jpg","0","1","0","",""
"","feedback","","html-keyboard-response","314","372374","0.0-1.0-429.0-0.0","0","0","49508","","null","","","null","47","","","","","","","","","","","","","","","",""
"","time_out","","html-keyboard-response","315","374379","0.0-1.0-431.0-0.0","0","0","49508","","null","","","null","47","","","","","","","","","","","","","","","",""
"","ITI","","html-keyboard-response","316","375391","0.0-1.0-432.0","0","0","49508","","null","","","null","47","","","","","","","","","","","","","","","NaN",""
"","block_over","","html-keyboard-response","317","381999","0.0-1.0-433.0-0.0","0","0","49508","","6604","","","32","47","","","","","","","","","","","","","","","",""
"","S1","","html-keyboard-response","318","382254","0.0-1.0-434.0","0","0","49508","","null","","","null","48","","","","","","","","","","","","","","","",""
"","ISI","","html-keyboard-response","319","382764","0.0-1.0-435.0","0","0","49508","","null","","","null","48","NaN","","","","","","","","","","","","","","",""
"","S2","","html-keyboard-response","320","383021","0.0-1.0-436.0","0","0","49508","","null","","","null","48","","NaN","","","","","","","","","","","","","",""
"","response","","html-keyboard-response","321","383333","0.0-1.0-437.0-0.0","0","0","49508","","309","","","75","48","","","2","48","training","adjacent","BC","2","3","P.jpg","O.jpg","0","1","0","",""
"","feedback","","html-keyboard-response","322","384341","0.0-1.0-438.0-0.0","0","0","49508","","null","","","null","48","","","","","","","","","","","","","","","",""
"","time_out","","html-keyboard-response","323","386344","0.0-1.0-440.0-0.0","0","0","49508","","null","","","null","48","","","","","","","","","","","","","","","",""
"","ITI","","html-keyboard-response","324","387358","0.0-1.0-441.0","0","0","49508","","null","","","null","48","","","","","","","","","","","","","","","NaN",""
"","S1","","html-keyboard-response","325","387612","0.0-1.0-443.0","0","0","49508","","null","","","null","49","","","","","","","","","","","","","","","",""
"","ISI","","html-keyboard-response","326","388121","0.0-1.0-444.0","0","0","49508","","null","","","null","49","NaN","","","","","","","","","","","","","","",""
"","S2","","html-keyboard-response","327","388339","0.0-1.0-445.0","0","0","49508","","215","","","75","49","","k","2","49","training","adjacent","DE","4","5","L.jpg","M.jpg","0","1","0","",""
"","feedback","","html-keyboard-response","328","389347","0.0-1.0-447.0-0.0","0","0","49508","","null","","","null","49","","","","","","","","","","","","","","","",""
"","time_out","","html-keyboard-response","329","391357","0.0-1.0-449.0-0.0","0","0","49508","","null","","","null","49","","","","","","","","","","","","","","","",""
"","ITI","","html-keyboard-response","330","392367","0.0-1.0-450.0","0","0","49508","","null","","","null","49","","","","","","","","","","","","","","","NaN",""
"","S1","","html-keyboard-response","331","392624","0.0-1.0-452.0","0","0","49508","","null","","","null","50","","","","","","","","","","","","","","","",""
"","ISI","","html-keyboard-response","332","393130","0.0-1.0-453.0","0","0","49508","","null","","","null","50","NaN","","","","","","","","","","","","","","",""
"","S2","","html-keyboard-response","333","393380","0.0-1.0-454.0","0","0","49508","","248","","","75","50","","k","2","50","training","adjacent","AB","1","2","R.jpg","P.jpg","0","1","0","",""
"","feedback","","html-keyboard-response","334","394387","0.0-1.0-456.0-0.0","0","0","49508","","null","","","null","50","","","","","","","","","","","","","","","",""
"","time_out","","html-keyboard-response","335","396392","0.0-1.0-458.0-0.0","0","0","49508","","null","","","null","50","","","","","","","","","","","","","","","",""
"","ITI","","html-keyboard-response","336","397406","0.0-1.0-459.0","0","0","49508","","null","","","null","50","","","","","","","","","","","","","","","NaN",""
"","S1","","html-keyboard-response","337","397661","0.0-1.0-461.0","0","0","49508","","null","","","null","51","","","","","","","","","","","","","","","",""
"","ISI","","html-keyboard-response","338","398178","0.0-1.0-462.0","0","0","49508","","null","","","null","51","NaN","","","","","","","","","","","","","","",""
"","S2","","html-keyboard-response","339","398410","0.0-1.0-463.0","0","0","49508","","230","","","75","51","","k","2","51","training","adjacent","ED","5","4","M.jpg","L.jpg","0","0","1","",""
"","feedback","","html-keyboard-response","340","399421","0.0-1.0-465.0-0.0","0","0","49508","","null","","","null","51","","","","","","","","","","","","","","","",""
"","ITI","","html-keyboard-response","341","400438","0.0-1.0-468.0","0","0","49508","","null","","","null","51","","","","","","","","","","","","","","","NaN",""
"","S1","","html-keyboard-response","342","400695","0.0-1.0-470.0","0","0","49508","","null","","","null","52","","","","","","","","","","","","","","","",""
"","ISI","","html-keyboard-response","343","401199","0.0-1.0-471.0","0","0","49508","","null","","","null","52","NaN","","","","","","","","","","","","","","",""
"","S2","","html-keyboard-response","344","401434","0.0-1.0-472.0","0","0","49508","","232","","","75","52","","k","2","52","training","adjacent","GF","7","6","Q.jpg","N.jpg","0","0","1","",""
"","feedback","","html-keyboard-response","345","402454","0.0-1.0-474.0-0.0","0","0","49508","","null","","","null","52","","","","","","","","","","","","","","","",""
"","ITI","","html-keyboard-response","346","403459","0.0-1.0-477.0","0","0","49508","","null","","","null","52","","","","","","","","","","","","","","","NaN",""
"","S1","","html-keyboard-response","347","403716","0.0-1.0-479.0","0","0","49508","","null","","","null","53","","","","","","","","","","","","","","","",""
"","ISI","","html-keyboard-response","348","404222","0.0-1.0-480.0","0","0","49508","","null","","","null","53","NaN","","","","","","","","","","","","","","",""
"","S2","","html-keyboard-response","349","404454","0.0-1.0-481.0","0","0","49508","","230","","","75","53","","k","2","53","training","adjacent","CB","3","2","O.jpg","P.jpg","0","0","1","",""
"","feedback","","html-keyboard-response","350","405459","0.0-1.0-483.0-0.0","0","0","49508","","null","","","null","53","","","","","","","","","","","","","","","",""
"","ITI","","html-keyboard-response","351","406473","0.0-1.0-486.0","0","0","49508","","null","","","null","53","","","","","","","","","","","","","","","NaN",""
"","S1","","html-keyboard-response","352","406732","0.0-1.0-488.0","0","0","49508","","null","","","null","54","","","","","","","","","","","","","","","",""
"","ISI","","html-keyboard-response","353","407240","0.0-1.0-489.0","0","0","49508","","null","","","null","54","NaN","","","","","","","","","","","","","","",""
"","S2","","html-keyboard-response","354","407500","0.0-1.0-490.0","0","0","49508","","null","","","null","54","","NaN","","","","","","","","","","","","","",""
"","response","","html-keyboard-response","355","407515","0.0-1.0-491.0-0.0","0","0","49508","","12","","","75","54","","","2","54","training","adjacent","EF","5","6","M.jpg","N.jpg","0","1","0","",""
"","feedback","","html-keyboard-response","356","408522","0.0-1.0-492.0-0.0","0","0","49508","","null","","","null","54","","","","","","","","","","","","","","","",""
"","time_out","","html-keyboard-response","357","410535","0.0-1.0-494.0-0.0","0","0","49508","","null","","","null","54","","","","","","","","","","","","","","","",""
"","ITI","","html-keyboard-response","358","411552","0.0-1.0-495.0","0","0","49508","","null","","","null","54","","","","","","","","","","","","","","","NaN",""
"","S1","","html-keyboard-response","359","411811","0.0-1.0-497.0","0","0","49508","","null","","","null","55","","","","","","","","","","","","","","","",""
"","ISI","","html-keyboard-response","360","412315","0.0-1.0-498.0","0","0","49508","","null","","","null","55","NaN","","","","","","","","","","","","","","",""
"","S2","","html-keyboard-response","361","412531","0.0-1.0-499.0","0","0","49508","","214","","","68","55","","d","2","55","training","adjacent","BC","2","3","P.jpg","O.jpg","1","1","1","",""
"","feedback","","html-keyboard-response","362","413537","0.0-1.0-501.0-0.0","0","0","49508","","null","","","null","55","","","","","","","","","","","","","","","",""
"","ITI","","html-keyboard-response","363","414544","0.0-1.0-504.0","0","0","49508","","null","","","null","55","","","","","","","","","","","","","","","NaN",""
"","S1","","html-keyboard-response","364","414802","0.0-1.0-506.0","0","0","49508","","null","","","null","56","","","","","","","","","","","","","","","",""
"","ISI","","html-keyboard-response","365","415317","0.0-1.0-507.0","0","0","49508","","null","","","null","56","NaN","","","","","","","","","","","","","","",""
"","S2","","html-keyboard-response","366","415520","0.0-1.0-508.0","0","0","49508","","200","","","75","56","","k","2","56","training","adjacent","CD","3","4","O.jpg","L.jpg","0","1","0","",""
"","feedback","","html-keyboard-response","367","416525","0.0-1.0-510.0-0.0","0","0","49508","","null","","","null","56","","","","","","","","","","","","","","","",""
"","time_out","","html-keyboard-response","368","418530","0.0-1.0-512.0-0.0","0","0","49508","","null","","","null","56","","","","","","","","","","","","","","","",""
"","ITI","","html-keyboard-response","369","419534","0.0-1.0-513.0","0","0","49508","","null","","","null","56","","","","","","","","","","","","","","","NaN",""
"","S1","","html-keyboard-response","370","419790","0.0-1.0-515.0","0","0","49508","","null","","","null","57","","","","","","","","","","","","","","","",""
"","ISI","","html-keyboard-response","371","420297","0.0-1.0-516.0","0","0","49508","","266","","","75","57","k","","","","","","","","","","","","","","",""
"","S2","","html-keyboard-response","372","420553","0.0-1.0-517.0","0","0","49508","","null","","","null","57","","NaN","","","","","","","","","","","","","",""
"","response","","html-keyboard-response","373","420568","0.0-1.0-518.0-0.0","0","0","49508","","14","","","75","57","","","2","57","training","adjacent","ED","5","4","M.jpg","L.jpg","0","0","1","",""
"","feedback","","html-keyboard-response","374","421575","0.0-1.0-519.0-0.0","0","0","49508","","null","","","null","57","","","","","","","","","","","","","","","",""
"","ITI","","html-keyboard-response","375","422584","0.0-1.0-522.0","0","0","49508","","null","","","null","57","","","","","","","","","","","","","","","NaN",""
"","S1","","html-keyboard-response","376","422839","0.0-1.0-524.0","0","0","49508","","null","","","null","58","","","","","","","","","","","","","","","",""
"","ISI","","html-keyboard-response","377","423346","0.0-1.0-525.0","0","0","49508","","null","","","null","58","NaN","","","","","","","","","","","","","","",""
"","S2","","html-keyboard-response","378","423555","0.0-1.0-526.0","0","0","49508","","206","","","75","58","","k","2","58","training","adjacent","CB","3","2","O.jpg","P.jpg","0","0","1","",""
"","feedback","","html-keyboard-response","379","424564","0.0-1.0-528.0-0.0","0","0","49508","","null","","","null","58","","","","","","","","","","","","","","","",""
"","ITI","","html-keyboard-response","380","425569","0.0-1.0-531.0","0","0","49508","","null","","","null","58","","","","","","","","","","","","","","","NaN",""
"","S1","","html-keyboard-response","381","425826","0.0-1.0-533.0","0","0","49508","","null","","","null","59","","","","","","","","","","","","","","","",""
"","ISI","","html-keyboard-response","382","426338","0.0-1.0-534.0","0","0","49508","","null","","","null","59","NaN","","","","","","","","","","","","","","",""
"","S2","","html-keyboard-response","383","426592","0.0-1.0-535.0","0","0","49508","","null","","","null","59","","NaN","","","","","","","","","","","","","",""
"","response","","html-keyboard-response","384","426638","0.0-1.0-536.0-0.0","0","0","49508","","44","","","68","59","","","2","59","training","adjacent","DC","4","3","L.jpg","O.jpg","1","0","0","",""
"","feedback","","html-keyboard-response","385","427643","0.0-1.0-537.0-0.0","0","0","49508","","null","","","null","59","","","","","","","","","","","","","","","",""
"","time_out","","html-keyboard-response","386","429650","0.0-1.0-539.0-0.0","0","0","49508","","null","","","null","59","","","","","","","","","","","","","","","",""
"","ITI","","html-keyboard-response","387","430656","0.0-1.0-540.0","0","0","49508","","null","","","null","59","","","","","","","","","","","","","","","NaN",""
"","S1","","html-keyboard-response","388","430913","0.0-1.0-542.0","0","0","49508","","null","","","null","60","","","","","","","","","","","","","","","",""
"","ISI","","html-keyboard-response","389","431431","0.0-1.0-543.0","0","0","49508","","null","","","null","60","NaN","","","","","","","","","","","","","","",""
"","S2","","html-keyboard-response","390","431687","0.0-1.0-544.0","0","0","49508","","null","","","null","60","","NaN","","","","","","","","","","","","","",""
"","response","","html-keyboard-response","391","431717","0.0-1.0-545.0-0.0","0","0","49508","","26","","","68","60","","","2","60","training","adjacent","FG","6","7","N.jpg","Q.jpg","1","1","1","",""
"","feedback","","html-keyboard-response","392","432727","0.0-1.0-546.0-0.0","0","0","49508","","null","","","null","60","","","","","","","","","","","","","","","",""
"","ITI","","html-keyboard-response","393","433734","0.0-1.0-549.0","0","0","49508","","null","","","null","60","","","","","","","","","","","","","","","NaN",""
"","S1","","html-keyboard-response","394","433989","0.0-1.0-551.0","0","0","49508","","null","","","null","61","","","","","","","","","","","","","","","",""
"","ISI","","html-keyboard-response","395","434494","0.0-1.0-552.0","0","0","49508","","null","","","null","61","NaN","","","","","","","","","","","","","","",""
"","S2","","html-keyboard-response","396","434748","0.0-1.0-553.0","0","0","49508","","null","","","null","61","","NaN","","","","","","","","","","","","","",""
"","response","","html-keyboard-response","397","434829","0.0-1.0-554.0-0.0","0","0","49508","","79","","","75","61","","","2","61","training","adjacent","BC","2","3","P.jpg","O.jpg","0","1","0","",""
"","feedback","","html-keyboard-response","398","435835","0.0-1.0-555.0-0.0","0","0","49508","","null","","","null","61","","","","","","","","","","","","","","","",""
"","time_out","","html-keyboard-response","399","437846","0.0-1.0-557.0-0.0","0","0","49508","","null","","","null","61","","","","","","","","","","","","","","","",""
"","ITI","","html-keyboard-response","400","438848","0.0-1.0-558.0","0","0","49508","","null","","","null","61","","","","","","","","","","","","","","","NaN",""
"","S1","","html-keyboard-response","401","439109","0.0-1.0-560.0","0","0","49508","","null","","","null","62","","","","","","","","","","","","","","","",""
"","ISI","","html-keyboard-response","402","439615","0.0-1.0-561.0","0","0","49508","","0","","","75","62","k","","","","","","","","","","","","","","",""
"","S2","","html-keyboard-response","403","439873","0.0-1.0-562.0","0","0","49508","","null","","","null","62","","NaN","","","","","","","","","","","","","",""
"","response","","html-keyboard-response","404","439974","0.0-1.0-563.0-0.0","0","0","49508","","99","","","75","62","","","2","62","training","adjacent","DE","4","5","L.jpg","M.jpg","0","1","0","",""
"","feedback","","html-keyboard-response","405","440983","0.0-1.0-564.0-0.0","0","0","49508","","null","","","null","62","","","","","","","","","","","","","","","",""
"","time_out","","html-keyboard-response","406","442991","0.0-1.0-566.0-0.0","0","0","49508","","null","","","null","62","","","","","","","","","","","","","","","",""
"","ITI","","html-keyboard-response","407","443998","0.0-1.0-567.0","0","0","49508","","null","","","null","62","","","","","","","","","","","","","","","NaN",""
"","S1","","html-keyboard-response","408","444252","0.0-1.0-569.0","0","0","49508","","null","","","null","63","","","","","","","","","","","","","","","",""
"","ISI","","html-keyboard-response","409","444761","0.0-1.0-570.0","0","0","49508","","null","","","null","63","NaN","","","","","","","","","","","","","","",""
"","S2","","html-keyboard-response","410","445021","0.0-1.0-571.0","0","0","49508","","null","","","null","63","","NaN","","","","","","","","","","","","","",""
"","response","","html-keyboard-response","411","445062","0.0-1.0-572.0-0.0","0","0","49508","","38","","","75","63","","","2","63","training","adjacent","CB","3","2","O.jpg","P.jpg","0","0","1","",""
"","feedback","","html-keyboard-response","412","446073","0.0-1.0-573.0-0.0","0","0","49508","","null","","","null","63","","","","","","","","","","","","","","","",""
"","ITI","","html-keyboard-response","413","447080","0.0-1.0-576.0","0","0","49508","","null","","","null","63","","","","","","","","","","","","","","","NaN",""
"","S1","","html-keyboard-response","414","447339","0.0-1.0-578.0","0","0","49508","","null","","","null","64","","","","","","","","","","","","","","","",""
"","ISI","","html-keyboard-response","415","447846","0.0-1.0-579.0","0","0","49508","","null","","","null","64","NaN","","","","","","","","","","","","","","",""
"","S2","","html-keyboard-response","416","448112","0.0-1.0-580.0","0","0","49508","","null","","","null","64","","NaN","","","","","","","","","","","","","",""
"","response","","html-keyboard-response","417","448162","0.0-1.0-581.0-0.0","0","0","49508","","47","","","75","64","","","2","64","training","adjacent","FG","6","7","N.jpg","Q.jpg","0","1","0","",""
"","feedback","","html-keyboard-response","418","449169","0.0-1.0-582.0-0.0","0","0","49508","","null","","","null","64","","","","","","","","","","","","","","","",""
"","time_out","","html-keyboard-response","419","451179","0.0-1.0-584.0-0.0","0","0","49508","","null","","","null","64","","","","","","","","","","","","","","","",""
"","ITI","","html-keyboard-response","420","452183","0.0-1.0-585.0","0","0","49508","","null","","","null","64","","","","","","","","","","","","","","","NaN",""
"","S1","","html-keyboard-response","421","452441","0.0-1.0-587.0","0","0","49508","","null","","","null","65","","","","","","","","","","","","","","","",""
"","ISI","","html-keyboard-response","422","452946","0.0-1.0-588.0","0","0","49508","","null","","","null","65","NaN","","","","","","","","","","","","","","",""
"","S2","","html-keyboard-response","423","453212","0.0-1.0-589.0","0","0","49508","","null","","","null","65","","NaN","","","","","","","","","","","","","",""
"","response","","html-keyboard-response","424","453219","0.0-1.0-590.0-0.0","0","0","49508","","4","","","75","65","","","2","65","training","adjacent","DC","4","3","L.jpg","O.jpg","0","0","1","",""
"","feedback","","html-keyboard-response","425","454228","0.0-1.0-591.0-0.0","0","0","49508","","null","","","null","65","","","","","","","","","","","","","","","",""
"","ITI","","html-keyboard-response","426","455240","0.0-1.0-594.0","0","0","49508","","null","","","null","65","","","","","","","","","","","","","","","NaN",""
"","S1","","html-keyboard-response","427","455499","0.0-1.0-596.0","0","0","49508","","null","","","null","66","","","","","","","","","","","","","","","",""
"","ISI","","html-keyboard-response","428","456015","0.0-1.0-597.0","0","0","49508","","null","","","null","66","NaN","","","","","","","","","","","","","","",""
"","S2","","html-keyboard-response","429","456279","0.0-1.0-598.0","0","0","49508","","null","","","null","66","","NaN","","","","","","","","","","","","","",""
"","response","","html-keyboard-response","430","456282","0.0-1.0-599.0-0.0","0","0","49508","","0","","","75","66","","","2","66","training","adjacent","EF","5","6","M.jpg","N.jpg","0","1","0","",""
"","feedback","","html-keyboard-response","431","457293","0.0-1.0-600.0-0.0","0","0","49508","","null","","","null","66","","","","","","","","","","","","","","","",""
"","time_out","","html-keyboard-response","432","459304","0.0-1.0-602.0-0.0","0","0","49508","","null","","","null","66","","","","","","","","","","","","","","","",""
"","ITI","","html-keyboard-response","433","460320","0.0-1.0-603.0","0","0","49508","","null","","","null","66","","","","","","","","","","","","","","","NaN",""
"","S1","","html-keyboard-response","434","460579","0.0-1.0-605.0","0","0","49508","","null","","","null","67","","","","","","","","","","","","","","","",""
"","ISI","","html-keyboard-response","435","461084","0.0-1.0-606.0","0","0","49508","","null","","","null","67","NaN","","","","","","","","","","","","","","",""
"","S2","","html-keyboard-response","436","461304","0.0-1.0-607.0","0","0","49508","","219","","","75","67","","k","2","67","training","adjacent","CB","3","2","O.jpg","P.jpg","0","0","1","",""
"","feedback","","html-keyboard-response","437","462312","0.0-1.0-609.0-0.0","0","0","49508","","null","","","null","67","","","","","","","","","","","","","","","",""
"","ITI","","html-keyboard-response","438","463320","0.0-1.0-612.0","0","0","49508","","null","","","null","67","","","","","","","","","","","","","","","NaN",""
"","S1","","html-keyboard-response","439","463580","0.0-1.0-614.0","0","0","49508","","null","","","null","68","","","","","","","","","","","","","","","",""
"","ISI","","html-keyboard-response","440","464090","0.0-1.0-615.0","0","0","49508","","null","","","null","68","NaN","","","","","","","","","","","","","","",""
"","S2","","html-keyboard-response","441","464317","0.0-1.0-616.0","0","0","49508","","224","","","75","68","","k","2","68","training","adjacent","DE","4","5","L.jpg","M.jpg","0","1","0","",""
"","feedback","","html-keyboard-response","442","465326","0.0-1.0-618.0-0.0","0","0","49508","","null","","","null","68","","","","","","","","","","","","","","","",""
"","time_out","","html-keyboard-response","443","467333","0.0-1.0-620.0-0.0","0","0","49508","","null","","","null","68","","","","","","","","","","","","","","","",""
"","ITI","","html-keyboard-response","444","468346","0.0-1.0-621.0","0","0","49508","","null","","","null","68","","","","","","","","","","","","","","","NaN",""
"","S1","","html-keyboard-response","445","468603","0.0-1.0-623.0","0","0","49508","","null","","","null","69","","","","","","","","","","","","","","","",""
"","ISI","","html-keyboard-response","446","469107","0.0-1.0-624.0","0","0","49508","","null","","","null","69","NaN","","","","","","","","","","","","","","",""
"","S2","","html-keyboard-response","447","469340","0.0-1.0-625.0","0","0","49508","","230","","","75","69","","k","2","69","training","adjacent","AB","1","2","R.jpg","P.jpg","0","1","0","",""
"","feedback","","html-keyboard-response","448","470344","0.0-1.0-627.0-0.0","0","0","49508","","null","","","null","69","","","","","","","","","","","","","","","",""
"","time_out","","html-keyboard-response","449","472362","0.0-1.0-629.0-0.0","0","0","49508","","null","","","null","69","","","","","","","","","","","","","","","",""
"","ITI","","html-keyboard-response","450","473377","0.0-1.0-630.0","0","0","49508","","null","","","null","69","","","","","","","","","","","","","","","NaN",""
"","S1","","html-keyboard-response","451","473632","0.0-1.0-632.0","0","0","49508","","null","","","null","70","","","","","","","","","","","","","","","",""
"","ISI","","html-keyboard-response","452","474144","0.0-1.0-633.0","0","0","49508","","null","","","null","70","NaN","","","","","","","","","","","","","","",""
"","S2","","html-keyboard-response","453","474400","0.0-1.0-634.0","0","0","49508","","null","","","null","70","","NaN","","","","","","","","","","","","","",""
"","response","","html-keyboard-response","454","474484","0.0-1.0-635.0-0.0","0","0","49508","","81","","","75","70","","","2","70","training","adjacent","BA","2","1","P.jpg","R.jpg","0","0","1","",""
"","feedback","","html-keyboard-response","455","475494","0.0-1.0-636.0-0.0","0","0","49508","","null","","","null","70","","","","","","","","","","","","","","","",""
"","ITI","","html-keyboard-response","456","476498","0.0-1.0-639.0","0","0","49508","","null","","","null","70","","","","","","","","","","","","","","","NaN",""
"","S1","","html-keyboard-response","457","476755","0.0-1.0-641.0","0","0","49508","","null","","","null","71","","","","","","","","","","","","","","","",""
"","ISI","","html-keyboard-response","458","477261","0.0-1.0-642.0","0","0","49508","","null","","","null","71","NaN","","","","","","","","","","","","","","",""
"","S2","","html-keyboard-response","459","477520","0.0-1.0-643.0","0","0","49508","","null","","","null","71","","NaN","","","","","","","","","","","","","",""
"","response","","html-keyboard-response","460","477777","0.0-1.0-644.0-0.0","0","0","49508","","255","","","68","71","","","2","71","training","adjacent","BA","2","1","P.jpg","R.jpg","1","0","0","",""
"","feedback","","html-keyboard-response","461","478785","0.0-1.0-645.0-0.0","0","0","49508","","null","","","null","71","","","","","","","","","","","","","","","",""
"","time_out","","html-keyboard-response","462","480795","0.0-1.0-647.0-0.0","0","0","49508","","null","","","null","71","","","","","","","","","","","","","","","",""
"","ITI","","html-keyboard-response","463","481801","0.0-1.0-648.0","0","0","49508","","null","","","null","71","","","","","","","","","","","","","","","NaN",""
"","S1","","html-keyboard-response","464","482057","0.0-1.0-650.0","0","0","49508","","null","","","null","72","","","","","","","","","","","","","","","",""
"","ISI","","html-keyboard-response","465","482565","0.0-1.0-651.0","0","0","49508","","null","","","null","72","NaN","","","","","","","","","","","","","","",""
"","S2","","html-keyboard-response","466","482823","0.0-1.0-652.0","0","0","49508","","null","","","null","72","","NaN","","","","","","","","","","","","","",""
"","response","","html-keyboard-response","467","483025","0.0-1.0-653.0-0.0","0","0","49508","","200","","","68","72","","","2","72","training","adjacent","ED","5","4","M.jpg","L.jpg","1","0","0","",""
"","feedback","","html-keyboard-response","468","484038","0.0-1.0-654.0-0.0","0","0","49508","","null","","","null","72","","","","","","","","","","","","","","","",""
"","time_out","","html-keyboard-response","469","486045","0.0-1.0-656.0-0.0","0","0","49508","","null","","","null","72","","","","","","","","","","","","","","","",""
"","ITI","","html-keyboard-response","470","487056","0.0-1.0-657.0","0","0","49508","","null","","","null","72","","","","","","","","","","","","","","","NaN",""
"","S1","","html-keyboard-response","471","487314","0.0-1.0-659.0","0","0","49508","","null","","","null","73","","","","","","","","","","","","","","","",""
"","ISI","","html-keyboard-response","472","487823","0.0-1.0-660.0","0","0","49508","","null","","","null","73","NaN","","","","","","","","","","","","","","",""
"","S2","","html-keyboard-response","473","488078","0.0-1.0-661.0","0","0","49508","","null","","","null","73","","NaN","","","","","","","","","","","","","",""
"","response","","html-keyboard-response","474","488128","0.0-1.0-662.0-0.0","0","0","49508","","47","","","68","73","","","2","73","training","adjacent","EF","5","6","M.jpg","N.jpg","1","1","1","",""
"","feedback","","html-keyboard-response","475","489135","0.0-1.0-663.0-0.0","0","0","49508","","null","","","null","73","","","","","","","","","","","","","","","",""
"","ITI","","html-keyboard-response","476","490140","0.0-1.0-666.0","0","0","49508","","null","","","null","73","","","","","","","","","","","","","","","NaN",""
"","S1","","html-keyboard-response","477","490398","0.0-1.0-668.0","0","0","49508","","null","","","null","74","","","","","","","","","","","","","","","",""
"","ISI","","html-keyboard-response","478","490908","0.0-1.0-669.0","0","0","49508","","null","","","null","74","NaN","","","","","","","","","","","","","","",""
"","S2","","html-keyboard-response","479","491169","0.0-1.0-670.0","0","0","49508","","null","","","null","74","","NaN","","","","","","","","","","","","","",""
"","response","","html-keyboard-response","480","491284","0.0-1.0-671.0-0.0","0","0","49508","","113","","","68","74","","","2","74","training","adjacent","AB","1","2","R.jpg","P.jpg","1","1","1","",""
"","feedback","","html-keyboard-response","481","492300","0.0-1.0-672.0-0.0","0","0","49508","","null","","","null","74","","","","","","","","","","","","","","","",""
"","ITI","","html-keyboard-response","482","493311","0.0-1.0-675.0","0","0","49508","","null","","","null","74","","","","","","","","","","","","","","","NaN",""
"","S1","","html-keyboard-response","483","493565","0.0-1.0-677.0","0","0","49508","","null","","","null","75","","","","","","","","","","","","","","","",""
"","ISI","","html-keyboard-response","484","494083","0.0-1.0-678.0","0","0","49508","","null","","","null","75","NaN","","","","","","","","","","","","","","",""
"","S2","","html-keyboard-response","485","494336","0.0-1.0-679.0","0","0","49508","","null","","","null","75","","NaN","","","","","","","","","","","","","",""
"","response","","html-keyboard-response","486","494388","0.0-1.0-680.0-0.0","0","0","49508","","49","","","68","75","","","2","75","training","adjacent","ED","5","4","M.jpg","L.jpg","1","0","0","",""
"","feedback","","html-keyboard-response","487","495402","0.0-1.0-681.0-0.0","0","0","49508","","null","","","null","75","","","","","","","","","","","","","","","",""
"","time_out","","html-keyboard-response","488","497411","0.0-1.0-683.0-0.0","0","0","49508","","null","","","null","75","","","","","","","","","","","","","","","",""
"","ITI","","html-keyboard-response","489","498418","0.0-1.0-684.0","0","0","49508","","null","","","null","75","","","","","","","","","","","","","","","NaN",""
"","S1","","html-keyboard-response","490","498675","0.0-1.0-686.0","0","0","49508","","null","","","null","76","","","","","","","","","","","","","","","",""
"","ISI","","html-keyboard-response","491","499181","0.0-1.0-687.0","0","0","49508","","null","","","null","76","NaN","","","","","","","","","","","","","","",""
"","S2","","html-keyboard-response","492","499424","0.0-1.0-688.0","0","0","49508","","241","","","75","76","","k","2","76","training","adjacent","BA","2","1","P.jpg","R.jpg","0","0","1","",""
"","feedback","","html-keyboard-response","493","500436","0.0-1.0-690.0-0.0","0","0","49508","","null","","","null","76","","","","","","","","","","","","","","","",""
"","ITI","","html-keyboard-response","494","501447","0.0-1.0-693.0","0","0","49508","","null","","","null","76","","","","","","","","","","","","","","","NaN",""
"","S1","","html-keyboard-response","495","501704","0.0-1.0-695.0","0","0","49508","","null","","","null","77","","","","","","","","","","","","","","","",""
"","ISI","","html-keyboard-response","496","502211","0.0-1.0-696.0","0","0","49508","","null","","","null","77","NaN","","","","","","","","","","","","","","",""
"","S2","","html-keyboard-response","497","502470","0.0-1.0-697.0","0","0","49508","","null","","","null","77","","NaN","","","","","","","","","","","","","",""
"","response","","html-keyboard-response","498","502508","0.0-1.0-698.0-0.0","0","0","49508","","35","","","68","77","","","2","77","training","adjacent","GF","7","6","Q.jpg","N.jpg","1","0","0","",""
"","feedback","","html-keyboard-response","499","503512","0.0-1.0-699.0-0.0","0","0","49508","","null","","","null","77","","","","","","","","","","","","","","","",""
"","time_out","","html-keyboard-response","500","505515","0.0-1.0-701.0-0.0","0","0","49508","","null","","","null","77","","","","","","","","","","","","","","","",""
"","ITI","","html-keyboard-response","501","506534","0.0-1.0-702.0","0","0","49508","","null","","","null","77","","","","","","","","","","","","","","","NaN",""
"","S1","","html-keyboard-response","502","506803","0.0-1.0-704.0","0","0","49508","","null","","","null","78","","","","","","","","","","","","","","","",""
"","ISI","","html-keyboard-response","503","507308","0.0-1.0-705.0","0","0","49508","","null","","","null","78","NaN","","","","","","","","","","","","","","",""
"","S2","","html-keyboard-response","504","507565","0.0-1.0-706.0","0","0","49508","","null","","","null","78","","NaN","","","","","","","","","","","","","",""
"","response","","html-keyboard-response","505","507913","0.0-1.0-707.0-0.0","0","0","49508","","345","","","75","78","","","2","78","training","adjacent","FG","6","7","N.jpg","Q.jpg","0","1","0","",""
"","feedback","","html-keyboard-response","506","508923","0.0-1.0-708.0-0.0","0","0","49508","","null","","","null","78","","","","","","","","","","","","","","","",""
"","time_out","","html-keyboard-response","507","510932","0.0-1.0-710.0-0.0","0","0","49508","","null","","","null","78","","","","","","","","","","","","","","","",""
"","ITI","","html-keyboard-response","508","511940","0.0-1.0-711.0","0","0","49508","","null","","","null","78","","","","","","","","","","","","","","","NaN",""
"","S1","","html-keyboard-response","509","512198","0.0-1.0-713.0","0","0","49508","","null","","","null","79","","","","","","","","","","","","","","","",""
"","ISI","","html-keyboard-response","510","512708","0.0-1.0-714.0","0","0","49508","","null","","","null","79","NaN","","","","","","","","","","","","","","",""
"","S2","","html-keyboard-response","511","512965","0.0-1.0-715.0","0","0","49508","","null","","","null","79","","NaN","","","","","","","","","","","","","",""
"","response","","html-keyboard-response","512","513365","0.0-1.0-716.0-0.0","0","0","49508","","397","","","75","79","","","2","79","training","adjacent","FG","6","7","N.jpg","Q.jpg","0","1","0","",""
"","feedback","","html-keyboard-response","513","514377","0.0-1.0-717.0-0.0","0","0","49508","","null","","","null","79","","","","","","","","","","","","","","","",""
"","time_out","","html-keyboard-response","514","516387","0.0-1.0-719.0-0.0","0","0","49508","","null","","","null","79","","","","","","","","","","","","","","","",""
"","ITI","","html-keyboard-response","515","517392","0.0-1.0-720.0","0","0","49508","","null","","","null","79","","","","","","","","","","","","","","","NaN",""
"","S1","","html-keyboard-response","516","517651","0.0-1.0-722.0","0","0","49508","","null","","","null","80","","","","","","","","","","","","","","","",""
"","ISI","","html-keyboard-response","517","518162","0.0-1.0-723.0","0","0","49508","","null","","","null","80","NaN","","","","","","","","","","","","","","",""
"","S2","","html-keyboard-response","518","518429","0.0-1.0-724.0","0","0","49508","","null","","","null","80","","NaN","","","","","","","","","","","","","",""
"","response","","html-keyboard-response","519","518714","0.0-1.0-725.0-0.0","0","0","49508","","282","","","75","80","","","2","80","training","adjacent","CD","3","4","O.jpg","L.jpg","0","1","0","",""
"","feedback","","html-keyboard-response","520","519718","0.0-1.0-726.0-0.0","0","0","49508","","null","","","null","80","","","","","","","","","","","","","","","",""
"","time_out","","html-keyboard-response","521","521729","0.0-1.0-728.0-0.0","0","0","49508","","null","","","null","80","","","","","","","","","","","","","","","",""
"","ITI","","html-keyboard-response","522","522735","0.0-1.0-729.0","0","0","49508","","null","","","null","80","","","","","","","","","","","","","","","NaN",""
"","S1","","html-keyboard-response","523","522988","0.0-1.0-731.0","0","0","49508","","null","","","null","81","","","","","","","","","","","","","","","",""
"","ISI","","html-keyboard-response","524","523497","0.0-1.0-732.0","0","0","49508","","null","","","null","81","NaN","","","","","","","","","","","","","","",""
"","S2","","html-keyboard-response","525","523723","0.0-1.0-733.0","0","0","49508","","223","","","75","81","","k","2","81","training","adjacent","BC","2","3","P.jpg","O.jpg","0","1","0","",""
"","feedback","","html-keyboard-response","526","524733","0.0-1.0-735.0-0.0","0","0","49508","","null","","","null","81","","","","","","","","","","","","","","","",""
"","time_out","","html-keyboard-response","527","526739","0.0-1.0-737.0-0.0","0","0","49508","","null","","","null","81","","","","","","","","","","","","","","","",""
"","ITI","","html-keyboard-response","528","527743","0.0-1.0-738.0","0","0","49508","","null","","","null","81","","","","","","","","","","","","","","","NaN",""
"","S1","","html-keyboard-response","529","528001","0.0-1.0-740.0","0","0","49508","","null","","","null","82","","","","","","","","","","","","","","","",""
"","ISI","","html-keyboard-response","530","528510","0.0-1.0-741.0","0","0","49508","","null","","","null","82","NaN","","","","","","","","","","","","","","",""
"","S2","","html-keyboard-response","531","528704","0.0-1.0-742.0","0","0","49508","","191","","","75","82","","k","2","82","training","adjacent","FE","6","5","N.jpg","M.jpg","0","0","1","",""
"","feedback","","html-keyboard-response","532","529712","0.0-1.0-744.0-0.0","0","0","49508","","null","","","null","82","","","","","","","","","","","","","","","",""
"","ITI","","html-keyboard-response","533","530720","0.0-1.0-747.0","0","0","49508","","null","","","null","82","","","","","","","","","","","","","","","NaN",""
"","S1","","html-keyboard-response","534","530976","0.0-1.0-749.0","0","0","49508","","null","","","null","83","","","","","","","","","","","","","","","",""
"","ISI","","html-keyboard-response","535","531484","0.0-1.0-750.0","0","0","49508","","null","","","null","83","NaN","","","","","","","","","","","","","","",""
"","S2","","html-keyboard-response","536","531706","0.0-1.0-751.0","0","0","49508","","219","","","75","83","","k","2","83","training","adjacent","CD","3","4","O.jpg","L.jpg","0","1","0","",""
"","feedback","","html-keyboard-response","537","532712","0.0-1.0-753.0-0.0","0","0","49508","","null","","","null","83","","","","","","","","","","","","","","","",""
"","time_out","","html-keyboard-response","538","534717","0.0-1.0-755.0-0.0","0","0","49508","","null","","","null","83","","","","","","","","","","","","","","","",""
"","ITI","","html-keyboard-response","539","535729","0.0-1.0-756.0","0","0","49508","","null","","","null","83","","","","","","","","","","","","","","","NaN",""
"","S1","","html-keyboard-response","540","535988","0.0-1.0-758.0","0","0","49508","","null","","","null","84","","","","","","","","","","","","","","","",""
"","ISI","","html-keyboard-response","541","536491","0.0-1.0-759.0","0","0","49508","","null","","","null","84","NaN","","","","","","","","","","","","","","",""
"","S2","","html-keyboard-response","542","536713","0.0-1.0-760.0","0","0","49508","","218","","","68","84","","d","2","84","training","adjacent","AB","1","2","R.jpg","P.jpg","1","1","1","",""
"","feedback","","html-keyboard-response","543","537721","0.0-1.0-762.0-0.0","0","0","49508","","null","","","null","84","","","","","","","","","","","","","","","",""
"","ITI","","html-keyboard-response","544","538733","0.0-1.0-765.0","0","0","49508","","null","","","null","84","","","","","","","","","","","","","","","NaN",""
"","S1","","html-keyboard-response","545","538990","0.0-1.0-767.0","0","0","49508","","null","","","null","85","","","","","","","","","","","","","","","",""
"","ISI","","html-keyboard-response","546","539496","0.0-1.0-768.0","0","0","49508","","null","","","null","85","NaN","","","","","","","","","","","","","","",""
"","S2","","html-keyboard-response","547","539728","0.0-1.0-769.0","0","0","49508","","229","","","68","85","","d","2","85","training","adjacent","FE","6","5","N.jpg","M.jpg","1","0","0","",""
"","feedback","","html-keyboard-response","548","540737","0.0-1.0-771.0-0.0","0","0","49508","","null","","","null","85","","","","","","","","","","","","","","","",""
"","time_out","","html-keyboard-response","549","542744","0.0-1.0-773.0-0.0","0","0","49508","","null","","","null","85","","","","","","","","","","","","","","","",""
"","ITI","","html-keyboard-response","550","543748","0.0-1.0-774.0","0","0","49508","","null","","","null","85","","","","","","","","","","","","","","","NaN",""
"","S1","","html-keyboard-response","551","544008","0.0-1.0-776.0","0","0","49508","","null","","","null","86","","","","","","","","","","","","","","","",""
"","ISI","","html-keyboard-response","552","544518","0.0-1.0-777.0","0","0","49508","","null","","","null","86","NaN","","","","","","","","","","","","","","",""
"","S2","","html-keyboard-response","553","544546","0.0-1.0-778.0","0","0","49508","","25","","","68","86","","d","2","86","training","adjacent","GF","7","6","Q.jpg","N.jpg","1","0","0","",""
"","feedback","","html-keyboard-response","554","545553","0.0-1.0-780.0-0.0","0","0","49508","","null","","","null","86","","","","","","","","","","","","","","","",""
"","time_out","","html-keyboard-response","555","547557","0.0-1.0-782.0-0.0","0","0","49508","","null","","","null","86","","","","","","","","","","","","","","","",""
"","ITI","","html-keyboard-response","556","548563","0.0-1.0-783.0","0","0","49508","","null","","","null","86","","","","","","","","","","","","","","","NaN",""
"","S1","","html-keyboard-response","557","548820","0.0-1.0-785.0","0","0","49508","","null","","","null","87","","","","","","","","","","","","","","","",""
"","ISI","","html-keyboard-response","558","549329","0.0-1.0-786.0","0","0","49508","","null","","","null","87","NaN","","","","","","","","","","","","","","",""
"","S2","","html-keyboard-response","559","549587","0.0-1.0-787.0","0","0","49508","","null","","","null","87","","NaN","","","","","","","","","","","","","",""
"","response","","html-keyboard-response","560","549879","0.0-1.0-788.0-0.0","0","0","49508","","289","","","68","87","","","2","87","training","adjacent","DE","4","5","L.jpg","M.jpg","1","1","1","",""
"","feedback","","html-keyboard-response","561","550884","0.0-1.0-789.0-0.0","0","0","49508","","null","","","null","87","","","","","","","","","","","","","","","",""
"","ITI","","html-keyboard-response","562","551890","0.0-1.0-792.0","0","0","49508","","null","","","null","87","","","","","","","","","","","","","","","NaN",""
"","S1","","html-keyboard-response","563","552150","0.0-1.0-794.0","0","0","49508","","null","","","null","88","","","","","","","","","","","","","","","",""
"","ISI","","html-keyboard-response","564","552654","0.0-1.0-795.0","0","0","49508","","null","","","null","88","NaN","","","","","","","","","","","","","","",""
"","S2","","html-keyboard-response","565","552911","0.0-1.0-796.0","0","0","49508","","null","","","null","88","","NaN","","","","","","","","","","","","","",""
"","response","","html-keyboard-response","566","553206","0.0-1.0-797.0-0.0","0","0","49508","","292","","","68","88","","","2","88","training","adjacent","CD","3","4","O.jpg","L.jpg","1","1","1","",""
"","feedback","","html-keyboard-response","567","554216","0.0-1.0-798.0-0.0","0","0","49508","","null","","","null","88","","","","","","","","","","","","","","","",""
"","ITI","","html-keyboard-response","568","555222","0.0-1.0-801.0","0","0","49508","","null","","","null","88","","","","","","","","","","","","","","","NaN",""
"","S1","","html-keyboard-response","569","555478","0.0-1.0-803.0","0","0","49508","","null","","","null","89","","","","","","","","","","","","","","","",""
"","ISI","","html-keyboard-response","570","555985","0.0-1.0-804.0","0","0","49508","","null","","","null","89","NaN","","","","","","","","","","","","","","",""
"","S2","","html-keyboard-response","571","556242","0.0-1.0-805.0","0","0","49508","","null","","","null","89","","NaN","","","","","","","","","","","","","",""
"","response","","html-keyboard-response","572","556365","0.0-1.0-806.0-0.0","0","0","49508","","121","","","68","89","","","2","89","training","adjacent","DC","4","3","L.jpg","O.jpg","1","0","0","",""
"","feedback","","html-keyboard-response","573","557374","0.0-1.0-807.0-0.0","0","0","49508","","null","","","null","89","","","","","","","","","","","","","","","",""
"","time_out","","html-keyboard-response","574","559380","0.0-1.0-809.0-0.0","0","0","49508","","null","","","null","89","","","","","","","","","","","","","","","",""
"","ITI","","html-keyboard-response","575","560391","0.0-1.0-810.0","0","0","49508","","null","","","null","89","","","","","","","","","","","","","","","NaN",""
"","S1","","html-keyboard-response","576","560650","0.0-1.0-812.0","0","0","49508","","null","","","null","90","","","","","","","","","","","","","","","",""
"","ISI","","html-keyboard-response","577","561154","0.0-1.0-813.0","0","0","49508","","null","","","null","90","NaN","","","","","","","","","","","","","","",""
"","S2","","html-keyboard-response","578","561412","0.0-1.0-814.0","0","0","49508","","null","","","null","90","","NaN","","","","","","","","","","","","","",""
"","response","","html-keyboard-response","579","561478","0.0-1.0-815.0-0.0","0","0","49508","","64","","","68","90","","","2","90","training","adjacent","DC","4","3","L.jpg","O.jpg","1","0","0","",""
