"success","ttype","start_time","trial_type","trial_index","time_elapsed","internal_node_id","warning","missed_checkup","PID","view_history","rt","responses","repeat_instructions","key_press","index","keypress_isi","keypress_S2","block","trial_num","phase","group_type","pair_type","S1_stim","S2_stim","S1_img","S2_img","S1_chosen","S1_higher","accuracy","keypress_iti","total_bonus_tally"
"true","full_screen","d04142023hr0326","fullscreen","0","17813","0.0-0.0","0","0","59137","","","","","","","","","","","","","","","","","","","","","",""
"","instructions","","instructions","1","154287","0.0-1.0-0.0-0.0","0","0","59137","[{""page_index"":0,""viewing_time"":7581},{""page_index"":1,""viewing_time"":113555},{""page_index"":2,""viewing_time"":13155},{""page_index"":3,""viewing_time"":2176}]","136467","","","","","","","","","","","","","","","","","","","",""
"","comprehension_check","","survey-multi-choice","2","187785","0.0-1.0-0.0-1.0","0","0","59137","","33489","{""Q0"":""True"",""Q1"":""K"",""Q2"":""Once the second image appears and while the screen 'MAKE A CHOICE' is shown"",""Q3"":""Green mark"",""Q4"":""either D or K""}","0","","","","","","","","","","","","","","","","","",""
"","start_exp","","html-keyboard-response","3","189771","0.0-1.0-1.0","0","0","59137","","1981","","","32","","","","","","","","","","","","","","","","",""
"","S1","","html-keyboard-response","4","190031","0.0-1.0-2.0","0","0","59137","","null","","","null","0","","","","","","","","","","","","","","","",""
"","ISI","","html-keyboard-response","5","191039","0.0-1.0-3.0","0","0","59137","","null","","","null","0","NaN","","","","","","","","","","","","","","",""
"","S2","","html-keyboard-response","6","191297","0.0-1.0-4.0","0","0","59137","","null","","","null","0","","NaN","","","","","","","","","","","","","",""
"","response","","html-keyboard-response","7","191737","0.0-1.0-5.0-0.0","0","0","59137","","435","","","75","0","","","1","0","training","adjacent","BC","2","3","O.jpg","R.jpg","1","1","1","",""
"","feedback","","html-keyboard-response","8","192746","0.0-1.0-6.0-0.0","0","0","59137","","null","","","null","0","","","","","","","","","","","","","","","",""
"","ITI","","html-keyboard-response","9","193753","0.0-1.0-9.0","0","0","59137","","null","","","null","0","","","","","","","","","","","","","","","NaN",""
"","S1","","html-keyboard-response","10","194012","0.0-1.0-11.0","0","0","59137","","null","","","null","1","","","","","","","","","","","","","","","",""
"","ISI","","html-keyboard-response","11","195021","0.0-1.0-12.0","0","0","59137","","null","","","null","1","NaN","","","","","","","","","","","","","","",""
"","S2","","html-keyboard-response","12","195280","0.0-1.0-13.0","0","0","59137","","null","","","null","1","","NaN","","","","","","","","","","","","","",""
"","response","","html-keyboard-response","13","195748","0.0-1.0-14.0-0.0","0","0","59137","","464","","","68","1","","","1","1","training","adjacent","GF","7","6","L.jpg","N.jpg","0","0","1","",""
"","feedback","","html-keyboard-response","14","196757","0.0-1.0-15.0-0.0","0","0","59137","","null","","","null","1","","","","","","","","","","","","","","","",""
"","ITI","","html-keyboard-response","15","197766","0.0-1.0-18.0","0","0","59137","","null","","","null","1","","","","","","","","","","","","","","","NaN",""
"","S1","","html-keyboard-response","16","198025","0.0-1.0-20.0","0","0","59137","","null","","","null","2","","","","","","","","","","","","","","","",""
"","ISI","","html-keyboard-response","17","199034","0.0-1.0-21.0","0","0","59137","","null","","","null","2","NaN","","","","","","","","","","","","","","",""
"","S2","","html-keyboard-response","18","199293","0.0-1.0-22.0","0","0","59137","","null","","","null","2","","NaN","","","","","","","","","","","","","",""
"","response","","html-keyboard-response","19","199958","0.0-1.0-23.0-0.0","0","0","59137","","662","","","75","2","","","1","2","training","adjacent","BA","2","1","O.jpg","M.jpg","1","0","0","",""
"","feedback","","html-keyboard-response","20","200963","0.0-1.0-24.0-0.0","0","0","59137","","null","","","null","2","","","","","","","","","","","","","","","",""
"","time_out","","html-keyboard-response","21","202972","0.0-1.0-26.0-0.0","0","0","59137","","null","","","null","2","","","","","","","","","","","","","","","",""
"","ITI","","html-keyboard-response","22","203978","0.0-1.0-27.0","0","0","59137","","null","","","null","2","","","","","","","","","","","","","","","NaN",""
"","S1","","html-keyboard-response","23","204237","0.0-1.0-29.0","0","0","59137","","null","","","null","3","","","","","","","","","","","","","","","",""
"","ISI","","html-keyboard-response","24","205245","0.0-1.0-30.0","0","0","59137","","null","","","null","3","NaN","","","","","","","","","","","","","","",""
"","S2","","html-keyboard-response","25","205504","0.0-1.0-31.0","0","0","59137","","null","","","null","3","","NaN","","","","","","","","","","","","","",""
"","response","","html-keyboard-response","26","205749","0.0-1.0-32.0-0.0","0","0","59137","","241","","","68","3","","","1","3","training","adjacent","EF","5","6","P.jpg","N.jpg","0","1","0","",""
"","feedback","","html-keyboard-response","27","206753","0.0-1.0-33.0-0.0","0","0","59137","","null","","","null","3","","","","","","","","","","","","","","","",""
"","time_out","","html-keyboard-response","28","208761","0.0-1.0-35.0-0.0","0","0","59137","","null","","","null","3","","","","","","","","","","","","","","","",""
"","ITI","","html-keyboard-response","29","209768","0.0-1.0-36.0","0","0","59137","","null","","","null","3","","","","","","","","","","","","","","","NaN",""
"","S1","","html-keyboard-response","30","210027","0.0-1.0-38.0","0","0","59137","","null","","","null","4","","","","","","","","","","","","","","","",""
"","ISI","","html-keyboard-response","31","211030","0.0-1.0-39.0","0","0","59137","","null","","","null","4","NaN","","","","","","","","","","","","","","",""
"","S2","","html-keyboard-response","32","211285","0.0-1.0-40.0","0","0","59137","","null","","","null","4","","NaN","","","","","","","","","","","","","",""
"","response","","html-keyboard-response","33","211635","0.0-1.0-41.0-0.0","0","0","59137","","346","","","68","4","","","1","4","training","adjacent","FG","6","7","N.jpg","L.jpg","0","1","0","",""
"","feedback","","html-keyboard-response","34","212640","0.0-1.0-42.0-0.0","0","0","59137","","null","","","null","4","","","","","","","","","","","","","","","",""
"","time_out","","html-keyboard-response","35","214649","0.0-1.0-44.0-0.0","0","0","59137","","null","","","null","4","","","","","","","","","","","","","","","",""
"","ITI","","html-keyboard-response","36","215655","0.0-1.0-45.0","0","0","59137","","null","","","null","4","","","","","","","","","","","","","","","NaN",""
"","S1","","html-keyboard-response","37","215915","0.0-1.0-47.0","0","0","59137","","null","","","null","5","","","","","","","","","","","","","","","",""
"","ISI","","html-keyboard-response","38","216922","0.0-1.0-48.0","0","0","59137","","null","","","null","5","NaN","","","","","","","","","","","","","","",""
"","S2","","html-keyboard-response","39","217177","0.0-1.0-49.0","0","0","59137","","null","","","null","5","","NaN","","","","","","","","","","","","","",""
"","response","","html-keyboard-response","40","217435","0.0-1.0-50.0-0.0","0","0","59137","","254","","","75","5","","","1","5","training","adjacent","AB","1","2","M.jpg","O.jpg","1","1","1","",""
"","feedback","","html-keyboard-response","41","218440","0.0-1.0-51.0-0.0","0","0","59137","","null","","","null","5","","","","","","","","","","","","","","","",""
"","ITI","","html-keyboard-response","42","219447","0.0-1.0-54.0","0","0","59137","","null","","","null","5","","","","","","","","","","","","","","","NaN",""
"","S1","","html-keyboard-response","43","219705","0.0-1.0-56.0","0","0","59137","","null","","","null","6","","","","","","","","","","","","","","","",""
"","ISI","","html-keyboard-response","44","220714","0.0-1.0-57.0","0","0","59137","","null","","","null","6","NaN","","","","","","","","","","","","","","",""
"","S2","","html-keyboard-response","45","220972","0.0-1.0-58.0","0","0","59137","","null","","","null","6","","NaN","","","","","","","","","","","","","",""
"","response","","html-keyboard-response","46","221224","0.0-1.0-59.0-0.0","0","0","59137","","248","","","75","6","","","1","6","training","adjacent","EF","5","6","P.jpg","N.jpg","1","1","1","",""
"","feedback","","html-keyboard-response","47","222230","0.0-1.0-60.0-0.0","0","0","59137","","null","","","null","6","","","","","","","","","","","","","","","",""
"","ITI","","html-keyboard-response","48","223239","0.0-1.0-63.0","0","0","59137","","null","","","null","6","","","","","","","","","","","","","","","NaN",""
"","S1","","html-keyboard-response","49","223496","0.0-1.0-65.0","0","0","59137","","null","","","null","7","","","","","","","","","","","","","","","",""
"","ISI","","html-keyboard-response","50","224505","0.0-1.0-66.0","0","0","59137","","null","","","null","7","NaN","","","","","","","","","","","","","","",""
"","S2","","html-keyboard-response","51","224764","0.0-1.0-67.0","0","0","59137","","null","","","null","7","","NaN","","","","","","","","","","","","","",""
"","response","","html-keyboard-response","52","224821","0.0-1.0-68.0-0.0","0","0","59137","","53","","","75","7","","","1","7","training","adjacent","BC","2","3","O.jpg","R.jpg","1","1","1","",""
"","feedback","","html-keyboard-response","53","225830","0.0-1.0-69.0-0.0","0","0","59137","","null","","","null","7","","","","","","","","","","","","","","","",""
"","ITI","","html-keyboard-response","54","226838","0.0-1.0-72.0","0","0","59137","","null","","","null","7","","","","","","","","","","","","","","","NaN",""
"","S1","","html-keyboard-response","55","227098","0.0-1.0-74.0","0","0","59137","","null","","","null","8","","","","","","","","","","","","","","","",""
"","ISI","","html-keyboard-response","56","228105","0.0-1.0-75.0","0","0","59137","","null","","","null","8","NaN","","","","","","","","","","","","","","",""
"","S2","","html-keyboard-response","57","228360","0.0-1.0-76.0","0","0","59137","","null","","","null","8","","NaN","","","","","","","","","","","","","",""
"","response","","html-keyboard-response","58","228686","0.0-1.0-77.0-0.0","0","0","59137","","323","","","68","8","","","1","8","training","adjacent","GF","7","6","L.jpg","N.jpg","0","0","1","",""
"","feedback","","html-keyboard-response","59","229696","0.0-1.0-78.0-0.0","0","0","59137","","null","","","null","8","","","","","","","","","","","","","","","",""
"","ITI","","html-keyboard-response","60","230704","0.0-1.0-81.0","0","0","59137","","null","","","null","8","","","","","","","","","","","","","","","NaN",""
"","S1","","html-keyboard-response","61","230963","0.0-1.0-83.0","0","0","59137","","null","","","null","9","","","","","","","","","","","","","","","",""
"","ISI","","html-keyboard-response","62","231971","0.0-1.0-84.0","0","0","59137","","null","","","null","9","NaN","","","","","","","","","","","","","","",""
"","S2","","html-keyboard-response","63","232231","0.0-1.0-85.0","0","0","59137","","null","","","null","9","","NaN","","","","","","","","","","","","","",""
"","response","","html-keyboard-response","64","232618","0.0-1.0-86.0-0.0","0","0","59137","","384","","","68","9","","","1","9","training","adjacent","CD","3","4","R.jpg","Q.jpg","0","1","0","",""
"","feedback","","html-keyboard-response","65","233627","0.0-1.0-87.0-0.0","0","0","59137","","null","","","null","9","","","","","","","","","","","","","","","",""
"","time_out","","html-keyboard-response","66","235636","0.0-1.0-89.0-0.0","0","0","59137","","null","","","null","9","","","","","","","","","","","","","","","",""
"","ITI","","html-keyboard-response","67","236640","0.0-1.0-90.0","0","0","59137","","null","","","null","9","","","","","","","","","","","","","","","NaN",""
"","S1","","html-keyboard-response","68","236894","0.0-1.0-92.0","0","0","59137","","null","","","null","10","","","","","","","","","","","","","","","",""
"","ISI","","html-keyboard-response","69","238057","0.0-1.0-93.0","0","0","59137","","null","","","null","10","NaN","","","","","","","","","","","","","","",""
"","S2","","html-keyboard-response","70","238318","0.0-1.0-94.0","0","0","59137","","null","","","null","10","","NaN","","","","","","","","","","","","","",""
"","response","","html-keyboard-response","71","238777","0.0-1.0-95.0-0.0","0","0","59137","","456","","","68","10","","","1","10","training","adjacent","DC","4","3","Q.jpg","R.jpg","0","0","1","",""
"","feedback","","html-keyboard-response","72","239786","0.0-1.0-96.0-0.0","0","0","59137","","null","","","null","10","","","","","","","","","","","","","","","",""
"","ITI","","html-keyboard-response","73","240789","0.0-1.0-99.0","0","0","59137","","null","","","null","10","","","","","","","","","","","","","","","NaN",""
"","S1","","html-keyboard-response","74","241045","0.0-1.0-101.0","0","0","59137","","null","","","null","11","","","","","","","","","","","","","","","",""
"","ISI","","html-keyboard-response","75","242049","0.0-1.0-102.0","0","0","59137","","null","","","null","11","NaN","","","","","","","","","","","","","","",""
"","S2","","html-keyboard-response","76","242304","0.0-1.0-103.0","0","0","59137","","null","","","null","11","","NaN","","","","","","","","","","","","","",""
"","response","","html-keyboard-response","77","242960","0.0-1.0-104.0-0.0","0","0","59137","","652","","","68","11","","","1","11","training","adjacent","ED","5","4","P.jpg","Q.jpg","0","0","1","",""
"","feedback","","html-keyboard-response","78","243967","0.0-1.0-105.0-0.0","0","0","59137","","null","","","null","11","","","","","","","","","","","","","","","",""
"","ITI","","html-keyboard-response","79","244971","0.0-1.0-108.0","0","0","59137","","null","","","null","11","","","","","","","","","","","","","","","NaN",""
"","S1","","html-keyboard-response","80","245229","0.0-1.0-110.0","0","0","59137","","null","","","null","12","","","","","","","","","","","","","","","",""
"","ISI","","html-keyboard-response","81","246234","0.0-1.0-111.0","0","0","59137","","null","","","null","12","NaN","","","","","","","","","","","","","","",""
"","S2","","html-keyboard-response","82","246494","0.0-1.0-112.0","0","0","59137","","null","","","null","12","","NaN","","","","","","","","","","","","","",""
"","response","","html-keyboard-response","83","246551","0.0-1.0-113.0-0.0","0","0","59137","","54","","","75","12","","","1","12","training","adjacent","BA","2","1","O.jpg","M.jpg","1","0","0","",""
"","feedback","","html-keyboard-response","84","247559","0.0-1.0-114.0-0.0","0","0","59137","","null","","","null","12","","","","","","","","","","","","","","","",""
"","time_out","","html-keyboard-response","85","249569","0.0-1.0-116.0-0.0","0","0","59137","","null","","","null","12","","","","","","","","","","","","","","","",""
"","ITI","","html-keyboard-response","86","250575","0.0-1.0-117.0","0","0","59137","","null","","","null","12","","","","","","","","","","","","","","","NaN",""
"","S1","","html-keyboard-response","87","250834","0.0-1.0-119.0","0","0","59137","","null","","","null","13","","","","","","","","","","","","","","","",""
"","ISI","","html-keyboard-response","88","251842","0.0-1.0-120.0","0","0","59137","","null","","","null","13","NaN","","","","","","","","","","","","","","",""
"","S2","","html-keyboard-response","89","252101","0.0-1.0-121.0","0","0","59137","","null","","","null","13","","NaN","","","","","","","","","","","","","",""
"","response","","html-keyboard-response","90","252335","0.0-1.0-122.0-0.0","0","0","59137","","229","","","75","13","","","1","13","training","adjacent","FG","6","7","N.jpg","L.jpg","1","1","1","",""
"","feedback","","html-keyboard-response","91","253339","0.0-1.0-123.0-0.0","0","0","59137","","null","","","null","13","","","","","","","","","","","","","","","",""
"","ITI","","html-keyboard-response","92","254342","0.0-1.0-126.0","0","0","59137","","null","","","null","13","","","","","","","","","","","","","","","NaN",""
"","S1","","html-keyboard-response","93","254602","0.0-1.0-128.0","0","0","59137","","null","","","null","14","","","","","","","","","","","","","","","",""
"","ISI","","html-keyboard-response","94","255610","0.0-1.0-129.0","0","0","59137","","null","","","null","14","NaN","","","","","","","","","","","","","","",""
"","S2","","html-keyboard-response","95","255869","0.0-1.0-130.0","0","0","59137","","null","","","null","14","","NaN","","","","","","","","","","","","","",""
"","response","","html-keyboard-response","96","255899","0.0-1.0-131.0-0.0","0","0","59137","","26","","","75","14","","","1","14","training","adjacent","FE","6","5","N.jpg","P.jpg","1","0","0","",""
"","feedback","","html-keyboard-response","97","256902","0.0-1.0-132.0-0.0","0","0","59137","","null","","","null","14","","","","","","","","","","","","","","","",""
"","time_out","","html-keyboard-response","98","258908","0.0-1.0-134.0-0.0","0","0","59137","","null","","","null","14","","","","","","","","","","","","","","","",""
"","ITI","","html-keyboard-response","99","259915","0.0-1.0-135.0","0","0","59137","","null","","","null","14","","","","","","","","","","","","","","","NaN",""
"","S1","","html-keyboard-response","100","260171","0.0-1.0-137.0","0","0","59137","","null","","","null","15","","","","","","","","","","","","","","","",""
"","ISI","","html-keyboard-response","101","261180","0.0-1.0-138.0","0","0","59137","","null","","","null","15","NaN","","","","","","","","","","","","","","",""
"","S2","","html-keyboard-response","102","261438","0.0-1.0-139.0","0","0","59137","","null","","","null","15","","NaN","","","","","","","","","","","","","",""
"","response","","html-keyboard-response","103","262065","0.0-1.0-140.0-0.0","0","0","59137","","623","","","75","15","","","1","15","training","adjacent","ED","5","4","P.jpg","Q.jpg","1","0","0","",""
"","feedback","","html-keyboard-response","104","263072","0.0-1.0-141.0-0.0","0","0","59137","","null","","","null","15","","","","","","","","","","","","","","","",""
"","time_out","","html-keyboard-response","105","265079","0.0-1.0-143.0-0.0","0","0","59137","","null","","","null","15","","","","","","","","","","","","","","","",""
"","ITI","","html-keyboard-response","106","266086","0.0-1.0-144.0","0","0","59137","","null","","","null","15","","","","","","","","","","","","","","","NaN",""
"","S1","","html-keyboard-response","107","266340","0.0-1.0-146.0","0","0","59137","","null","","","null","16","","","","","","","","","","","","","","","",""
"","ISI","","html-keyboard-response","108","267349","0.0-1.0-147.0","0","0","59137","","null","","","null","16","NaN","","","","","","","","","","","","","","",""
"","S2","","html-keyboard-response","109","267608","0.0-1.0-148.0","0","0","59137","","null","","","null","16","","NaN","","","","","","","","","","","","","",""
"","response","","html-keyboard-response","110","267819","0.0-1.0-149.0-0.0","0","0","59137","","208","","","68","16","","","1","16","training","adjacent","DC","4","3","Q.jpg","R.jpg","0","0","1","",""
"","feedback","","html-keyboard-response","111","268829","0.0-1.0-150.0-0.0","0","0","59137","","null","","","null","16","","","","","","","","","","","","","","","",""
"","ITI","","html-keyboard-response","112","269832","0.0-1.0-153.0","0","0","59137","","null","","","null","16","","","","","","","","","","","","","","","NaN",""
"","S1","","html-keyboard-response","113","270091","0.0-1.0-155.0","0","0","59137","","null","","","null","17","","","","","","","","","","","","","","","",""
"","ISI","","html-keyboard-response","114","271099","0.0-1.0-156.0","0","0","59137","","null","","","null","17","NaN","","","","","","","","","","","","","","",""
"","S2","","html-keyboard-response","115","271358","0.0-1.0-157.0","0","0","59137","","null","","","null","17","","NaN","","","","","","","","","","","","","",""
"","response","","html-keyboard-response","116","271933","0.0-1.0-158.0-0.0","0","0","59137","","572","","","68","17","","","1","17","training","adjacent","DE","4","5","Q.jpg","P.jpg","0","1","0","",""
"","feedback","","html-keyboard-response","117","272938","0.0-1.0-159.0-0.0","0","0","59137","","null","","","null","17","","","","","","","","","","","","","","","",""
"","time_out","","html-keyboard-response","118","274943","0.0-1.0-161.0-0.0","0","0","59137","","null","","","null","17","","","","","","","","","","","","","","","",""
"","ITI","","html-keyboard-response","119","275950","0.0-1.0-162.0","0","0","59137","","null","","","null","17","","","","","","","","","","","","","","","NaN",""
"","S1","","html-keyboard-response","120","276209","0.0-1.0-164.0","0","0","59137","","null","","","null","18","","","","","","","","","","","","","","","",""
"","ISI","","html-keyboard-response","121","277217","0.0-1.0-165.0","0","0","59137","","null","","","null","18","NaN","","","","","","","","","","","","","","",""
"","S2","","html-keyboard-response","122","277476","0.0-1.0-166.0","0","0","59137","","null","","","null","18","","NaN","","","","","","","","","","","","","",""
"","response","","html-keyboard-response","123","277834","0.0-1.0-167.0-0.0","0","0","59137","","354","","","75","18","","","1","18","training","adjacent","ED","5","4","P.jpg","Q.jpg","1","0","0","",""
"","feedback","","html-keyboard-response","124","278839","0.0-1.0-168.0-0.0","0","0","59137","","null","","","null","18","","","","","","","","","","","","","","","",""
"","time_out","","html-keyboard-response","125","280843","0.0-1.0-170.0-0.0","0","0","59137","","null","","","null","18","","","","","","","","","","","","","","","",""
"","ITI","","html-keyboard-response","126","281849","0.0-1.0-171.0","0","0","59137","","null","","","null","18","","","","","","","","","","","","","","","NaN",""
"","S1","","html-keyboard-response","127","282108","0.0-1.0-173.0","0","0","59137","","null","","","null","19","","","","","","","","","","","","","","","",""
"","ISI","","html-keyboard-response","128","283117","0.0-1.0-174.0","0","0","59137","","null","","","null","19","NaN","","","","","","","","","","","","","","",""
"","S2","","html-keyboard-response","129","283375","0.0-1.0-175.0","0","0","59137","","null","","","null","19","","NaN","","","","","","","","","","","","","",""
"","response","","html-keyboard-response","130","283693","0.0-1.0-176.0-0.0","0","0","59137","","315","","","75","19","","","1","19","training","adjacent","FE","6","5","N.jpg","P.jpg","1","0","0","",""
"","feedback","","html-keyboard-response","131","284702","0.0-1.0-177.0-0.0","0","0","59137","","null","","","null","19","","","","","","","","","","","","","","","",""
"","time_out","","html-keyboard-response","132","286711","0.0-1.0-179.0-0.0","0","0","59137","","null","","","null","19","","","","","","","","","","","","","","","",""
"","ITI","","html-keyboard-response","133","287717","0.0-1.0-180.0","0","0","59137","","null","","","null","19","","","","","","","","","","","","","","","NaN",""
"","S1","","html-keyboard-response","134","287976","0.0-1.0-182.0","0","0","59137","","null","","","null","20","","","","","","","","","","","","","","","",""
"","ISI","","html-keyboard-response","135","288985","0.0-1.0-183.0","0","0","59137","","null","","","null","20","NaN","","","","","","","","","","","","","","",""
"","S2","","html-keyboard-response","136","289243","0.0-1.0-184.0","0","0","59137","","null","","","null","20","","NaN","","","","","","","","","","","","","",""
"","response","","html-keyboard-response","137","289521","0.0-1.0-185.0-0.0","0","0","59137","","273","","","68","20","","","1","20","training","adjacent","DE","4","5","Q.jpg","P.jpg","0","1","0","",""
"","feedback","","html-keyboard-response","138","290528","0.0-1.0-186.0-0.0","0","0","59137","","null","","","null","20","","","","","","","","","","","","","","","",""
"","time_out","","html-keyboard-response","139","292535","0.0-1.0-188.0-0.0","0","0","59137","","null","","","null","20","","","","","","","","","","","","","","","",""
"","ITI","","html-keyboard-response","140","293541","0.0-1.0-189.0","0","0","59137","","null","","","null","20","","","","","","","","","","","","","","","NaN",""
"","S1","","html-keyboard-response","141","293800","0.0-1.0-191.0","0","0","59137","","null","","","null","21","","","","","","","","","","","","","","","",""
"","ISI","","html-keyboard-response","142","294808","0.0-1.0-192.0","0","0","59137","","null","","","null","21","NaN","","","","","","","","","","","","","","",""
"","S2","","html-keyboard-response","143","295067","0.0-1.0-193.0","0","0","59137","","null","","","null","21","","NaN","","","","","","","","","","","","","",""
"","response","","html-keyboard-response","144","295556","0.0-1.0-194.0-0.0","0","0","59137","","485","","","68","21","","","1","21","training","adjacent","CB","3","2","R.jpg","O.jpg","0","0","1","",""
"","feedback","","html-keyboard-response","145","296560","0.0-1.0-195.0-0.0","0","0","59137","","null","","","null","21","","","","","","","","","","","","","","","",""
"","ITI","","html-keyboard-response","146","297566","0.0-1.0-198.0","0","0","59137","","null","","","null","21","","","","","","","","","","","","","","","NaN",""
"","S1","","html-keyboard-response","147","297824","0.0-1.0-200.0","0","0","59137","","null","","","null","22","","","","","","","","","","","","","","","",""
"","ISI","","html-keyboard-response","148","298833","0.0-1.0-201.0","0","0","59137","","null","","","null","22","NaN","","","","","","","","","","","","","","",""
"","S2","","html-keyboard-response","149","299088","0.0-1.0-202.0","0","0","59137","","null","","","null","22","","NaN","","","","","","","","","","","","","",""
"","response","","html-keyboard-response","150","299668","0.0-1.0-203.0-0.0","0","0","59137","","576","","","68","22","","","1","22","training","adjacent","DC","4","3","Q.jpg","R.jpg","0","0","1","",""
"","feedback","","html-keyboard-response","151","300677","0.0-1.0-204.0-0.0","0","0","59137","","null","","","null","22","","","","","","","","","","","","","","","",""
"","ITI","","html-keyboard-response","152","301683","0.0-1.0-207.0","0","0","59137","","null","","","null","22","","","","","","","","","","","","","","","NaN",""
"","S1","","html-keyboard-response","153","301942","0.0-1.0-209.0","0","0","59137","","null","","","null","23","","","","","","","","","","","","","","","",""
"","ISI","","html-keyboard-response","154","302950","0.0-1.0-210.0","0","0","59137","","null","","","null","23","NaN","","","","","","","","","","","","","","",""
"","S2","","html-keyboard-response","155","303208","0.0-1.0-211.0","0","0","59137","","null","","","null","23","","NaN","","","","","","","","","","","","","",""
"","response","","html-keyboard-response","156","303593","0.0-1.0-212.0-0.0","0","0","59137","","381","","","75","23","","","1","23","training","adjacent","GF","7","6","L.jpg","N.jpg","1","0","0","",""
"","feedback","","html-keyboard-response","157","304597","0.0-1.0-213.0-0.0","0","0","59137","","null","","","null","23","","","","","","","","","","","","","","","",""
"","time_out","","html-keyboard-response","158","306605","0.0-1.0-215.0-0.0","0","0","59137","","null","","","null","23","","","","","","","","","","","","","","","",""
"","ITI","","html-keyboard-response","159","307612","0.0-1.0-216.0","0","0","59137","","null","","","null","23","","","","","","","","","","","","","","","NaN",""
"","S1","","html-keyboard-response","160","307868","0.0-1.0-218.0","0","0","59137","","null","","","null","24","","","","","","","","","","","","","","","",""
"","ISI","","html-keyboard-response","161","308873","0.0-1.0-219.0","0","0","59137","","null","","","null","24","NaN","","","","","","","","","","","","","","",""
"","S2","","html-keyboard-response","162","309132","0.0-1.0-220.0","0","0","59137","","null","","","null","24","","NaN","","","","","","","","","","","","","",""
"","response","","html-keyboard-response","163","309381","0.0-1.0-221.0-0.0","0","0","59137","","247","","","75","24","","","1","24","training","adjacent","FE","6","5","N.jpg","P.jpg","1","0","0","",""
"","feedback","","html-keyboard-response","164","310391","0.0-1.0-222.0-0.0","0","0","59137","","null","","","null","24","","","","","","","","","","","","","","","",""
"","time_out","","html-keyboard-response","165","312399","0.0-1.0-224.0-0.0","0","0","59137","","null","","","null","24","","","","","","","","","","","","","","","",""
"","ITI","","html-keyboard-response","166","313404","0.0-1.0-225.0","0","0","59137","","null","","","null","24","","","","","","","","","","","","","","","NaN",""
"","S1","","html-keyboard-response","167","313663","0.0-1.0-227.0","0","0","59137","","null","","","null","25","","","","","","","","","","","","","","","",""
"","ISI","","html-keyboard-response","168","314671","0.0-1.0-228.0","0","0","59137","","null","","","null","25","NaN","","","","","","","","","","","","","","",""
"","S2","","html-keyboard-response","169","314930","0.0-1.0-229.0","0","0","59137","","null","","","null","25","","NaN","","","","","","","","","","","","","",""
"","response","","html-keyboard-response","170","315042","0.0-1.0-230.0-0.0","0","0","59137","","107","","","75","25","","","1","25","training","adjacent","FE","6","5","N.jpg","P.jpg","1","0","0","",""
"","feedback","","html-keyboard-response","171","316048","0.0-1.0-231.0-0.0","0","0","59137","","null","","","null","25","","","","","","","","","","","","","","","",""
"","time_out","","html-keyboard-response","172","318053","0.0-1.0-233.0-0.0","0","0","59137","","null","","","null","25","","","","","","","","","","","","","","","",""
"","ITI","","html-keyboard-response","173","319060","0.0-1.0-234.0","0","0","59137","","null","","","null","25","","","","","","","","","","","","","","","NaN",""
"","S1","","html-keyboard-response","174","319314","0.0-1.0-236.0","0","0","59137","","null","","","null","26","","","","","","","","","","","","","","","",""
"","ISI","","html-keyboard-response","175","320319","0.0-1.0-237.0","0","0","59137","","null","","","null","26","NaN","","","","","","","","","","","","","","",""
"","S2","","html-keyboard-response","176","320578","0.0-1.0-238.0","0","0","59137","","null","","","null","26","","NaN","","","","","","","","","","","","","",""
"","response","","html-keyboard-response","177","321062","0.0-1.0-239.0-0.0","0","0","59137","","481","","","68","26","","","1","26","training","adjacent","AB","1","2","M.jpg","O.jpg","0","1","0","",""
"","feedback","","html-keyboard-response","178","322067","0.0-1.0-240.0-0.0","0","0","59137","","null","","","null","26","","","","","","","","","","","","","","","",""
"","time_out","","html-keyboard-response","179","324076","0.0-1.0-242.0-0.0","0","0","59137","","null","","","null","26","","","","","","","","","","","","","","","",""
"","ITI","","html-keyboard-response","180","325082","0.0-1.0-243.0","0","0","59137","","null","","","null","26","","","","","","","","","","","","","","","NaN",""
"","S1","","html-keyboard-response","181","325341","0.0-1.0-245.0","0","0","59137","","null","","","null","27","","","","","","","","","","","","","","","",""
"","ISI","","html-keyboard-response","182","326346","0.0-1.0-246.0","0","0","59137","","null","","","null","27","NaN","","","","","","","","","","","","","","",""
"","S2","","html-keyboard-response","183","326605","0.0-1.0-247.0","0","0","59137","","null","","","null","27","","NaN","","","","","","","","","","","","","",""
"","response","","html-keyboard-response","184","327040","0.0-1.0-248.0-0.0","0","0","59137","","433","","","68","27","","","1","27","training","adjacent","CD","3","4","R.jpg","Q.jpg","0","1","0","",""
"","feedback","","html-keyboard-response","185","328045","0.0-1.0-249.0-0.0","0","0","59137","","null","","","null","27","","","","","","","","","","","","","","","",""
"","time_out","","html-keyboard-response","186","330054","0.0-1.0-251.0-0.0","0","0","59137","","null","","","null","27","","","","","","","","","","","","","","","",""
"","ITI","","html-keyboard-response","187","331060","0.0-1.0-252.0","0","0","59137","","null","","","null","27","","","","","","","","","","","","","","","NaN",""
"","S1","","html-keyboard-response","188","331319","0.0-1.0-254.0","0","0","59137","","null","","","null","28","","","","","","","","","","","","","","","",""
"","ISI","","html-keyboard-response","189","332328","0.0-1.0-255.0","0","0","59137","","null","","","null","28","NaN","","","","","","","","","","","","","","",""
"","S2","","html-keyboard-response","190","332586","0.0-1.0-256.0","0","0","59137","","null","","","null","28","","NaN","","","","","","","","","","","","","",""
"","response","","html-keyboard-response","191","332871","0.0-1.0-257.0-0.0","0","0","59137","","281","","","68","28","","","1","28","training","adjacent","DC","4","3","Q.jpg","R.jpg","0","0","1","",""
"","feedback","","html-keyboard-response","192","333876","0.0-1.0-258.0-0.0","0","0","59137","","null","","","null","28","","","","","","","","","","","","","","","",""
"","ITI","","html-keyboard-response","193","334880","0.0-1.0-261.0","0","0","59137","","null","","","null","28","","","","","","","","","","","","","","","NaN",""
"","S1","","html-keyboard-response","194","335139","0.0-1.0-263.0","0","0","59137","","null","","","null","29","","","","","","","","","","","","","","","",""
"","ISI","","html-keyboard-response","195","336144","0.0-1.0-264.0","0","0","59137","","null","","","null","29","NaN","","","","","","","","","","","","","","",""
"","S2","","html-keyboard-response","196","336403","0.0-1.0-265.0","0","0","59137","","null","","","null","29","","NaN","","","","","","","","","","","","","",""
"","response","","html-keyboard-response","197","336878","0.0-1.0-266.0-0.0","0","0","59137","","472","","","68","29","","","1","29","training","adjacent","GF","7","6","L.jpg","N.jpg","0","0","1","",""
"","feedback","","html-keyboard-response","198","337886","0.0-1.0-267.0-0.0","0","0","59137","","null","","","null","29","","","","","","","","","","","","","","","",""
"","ITI","","html-keyboard-response","199","338895","0.0-1.0-270.0","0","0","59137","","null","","","null","29","","","","","","","","","","","","","","","NaN",""
"","S1","","html-keyboard-response","200","339154","0.0-1.0-272.0","0","0","59137","","null","","","null","30","","","","","","","","","","","","","","","",""
"","ISI","","html-keyboard-response","201","340161","0.0-1.0-273.0","0","0","59137","","null","","","null","30","NaN","","","","","","","","","","","","","","",""
"","S2","","html-keyboard-response","202","340420","0.0-1.0-274.0","0","0","59137","","null","","","null","30","","NaN","","","","","","","","","","","","","",""
"","response","","html-keyboard-response","203","340903","0.0-1.0-275.0-0.0","0","0","59137","","479","","","68","30","","","1","30","training","adjacent","CB","3","2","R.jpg","O.jpg","0","0","1","",""
"","feedback","","html-keyboard-response","204","341908","0.0-1.0-276.0-0.0","0","0","59137","","null","","","null","30","","","","","","","","","","","","","","","",""
"","ITI","","html-keyboard-response","205","342916","0.0-1.0-279.0","0","0","59137","","null","","","null","30","","","","","","","","","","","","","","","NaN",""
"","S1","","html-keyboard-response","206","343175","0.0-1.0-281.0","0","0","59137","","null","","","null","31","","","","","","","","","","","","","","","",""
"","ISI","","html-keyboard-response","207","344179","0.0-1.0-282.0","0","0","59137","","null","","","null","31","NaN","","","","","","","","","","","","","","",""
"","S2","","html-keyboard-response","208","344433","0.0-1.0-283.0","0","0","59137","","null","","","null","31","","NaN","","","","","","","","","","","","","",""
"","response","","html-keyboard-response","209","344900","0.0-1.0-284.0-0.0","0","0","59137","","464","","","68","31","","","1","31","training","adjacent","AB","1","2","M.jpg","O.jpg","0","1","0","",""
"","feedback","","html-keyboard-response","210","345905","0.0-1.0-285.0-0.0","0","0","59137","","null","","","null","31","","","","","","","","","","","","","","","",""
"","time_out","","html-keyboard-response","211","347911","0.0-1.0-287.0-0.0","0","0","59137","","null","","","null","31","","","","","","","","","","","","","","","",""
"","ITI","","html-keyboard-response","212","348917","0.0-1.0-288.0","0","0","59137","","null","","","null","31","","","","","","","","","","","","","","","NaN",""
"","S1","","html-keyboard-response","213","349175","0.0-1.0-290.0","0","0","59137","","null","","","null","32","","","","","","","","","","","","","","","",""
"","ISI","","html-keyboard-response","214","350184","0.0-1.0-291.0","0","0","59137","","null","","","null","32","NaN","","","","","","","","","","","","","","",""
"","S2","","html-keyboard-response","215","350443","0.0-1.0-292.0","0","0","59137","","null","","","null","32","","NaN","","","","","","","","","","","","","",""
"","response","","html-keyboard-response","216","351038","0.0-1.0-293.0-0.0","0","0","59137","","591","","","75","32","","","1","32","training","adjacent","FG","6","7","N.jpg","L.jpg","1","1","1","",""
"","feedback","","html-keyboard-response","217","352047","0.0-1.0-294.0-0.0","0","0","59137","","null","","","null","32","","","","","","","","","","","","","","","",""
"","ITI","","html-keyboard-response","218","353055","0.0-1.0-297.0","0","0","59137","","null","","","null","32","","","","","","","","","","","","","","","NaN",""
"","S1","","html-keyboard-response","219","353314","0.0-1.0-299.0","0","0","59137","","null","","","null","33","","","","","","","","","","","","","","","",""
"","ISI","","html-keyboard-response","220","354323","0.0-1.0-300.0","0","0","59137","","null","","","null","33","NaN","","","","","","","","","","","","","","",""
"","S2","","html-keyboard-response","221","354577","0.0-1.0-301.0","0","0","59137","","null","","","null","33","","NaN","","","","","","","","","","","","","",""
"","response","","html-keyboard-response","222","355071","0.0-1.0-302.0-0.0","0","0","59137","","489","","","68","33","","","1","33","training","adjacent","CB","3","2","R.jpg","O.jpg","0","0","1","",""
"","feedback","","html-keyboard-response","223","356075","0.0-1.0-303.0-0.0","0","0","59137","","null","","","null","33","","","","","","","","","","","","","","","",""
"","ITI","","html-keyboard-response","224","357080","0.0-1.0-306.0","0","0","59137","","null","","","null","33","","","","","","","","","","","","","","","NaN",""
"","S1","","html-keyboard-response","225","357338","0.0-1.0-308.0","0","0","59137","","null","","","null","34","","","","","","","","","","","","","","","",""
"","ISI","","html-keyboard-response","226","358346","0.0-1.0-309.0","0","0","59137","","null","","","null","34","NaN","","","","","","","","","","","","","","",""
"","S2","","html-keyboard-response","227","358606","0.0-1.0-310.0","0","0","59137","","null","","","null","34","","NaN","","","","","","","","","","","","","",""
"","response","","html-keyboard-response","228","358827","0.0-1.0-311.0-0.0","0","0","59137","","217","","","75","34","","","1","34","training","adjacent","ED","5","4","P.jpg","Q.jpg","1","0","0","",""
"","feedback","","html-keyboard-response","229","359836","0.0-1.0-312.0-0.0","0","0","59137","","null","","","null","34","","","","","","","","","","","","","","","",""
"","time_out","","html-keyboard-response","230","361845","0.0-1.0-314.0-0.0","0","0","59137","","null","","","null","34","","","","","","","","","","","","","","","",""
"","ITI","","html-keyboard-response","231","362852","0.0-1.0-315.0","0","0","59137","","null","","","null","34","","","","","","","","","","","","","","","NaN",""
"","S1","","html-keyboard-response","232","363110","0.0-1.0-317.0","0","0","59137","","null","","","null","35","","","","","","","","","","","","","","","",""
"","ISI","","html-keyboard-response","233","364118","0.0-1.0-318.0","0","0","59137","","null","","","null","35","NaN","","","","","","","","","","","","","","",""
"","S2","","html-keyboard-response","234","364377","0.0-1.0-319.0","0","0","59137","","null","","","null","35","","NaN","","","","","","","","","","","","","",""
"","response","","html-keyboard-response","235","364663","0.0-1.0-320.0-0.0","0","0","59137","","284","","","75","35","","","1","35","training","adjacent","BA","2","1","O.jpg","M.jpg","1","0","0","",""
"","feedback","","html-keyboard-response","236","365672","0.0-1.0-321.0-0.0","0","0","59137","","null","","","null","35","","","","","","","","","","","","","","","",""
"","time_out","","html-keyboard-response","237","367680","0.0-1.0-323.0-0.0","0","0","59137","","null","","","null","35","","","","","","","","","","","","","","","",""
"","ITI","","html-keyboard-response","238","368687","0.0-1.0-324.0","0","0","59137","","null","","","null","35","","","","","","","","","","","","","","","NaN",""
"","S1","","html-keyboard-response","239","368946","0.0-1.0-326.0","0","0","59137","","null","","","null","36","","","","","","","","","","","","","","","",""
"","ISI","","html-keyboard-response","240","369953","0.0-1.0-327.0","0","0","59137","","null","","","null","36","NaN","","","","","","","","","","","","","","",""
"","S2","","html-keyboard-response","241","370212","0.0-1.0-328.0","0","0","59137","","null","","","null","36","","NaN","","","","","","","","","","","","","",""
"","response","","html-keyboard-response","242","370578","0.0-1.0-329.0-0.0","0","0","59137","","362","","","68","36","","","1","36","training","adjacent","DE","4","5","Q.jpg","P.jpg","0","1","0","",""
"","feedback","","html-keyboard-response","243","371582","0.0-1.0-330.0-0.0","0","0","59137","","null","","","null","36","","","","","","","","","","","","","","","",""
"","time_out","","html-keyboard-response","244","373591","0.0-1.0-332.0-0.0","0","0","59137","","null","","","null","36","","","","","","","","","","","","","","","",""
"","ITI","","html-keyboard-response","245","374599","0.0-1.0-333.0","0","0","59137","","null","","","null","36","","","","","","","","","","","","","","","NaN",""
"","S1","","html-keyboard-response","246","374858","0.0-1.0-335.0","0","0","59137","","null","","","null","37","","","","","","","","","","","","","","","",""
"","ISI","","html-keyboard-response","247","375867","0.0-1.0-336.0","0","0","59137","","null","","","null","37","NaN","","","","","","","","","","","","","","",""
"","S2","","html-keyboard-response","248","376125","0.0-1.0-337.0","0","0","59137","","null","","","null","37","","NaN","","","","","","","","","","","","","",""
"","response","","html-keyboard-response","249","376498","0.0-1.0-338.0-0.0","0","0","59137","","370","","","75","37","","","1","37","training","adjacent","FG","6","7","N.jpg","L.jpg","1","1","1","",""
"","feedback","","html-keyboard-response","250","377503","0.0-1.0-339.0-0.0","0","0","59137","","null","","","null","37","","","","","","","","","","","","","","","",""
"","ITI","","html-keyboard-response","251","378509","0.0-1.0-342.0","0","0","59137","","null","","","null","37","","","","","","","","","","","","","","","NaN",""
"","S1","","html-keyboard-response","252","378767","0.0-1.0-344.0","0","0","59137","","null","","","null","38","","","","","","","","","","","","","","","",""
"","ISI","","html-keyboard-response","253","379775","0.0-1.0-345.0","0","0","59137","","null","","","null","38","NaN","","","","","","","","","","","","","","",""
"","S2","","html-keyboard-response","254","380030","0.0-1.0-346.0","0","0","59137","","null","","","null","38","","NaN","","","","","","","","","","","","","",""
"","response","","html-keyboard-response","255","380377","0.0-1.0-347.0-0.0","0","0","59137","","342","","","68","38","","","1","38","training","adjacent","EF","5","6","P.jpg","N.jpg","0","1","0","",""
"","feedback","","html-keyboard-response","256","381386","0.0-1.0-348.0-0.0","0","0","59137","","null","","","null","38","","","","","","","","","","","","","","","",""
"","time_out","","html-keyboard-response","257","383394","0.0-1.0-350.0-0.0","0","0","59137","","null","","","null","38","","","","","","","","","","","","","","","",""
"","ITI","","html-keyboard-response","258","384401","0.0-1.0-351.0","0","0","59137","","null","","","null","38","","","","","","","","","","","","","","","NaN",""
"","S1","","html-keyboard-response","259","384656","0.0-1.0-353.0","0","0","59137","","null","","","null","39","","","","","","","","","","","","","","","",""
"","ISI","","html-keyboard-response","260","385664","0.0-1.0-354.0","0","0","59137","","null","","","null","39","NaN","","","","","","","","","","","","","","",""
"","S2","","html-keyboard-response","261","385923","0.0-1.0-355.0","0","0","59137","","null","","","null","39","","NaN","","","","","","","","","","","","","",""
"","response","","html-keyboard-response","262","386379","0.0-1.0-356.0-0.0","0","0","59137","","453","","","75","39","","","1","39","training","adjacent","CD","3","4","R.jpg","Q.jpg","1","1","1","",""
"","feedback","","html-keyboard-response","263","387388","0.0-1.0-357.0-0.0","0","0","59137","","null","","","null","39","","","","","","","","","","","","","","","",""
"","ITI","","html-keyboard-response","264","388397","0.0-1.0-360.0","0","0","59137","","null","","","null","39","","","","","","","","","","","","","","","NaN",""
"","S1","","html-keyboard-response","265","388656","0.0-1.0-362.0","0","0","59137","","null","","","null","40","","","","","","","","","","","","","","","",""
"","ISI","","html-keyboard-response","266","389664","0.0-1.0-363.0","0","0","59137","","null","","","null","40","NaN","","","","","","","","","","","","","","",""
"","S2","","html-keyboard-response","267","389923","0.0-1.0-364.0","0","0","59137","","null","","","null","40","","NaN","","","","","","","","","","","","","",""
"","response","","html-keyboard-response","268","390282","0.0-1.0-365.0-0.0","0","0","59137","","357","","","75","40","","","1","40","training","adjacent","BA","2","1","O.jpg","M.jpg","1","0","0","",""
"","feedback","","html-keyboard-response","269","391291","0.0-1.0-366.0-0.0","0","0","59137","","null","","","null","40","","","","","","","","","","","","","","","",""
"","time_out","","html-keyboard-response","270","393300","0.0-1.0-368.0-0.0","0","0","59137","","null","","","null","40","","","","","","","","","","","","","","","",""
"","ITI","","html-keyboard-response","271","394307","0.0-1.0-369.0","0","0","59137","","null","","","null","40","","","","","","","","","","","","","","","NaN",""
"","S1","","html-keyboard-response","272","394566","0.0-1.0-371.0","0","0","59137","","null","","","null","41","","","","","","","","","","","","","","","",""
"","ISI","","html-keyboard-response","273","395574","0.0-1.0-372.0","0","0","59137","","821","","","68","41","d","","","","","","","","","","","","","","",""
"","S2","","html-keyboard-response","274","395834","0.0-1.0-373.0","0","0","59137","","null","","","null","41","","NaN","","","","","","","","","","","","","",""
"","response","","html-keyboard-response","275","396096","0.0-1.0-374.0-0.0","0","0","59137","","259","","","68","41","","","1","41","training","adjacent","CB","3","2","R.jpg","O.jpg","0","0","1","",""
"","feedback","","html-keyboard-response","276","397106","0.0-1.0-375.0-0.0","0","0","59137","","null","","","null","41","","","","","","","","","","","","","","","",""
"","ITI","","html-keyboard-response","277","398115","0.0-1.0-378.0","0","0","59137","","null","","","null","41","","","","","","","","","","","","","","","NaN",""
"","S1","","html-keyboard-response","278","398373","0.0-1.0-380.0","0","0","59137","","null","","","null","42","","","","","","","","","","","","","","","",""
"","ISI","","html-keyboard-response","279","399382","0.0-1.0-381.0","0","0","59137","","null","","","null","42","NaN","","","","","","","","","","","","","","",""
"","S2","","html-keyboard-response","280","399639","0.0-1.0-382.0","0","0","59137","","null","","","null","42","","NaN","","","","","","","","","","","","","",""
"","response","","html-keyboard-response","281","400517","0.0-1.0-383.0-0.0","0","0","59137","","873","","","68","42","","","1","42","training","adjacent","DE","4","5","Q.jpg","P.jpg","0","1","0","",""
"","feedback","","html-keyboard-response","282","401524","0.0-1.0-384.0-0.0","0","0","59137","","null","","","null","42","","","","","","","","","","","","","","","",""
"","time_out","","html-keyboard-response","283","403531","0.0-1.0-386.0-0.0","0","0","59137","","null","","","null","42","","","","","","","","","","","","","","","",""
"","ITI","","html-keyboard-response","284","404539","0.0-1.0-387.0","0","0","59137","","null","","","null","42","","","","","","","","","","","","","","","NaN",""
"","S1","","html-keyboard-response","285","404798","0.0-1.0-389.0","0","0","59137","","null","","","null","43","","","","","","","","","","","","","","","",""
"","ISI","","html-keyboard-response","286","405805","0.0-1.0-390.0","0","0","59137","","null","","","null","43","NaN","","","","","","","","","","","","","","",""
"","S2","","html-keyboard-response","287","406065","0.0-1.0-391.0","0","0","59137","","null","","","null","43","","NaN","","","","","","","","","","","","","",""
"","response","","html-keyboard-response","288","406621","0.0-1.0-392.0-0.0","0","0","59137","","552","","","68","43","","","1","43","training","adjacent","EF","5","6","P.jpg","N.jpg","0","1","0","",""
"","feedback","","html-keyboard-response","289","407626","0.0-1.0-393.0-0.0","0","0","59137","","null","","","null","43","","","","","","","","","","","","","","","",""
"","time_out","","html-keyboard-response","290","409635","0.0-1.0-395.0-0.0","0","0","59137","","null","","","null","43","","","","","","","","","","","","","","","",""
"","ITI","","html-keyboard-response","291","410641","0.0-1.0-396.0","0","0","59137","","null","","","null","43","","","","","","","","","","","","","","","NaN",""
"","S1","","html-keyboard-response","292","410900","0.0-1.0-398.0","0","0","59137","","null","","","null","44","","","","","","","","","","","","","","","",""
"","ISI","","html-keyboard-response","293","411907","0.0-1.0-399.0","0","0","59137","","null","","","null","44","NaN","","","","","","","","","","","","","","",""
"","S2","","html-keyboard-response","294","412165","0.0-1.0-400.0","0","0","59137","","null","","","null","44","","NaN","","","","","","","","","","","","","",""
"","response","","html-keyboard-response","295","412589","0.0-1.0-401.0-0.0","0","0","59137","","420","","","68","44","","","1","44","training","adjacent","AB","1","2","M.jpg","O.jpg","0","1","0","",""
"","feedback","","html-keyboard-response","296","413593","0.0-1.0-402.0-0.0","0","0","59137","","null","","","null","44","","","","","","","","","","","","","","","",""
"","time_out","","html-keyboard-response","297","415602","0.0-1.0-404.0-0.0","0","0","59137","","null","","","null","44","","","","","","","","","","","","","","","",""
"","ITI","","html-keyboard-response","298","416611","0.0-1.0-405.0","0","0","59137","","null","","","null","44","","","","","","","","","","","","","","","NaN",""
"","S1","","html-keyboard-response","299","416869","0.0-1.0-407.0","0","0","59137","","null","","","null","45","","","","","","","","","","","","","","","",""
"","ISI","","html-keyboard-response","300","417877","0.0-1.0-408.0","0","0","59137","","null","","","null","45","NaN","","","","","","","","","","","","","","",""
"","S2","","html-keyboard-response","301","418136","0.0-1.0-409.0","0","0","59137","","null","","","null","45","","NaN","","","","","","","","","","","","","",""
"","response","","html-keyboard-response","302","418249","0.0-1.0-410.0-0.0","0","0","59137","","109","","","75","45","","","1","45","training","adjacent","BC","2","3","O.jpg","R.jpg","1","1","1","",""
"","feedback","","html-keyboard-response","303","419258","0.0-1.0-411.0-0.0","0","0","59137","","null","","","null","45","","","","","","","","","","","","","","","",""
"","ITI","","html-keyboard-response","304","420267","0.0-1.0-414.0","0","0","59137","","null","","","null","45","","","","","","","","","","","","","","","NaN",""
"","S1","","html-keyboard-response","305","420526","0.0-1.0-416.0","0","0","59137","","null","","","null","46","","","","","","","","","","","","","","","",""
"","ISI","","html-keyboard-response","306","421532","0.0-1.0-417.0","0","0","59137","","null","","","null","46","NaN","","","","","","","","","","","","","","",""
"","S2","","html-keyboard-response","307","421791","0.0-1.0-418.0","0","0","59137","","null","","","null","46","","NaN","","","","","","","","","","","","","",""
"","response","","html-keyboard-response","308","421823","0.0-1.0-419.0-0.0","0","0","59137","","28","","","68","46","","","1","46","training","adjacent","BC","2","3","O.jpg","R.jpg","0","1","0","",""
"","feedback","","html-keyboard-response","309","422827","0.0-1.0-420.0-0.0","0","0","59137","","null","","","null","46","","","","","","","","","","","","","","","",""
"","time_out","","html-keyboard-response","310","424836","0.0-1.0-422.0-0.0","0","0","59137","","null","","","null","46","","","","","","","","","","","","","","","",""
"","ITI","","html-keyboard-response","311","425843","0.0-1.0-423.0","0","0","59137","","null","","","null","46","","","","","","","","","","","","","","","NaN",""
"","S1","","html-keyboard-response","312","426103","0.0-1.0-425.0","0","0","59137","","null","","","null","47","","","","","","","","","","","","","","","",""
"","ISI","","html-keyboard-response","313","427111","0.0-1.0-426.0","0","0","59137","","null","","","null","47","NaN","","","","","","","","","","","","","","",""
"","S2","","html-keyboard-response","314","427370","0.0-1.0-427.0","0","0","59137","","null","","","null","47","","NaN","","","","","","","","","","","","","",""
"","response","","html-keyboard-response","315","427554","0.0-1.0-428.0-0.0","0","0","59137","","180","","","75","47","","","1","47","training","adjacent","CD","3","4","R.jpg","Q.jpg","1","1","1","",""
"","feedback","","html-keyboard-response","316","428558","0.0-1.0-429.0-0.0","0","0","59137","","null","","","null","47","","","","","","","","","","","","","","","",""
"","ITI","","html-keyboard-response","317","429563","0.0-1.0-432.0","0","0","59137","","null","","","null","47","","","","","","","","","","","","","","","NaN",""
"","block_over","","html-keyboard-response","318","436325","0.0-1.0-433.0-0.0","0","0","59137","","6755","","","32","47","","","","","","","","","","","","","","","",""
"","S1","","html-keyboard-response","319","436583","0.0-1.0-434.0","0","0","59137","","null","","","null","48","","","","","","","","","","","","","","","",""
"","ISI","","html-keyboard-response","320","437589","0.0-1.0-435.0","0","0","59137","","null","","","null","48","NaN","","","","","","","","","","","","","","",""
"","S2","","html-keyboard-response","321","437848","0.0-1.0-436.0","0","0","59137","","null","","","null","48","","NaN","","","","","","","","","","","","","",""
"","response","","html-keyboard-response","322","438185","0.0-1.0-437.0-0.0","0","0","59137","","333","","","75","48","","","2","48","training","adjacent","CD","3","4","R.jpg","Q.jpg","1","1","1","",""
"","feedback","","html-keyboard-response","323","439194","0.0-1.0-438.0-0.0","0","0","59137","","null","","","null","48","","","","","","","","","","","","","","","",""
"","ITI","","html-keyboard-response","324","440203","0.0-1.0-441.0","0","0","59137","","null","","","null","48","","","","","","","","","","","","","","","NaN",""
"","S1","","html-keyboard-response","325","440462","0.0-1.0-443.0","0","0","59137","","null","","","null","49","","","","","","","","","","","","","","","",""
"","ISI","","html-keyboard-response","326","441471","0.0-1.0-444.0","0","0","59137","","null","","","null","49","NaN","","","","","","","","","","","","","","",""
"","S2","","html-keyboard-response","327","441729","0.0-1.0-445.0","0","0","59137","","null","","","null","49","","NaN","","","","","","","","","","","","","",""
"","response","","html-keyboard-response","328","442230","0.0-1.0-446.0-0.0","0","0","59137","","496","","","68","49","","","2","49","training","adjacent","AB","1","2","M.jpg","O.jpg","0","1","0","",""
"","feedback","","html-keyboard-response","329","443239","0.0-1.0-447.0-0.0","0","0","59137","","null","","","null","49","","","","","","","","","","","","","","","",""
"","time_out","","html-keyboard-response","330","445247","0.0-1.0-449.0-0.0","0","0","59137","","null","","","null","49","","","","","","","","","","","","","","","",""
"","ITI","","html-keyboard-response","331","446255","0.0-1.0-450.0","0","0","59137","","null","","","null","49","","","","","","","","","","","","","","","NaN",""
"","S1","","html-keyboard-response","332","446513","0.0-1.0-452.0","0","0","59137","","null","","","null","50","","","","","","","","","","","","","","","",""
"","ISI","","html-keyboard-response","333","447522","0.0-1.0-453.0","0","0","59137","","null","","","null","50","NaN","","","","","","","","","","","","","","",""
"","S2","","html-keyboard-response","334","447781","0.0-1.0-454.0","0","0","59137","","null","","","null","50","","NaN","","","","","","","","","","","","","",""
"","response","","html-keyboard-response","335","448525","0.0-1.0-455.0-0.0","0","0","59137","","739","","","68","50","","","2","50","training","adjacent","AB","1","2","M.jpg","O.jpg","0","1","0","",""
"","feedback","","html-keyboard-response","336","449529","0.0-1.0-456.0-0.0","0","0","59137","","null","","","null","50","","","","","","","","","","","","","","","",""
"","time_out","","html-keyboard-response","337","451533","0.0-1.0-458.0-0.0","0","0","59137","","null","","","null","50","","","","","","","","","","","","","","","",""
"","ITI","","html-keyboard-response","338","452540","0.0-1.0-459.0","0","0","59137","","null","","","null","50","","","","","","","","","","","","","","","NaN",""
"","S1","","html-keyboard-response","339","452799","0.0-1.0-461.0","0","0","59137","","null","","","null","51","","","","","","","","","","","","","","","",""
"","ISI","","html-keyboard-response","340","453807","0.0-1.0-462.0","0","0","59137","","null","","","null","51","NaN","","","","","","","","","","","","","","",""
"","S2","","html-keyboard-response","341","454065","0.0-1.0-463.0","0","0","59137","","null","","","null","51","","NaN","","","","","","","","","","","","","",""
"","response","","html-keyboard-response","342","454808","0.0-1.0-464.0-0.0","0","0","59137","","739","","","75","51","","","2","51","training","adjacent","CD","3","4","R.jpg","Q.jpg","1","1","1","",""
"","feedback","","html-keyboard-response","343","455815","0.0-1.0-465.0-0.0","0","0","59137","","null","","","null","51","","","","","","","","","","","","","","","",""
"","ITI","","html-keyboard-response","344","456822","0.0-1.0-468.0","0","0","59137","","null","","","null","51","","","","","","","","","","","","","","","NaN",""
"","S1","","html-keyboard-response","345","457081","0.0-1.0-470.0","0","0","59137","","null","","","null","52","","","","","","","","","","","","","","","",""
"","ISI","","html-keyboard-response","346","458090","0.0-1.0-471.0","0","0","59137","","null","","","null","52","NaN","","","","","","","","","","","","","","",""
"","S2","","html-keyboard-response","347","458349","0.0-1.0-472.0","0","0","59137","","null","","","null","52","","NaN","","","","","","","","","","","","","",""
"","response","","html-keyboard-response","348","458863","0.0-1.0-473.0-0.0","0","0","59137","","510","","","68","52","","","2","52","training","adjacent","ED","5","4","P.jpg","Q.jpg","0","0","1","",""
"","feedback","","html-keyboard-response","349","459867","0.0-1.0-474.0-0.0","0","0","59137","","null","","","null","52","","","","","","","","","","","","","","","",""
"","ITI","","html-keyboard-response","350","460873","0.0-1.0-477.0","0","0","59137","","null","","","null","52","","","","","","","","","","","","","","","NaN",""
"","S1","","html-keyboard-response","351","461131","0.0-1.0-479.0","0","0","59137","","null","","","null","53","","","","","","","","","","","","","","","",""
"","ISI","","html-keyboard-response","352","462140","0.0-1.0-480.0","0","0","59137","","null","","","null","53","NaN","","","","","","","","","","","","","","",""
"","S2","","html-keyboard-response","353","462398","0.0-1.0-481.0","0","0","59137","","null","","","null","53","","NaN","","","","","","","","","","","","","",""
"","response","","html-keyboard-response","354","462840","0.0-1.0-482.0-0.0","0","0","59137","","437","","","75","53","","","2","53","training","adjacent","ED","5","4","P.jpg","Q.jpg","1","0","0","",""
"","feedback","","html-keyboard-response","355","463849","0.0-1.0-483.0-0.0","0","0","59137","","null","","","null","53","","","","","","","","","","","","","","","",""
"","time_out","","html-keyboard-response","356","465859","0.0-1.0-485.0-0.0","0","0","59137","","null","","","null","53","","","","","","","","","","","","","","","",""
"","ITI","","html-keyboard-response","357","466865","0.0-1.0-486.0","0","0","59137","","null","","","null","53","","","","","","","","","","","","","","","NaN",""
"","S1","","html-keyboard-response","358","467123","0.0-1.0-488.0","0","0","59137","","null","","","null","54","","","","","","","","","","","","","","","",""
"","ISI","","html-keyboard-response","359","468129","0.0-1.0-489.0","0","0","59137","","null","","","null","54","NaN","","","","","","","","","","","","","","",""
"","S2","","html-keyboard-response","360","468387","0.0-1.0-490.0","0","0","59137","","null","","","null","54","","NaN","","","","","","","","","","","","","",""
"","response","","html-keyboard-response","361","468929","0.0-1.0-491.0-0.0","0","0","59137","","537","","","68","54","","","2","54","training","adjacent","CB","3","2","R.jpg","O.jpg","0","0","1","",""
"","feedback","","html-keyboard-response","362","469938","0.0-1.0-492.0-0.0","0","0","59137","","null","","","null","54","","","","","","","","","","","","","","","",""
"","ITI","","html-keyboard-response","363","470946","0.0-1.0-495.0","0","0","59137","","null","","","null","54","","","","","","","","","","","","","","","NaN",""
"","S1","","html-keyboard-response","364","471206","0.0-1.0-497.0","0","0","59137","","null","","","null","55","","","","","","","","","","","","","","","",""
"","ISI","","html-keyboard-response","365","472214","0.0-1.0-498.0","0","0","59137","","null","","","null","55","NaN","","","","","","","","","","","","","","",""
"","S2","","html-keyboard-response","366","472468","0.0-1.0-499.0","0","0","59137","","null","","","null","55","","NaN","","","","","","","","","","","","","",""
"","response","","html-keyboard-response","367","473058","0.0-1.0-500.0-0.0","0","0","59137","","585","","","68","55","","","2","55","training","adjacent","BC","2","3","O.jpg","R.jpg","0","1","0","",""
"","feedback","","html-keyboard-response","368","474067","0.0-1.0-501.0-0.0","0","0","59137","","null","","","null","55","","","","","","","","","","","","","","","",""
"","time_out","","html-keyboard-response","369","476075","0.0-1.0-503.0-0.0","0","0","59137","","null","","","null","55","","","","","","","","","","","","","","","",""
"","ITI","","html-keyboard-response","370","477081","0.0-1.0-504.0","0","0","59137","","null","","","null","55","","","","","","","","","","","","","","","NaN",""
"","S1","","html-keyboard-response","371","477340","0.0-1.0-506.0","0","0","59137","","null","","","null","56","","","","","","","","","","","","","","","",""
"","ISI","","html-keyboard-response","372","478349","0.0-1.0-507.0","0","0","59137","","null","","","null","56","NaN","","","","","","","","","","","","","","",""
"","S2","","html-keyboard-response","373","478607","0.0-1.0-508.0","0","0","59137","","null","","","null","56","","NaN","","","","","","","","","","","","","",""
"","response","","html-keyboard-response","374","478684","0.0-1.0-509.0-0.0","0","0","59137","","73","","","75","56","","","2","56","training","adjacent","FE","6","5","N.jpg","P.jpg","1","0","0","",""
"","feedback","","html-keyboard-response","375","479688","0.0-1.0-510.0-0.0","0","0","59137","","null","","","null","56","","","","","","","","","","","","","","","",""
"","time_out","","html-keyboard-response","376","481698","0.0-1.0-512.0-0.0","0","0","59137","","null","","","null","56","","","","","","","","","","","","","","","",""
"","ITI","","html-keyboard-response","377","482704","0.0-1.0-513.0","0","0","59137","","null","","","null","56","","","","","","","","","","","","","","","NaN",""
"","S1","","html-keyboard-response","378","482963","0.0-1.0-515.0","0","0","59137","","null","","","null","57","","","","","","","","","","","","","","","",""
"","ISI","","html-keyboard-response","379","483972","0.0-1.0-516.0","0","0","59137","","null","","","null","57","NaN","","","","","","","","","","","","","","",""
"","S2","","html-keyboard-response","380","484231","0.0-1.0-517.0","0","0","59137","","null","","","null","57","","NaN","","","","","","","","","","","","","",""
"","response","","html-keyboard-response","381","484623","0.0-1.0-518.0-0.0","0","0","59137","","389","","","75","57","","","2","57","training","adjacent","FE","6","5","N.jpg","P.jpg","1","0","0","",""
"","feedback","","html-keyboard-response","382","485627","0.0-1.0-519.0-0.0","0","0","59137","","null","","","null","57","","","","","","","","","","","","","","","",""
"","time_out","","html-keyboard-response","383","487636","0.0-1.0-521.0-0.0","0","0","59137","","null","","","null","57","","","","","","","","","","","","","","","",""
"","ITI","","html-keyboard-response","384","488643","0.0-1.0-522.0","0","0","59137","","null","","","null","57","","","","","","","","","","","","","","","NaN",""
"","S1","","html-keyboard-response","385","488902","0.0-1.0-524.0","0","0","59137","","null","","","null","58","","","","","","","","","","","","","","","",""
"","ISI","","html-keyboard-response","386","489909","0.0-1.0-525.0","0","0","59137","","null","","","null","58","NaN","","","","","","","","","","","","","","",""
"","S2","","html-keyboard-response","387","490168","0.0-1.0-526.0","0","0","59137","","null","","","null","58","","NaN","","","","","","","","","","","","","",""
"","response","","html-keyboard-response","388","490544","0.0-1.0-527.0-0.0","0","0","59137","","373","","","75","58","","","2","58","training","adjacent","BC","2","3","O.jpg","R.jpg","1","1","1","",""
"","feedback","","html-keyboard-response","389","491550","0.0-1.0-528.0-0.0","0","0","59137","","null","","","null","58","","","","","","","","","","","","","","","",""
"","ITI","","html-keyboard-response","390","492554","0.0-1.0-531.0","0","0","59137","","null","","","null","58","","","","","","","","","","","","","","","NaN",""
"","S1","","html-keyboard-response","391","492813","0.0-1.0-533.0","0","0","59137","","null","","","null","59","","","","","","","","","","","","","","","",""
"","ISI","","html-keyboard-response","392","493821","0.0-1.0-534.0","0","0","59137","","null","","","null","59","NaN","","","","","","","","","","","","","","",""
"","S2","","html-keyboard-response","393","494077","0.0-1.0-535.0","0","0","59137","","null","","","null","59","","NaN","","","","","","","","","","","","","",""
"","response","","html-keyboard-response","394","494822","0.0-1.0-536.0-0.0","0","0","59137","","741","","","68","59","","","2","59","training","adjacent","GF","7","6","L.jpg","N.jpg","0","0","1","",""
"","feedback","","html-keyboard-response","395","495829","0.0-1.0-537.0-0.0","0","0","59137","","null","","","null","59","","","","","","","","","","","","","","","",""
"","ITI","","html-keyboard-response","396","496834","0.0-1.0-540.0","0","0","59137","","null","","","null","59","","","","","","","","","","","","","","","NaN",""
"","S1","","html-keyboard-response","397","497094","0.0-1.0-542.0","0","0","59137","","null","","","null","60","","","","","","","","","","","","","","","",""
"","ISI","","html-keyboard-response","398","498102","0.0-1.0-543.0","0","0","59137","","null","","","null","60","NaN","","","","","","","","","","","","","","",""
"","S2","","html-keyboard-response","399","498361","0.0-1.0-544.0","0","0","59137","","null","","","null","60","","NaN","","","","","","","","","","","","","",""
"","response","","html-keyboard-response","400","498408","0.0-1.0-545.0-0.0","0","0","59137","","43","","","75","60","","","2","60","training","adjacent","FE","6","5","N.jpg","P.jpg","1","0","0","",""
"","feedback","","html-keyboard-response","401","499417","0.0-1.0-546.0-0.0","0","0","59137","","null","","","null","60","","","","","","","","","","","","","","","",""
"","time_out","","html-keyboard-response","402","501425","0.0-1.0-548.0-0.0","0","0","59137","","null","","","null","60","","","","","","","","","","","","","","","",""
"","ITI","","html-keyboard-response","403","502432","0.0-1.0-549.0","0","0","59137","","null","","","null","60","","","","","","","","","","","","","","","NaN",""
"","S1","","html-keyboard-response","404","502691","0.0-1.0-551.0","0","0","59137","","null","","","null","61","","","","","","","","","","","","","","","",""
"","ISI","","html-keyboard-response","405","503700","0.0-1.0-552.0","0","0","59137","","null","","","null","61","NaN","","","","","","","","","","","","","","",""
"","S2","","html-keyboard-response","406","503959","0.0-1.0-553.0","0","0","59137","","null","","","null","61","","NaN","","","","","","","","","","","","","",""
"","response","","html-keyboard-response","407","504279","0.0-1.0-554.0-0.0","0","0","59137","","317","","","68","61","","","2","61","training","adjacent","BC","2","3","O.jpg","R.jpg","0","1","0","",""
"","feedback","","html-keyboard-response","408","505285","0.0-1.0-555.0-0.0","0","0","59137","","null","","","null","61","","","","","","","","","","","","","","","",""
"","time_out","","html-keyboard-response","409","507294","0.0-1.0-557.0-0.0","0","0","59137","","null","","","null","61","","","","","","","","","","","","","","","",""
"","ITI","","html-keyboard-response","410","508300","0.0-1.0-558.0","0","0","59137","","null","","","null","61","","","","","","","","","","","","","","","NaN",""
"","S1","","html-keyboard-response","411","508559","0.0-1.0-560.0","0","0","59137","","null","","","null","62","","","","","","","","","","","","","","","",""
"","ISI","","html-keyboard-response","412","509567","0.0-1.0-561.0","0","0","59137","","null","","","null","62","NaN","","","","","","","","","","","","","","",""
"","S2","","html-keyboard-response","413","509826","0.0-1.0-562.0","0","0","59137","","null","","","null","62","","NaN","","","","","","","","","","","","","",""
"","response","","html-keyboard-response","414","510371","0.0-1.0-563.0-0.0","0","0","59137","","541","","","68","62","","","2","62","training","adjacent","BA","2","1","O.jpg","M.jpg","0","0","1","",""
"","feedback","","html-keyboard-response","415","511375","0.0-1.0-564.0-0.0","0","0","59137","","null","","","null","62","","","","","","","","","","","","","","","",""
"","ITI","","html-keyboard-response","416","512381","0.0-1.0-567.0","0","0","59137","","null","","","null","62","","","","","","","","","","","","","","","NaN",""
"","S1","","html-keyboard-response","417","512640","0.0-1.0-569.0","0","0","59137","","null","","","null","63","","","","","","","","","","","","","","","",""
"","ISI","","html-keyboard-response","418","513648","0.0-1.0-570.0","0","0","59137","","null","","","null","63","NaN","","","","","","","","","","","","","","",""
"","S2","","html-keyboard-response","419","513907","0.0-1.0-571.0","0","0","59137","","null","","","null","63","","NaN","","","","","","","","","","","","","",""
"","response","","html-keyboard-response","420","514418","0.0-1.0-572.0-0.0","0","0","59137","","507","","","68","63","","","2","63","training","adjacent","CB","3","2","R.jpg","O.jpg","0","0","1","",""
"","feedback","","html-keyboard-response","421","515422","0.0-1.0-573.0-0.0","0","0","59137","","null","","","null","63","","","","","","","","","","","","","","","",""
"","ITI","","html-keyboard-response","422","516427","0.0-1.0-576.0","0","0","59137","","null","","","null","63","","","","","","","","","","","","","","","NaN",""
"","S1","","html-keyboard-response","423","516684","0.0-1.0-578.0","0","0","59137","","null","","","null","64","","","","","","","","","","","","","","","",""
"","ISI","","html-keyboard-response","424","517689","0.0-1.0-579.0","0","0","59137","","null","","","null","64","NaN","","","","","","","","","","","","","","",""
"","S2","","html-keyboard-response","425","517948","0.0-1.0-580.0","0","0","59137","","null","","","null","64","","NaN","","","","","","","","","","","","","",""
"","response","","html-keyboard-response","426","518274","0.0-1.0-581.0-0.0","0","0","59137","","322","","","68","64","","","2","64","training","adjacent","CB","3","2","R.jpg","O.jpg","0","0","1","",""
"","feedback","","html-keyboard-response","427","519282","0.0-1.0-582.0-0.0","0","0","59137","","null","","","null","64","","","","","","","","","","","","","","","",""
"","ITI","","html-keyboard-response","428","520292","0.0-1.0-585.0","0","0","59137","","null","","","null","64","","","","","","","","","","","","","","","NaN",""
"","S1","","html-keyboard-response","429","520551","0.0-1.0-587.0","0","0","59137","","null","","","null","65","","","","","","","","","","","","","","","",""
"","ISI","","html-keyboard-response","430","521557","0.0-1.0-588.0","0","0","59137","","null","","","null","65","NaN","","","","","","","","","","","","","","",""
"","S2","","html-keyboard-response","431","521817","0.0-1.0-589.0","0","0","59137","","null","","","null","65","","NaN","","","","","","","","","","","","","",""
"","response","","html-keyboard-response","432","522716","0.0-1.0-590.0-0.0","0","0","59137","","896","","","68","65","","","2","65","training","adjacent","DE","4","5","Q.jpg","P.jpg","0","1","0","",""
"","feedback","","html-keyboard-response","433","523724","0.0-1.0-591.0-0.0","0","0","59137","","null","","","null","65","","","","","","","","","","","","","","","",""
"","time_out","","html-keyboard-response","434","525732","0.0-1.0-593.0-0.0","0","0","59137","","null","","","null","65","","","","","","","","","","","","","","","",""
"","ITI","","html-keyboard-response","435","526739","0.0-1.0-594.0","0","0","59137","","null","","","null","65","","","","","","","","","","","","","","","NaN",""
"","S1","","html-keyboard-response","436","526998","0.0-1.0-596.0","0","0","59137","","null","","","null","66","","","","","","","","","","","","","","","",""
"","ISI","","html-keyboard-response","437","528007","0.0-1.0-597.0","0","0","59137","","null","","","null","66","NaN","","","","","","","","","","","","","","",""
"","S2","","html-keyboard-response","438","528265","0.0-1.0-598.0","0","0","59137","","null","","","null","66","","NaN","","","","","","","","","","","","","",""
"","response","","html-keyboard-response","439","528794","0.0-1.0-599.0-0.0","0","0","59137","","524","","","68","66","","","2","66","training","adjacent","DC","4","3","Q.jpg","R.jpg","0","0","1","",""
"","feedback","","html-keyboard-response","440","529803","0.0-1.0-600.0-0.0","0","0","59137","","null","","","null","66","","","","","","","","","","","","","","","",""
"","ITI","","html-keyboard-response","441","530812","0.0-1.0-603.0","0","0","59137","","null","","","null","66","","","","","","","","","","","","","","","NaN",""
"","S1","","html-keyboard-response","442","531071","0.0-1.0-605.0","0","0","59137","","null","","","null","67","","","","","","","","","","","","","","","",""
"","ISI","","html-keyboard-response","443","532081","0.0-1.0-606.0","0","0","59137","","null","","","null","67","NaN","","","","","","","","","","","","","","",""
"","S2","","html-keyboard-response","444","532339","0.0-1.0-607.0","0","0","59137","","null","","","null","67","","NaN","","","","","","","","","","","","","",""
"","response","","html-keyboard-response","445","532444","0.0-1.0-608.0-0.0","0","0","59137","","101","","","68","67","","","2","67","training","adjacent","ED","5","4","P.jpg","Q.jpg","0","0","1","",""
"","feedback","","html-keyboard-response","446","533453","0.0-1.0-609.0-0.0","0","0","59137","","null","","","null","67","","","","","","","","","","","","","","","",""
"","ITI","","html-keyboard-response","447","534463","0.0-1.0-612.0","0","0","59137","","null","","","null","67","","","","","","","","","","","","","","","NaN",""
"","S1","","html-keyboard-response","448","534721","0.0-1.0-614.0","0","0","59137","","null","","","null","68","","","","","","","","","","","","","","","",""
"","ISI","","html-keyboard-response","449","535729","0.0-1.0-615.0","0","0","59137","","null","","","null","68","NaN","","","","","","","","","","","","","","",""
"","S2","","html-keyboard-response","450","535988","0.0-1.0-616.0","0","0","59137","","null","","","null","68","","NaN","","","","","","","","","","","","","",""
"","response","","html-keyboard-response","451","536582","0.0-1.0-617.0-0.0","0","0","59137","","590","","","68","68","","","2","68","training","adjacent","EF","5","6","P.jpg","N.jpg","0","1","0","",""
"","feedback","","html-keyboard-response","452","537592","0.0-1.0-618.0-0.0","0","0","59137","","null","","","null","68","","","","","","","","","","","","","","","",""
"","time_out","","html-keyboard-response","453","539601","0.0-1.0-620.0-0.0","0","0","59137","","null","","","null","68","","","","","","","","","","","","","","","",""
"","ITI","","html-keyboard-response","454","540607","0.0-1.0-621.0","0","0","59137","","null","","","null","68","","","","","","","","","","","","","","","NaN",""
"","S1","","html-keyboard-response","455","540861","0.0-1.0-623.0","0","0","59137","","null","","","null","69","","","","","","","","","","","","","","","",""
"","ISI","","html-keyboard-response","456","541870","0.0-1.0-624.0","0","0","59137","","null","","","null","69","NaN","","","","","","","","","","","","","","",""
"","S2","","html-keyboard-response","457","542129","0.0-1.0-625.0","0","0","59137","","null","","","null","69","","NaN","","","","","","","","","","","","","",""
"","response","","html-keyboard-response","458","542324","0.0-1.0-626.0-0.0","0","0","59137","","192","","","68","69","","","2","69","training","adjacent","DE","4","5","Q.jpg","P.jpg","0","1","0","",""
"","feedback","","html-keyboard-response","459","543334","0.0-1.0-627.0-0.0","0","0","59137","","null","","","null","69","","","","","","","","","","","","","","","",""
"","time_out","","html-keyboard-response","460","545343","0.0-1.0-629.0-0.0","0","0","59137","","null","","","null","69","","","","","","","","","","","","","","","",""
"","ITI","","html-keyboard-response","461","546349","0.0-1.0-630.0","0","0","59137","","null","","","null","69","","","","","","","","","","","","","","","NaN",""
"","S1","","html-keyboard-response","462","546605","0.0-1.0-632.0","0","0","59137","","null","","","null","70","","","","","","","","","","","","","","","",""
"","ISI","","html-keyboard-response","463","547613","0.0-1.0-633.0","0","0","59137","","null","","","null","70","NaN","","","","","","","","","","","","","","",""
"","S2","","html-keyboard-response","464","547872","0.0-1.0-634.0","0","0","59137","","null","","","null","70","","NaN","","","","","","","","","","","","","",""
"","response","","html-keyboard-response","465","548306","0.0-1.0-635.0-0.0","0","0","59137","","432","","","68","70","","","2","70","training","adjacent","FE","6","5","N.jpg","P.jpg","0","0","1","",""
"","feedback","","html-keyboard-response","466","549315","0.0-1.0-636.0-0.0","0","0","59137","","null","","","null","70","","","","","","","","","","","","","","","",""
"","ITI","","html-keyboard-response","467","550325","0.0-1.0-639.0","0","0","59137","","null","","","null","70","","","","","","","","","","","","","","","NaN",""
"","S1","","html-keyboard-response","468","550584","0.0-1.0-641.0","0","0","59137","","null","","","null","71","","","","","","","","","","","","","","","",""
"","ISI","","html-keyboard-response","469","551593","0.0-1.0-642.0","0","0","59137","","null","","","null","71","NaN","","","","","","","","","","","","","","",""
"","S2","","html-keyboard-response","470","551852","0.0-1.0-643.0","0","0","59137","","null","","","null","71","","NaN","","","","","","","","","","","","","",""
"","response","","html-keyboard-response","471","552471","0.0-1.0-644.0-0.0","0","0","59137","","616","","","68","71","","","2","71","training","adjacent","GF","7","6","L.jpg","N.jpg","0","0","1","",""
"","feedback","","html-keyboard-response","472","553481","0.0-1.0-645.0-0.0","0","0","59137","","null","","","null","71","","","","","","","","","","","","","","","",""
"","ITI","","html-keyboard-response","473","554487","0.0-1.0-648.0","0","0","59137","","null","","","null","71","","","","","","","","","","","","","","","NaN",""
"","S1","","html-keyboard-response","474","554746","0.0-1.0-650.0","0","0","59137","","null","","","null","72","","","","","","","","","","","","","","","",""
"","ISI","","html-keyboard-response","475","555755","0.0-1.0-651.0","0","0","59137","","null","","","null","72","NaN","","","","","","","","","","","","","","",""
"","S2","","html-keyboard-response","476","556013","0.0-1.0-652.0","0","0","59137","","null","","","null","72","","NaN","","","","","","","","","","","","","",""
"","response","","html-keyboard-response","477","556366","0.0-1.0-653.0-0.0","0","0","59137","","348","","","75","72","","","2","72","training","adjacent","BA","2","1","O.jpg","M.jpg","1","0","0","",""
"","feedback","","html-keyboard-response","478","557374","0.0-1.0-654.0-0.0","0","0","59137","","null","","","null","72","","","","","","","","","","","","","","","",""
"","time_out","","html-keyboard-response","479","559384","0.0-1.0-656.0-0.0","0","0","59137","","null","","","null","72","","","","","","","","","","","","","","","",""
"","ITI","","html-keyboard-response","480","560391","0.0-1.0-657.0","0","0","59137","","null","","","null","72","","","","","","","","","","","","","","","NaN",""
"","S1","","html-keyboard-response","481","560650","0.0-1.0-659.0","0","0","59137","","null","","","null","73","","","","","","","","","","","","","","","",""
"","ISI","","html-keyboard-response","482","561659","0.0-1.0-660.0","0","0","59137","","null","","","null","73","NaN","","","","","","","","","","","","","","",""
"","S2","","html-keyboard-response","483","561917","0.0-1.0-661.0","0","0","59137","","null","","","null","73","","NaN","","","","","","","","","","","","","",""
"","response","","html-keyboard-response","484","562597","0.0-1.0-662.0-0.0","0","0","59137","","677","","","75","73","","","2","73","training","adjacent","FG","6","7","N.jpg","L.jpg","1","1","1","",""
"","feedback","","html-keyboard-response","485","563606","0.0-1.0-663.0-0.0","0","0","59137","","null","","","null","73","","","","","","","","","","","","","","","",""
"","ITI","","html-keyboard-response","486","564616","0.0-1.0-666.0","0","0","59137","","null","","","null","73","","","","","","","","","","","","","","","NaN",""
"","S1","","html-keyboard-response","487","564874","0.0-1.0-668.0","0","0","59137","","null","","","null","74","","","","","","","","","","","","","","","",""
"","ISI","","html-keyboard-response","488","565883","0.0-1.0-669.0","0","0","59137","","null","","","null","74","NaN","","","","","","","","","","","","","","",""
"","S2","","html-keyboard-response","489","566142","0.0-1.0-670.0","0","0","59137","","null","","","null","74","","NaN","","","","","","","","","","","","","",""
"","response","","html-keyboard-response","490","566342","0.0-1.0-671.0-0.0","0","0","59137","","195","","","68","74","","","2","74","training","adjacent","FG","6","7","N.jpg","L.jpg","0","1","0","",""
"","feedback","","html-keyboard-response","491","567346","0.0-1.0-672.0-0.0","0","0","59137","","null","","","null","74","","","","","","","","","","","","","","","",""
"","time_out","","html-keyboard-response","492","569355","0.0-1.0-674.0-0.0","0","0","59137","","null","","","null","74","","","","","","","","","","","","","","","",""
"","ITI","","html-keyboard-response","493","570362","0.0-1.0-675.0","0","0","59137","","null","","","null","74","","","","","","","","","","","","","","","NaN",""
"","S1","","html-keyboard-response","494","570621","0.0-1.0-677.0","0","0","59137","","null","","","null","75","","","","","","","","","","","","","","","",""
"","ISI","","html-keyboard-response","495","571630","0.0-1.0-678.0","0","0","59137","","null","","","null","75","NaN","","","","","","","","","","","","","","",""
"","S2","","html-keyboard-response","496","571888","0.0-1.0-679.0","0","0","59137","","null","","","null","75","","NaN","","","","","","","","","","","","","",""
"","response","","html-keyboard-response","497","572326","0.0-1.0-680.0-0.0","0","0","59137","","434","","","68","75","","","2","75","training","adjacent","DE","4","5","Q.jpg","P.jpg","0","1","0","",""
"","feedback","","html-keyboard-response","498","573336","0.0-1.0-681.0-0.0","0","0","59137","","null","","","null","75","","","","","","","","","","","","","","","",""
"","time_out","","html-keyboard-response","499","575345","0.0-1.0-683.0-0.0","0","0","59137","","null","","","null","75","","","","","","","","","","","","","","","",""
"","ITI","","html-keyboard-response","500","576352","0.0-1.0-684.0","0","0","59137","","null","","","null","75","","","","","","","","","","","","","","","NaN",""
"","S1","","html-keyboard-response","501","576612","0.0-1.0-686.0","0","0","59137","","null","","","null","76","","","","","","","","","","","","","","","",""
"","ISI","","html-keyboard-response","502","577620","0.0-1.0-687.0","0","0","59137","","null","","","null","76","NaN","","","","","","","","","","","","","","",""
"","S2","","html-keyboard-response","503","577879","0.0-1.0-688.0","0","0","59137","","null","","","null","76","","NaN","","","","","","","","","","","","","",""
"","response","","html-keyboard-response","504","578302","0.0-1.0-689.0-0.0","0","0","59137","","420","","","75","76","","","2","76","training","adjacent","BC","2","3","O.jpg","R.jpg","1","1","1","",""
"","feedback","","html-keyboard-response","505","579312","0.0-1.0-690.0-0.0","0","0","59137","","null","","","null","76","","","","","","","","","","","","","","","",""
"","ITI","","html-keyboard-response","506","580320","0.0-1.0-693.0","0","0","59137","","null","","","null","76","","","","","","","","","","","","","","","NaN",""
"","S1","","html-keyboard-response","507","580579","0.0-1.0-695.0","0","0","59137","","null","","","null","77","","","","","","","","","","","","","","","",""
"","ISI","","html-keyboard-response","508","581587","0.0-1.0-696.0","0","0","59137","","null","","","null","77","NaN","","","","","","","","","","","","","","",""
"","S2","","html-keyboard-response","509","581846","0.0-1.0-697.0","0","0","59137","","null","","","null","77","","NaN","","","","","","","","","","","","","",""
"","response","","html-keyboard-response","510","582194","0.0-1.0-698.0-0.0","0","0","59137","","343","","","68","77","","","2","77","training","adjacent","EF","5","6","P.jpg","N.jpg","0","1","0","",""
"","feedback","","html-keyboard-response","511","583203","0.0-1.0-699.0-0.0","0","0","59137","","null","","","null","77","","","","","","","","","","","","","","","",""
"","time_out","","html-keyboard-response","512","585212","0.0-1.0-701.0-0.0","0","0","59137","","null","","","null","77","","","","","","","","","","","","","","","",""
"","ITI","","html-keyboard-response","513","586218","0.0-1.0-702.0","0","0","59137","","null","","","null","77","","","","","","","","","","","","","","","NaN",""
"","S1","","html-keyboard-response","514","586477","0.0-1.0-704.0","0","0","59137","","null","","","null","78","","","","","","","","","","","","","","","",""
"","ISI","","html-keyboard-response","515","587485","0.0-1.0-705.0","0","0","59137","","null","","","null","78","NaN","","","","","","","","","","","","","","",""
"","S2","","html-keyboard-response","516","587744","0.0-1.0-706.0","0","0","59137","","null","","","null","78","","NaN","","","","","","","","","","","","","",""
"","response","","html-keyboard-response","517","587974","0.0-1.0-707.0-0.0","0","0","59137","","225","","","75","78","","","2","78","training","adjacent","CD","3","4","R.jpg","Q.jpg","1","1","1","",""
"","feedback","","html-keyboard-response","518","588983","0.0-1.0-708.0-0.0","0","0","59137","","null","","","null","78","","","","","","","","","","","","","","","",""
"","ITI","","html-keyboard-response","519","589992","0.0-1.0-711.0","0","0","59137","","null","","","null","78","","","","","","","","","","","","","","","NaN",""
"","S1","","html-keyboard-response","520","590251","0.0-1.0-713.0","0","0","59137","","null","","","null","79","","","","","","","","","","","","","","","",""
"","ISI","","html-keyboard-response","521","591260","0.0-1.0-714.0","0","0","59137","","null","","","null","79","NaN","","","","","","","","","","","","","","",""
"","S2","","html-keyboard-response","522","591519","0.0-1.0-715.0","0","0","59137","","null","","","null","79","","NaN","","","","","","","","","","","","","",""
"","response","","html-keyboard-response","523","591953","0.0-1.0-716.0-0.0","0","0","59137","","430","","","68","79","","","2","79","training","adjacent","AB","1","2","M.jpg","O.jpg","0","1","0","",""
"","feedback","","html-keyboard-response","524","592958","0.0-1.0-717.0-0.0","0","0","59137","","null","","","null","79","","","","","","","","","","","","","","","",""
"","time_out","","html-keyboard-response","525","594966","0.0-1.0-719.0-0.0","0","0","59137","","null","","","null","79","","","","","","","","","","","","","","","",""
"","ITI","","html-keyboard-response","526","595975","0.0-1.0-720.0","0","0","59137","","null","","","null","79","","","","","","","","","","","","","","","NaN",""
"","S1","","html-keyboard-response","527","596234","0.0-1.0-722.0","0","0","59137","","null","","","null","80","","","","","","","","","","","","","","","",""
"","ISI","","html-keyboard-response","528","597242","0.0-1.0-723.0","0","0","59137","","null","","","null","80","NaN","","","","","","","","","","","","","","",""
"","S2","","html-keyboard-response","529","597501","0.0-1.0-724.0","0","0","59137","","null","","","null","80","","NaN","","","","","","","","","","","","","",""
"","response","","html-keyboard-response","530","598056","0.0-1.0-725.0-0.0","0","0","59137","","551","","","68","80","","","2","80","training","adjacent","CD","3","4","R.jpg","Q.jpg","0","1","0","",""
"","feedback","","html-keyboard-response","531","599063","0.0-1.0-726.0-0.0","0","0","59137","","null","","","null","80","","","","","","","","","","","","","","","",""
"","time_out","","html-keyboard-response","532","601072","0.0-1.0-728.0-0.0","0","0","59137","","null","","","null","80","","","","","","","","","","","","","","","",""
"","ITI","","html-keyboard-response","533","602079","0.0-1.0-729.0","0","0","59137","","null","","","null","80","","","","","","","","","","","","","","","NaN",""
"","S1","","html-keyboard-response","534","602339","0.0-1.0-731.0","0","0","59137","","null","","","null","81","","","","","","","","","","","","","","","",""
"","ISI","","html-keyboard-response","535","603347","0.0-1.0-732.0","0","0","59137","","null","","","null","81","NaN","","","","","","","","","","","","","","",""
"","S2","","html-keyboard-response","536","603606","0.0-1.0-733.0","0","0","59137","","null","","","null","81","","NaN","","","","","","","","","","","","","",""
"","response","","html-keyboard-response","537","603911","0.0-1.0-734.0-0.0","0","0","59137","","300","","","68","81","","","2","81","training","adjacent","DC","4","3","Q.jpg","R.jpg","0","0","1","",""
"","feedback","","html-keyboard-response","538","604916","0.0-1.0-735.0-0.0","0","0","59137","","null","","","null","81","","","","","","","","","","","","","","","",""
"","ITI","","html-keyboard-response","539","605924","0.0-1.0-738.0","0","0","59137","","null","","","null","81","","","","","","","","","","","","","","","NaN",""
"","S1","","html-keyboard-response","540","606183","0.0-1.0-740.0","0","0","59137","","null","","","null","82","","","","","","","","","","","","","","","",""
"","ISI","","html-keyboard-response","541","607192","0.0-1.0-741.0","0","0","59137","","null","","","null","82","NaN","","","","","","","","","","","","","","",""
"","S2","","html-keyboard-response","542","607451","0.0-1.0-742.0","0","0","59137","","null","","","null","82","","NaN","","","","","","","","","","","","","",""
"","response","","html-keyboard-response","543","607784","0.0-1.0-743.0-0.0","0","0","59137","","329","","","68","82","","","2","82","training","adjacent","AB","1","2","M.jpg","O.jpg","0","1","0","",""
"","feedback","","html-keyboard-response","544","608787","0.0-1.0-744.0-0.0","0","0","59137","","null","","","null","82","","","","","","","","","","","","","","","",""
"","time_out","","html-keyboard-response","545","610797","0.0-1.0-746.0-0.0","0","0","59137","","null","","","null","82","","","","","","","","","","","","","","","",""
"","ITI","","html-keyboard-response","546","611803","0.0-1.0-747.0","0","0","59137","","null","","","null","82","","","","","","","","","","","","","","","NaN",""
"","S1","","html-keyboard-response","547","612062","0.0-1.0-749.0","0","0","59137","","null","","","null","83","","","","","","","","","","","","","","","",""
"","ISI","","html-keyboard-response","548","613071","0.0-1.0-750.0","0","0","59137","","null","","","null","83","NaN","","","","","","","","","","","","","","",""
"","S2","","html-keyboard-response","549","613330","0.0-1.0-751.0","0","0","59137","","null","","","null","83","","NaN","","","","","","","","","","","","","",""
"","response","","html-keyboard-response","550","614074","0.0-1.0-752.0-0.0","0","0","59137","","739","","","68","83","","","2","83","training","adjacent","BA","2","1","O.jpg","M.jpg","0","0","1","",""
"","feedback","","html-keyboard-response","551","615079","0.0-1.0-753.0-0.0","0","0","59137","","null","","","null","83","","","","","","","","","","","","","","","",""
"","ITI","","html-keyboard-response","552","616087","0.0-1.0-756.0","0","0","59137","","null","","","null","83","","","","","","","","","","","","","","","NaN",""
"","S1","","html-keyboard-response","553","616345","0.0-1.0-758.0","0","0","59137","","null","","","null","84","","","","","","","","","","","","","","","",""
"","ISI","","html-keyboard-response","554","617354","0.0-1.0-759.0","0","0","59137","","null","","","null","84","NaN","","","","","","","","","","","","","","",""
"","S2","","html-keyboard-response","555","617613","0.0-1.0-760.0","0","0","59137","","null","","","null","84","","NaN","","","","","","","","","","","","","",""
"","response","","html-keyboard-response","556","618180","0.0-1.0-761.0-0.0","0","0","59137","","563","","","75","84","","","2","84","training","adjacent","GF","7","6","L.jpg","N.jpg","1","0","0","",""
"","feedback","","html-keyboard-response","557","619186","0.0-1.0-762.0-0.0","0","0","59137","","null","","","null","84","","","","","","","","","","","","","","","",""
"","time_out","","html-keyboard-response","558","621192","0.0-1.0-764.0-0.0","0","0","59137","","null","","","null","84","","","","","","","","","","","","","","","",""
"","ITI","","html-keyboard-response","559","622198","0.0-1.0-765.0","0","0","59137","","null","","","null","84","","","","","","","","","","","","","","","NaN",""
"","S1","","html-keyboard-response","560","622457","0.0-1.0-767.0","0","0","59137","","null","","","null","85","","","","","","","","","","","","","","","",""
"","ISI","","html-keyboard-response","561","623465","0.0-1.0-768.0","0","0","59137","","null","","","null","85","NaN","","","","","","","","","","","","","","",""
"","S2","","html-keyboard-response","562","623725","0.0-1.0-769.0","0","0","59137","","null","","","null","85","","NaN","","","","","","","","","","","","","",""
"","response","","html-keyboard-response","563","624101","0.0-1.0-770.0-0.0","0","0","59137","","370","","","68","85","","","2","85","training","adjacent","BA","2","1","O.jpg","M.jpg","0","0","1","",""
"","feedback","","html-keyboard-response","564","625109","0.0-1.0-771.0-0.0","0","0","59137","","null","","","null","85","","","","","","","","","","","","","","","",""
"","ITI","","html-keyboard-response","565","626118","0.0-1.0-774.0","0","0","59137","","null","","","null","85","","","","","","","","","","","","","","","NaN",""
"","S1","","html-keyboard-response","566","626377","0.0-1.0-776.0","0","0","59137","","null","","","null","86","","","","","","","","","","","","","","","",""
"","ISI","","html-keyboard-response","567","627387","0.0-1.0-777.0","0","0","59137","","null","","","null","86","NaN","","","","","","","","","","","","","","",""
"","S2","","html-keyboard-response","568","627645","0.0-1.0-778.0","0","0","59137","","null","","","null","86","","NaN","","","","","","","","","","","","","",""
"","response","","html-keyboard-response","569","628022","0.0-1.0-779.0-0.0","0","0","59137","","372","","","68","86","","","2","86","training","adjacent","DC","4","3","Q.jpg","R.jpg","0","0","1","",""
"","feedback","","html-keyboard-response","570","629031","0.0-1.0-780.0-0.0","0","0","59137","","null","","","null","86","","","","","","","","","","","","","","","",""
"","ITI","","html-keyboard-response","571","630039","0.0-1.0-783.0","0","0","59137","","null","","","null","86","","","","","","","","","","","","","","","NaN",""
"","S1","","html-keyboard-response","572","630298","0.0-1.0-785.0","0","0","59137","","null","","","null","87","","","","","","","","","","","","","","","",""
"","ISI","","html-keyboard-response","573","631306","0.0-1.0-786.0","0","0","59137","","null","","","null","87","NaN","","","","","","","","","","","","","","",""
"","S2","","html-keyboard-response","574","631565","0.0-1.0-787.0","0","0","59137","","null","","","null","87","","NaN","","","","","","","","","","","","","",""
"","response","","html-keyboard-response","575","631976","0.0-1.0-788.0-0.0","0","0","59137","","407","","","68","87","","","2","87","training","adjacent","GF","7","6","L.jpg","N.jpg","0","0","1","",""
"","feedback","","html-keyboard-response","576","632985","0.0-1.0-789.0-0.0","0","0","59137","","null","","","null","87","","","","","","","","","","","","","","","",""
"","ITI","","html-keyboard-response","577","633994","0.0-1.0-792.0","0","0","59137","","null","","","null","87","","","","","","","","","","","","","","","NaN",""
"","S1","","html-keyboard-response","578","634253","0.0-1.0-794.0","0","0","59137","","null","","","null","88","","","","","","","","","","","","","","","",""
"","ISI","","html-keyboard-response","579","635262","0.0-1.0-795.0","0","0","59137","","null","","","null","88","NaN","","","","","","","","","","","","","","",""
"","S2","","html-keyboard-response","580","635520","0.0-1.0-796.0","0","0","59137","","null","","","null","88","","NaN","","","","","","","","","","","","","",""
"","response","","html-keyboard-response","581","636152","0.0-1.0-797.0-0.0","0","0","59137","","628","","","68","88","","","2","88","training","adjacent","ED","5","4","P.jpg","Q.jpg","0","0","1","",""
"","feedback","","html-keyboard-response","582","637157","0.0-1.0-798.0-0.0","0","0","59137","","null","","","null","88","","","","","","","","","","","","","","","",""
