"success","ttype","start_time","trial_type","trial_index","time_elapsed","internal_node_id","warning","missed_checkup","PID","view_history","rt","responses","repeat_instructions","key_press","index","keypress_isi","keypress_S2","block","trial_num","phase","group_type","pair_type","S1_stim","S2_stim","S1_img","S2_img","S1_chosen","S1_higher","accuracy","keypress_iti","total_bonus_tally"
"true","full_screen","d03072023hr2120","fullscreen","0","26526","0.0-0.0","0","0","47695","","","","","","","","","","","","","","","","","","","","","",""
"","instructions","","instructions","1","62390","0.0-1.0-0.0-0.0","0","0","47695","[{""page_index"":0,""viewing_time"":6627},{""page_index"":1,""viewing_time"":16392},{""page_index"":2,""viewing_time"":8276},{""page_index"":3,""viewing_time"":4564}]","35861","","","","","","","","","","","","","","","","","","","",""
"","comprehension_check","","survey-multi-choice","2","79840","0.0-1.0-0.0-1.0","0","0","47695","","17437","{""Q0"":""True"",""Q1"":""K"",""Q2"":""Once the second image appears and while the screen 'MAKE A CHOICE' is shown"",""Q3"":""Green mark"",""Q4"":""either D or K""}","0","","","","","","","","","","","","","","","","","",""
"","start_exp","","html-keyboard-response","3","81238","0.0-1.0-1.0","0","0","47695","","1388","","","32","","","","","","","","","","","","","","","","",""
"","S1","","html-keyboard-response","4","81494","0.0-1.0-2.0","0","0","47695","","null","","","null","0","","","","","","","","","","","","","","","",""
"","ISI","","html-keyboard-response","5","82504","0.0-1.0-3.0","0","0","47695","","null","","","null","0","NaN","","","","","","","","","","","","","","",""
"","S2","","html-keyboard-response","6","82766","0.0-1.0-4.0","0","0","47695","","null","","","null","0","","NaN","","","","","","","","","","","","","",""
"","response","","html-keyboard-response","7","83272","0.0-1.0-5.0-0.0","0","0","47695","","502","","","75","0","","","1","0","training","adjacent","FE","6","5","R.jpg","N.jpg","1","0","0","",""
"","feedback","","html-keyboard-response","8","84280","0.0-1.0-6.0-0.0","0","0","47695","","null","","","null","0","","","","","","","","","","","","","","","",""
"","time_out","","html-keyboard-response","9","86288","0.0-1.0-8.0-0.0","0","0","47695","","null","","","null","0","","","","","","","","","","","","","","","",""
"","ITI","","html-keyboard-response","10","87297","0.0-1.0-9.0","0","0","47695","","null","","","null","0","","","","","","","","","","","","","","","NaN",""
"","S1","","html-keyboard-response","11","87561","0.0-1.0-11.0","0","0","47695","","null","","","null","1","","","","","","","","","","","","","","","",""
"","ISI","","html-keyboard-response","12","88568","0.0-1.0-12.0","0","0","47695","","null","","","null","1","NaN","","","","","","","","","","","","","","",""
"","S2","","html-keyboard-response","13","88824","0.0-1.0-13.0","0","0","47695","","null","","","null","1","","NaN","","","","","","","","","","","","","",""
"","response","","html-keyboard-response","14","89420","0.0-1.0-14.0-0.0","0","0","47695","","592","","","68","1","","","1","1","training","adjacent","AB","1","2","M.jpg","L.jpg","0","1","0","",""
"","feedback","","html-keyboard-response","15","90432","0.0-1.0-15.0-0.0","0","0","47695","","null","","","null","1","","","","","","","","","","","","","","","",""
"","time_out","","html-keyboard-response","16","92440","0.0-1.0-17.0-0.0","0","0","47695","","null","","","null","1","","","","","","","","","","","","","","","",""
"","ITI","","html-keyboard-response","17","93448","0.0-1.0-18.0","0","0","47695","","null","","","null","1","","","","","","","","","","","","","","","NaN",""
"","S1","","html-keyboard-response","18","93703","0.0-1.0-20.0","0","0","47695","","null","","","null","2","","","","","","","","","","","","","","","",""
"","ISI","","html-keyboard-response","19","94710","0.0-1.0-21.0","0","0","47695","","null","","","null","2","NaN","","","","","","","","","","","","","","",""
"","S2","","html-keyboard-response","20","94968","0.0-1.0-22.0","0","0","47695","","null","","","null","2","","NaN","","","","","","","","","","","","","",""
"","response","","html-keyboard-response","21","95187","0.0-1.0-23.0-0.0","0","0","47695","","214","","","75","2","","","1","2","training","adjacent","ED","5","4","N.jpg","O.jpg","1","0","0","",""
"","feedback","","html-keyboard-response","22","96200","0.0-1.0-24.0-0.0","0","0","47695","","null","","","null","2","","","","","","","","","","","","","","","",""
"","time_out","","html-keyboard-response","23","98208","0.0-1.0-26.0-0.0","0","0","47695","","null","","","null","2","","","","","","","","","","","","","","","",""
"","ITI","","html-keyboard-response","24","99215","0.0-1.0-27.0","0","0","47695","","null","","","null","2","","","","","","","","","","","","","","","NaN",""
"","S1","","html-keyboard-response","25","99472","0.0-1.0-29.0","0","0","47695","","null","","","null","3","","","","","","","","","","","","","","","",""
"","ISI","","html-keyboard-response","26","100478","0.0-1.0-30.0","0","0","47695","","null","","","null","3","NaN","","","","","","","","","","","","","","",""
"","S2","","html-keyboard-response","27","100735","0.0-1.0-31.0","0","0","47695","","null","","","null","3","","NaN","","","","","","","","","","","","","",""
"","response","","html-keyboard-response","28","101302","0.0-1.0-32.0-0.0","0","0","47695","","562","","","75","3","","","1","3","training","adjacent","AB","1","2","M.jpg","L.jpg","1","1","1","",""
"","feedback","","html-keyboard-response","29","102312","0.0-1.0-33.0-0.0","0","0","47695","","null","","","null","3","","","","","","","","","","","","","","","",""
"","ITI","","html-keyboard-response","30","103319","0.0-1.0-36.0","0","0","47695","","null","","","null","3","","","","","","","","","","","","","","","NaN",""
"","S1","","html-keyboard-response","31","103576","0.0-1.0-38.0","0","0","47695","","null","","","null","4","","","","","","","","","","","","","","","",""
"","ISI","","html-keyboard-response","32","104582","0.0-1.0-39.0","0","0","47695","","null","","","null","4","NaN","","","","","","","","","","","","","","",""
"","S2","","html-keyboard-response","33","104840","0.0-1.0-40.0","0","0","47695","","null","","","null","4","","NaN","","","","","","","","","","","","","",""
"","response","","html-keyboard-response","34","105775","0.0-1.0-41.0-0.0","0","0","47695","","931","","","68","4","","","1","4","training","adjacent","DE","4","5","O.jpg","N.jpg","0","1","0","",""
"","feedback","","html-keyboard-response","35","106782","0.0-1.0-42.0-0.0","0","0","47695","","null","","","null","4","","","","","","","","","","","","","","","",""
"","time_out","","html-keyboard-response","36","108792","0.0-1.0-44.0-0.0","0","0","47695","","null","","","null","4","","","","","","","","","","","","","","","",""
"","ITI","","html-keyboard-response","37","109800","0.0-1.0-45.0","0","0","47695","","null","","","null","4","","","","","","","","","","","","","","","NaN",""
"","S1","","html-keyboard-response","38","110056","0.0-1.0-47.0","0","0","47695","","null","","","null","5","","","","","","","","","","","","","","","",""
"","ISI","","html-keyboard-response","39","111064","0.0-1.0-48.0","0","0","47695","","null","","","null","5","NaN","","","","","","","","","","","","","","",""
"","S2","","html-keyboard-response","40","111320","0.0-1.0-49.0","0","0","47695","","null","","","null","5","","NaN","","","","","","","","","","","","","",""
"","response","","html-keyboard-response","41","111671","0.0-1.0-50.0-0.0","0","0","47695","","347","","","68","5","","","1","5","training","adjacent","EF","5","6","N.jpg","R.jpg","0","1","0","",""
"","feedback","","html-keyboard-response","42","112680","0.0-1.0-51.0-0.0","0","0","47695","","null","","","null","5","","","","","","","","","","","","","","","",""
"","time_out","","html-keyboard-response","43","114686","0.0-1.0-53.0-0.0","0","0","47695","","null","","","null","5","","","","","","","","","","","","","","","",""
"","ITI","","html-keyboard-response","44","115696","0.0-1.0-54.0","0","0","47695","","null","","","null","5","","","","","","","","","","","","","","","NaN",""
"","S1","","html-keyboard-response","45","115952","0.0-1.0-56.0","0","0","47695","","null","","","null","6","","","","","","","","","","","","","","","",""
"","ISI","","html-keyboard-response","46","116958","0.0-1.0-57.0","0","0","47695","","null","","","null","6","NaN","","","","","","","","","","","","","","",""
"","S2","","html-keyboard-response","47","117216","0.0-1.0-58.0","0","0","47695","","null","","","null","6","","NaN","","","","","","","","","","","","","",""
"","response","","html-keyboard-response","48","117489","0.0-1.0-59.0-0.0","0","0","47695","","269","","","75","6","","","1","6","training","adjacent","EF","5","6","N.jpg","R.jpg","1","1","1","",""
"","feedback","","html-keyboard-response","49","118497","0.0-1.0-60.0-0.0","0","0","47695","","null","","","null","6","","","","","","","","","","","","","","","",""
"","ITI","","html-keyboard-response","50","119504","0.0-1.0-63.0","0","0","47695","","null","","","null","6","","","","","","","","","","","","","","","NaN",""
"","S1","","html-keyboard-response","51","119760","0.0-1.0-65.0","0","0","47695","","null","","","null","7","","","","","","","","","","","","","","","",""
"","ISI","","html-keyboard-response","52","120768","0.0-1.0-66.0","0","0","47695","","null","","","null","7","NaN","","","","","","","","","","","","","","",""
"","S2","","html-keyboard-response","53","121022","0.0-1.0-67.0","0","0","47695","","null","","","null","7","","NaN","","","","","","","","","","","","","",""
"","response","","html-keyboard-response","54","121530","0.0-1.0-68.0-0.0","0","0","47695","","505","","","75","7","","","1","7","training","adjacent","EF","5","6","N.jpg","R.jpg","1","1","1","",""
"","feedback","","html-keyboard-response","55","122543","0.0-1.0-69.0-0.0","0","0","47695","","null","","","null","7","","","","","","","","","","","","","","","",""
"","ITI","","html-keyboard-response","56","123550","0.0-1.0-72.0","0","0","47695","","null","","","null","7","","","","","","","","","","","","","","","NaN",""
"","S1","","html-keyboard-response","57","123806","0.0-1.0-74.0","0","0","47695","","null","","","null","8","","","","","","","","","","","","","","","",""
"","ISI","","html-keyboard-response","58","124814","0.0-1.0-75.0","0","0","47695","","null","","","null","8","NaN","","","","","","","","","","","","","","",""
"","S2","","html-keyboard-response","59","125071","0.0-1.0-76.0","0","0","47695","","null","","","null","8","","NaN","","","","","","","","","","","","","",""
"","response","","html-keyboard-response","60","125452","0.0-1.0-77.0-0.0","0","0","47695","","377","","","75","8","","","1","8","training","adjacent","ED","5","4","N.jpg","O.jpg","1","0","0","",""
"","feedback","","html-keyboard-response","61","126464","0.0-1.0-78.0-0.0","0","0","47695","","null","","","null","8","","","","","","","","","","","","","","","",""
"","time_out","","html-keyboard-response","62","128470","0.0-1.0-80.0-0.0","0","0","47695","","null","","","null","8","","","","","","","","","","","","","","","",""
"","ITI","","html-keyboard-response","63","129479","0.0-1.0-81.0","0","0","47695","","null","","","null","8","","","","","","","","","","","","","","","NaN",""
"","S1","","html-keyboard-response","64","129736","0.0-1.0-83.0","0","0","47695","","null","","","null","9","","","","","","","","","","","","","","","",""
"","ISI","","html-keyboard-response","65","130742","0.0-1.0-84.0","0","0","47695","","null","","","null","9","NaN","","","","","","","","","","","","","","",""
"","S2","","html-keyboard-response","66","130999","0.0-1.0-85.0","0","0","47695","","null","","","null","9","","NaN","","","","","","","","","","","","","",""
"","response","","html-keyboard-response","67","131306","0.0-1.0-86.0-0.0","0","0","47695","","300","","","68","9","","","1","9","training","adjacent","FG","6","7","R.jpg","Q.jpg","0","1","0","",""
"","feedback","","html-keyboard-response","68","132312","0.0-1.0-87.0-0.0","0","0","47695","","null","","","null","9","","","","","","","","","","","","","","","",""
"","time_out","","html-keyboard-response","69","134320","0.0-1.0-89.0-0.0","0","0","47695","","null","","","null","9","","","","","","","","","","","","","","","",""
"","ITI","","html-keyboard-response","70","135327","0.0-1.0-90.0","0","0","47695","","null","","","null","9","","","","","","","","","","","","","","","NaN",""
"","S1","","html-keyboard-response","71","135583","0.0-1.0-92.0","0","0","47695","","null","","","null","10","","","","","","","","","","","","","","","",""
"","ISI","","html-keyboard-response","72","136592","0.0-1.0-93.0","0","0","47695","","null","","","null","10","NaN","","","","","","","","","","","","","","",""
"","S2","","html-keyboard-response","73","136848","0.0-1.0-94.0","0","0","47695","","null","","","null","10","","NaN","","","","","","","","","","","","","",""
"","response","","html-keyboard-response","74","137926","0.0-1.0-95.0-0.0","0","0","47695","","1073","","","68","10","","","1","10","training","adjacent","CB","3","2","P.jpg","L.jpg","0","0","1","",""
"","feedback","","html-keyboard-response","75","138936","0.0-1.0-96.0-0.0","0","0","47695","","null","","","null","10","","","","","","","","","","","","","","","",""
"","ITI","","html-keyboard-response","76","139944","0.0-1.0-99.0","0","0","47695","","null","","","null","10","","","","","","","","","","","","","","","NaN",""
"","S1","","html-keyboard-response","77","140208","0.0-1.0-101.0","0","0","47695","","null","","","null","11","","","","","","","","","","","","","","","",""
"","ISI","","html-keyboard-response","78","141216","0.0-1.0-102.0","0","0","47695","","null","","","null","11","NaN","","","","","","","","","","","","","","",""
"","S2","","html-keyboard-response","79","141478","0.0-1.0-103.0","0","0","47695","","null","","","null","11","","NaN","","","","","","","","","","","","","",""
"","response","","html-keyboard-response","80","143006","0.0-1.0-104.0-0.0","0","0","47695","","1524","","","68","11","","","1","11","training","adjacent","FE","6","5","R.jpg","N.jpg","0","0","1","",""
"","feedback","","html-keyboard-response","81","144016","0.0-1.0-105.0-0.0","0","0","47695","","null","","","null","11","","","","","","","","","","","","","","","",""
"","ITI","","html-keyboard-response","82","145024","0.0-1.0-108.0","0","0","47695","","null","","","null","11","","","","","","","","","","","","","","","NaN",""
"","S1","","html-keyboard-response","83","145288","0.0-1.0-110.0","0","0","47695","","null","","","null","12","","","","","","","","","","","","","","","",""
"","ISI","","html-keyboard-response","84","146298","0.0-1.0-111.0","0","0","47695","","null","","","null","12","NaN","","","","","","","","","","","","","","",""
"","S2","","html-keyboard-response","85","146560","0.0-1.0-112.0","0","0","47695","","null","","","null","12","","NaN","","","","","","","","","","","","","",""
"","response","","html-keyboard-response","86","147243","0.0-1.0-113.0-0.0","0","0","47695","","680","","","68","12","","","1","12","training","adjacent","DE","4","5","O.jpg","N.jpg","0","1","0","",""
"","feedback","","html-keyboard-response","87","148248","0.0-1.0-114.0-0.0","0","0","47695","","null","","","null","12","","","","","","","","","","","","","","","",""
"","time_out","","html-keyboard-response","88","150256","0.0-1.0-116.0-0.0","0","0","47695","","null","","","null","12","","","","","","","","","","","","","","","",""
"","ITI","","html-keyboard-response","89","151266","0.0-1.0-117.0","0","0","47695","","null","","","null","12","","","","","","","","","","","","","","","NaN",""
"","S1","","html-keyboard-response","90","151528","0.0-1.0-119.0","0","0","47695","","null","","","null","13","","","","","","","","","","","","","","","",""
"","ISI","","html-keyboard-response","91","152536","0.0-1.0-120.0","0","0","47695","","null","","","null","13","NaN","","","","","","","","","","","","","","",""
"","S2","","html-keyboard-response","92","152792","0.0-1.0-121.0","0","0","47695","","null","","","null","13","","NaN","","","","","","","","","","","","","",""
"","response","","html-keyboard-response","93","154098","0.0-1.0-122.0-0.0","0","0","47695","","1302","","","75","13","","","1","13","training","adjacent","BC","2","3","L.jpg","P.jpg","1","1","1","",""
"","feedback","","html-keyboard-response","94","155104","0.0-1.0-123.0-0.0","0","0","47695","","null","","","null","13","","","","","","","","","","","","","","","",""
"","ITI","","html-keyboard-response","95","156112","0.0-1.0-126.0","0","0","47695","","null","","","null","13","","","","","","","","","","","","","","","NaN",""
"","S1","","html-keyboard-response","96","156368","0.0-1.0-128.0","0","0","47695","","null","","","null","14","","","","","","","","","","","","","","","",""
"","ISI","","html-keyboard-response","97","157377","0.0-1.0-129.0","0","0","47695","","null","","","null","14","NaN","","","","","","","","","","","","","","",""
"","S2","","html-keyboard-response","98","157640","0.0-1.0-130.0","0","0","47695","","null","","","null","14","","NaN","","","","","","","","","","","","","",""
"","response","","html-keyboard-response","99","158245","0.0-1.0-131.0-0.0","0","0","47695","","599","","","68","14","","","1","14","training","adjacent","FE","6","5","R.jpg","N.jpg","0","0","1","",""
"","feedback","","html-keyboard-response","100","159256","0.0-1.0-132.0-0.0","0","0","47695","","null","","","null","14","","","","","","","","","","","","","","","",""
"","ITI","","html-keyboard-response","101","160264","0.0-1.0-135.0","0","0","47695","","null","","","null","14","","","","","","","","","","","","","","","NaN",""
"","S1","","html-keyboard-response","102","160518","0.0-1.0-137.0","0","0","47695","","null","","","null","15","","","","","","","","","","","","","","","",""
"","ISI","","html-keyboard-response","103","161528","0.0-1.0-138.0","0","0","47695","","null","","","null","15","NaN","","","","","","","","","","","","","","",""
"","S2","","html-keyboard-response","104","161792","0.0-1.0-139.0","0","0","47695","","null","","","null","15","","NaN","","","","","","","","","","","","","",""
"","response","","html-keyboard-response","105","162939","0.0-1.0-140.0-0.0","0","0","47695","","1143","","","75","15","","","1","15","training","adjacent","FG","6","7","R.jpg","Q.jpg","1","1","1","",""
"","feedback","","html-keyboard-response","106","163952","0.0-1.0-141.0-0.0","0","0","47695","","null","","","null","15","","","","","","","","","","","","","","","",""
"","ITI","","html-keyboard-response","107","164960","0.0-1.0-144.0","0","0","47695","","null","","","null","15","","","","","","","","","","","","","","","NaN",""
"","S1","","html-keyboard-response","108","165216","0.0-1.0-146.0","0","0","47695","","null","","","null","16","","","","","","","","","","","","","","","",""
"","ISI","","html-keyboard-response","109","166225","0.0-1.0-147.0","0","0","47695","","null","","","null","16","NaN","","","","","","","","","","","","","","",""
"","S2","","html-keyboard-response","110","166486","0.0-1.0-148.0","0","0","47695","","null","","","null","16","","NaN","","","","","","","","","","","","","",""
"","response","","html-keyboard-response","111","167034","0.0-1.0-149.0-0.0","0","0","47695","","544","","","68","16","","","1","16","training","adjacent","GF","7","6","Q.jpg","R.jpg","0","0","1","",""
"","feedback","","html-keyboard-response","112","168041","0.0-1.0-150.0-0.0","0","0","47695","","null","","","null","16","","","","","","","","","","","","","","","",""
"","ITI","","html-keyboard-response","113","169048","0.0-1.0-153.0","0","0","47695","","null","","","null","16","","","","","","","","","","","","","","","NaN",""
"","S1","","html-keyboard-response","114","169304","0.0-1.0-155.0","0","0","47695","","null","","","null","17","","","","","","","","","","","","","","","",""
"","ISI","","html-keyboard-response","115","170313","0.0-1.0-156.0","0","0","47695","","null","","","null","17","NaN","","","","","","","","","","","","","","",""
"","S2","","html-keyboard-response","116","170577","0.0-1.0-157.0","0","0","47695","","null","","","null","17","","NaN","","","","","","","","","","","","","",""
"","response","","html-keyboard-response","117","171513","0.0-1.0-158.0-0.0","0","0","47695","","932","","","75","17","","","1","17","training","adjacent","ED","5","4","N.jpg","O.jpg","1","0","0","",""
"","feedback","","html-keyboard-response","118","172518","0.0-1.0-159.0-0.0","0","0","47695","","null","","","null","17","","","","","","","","","","","","","","","",""
"","time_out","","html-keyboard-response","119","174528","0.0-1.0-161.0-0.0","0","0","47695","","null","","","null","17","","","","","","","","","","","","","","","",""
"","ITI","","html-keyboard-response","120","175536","0.0-1.0-162.0","0","0","47695","","null","","","null","17","","","","","","","","","","","","","","","NaN",""
"","S1","","html-keyboard-response","121","175792","0.0-1.0-164.0","0","0","47695","","null","","","null","18","","","","","","","","","","","","","","","",""
"","ISI","","html-keyboard-response","122","176800","0.0-1.0-165.0","0","0","47695","","null","","","null","18","NaN","","","","","","","","","","","","","","",""
"","S2","","html-keyboard-response","123","177056","0.0-1.0-166.0","0","0","47695","","null","","","null","18","","NaN","","","","","","","","","","","","","",""
"","response","","html-keyboard-response","124","178159","0.0-1.0-167.0-0.0","0","0","47695","","1098","","","68","18","","","1","18","training","adjacent","CD","3","4","P.jpg","O.jpg","0","1","0","",""
"","feedback","","html-keyboard-response","125","179168","0.0-1.0-168.0-0.0","0","0","47695","","null","","","null","18","","","","","","","","","","","","","","","",""
"","time_out","","html-keyboard-response","126","181176","0.0-1.0-170.0-0.0","0","0","47695","","null","","","null","18","","","","","","","","","","","","","","","",""
"","ITI","","html-keyboard-response","127","182184","0.0-1.0-171.0","0","0","47695","","null","","","null","18","","","","","","","","","","","","","","","NaN",""
"","S1","","html-keyboard-response","128","182440","0.0-1.0-173.0","0","0","47695","","null","","","null","19","","","","","","","","","","","","","","","",""
"","ISI","","html-keyboard-response","129","183448","0.0-1.0-174.0","0","0","47695","","null","","","null","19","NaN","","","","","","","","","","","","","","",""
"","S2","","html-keyboard-response","130","183704","0.0-1.0-175.0","0","0","47695","","null","","","null","19","","NaN","","","","","","","","","","","","","",""
"","response","","html-keyboard-response","131","184814","0.0-1.0-176.0-0.0","0","0","47695","","1104","","","68","19","","","1","19","training","adjacent","GF","7","6","Q.jpg","R.jpg","0","0","1","",""
"","feedback","","html-keyboard-response","132","185824","0.0-1.0-177.0-0.0","0","0","47695","","null","","","null","19","","","","","","","","","","","","","","","",""
"","ITI","","html-keyboard-response","133","186832","0.0-1.0-180.0","0","0","47695","","null","","","null","19","","","","","","","","","","","","","","","NaN",""
"","S1","","html-keyboard-response","134","187096","0.0-1.0-182.0","0","0","47695","","null","","","null","20","","","","","","","","","","","","","","","",""
"","ISI","","html-keyboard-response","135","188104","0.0-1.0-183.0","0","0","47695","","null","","","null","20","NaN","","","","","","","","","","","","","","",""
"","S2","","html-keyboard-response","136","188360","0.0-1.0-184.0","0","0","47695","","null","","","null","20","","NaN","","","","","","","","","","","","","",""
"","response","","html-keyboard-response","137","189535","0.0-1.0-185.0-0.0","0","0","47695","","1169","","","68","20","","","1","20","training","adjacent","GF","7","6","Q.jpg","R.jpg","0","0","1","",""
"","feedback","","html-keyboard-response","138","190544","0.0-1.0-186.0-0.0","0","0","47695","","null","","","null","20","","","","","","","","","","","","","","","",""
"","ITI","","html-keyboard-response","139","191552","0.0-1.0-189.0","0","0","47695","","null","","","null","20","","","","","","","","","","","","","","","NaN",""
"","S1","","html-keyboard-response","140","191808","0.0-1.0-191.0","0","0","47695","","null","","","null","21","","","","","","","","","","","","","","","",""
"","ISI","","html-keyboard-response","141","192814","0.0-1.0-192.0","0","0","47695","","null","","","null","21","NaN","","","","","","","","","","","","","","",""
"","S2","","html-keyboard-response","142","193072","0.0-1.0-193.0","0","0","47695","","null","","","null","21","","NaN","","","","","","","","","","","","","",""
"","response","","html-keyboard-response","143","193473","0.0-1.0-194.0-0.0","0","0","47695","","397","","","75","21","","","1","21","training","adjacent","FG","6","7","R.jpg","Q.jpg","1","1","1","",""
"","feedback","","html-keyboard-response","144","194479","0.0-1.0-195.0-0.0","0","0","47695","","null","","","null","21","","","","","","","","","","","","","","","",""
"","ITI","","html-keyboard-response","145","195488","0.0-1.0-198.0","0","0","47695","","null","","","null","21","","","","","","","","","","","","","","","NaN",""
"","S1","","html-keyboard-response","146","195744","0.0-1.0-200.0","0","0","47695","","null","","","null","22","","","","","","","","","","","","","","","",""
"","ISI","","html-keyboard-response","147","196752","0.0-1.0-201.0","0","0","47695","","null","","","null","22","NaN","","","","","","","","","","","","","","",""
"","S2","","html-keyboard-response","148","197008","0.0-1.0-202.0","0","0","47695","","null","","","null","22","","NaN","","","","","","","","","","","","","",""
"","response","","html-keyboard-response","149","197972","0.0-1.0-203.0-0.0","0","0","47695","","960","","","75","22","","","1","22","training","adjacent","BA","2","1","L.jpg","M.jpg","1","0","0","",""
"","feedback","","html-keyboard-response","150","198984","0.0-1.0-204.0-0.0","0","0","47695","","null","","","null","22","","","","","","","","","","","","","","","",""
"","time_out","","html-keyboard-response","151","200991","0.0-1.0-206.0-0.0","0","0","47695","","null","","","null","22","","","","","","","","","","","","","","","",""
"","ITI","","html-keyboard-response","152","202000","0.0-1.0-207.0","0","0","47695","","null","","","null","22","","","","","","","","","","","","","","","NaN",""
"","S1","","html-keyboard-response","153","202265","0.0-1.0-209.0","0","0","47695","","null","","","null","23","","","","","","","","","","","","","","","",""
"","ISI","","html-keyboard-response","154","203274","0.0-1.0-210.0","0","0","47695","","null","","","null","23","NaN","","","","","","","","","","","","","","",""
"","S2","","html-keyboard-response","155","203534","0.0-1.0-211.0","0","0","47695","","null","","","null","23","","NaN","","","","","","","","","","","","","",""
"","response","","html-keyboard-response","156","204306","0.0-1.0-212.0-0.0","0","0","47695","","768","","","75","23","","","1","23","training","adjacent","BC","2","3","L.jpg","P.jpg","1","1","1","",""
"","feedback","","html-keyboard-response","157","205312","0.0-1.0-213.0-0.0","0","0","47695","","null","","","null","23","","","","","","","","","","","","","","","",""
"","ITI","","html-keyboard-response","158","206320","0.0-1.0-216.0","0","0","47695","","null","","","null","23","","","","","","","","","","","","","","","NaN",""
"","S1","","html-keyboard-response","159","206576","0.0-1.0-218.0","0","0","47695","","null","","","null","24","","","","","","","","","","","","","","","",""
"","ISI","","html-keyboard-response","160","207584","0.0-1.0-219.0","0","0","47695","","null","","","null","24","NaN","","","","","","","","","","","","","","",""
"","S2","","html-keyboard-response","161","207840","0.0-1.0-220.0","0","0","47695","","null","","","null","24","","NaN","","","","","","","","","","","","","",""
"","response","","html-keyboard-response","162","208725","0.0-1.0-221.0-0.0","0","0","47695","","880","","","75","24","","","1","24","training","adjacent","AB","1","2","M.jpg","L.jpg","1","1","1","",""
"","feedback","","html-keyboard-response","163","209736","0.0-1.0-222.0-0.0","0","0","47695","","null","","","null","24","","","","","","","","","","","","","","","",""
"","ITI","","html-keyboard-response","164","210744","0.0-1.0-225.0","0","0","47695","","null","","","null","24","","","","","","","","","","","","","","","NaN",""
"","S1","","html-keyboard-response","165","211008","0.0-1.0-227.0","0","0","47695","","null","","","null","25","","","","","","","","","","","","","","","",""
"","ISI","","html-keyboard-response","166","212017","0.0-1.0-228.0","0","0","47695","","null","","","null","25","NaN","","","","","","","","","","","","","","",""
"","S2","","html-keyboard-response","167","212280","0.0-1.0-229.0","0","0","47695","","null","","","null","25","","NaN","","","","","","","","","","","","","",""
"","response","","html-keyboard-response","168","213703","0.0-1.0-230.0-0.0","0","0","47695","","1419","","","75","25","","","1","25","training","adjacent","CD","3","4","P.jpg","O.jpg","1","1","1","",""
"","feedback","","html-keyboard-response","169","214711","0.0-1.0-231.0-0.0","0","0","47695","","null","","","null","25","","","","","","","","","","","","","","","",""
"","ITI","","html-keyboard-response","170","215720","0.0-1.0-234.0","0","0","47695","","null","","","null","25","","","","","","","","","","","","","","","NaN",""
"","S1","","html-keyboard-response","171","215976","0.0-1.0-236.0","0","0","47695","","null","","","null","26","","","","","","","","","","","","","","","",""
"","ISI","","html-keyboard-response","172","216984","0.0-1.0-237.0","0","0","47695","","null","","","null","26","NaN","","","","","","","","","","","","","","",""
"","S2","","html-keyboard-response","173","217240","0.0-1.0-238.0","0","0","47695","","null","","","null","26","","NaN","","","","","","","","","","","","","",""
"","response","","html-keyboard-response","174","217593","0.0-1.0-239.0-0.0","0","0","47695","","348","","","68","26","","","1","26","training","adjacent","DC","4","3","O.jpg","P.jpg","0","0","1","",""
"","feedback","","html-keyboard-response","175","218600","0.0-1.0-240.0-0.0","0","0","47695","","null","","","null","26","","","","","","","","","","","","","","","",""
"","ITI","","html-keyboard-response","176","219608","0.0-1.0-243.0","0","0","47695","","null","","","null","26","","","","","","","","","","","","","","","NaN",""
"","S1","","html-keyboard-response","177","219863","0.0-1.0-245.0","0","0","47695","","null","","","null","27","","","","","","","","","","","","","","","",""
"","ISI","","html-keyboard-response","178","220871","0.0-1.0-246.0","0","0","47695","","null","","","null","27","NaN","","","","","","","","","","","","","","",""
"","S2","","html-keyboard-response","179","221128","0.0-1.0-247.0","0","0","47695","","null","","","null","27","","NaN","","","","","","","","","","","","","",""
"","response","","html-keyboard-response","180","222501","0.0-1.0-248.0-0.0","0","0","47695","","1370","","","68","27","","","1","27","training","adjacent","BA","2","1","L.jpg","M.jpg","0","0","1","",""
"","feedback","","html-keyboard-response","181","223512","0.0-1.0-249.0-0.0","0","0","47695","","null","","","null","27","","","","","","","","","","","","","","","",""
"","ITI","","html-keyboard-response","182","224521","0.0-1.0-252.0","0","0","47695","","null","","","null","27","","","","","","","","","","","","","","","NaN",""
"","S1","","html-keyboard-response","183","224776","0.0-1.0-254.0","0","0","47695","","null","","","null","28","","","","","","","","","","","","","","","",""
"","ISI","","html-keyboard-response","184","225783","0.0-1.0-255.0","0","0","47695","","null","","","null","28","NaN","","","","","","","","","","","","","","",""
"","S2","","html-keyboard-response","185","226040","0.0-1.0-256.0","0","0","47695","","null","","","null","28","","NaN","","","","","","","","","","","","","",""
"","response","","html-keyboard-response","186","226943","0.0-1.0-257.0-0.0","0","0","47695","","899","","","68","28","","","1","28","training","adjacent","DC","4","3","O.jpg","P.jpg","0","0","1","",""
"","feedback","","html-keyboard-response","187","227952","0.0-1.0-258.0-0.0","0","0","47695","","null","","","null","28","","","","","","","","","","","","","","","",""
"","ITI","","html-keyboard-response","188","228960","0.0-1.0-261.0","0","0","47695","","null","","","null","28","","","","","","","","","","","","","","","NaN",""
"","S1","","html-keyboard-response","189","229216","0.0-1.0-263.0","0","0","47695","","null","","","null","29","","","","","","","","","","","","","","","",""
"","ISI","","html-keyboard-response","190","230224","0.0-1.0-264.0","0","0","47695","","null","","","null","29","NaN","","","","","","","","","","","","","","",""
"","S2","","html-keyboard-response","191","230479","0.0-1.0-265.0","0","0","47695","","null","","","null","29","","NaN","","","","","","","","","","","","","",""
"","response","","html-keyboard-response","192","231601","0.0-1.0-266.0-0.0","0","0","47695","","1117","","","68","29","","","1","29","training","adjacent","DE","4","5","O.jpg","N.jpg","0","1","0","",""
"","feedback","","html-keyboard-response","193","232606","0.0-1.0-267.0-0.0","0","0","47695","","null","","","null","29","","","","","","","","","","","","","","","",""
"","time_out","","html-keyboard-response","194","234618","0.0-1.0-269.0-0.0","0","0","47695","","null","","","null","29","","","","","","","","","","","","","","","",""
"","ITI","","html-keyboard-response","195","235624","0.0-1.0-270.0","0","0","47695","","null","","","null","29","","","","","","","","","","","","","","","NaN",""
"","S1","","html-keyboard-response","196","235880","0.0-1.0-272.0","0","0","47695","","null","","","null","30","","","","","","","","","","","","","","","",""
"","ISI","","html-keyboard-response","197","236888","0.0-1.0-273.0","0","0","47695","","null","","","null","30","NaN","","","","","","","","","","","","","","",""
"","S2","","html-keyboard-response","198","237152","0.0-1.0-274.0","0","0","47695","","null","","","null","30","","NaN","","","","","","","","","","","","","",""
"","response","","html-keyboard-response","199","238682","0.0-1.0-275.0-0.0","0","0","47695","","1525","","","68","30","","","1","30","training","adjacent","EF","5","6","N.jpg","R.jpg","0","1","0","",""
"","feedback","","html-keyboard-response","200","239694","0.0-1.0-276.0-0.0","0","0","47695","","null","","","null","30","","","","","","","","","","","","","","","",""
"","time_out","","html-keyboard-response","201","241704","0.0-1.0-278.0-0.0","0","0","47695","","null","","","null","30","","","","","","","","","","","","","","","",""
"","ITI","","html-keyboard-response","202","242712","0.0-1.0-279.0","0","0","47695","","null","","","null","30","","","","","","","","","","","","","","","NaN",""
"","S1","","html-keyboard-response","203","242967","0.0-1.0-281.0","0","0","47695","","null","","","null","31","","","","","","","","","","","","","","","",""
"","ISI","","html-keyboard-response","204","243976","0.0-1.0-282.0","0","0","47695","","null","","","null","31","NaN","","","","","","","","","","","","","","",""
"","S2","","html-keyboard-response","205","244240","0.0-1.0-283.0","0","0","47695","","null","","","null","31","","NaN","","","","","","","","","","","","","",""
"","response","","html-keyboard-response","206","245483","0.0-1.0-284.0-0.0","0","0","47695","","1237","","","75","31","","","1","31","training","adjacent","CD","3","4","P.jpg","O.jpg","1","1","1","",""
"","feedback","","html-keyboard-response","207","246496","0.0-1.0-285.0-0.0","0","0","47695","","null","","","null","31","","","","","","","","","","","","","","","",""
"","ITI","","html-keyboard-response","208","247504","0.0-1.0-288.0","0","0","47695","","null","","","null","31","","","","","","","","","","","","","","","NaN",""
"","S1","","html-keyboard-response","209","247760","0.0-1.0-290.0","0","0","47695","","null","","","null","32","","","","","","","","","","","","","","","",""
"","ISI","","html-keyboard-response","210","248767","0.0-1.0-291.0","0","0","47695","","null","","","null","32","NaN","","","","","","","","","","","","","","",""
"","S2","","html-keyboard-response","211","249022","0.0-1.0-292.0","0","0","47695","","null","","","null","32","","NaN","","","","","","","","","","","","","",""
"","response","","html-keyboard-response","212","250029","0.0-1.0-293.0-0.0","0","0","47695","","1004","","","68","32","","","1","32","training","adjacent","CB","3","2","P.jpg","L.jpg","0","0","1","",""
"","feedback","","html-keyboard-response","213","251040","0.0-1.0-294.0-0.0","0","0","47695","","null","","","null","32","","","","","","","","","","","","","","","",""
"","ITI","","html-keyboard-response","214","252047","0.0-1.0-297.0","0","0","47695","","null","","","null","32","","","","","","","","","","","","","","","NaN",""
"","S1","","html-keyboard-response","215","252303","0.0-1.0-299.0","0","0","47695","","null","","","null","33","","","","","","","","","","","","","","","",""
"","ISI","","html-keyboard-response","216","253312","0.0-1.0-300.0","0","0","47695","","null","","","null","33","NaN","","","","","","","","","","","","","","",""
"","S2","","html-keyboard-response","217","253574","0.0-1.0-301.0","0","0","47695","","null","","","null","33","","NaN","","","","","","","","","","","","","",""
"","response","","html-keyboard-response","218","254351","0.0-1.0-302.0-0.0","0","0","47695","","773","","","68","33","","","1","33","training","adjacent","BA","2","1","L.jpg","M.jpg","0","0","1","",""
"","feedback","","html-keyboard-response","219","255360","0.0-1.0-303.0-0.0","0","0","47695","","null","","","null","33","","","","","","","","","","","","","","","",""
"","ITI","","html-keyboard-response","220","256368","0.0-1.0-306.0","0","0","47695","","null","","","null","33","","","","","","","","","","","","","","","NaN",""
"","S1","","html-keyboard-response","221","256624","0.0-1.0-308.0","0","0","47695","","null","","","null","34","","","","","","","","","","","","","","","",""
"","ISI","","html-keyboard-response","222","257631","0.0-1.0-309.0","0","0","47695","","null","","","null","34","NaN","","","","","","","","","","","","","","",""
"","S2","","html-keyboard-response","223","257888","0.0-1.0-310.0","0","0","47695","","null","","","null","34","","NaN","","","","","","","","","","","","","",""
"","response","","html-keyboard-response","224","258467","0.0-1.0-311.0-0.0","0","0","47695","","573","","","75","34","","","1","34","training","adjacent","ED","5","4","N.jpg","O.jpg","1","0","0","",""
"","feedback","","html-keyboard-response","225","259479","0.0-1.0-312.0-0.0","0","0","47695","","null","","","null","34","","","","","","","","","","","","","","","",""
"","time_out","","html-keyboard-response","226","261487","0.0-1.0-314.0-0.0","0","0","47695","","null","","","null","34","","","","","","","","","","","","","","","",""
"","ITI","","html-keyboard-response","227","262496","0.0-1.0-315.0","0","0","47695","","null","","","null","34","","","","","","","","","","","","","","","NaN",""
"","S1","","html-keyboard-response","228","262750","0.0-1.0-317.0","0","0","47695","","null","","","null","35","","","","","","","","","","","","","","","",""
"","ISI","","html-keyboard-response","229","263760","0.0-1.0-318.0","0","0","47695","","null","","","null","35","NaN","","","","","","","","","","","","","","",""
"","S2","","html-keyboard-response","230","264016","0.0-1.0-319.0","0","0","47695","","null","","","null","35","","NaN","","","","","","","","","","","","","",""
"","response","","html-keyboard-response","231","265327","0.0-1.0-320.0-0.0","0","0","47695","","1306","","","68","35","","","1","35","training","adjacent","DE","4","5","O.jpg","N.jpg","0","1","0","",""
"","feedback","","html-keyboard-response","232","266336","0.0-1.0-321.0-0.0","0","0","47695","","null","","","null","35","","","","","","","","","","","","","","","",""
"","time_out","","html-keyboard-response","233","268344","0.0-1.0-323.0-0.0","0","0","47695","","null","","","null","35","","","","","","","","","","","","","","","",""
"","ITI","","html-keyboard-response","234","269352","0.0-1.0-324.0","0","0","47695","","null","","","null","35","","","","","","","","","","","","","","","NaN",""
"","S1","","html-keyboard-response","235","269608","0.0-1.0-326.0","0","0","47695","","null","","","null","36","","","","","","","","","","","","","","","",""
"","ISI","","html-keyboard-response","236","270616","0.0-1.0-327.0","0","0","47695","","null","","","null","36","NaN","","","","","","","","","","","","","","",""
"","S2","","html-keyboard-response","237","270872","0.0-1.0-328.0","0","0","47695","","null","","","null","36","","NaN","","","","","","","","","","","","","",""
"","response","","html-keyboard-response","238","272162","0.0-1.0-329.0-0.0","0","0","47695","","1287","","","68","36","","","1","36","training","adjacent","DC","4","3","O.jpg","P.jpg","0","0","1","",""
"","feedback","","html-keyboard-response","239","273168","0.0-1.0-330.0-0.0","0","0","47695","","null","","","null","36","","","","","","","","","","","","","","","",""
"","ITI","","html-keyboard-response","240","274176","0.0-1.0-333.0","0","0","47695","","null","","","null","36","","","","","","","","","","","","","","","NaN",""
"","S1","","html-keyboard-response","241","274432","0.0-1.0-335.0","0","0","47695","","null","","","null","37","","","","","","","","","","","","","","","",""
"","ISI","","html-keyboard-response","242","275440","0.0-1.0-336.0","0","0","47695","","null","","","null","37","NaN","","","","","","","","","","","","","","",""
"","S2","","html-keyboard-response","243","275696","0.0-1.0-337.0","0","0","47695","","null","","","null","37","","NaN","","","","","","","","","","","","","",""
"","response","","html-keyboard-response","244","276754","0.0-1.0-338.0-0.0","0","0","47695","","1052","","","68","37","","","1","37","training","adjacent","FE","6","5","R.jpg","N.jpg","0","0","1","",""
"","feedback","","html-keyboard-response","245","277760","0.0-1.0-339.0-0.0","0","0","47695","","null","","","null","37","","","","","","","","","","","","","","","",""
"","ITI","","html-keyboard-response","246","278768","0.0-1.0-342.0","0","0","47695","","null","","","null","37","","","","","","","","","","","","","","","NaN",""
"","S1","","html-keyboard-response","247","279022","0.0-1.0-344.0","0","0","47695","","null","","","null","38","","","","","","","","","","","","","","","",""
"","ISI","","html-keyboard-response","248","280032","0.0-1.0-345.0","0","0","47695","","null","","","null","38","NaN","","","","","","","","","","","","","","",""
"","S2","","html-keyboard-response","249","280300","0.0-1.0-346.0","0","0","47695","","null","","","null","38","","NaN","","","","","","","","","","","","","",""
"","response","","html-keyboard-response","250","280990","0.0-1.0-347.0-0.0","0","0","47695","","684","","","75","38","","","1","38","training","adjacent","BC","2","3","L.jpg","P.jpg","1","1","1","",""
"","feedback","","html-keyboard-response","251","282000","0.0-1.0-348.0-0.0","0","0","47695","","null","","","null","38","","","","","","","","","","","","","","","",""
"","ITI","","html-keyboard-response","252","283009","0.0-1.0-351.0","0","0","47695","","null","","","null","38","","","","","","","","","","","","","","","NaN",""
"","S1","","html-keyboard-response","253","283272","0.0-1.0-353.0","0","0","47695","","null","","","null","39","","","","","","","","","","","","","","","",""
"","ISI","","html-keyboard-response","254","284279","0.0-1.0-354.0","0","0","47695","","null","","","null","39","NaN","","","","","","","","","","","","","","",""
"","S2","","html-keyboard-response","255","284536","0.0-1.0-355.0","0","0","47695","","null","","","null","39","","NaN","","","","","","","","","","","","","",""
"","response","","html-keyboard-response","256","285320","0.0-1.0-356.0-0.0","0","0","47695","","779","","","75","39","","","1","39","training","adjacent","DC","4","3","O.jpg","P.jpg","1","0","0","",""
"","feedback","","html-keyboard-response","257","286328","0.0-1.0-357.0-0.0","0","0","47695","","null","","","null","39","","","","","","","","","","","","","","","",""
"","time_out","","html-keyboard-response","258","288336","0.0-1.0-359.0-0.0","0","0","47695","","null","","","null","39","","","","","","","","","","","","","","","",""
"","ITI","","html-keyboard-response","259","289342","0.0-1.0-360.0","0","0","47695","","null","","","null","39","","","","","","","","","","","","","","","NaN",""
"","S1","","html-keyboard-response","260","289601","0.0-1.0-362.0","0","0","47695","","null","","","null","40","","","","","","","","","","","","","","","",""
"","ISI","","html-keyboard-response","261","290608","0.0-1.0-363.0","0","0","47695","","null","","","null","40","NaN","","","","","","","","","","","","","","",""
"","S2","","html-keyboard-response","262","290864","0.0-1.0-364.0","0","0","47695","","null","","","null","40","","NaN","","","","","","","","","","","","","",""
"","response","","html-keyboard-response","263","291874","0.0-1.0-365.0-0.0","0","0","47695","","1006","","","75","40","","","1","40","training","adjacent","CD","3","4","P.jpg","O.jpg","1","1","1","",""
"","feedback","","html-keyboard-response","264","292888","0.0-1.0-366.0-0.0","0","0","47695","","null","","","null","40","","","","","","","","","","","","","","","",""
"","ITI","","html-keyboard-response","265","293896","0.0-1.0-369.0","0","0","47695","","null","","","null","40","","","","","","","","","","","","","","","NaN",""
"","S1","","html-keyboard-response","266","294160","0.0-1.0-371.0","0","0","47695","","null","","","null","41","","","","","","","","","","","","","","","",""
"","ISI","","html-keyboard-response","267","295168","0.0-1.0-372.0","0","0","47695","","null","","","null","41","NaN","","","","","","","","","","","","","","",""
"","S2","","html-keyboard-response","268","295424","0.0-1.0-373.0","0","0","47695","","null","","","null","41","","NaN","","","","","","","","","","","","","",""
"","response","","html-keyboard-response","269","297034","0.0-1.0-374.0-0.0","0","0","47695","","1605","","","68","41","","","1","41","training","adjacent","CB","3","2","P.jpg","L.jpg","0","0","1","",""
"","feedback","","html-keyboard-response","270","298040","0.0-1.0-375.0-0.0","0","0","47695","","null","","","null","41","","","","","","","","","","","","","","","",""
"","ITI","","html-keyboard-response","271","299049","0.0-1.0-378.0","0","0","47695","","null","","","null","41","","","","","","","","","","","","","","","NaN",""
"","S1","","html-keyboard-response","272","299312","0.0-1.0-380.0","0","0","47695","","null","","","null","42","","","","","","","","","","","","","","","",""
"","ISI","","html-keyboard-response","273","300320","0.0-1.0-381.0","0","0","47695","","null","","","null","42","NaN","","","","","","","","","","","","","","",""
"","S2","","html-keyboard-response","274","300575","0.0-1.0-382.0","0","0","47695","","null","","","null","42","","NaN","","","","","","","","","","","","","",""
"","response","","html-keyboard-response","275","301302","0.0-1.0-383.0-0.0","0","0","47695","","720","","","68","42","","","1","42","training","adjacent","CB","3","2","P.jpg","L.jpg","0","0","1","",""
"","feedback","","html-keyboard-response","276","302312","0.0-1.0-384.0-0.0","0","0","47695","","null","","","null","42","","","","","","","","","","","","","","","",""
"","ITI","","html-keyboard-response","277","303322","0.0-1.0-387.0","0","0","47695","","null","","","null","42","","","","","","","","","","","","","","","NaN",""
"","S1","","html-keyboard-response","278","303584","0.0-1.0-389.0","0","0","47695","","null","","","null","43","","","","","","","","","","","","","","","",""
"","ISI","","html-keyboard-response","279","304592","0.0-1.0-390.0","0","0","47695","","null","","","null","43","NaN","","","","","","","","","","","","","","",""
"","S2","","html-keyboard-response","280","304848","0.0-1.0-391.0","0","0","47695","","null","","","null","43","","NaN","","","","","","","","","","","","","",""
"","response","","html-keyboard-response","281","305250","0.0-1.0-392.0-0.0","0","0","47695","","396","","","68","43","","","1","43","training","adjacent","GF","7","6","Q.jpg","R.jpg","0","0","1","",""
"","feedback","","html-keyboard-response","282","306264","0.0-1.0-393.0-0.0","0","0","47695","","null","","","null","43","","","","","","","","","","","","","","","",""
"","ITI","","html-keyboard-response","283","307271","0.0-1.0-396.0","0","0","47695","","null","","","null","43","","","","","","","","","","","","","","","NaN",""
"","S1","","html-keyboard-response","284","307527","0.0-1.0-398.0","0","0","47695","","null","","","null","44","","","","","","","","","","","","","","","",""
"","ISI","","html-keyboard-response","285","308536","0.0-1.0-399.0","0","0","47695","","null","","","null","44","NaN","","","","","","","","","","","","","","",""
"","S2","","html-keyboard-response","286","308792","0.0-1.0-400.0","0","0","47695","","null","","","null","44","","NaN","","","","","","","","","","","","","",""
"","response","","html-keyboard-response","287","309517","0.0-1.0-401.0-0.0","0","0","47695","","720","","","75","44","","","1","44","training","adjacent","BA","2","1","L.jpg","M.jpg","1","0","0","",""
"","feedback","","html-keyboard-response","288","310528","0.0-1.0-402.0-0.0","0","0","47695","","null","","","null","44","","","","","","","","","","","","","","","",""
"","time_out","","html-keyboard-response","289","312540","0.0-1.0-404.0-0.0","0","0","47695","","null","","","null","44","","","","","","","","","","","","","","","",""
"","ITI","","html-keyboard-response","290","313552","0.0-1.0-405.0","0","0","47695","","null","","","null","44","","","","","","","","","","","","","","","NaN",""
"","S1","","html-keyboard-response","291","313808","0.0-1.0-407.0","0","0","47695","","null","","","null","45","","","","","","","","","","","","","","","",""
"","ISI","","html-keyboard-response","292","314815","0.0-1.0-408.0","0","0","47695","","null","","","null","45","NaN","","","","","","","","","","","","","","",""
"","S2","","html-keyboard-response","293","315070","0.0-1.0-409.0","0","0","47695","","null","","","null","45","","NaN","","","","","","","","","","","","","",""
"","response","","html-keyboard-response","294","315415","0.0-1.0-410.0-0.0","0","0","47695","","340","","","75","45","","","1","45","training","adjacent","AB","1","2","M.jpg","L.jpg","1","1","1","",""
"","feedback","","html-keyboard-response","295","316425","0.0-1.0-411.0-0.0","0","0","47695","","null","","","null","45","","","","","","","","","","","","","","","",""
"","ITI","","html-keyboard-response","296","317430","0.0-1.0-414.0","0","0","47695","","null","","","null","45","","","","","","","","","","","","","","","NaN",""
"","S1","","html-keyboard-response","297","317688","0.0-1.0-416.0","0","0","47695","","null","","","null","46","","","","","","","","","","","","","","","",""
"","ISI","","html-keyboard-response","298","318696","0.0-1.0-417.0","0","0","47695","","null","","","null","46","NaN","","","","","","","","","","","","","","",""
"","S2","","html-keyboard-response","299","318952","0.0-1.0-418.0","0","0","47695","","null","","","null","46","","NaN","","","","","","","","","","","","","",""
"","response","","html-keyboard-response","300","319304","0.0-1.0-419.0-0.0","0","0","47695","","346","","","75","46","","","1","46","training","adjacent","FG","6","7","R.jpg","Q.jpg","1","1","1","",""
"","feedback","","html-keyboard-response","301","320312","0.0-1.0-420.0-0.0","0","0","47695","","null","","","null","46","","","","","","","","","","","","","","","",""
"","ITI","","html-keyboard-response","302","321319","0.0-1.0-423.0","0","0","47695","","null","","","null","46","","","","","","","","","","","","","","","NaN",""
"","S1","","html-keyboard-response","303","321576","0.0-1.0-425.0","0","0","47695","","null","","","null","47","","","","","","","","","","","","","","","",""
"","ISI","","html-keyboard-response","304","322583","0.0-1.0-426.0","0","0","47695","","null","","","null","47","NaN","","","","","","","","","","","","","","",""
"","S2","","html-keyboard-response","305","322839","0.0-1.0-427.0","0","0","47695","","null","","","null","47","","NaN","","","","","","","","","","","","","",""
"","response","","html-keyboard-response","306","323605","0.0-1.0-428.0-0.0","0","0","47695","","760","","","75","47","","","1","47","training","adjacent","BC","2","3","L.jpg","P.jpg","1","1","1","",""
"","feedback","","html-keyboard-response","307","324616","0.0-1.0-429.0-0.0","0","0","47695","","null","","","null","47","","","","","","","","","","","","","","","",""
"","ITI","","html-keyboard-response","308","325624","0.0-1.0-432.0","0","0","47695","","null","","","null","47","","","","","","","","","","","","","","","NaN",""
"","block_over","","html-keyboard-response","309","352323","0.0-1.0-433.0-0.0","0","0","47695","","26692","","","32","47","","","","","","","","","","","","","","","",""
"","S1","","html-keyboard-response","310","352584","0.0-1.0-434.0","0","0","47695","","null","","","null","48","","","","","","","","","","","","","","","",""
"","ISI","","html-keyboard-response","311","353592","0.0-1.0-435.0","0","0","47695","","null","","","null","48","NaN","","","","","","","","","","","","","","",""
"","S2","","html-keyboard-response","312","353848","0.0-1.0-436.0","0","0","47695","","null","","","null","48","","NaN","","","","","","","","","","","","","",""
"","response","","html-keyboard-response","313","354330","0.0-1.0-437.0-0.0","0","0","47695","","478","","","68","48","","","2","48","training","adjacent","GF","7","6","Q.jpg","R.jpg","0","0","1","",""
"","feedback","","html-keyboard-response","314","355342","0.0-1.0-438.0-0.0","0","0","47695","","null","","","null","48","","","","","","","","","","","","","","","",""
"","ITI","","html-keyboard-response","315","356355","0.0-1.0-441.0","0","0","47695","","null","","","null","48","","","","","","","","","","","","","","","NaN",""
"","S1","","html-keyboard-response","316","356615","0.0-1.0-443.0","0","0","47695","","null","","","null","49","","","","","","","","","","","","","","","",""
"","ISI","","html-keyboard-response","317","357624","0.0-1.0-444.0","0","0","47695","","null","","","null","49","NaN","","","","","","","","","","","","","","",""
"","S2","","html-keyboard-response","318","357880","0.0-1.0-445.0","0","0","47695","","null","","","null","49","","NaN","","","","","","","","","","","","","",""
"","response","","html-keyboard-response","319","358676","0.0-1.0-446.0-0.0","0","0","47695","","792","","","75","49","","","2","49","training","adjacent","ED","5","4","N.jpg","O.jpg","1","0","0","",""
"","feedback","","html-keyboard-response","320","359687","0.0-1.0-447.0-0.0","0","0","47695","","null","","","null","49","","","","","","","","","","","","","","","",""
"","time_out","","html-keyboard-response","321","361695","0.0-1.0-449.0-0.0","0","0","47695","","null","","","null","49","","","","","","","","","","","","","","","",""
"","ITI","","html-keyboard-response","322","362702","0.0-1.0-450.0","0","0","47695","","null","","","null","49","","","","","","","","","","","","","","","NaN",""
"","S1","","html-keyboard-response","323","362960","0.0-1.0-452.0","0","0","47695","","null","","","null","50","","","","","","","","","","","","","","","",""
"","ISI","","html-keyboard-response","324","363968","0.0-1.0-453.0","0","0","47695","","null","","","null","50","NaN","","","","","","","","","","","","","","",""
"","S2","","html-keyboard-response","325","364224","0.0-1.0-454.0","0","0","47695","","null","","","null","50","","NaN","","","","","","","","","","","","","",""
"","response","","html-keyboard-response","326","365974","0.0-1.0-455.0-0.0","0","0","47695","","1746","","","68","50","","","2","50","training","adjacent","FE","6","5","R.jpg","N.jpg","0","0","1","",""
"","feedback","","html-keyboard-response","327","366984","0.0-1.0-456.0-0.0","0","0","47695","","null","","","null","50","","","","","","","","","","","","","","","",""
"","ITI","","html-keyboard-response","328","367992","0.0-1.0-459.0","0","0","47695","","null","","","null","50","","","","","","","","","","","","","","","NaN",""
"","S1","","html-keyboard-response","329","368248","0.0-1.0-461.0","0","0","47695","","null","","","null","51","","","","","","","","","","","","","","","",""
"","ISI","","html-keyboard-response","330","369254","0.0-1.0-462.0","0","0","47695","","null","","","null","51","NaN","","","","","","","","","","","","","","",""
"","S2","","html-keyboard-response","331","369510","0.0-1.0-463.0","0","0","47695","","null","","","null","51","","NaN","","","","","","","","","","","","","",""
"","response","","html-keyboard-response","332","370357","0.0-1.0-464.0-0.0","0","0","47695","","845","","","75","51","","","2","51","training","adjacent","BA","2","1","L.jpg","M.jpg","1","0","0","",""
"","feedback","","html-keyboard-response","333","371367","0.0-1.0-465.0-0.0","0","0","47695","","null","","","null","51","","","","","","","","","","","","","","","",""
"","time_out","","html-keyboard-response","334","373380","0.0-1.0-467.0-0.0","0","0","47695","","null","","","null","51","","","","","","","","","","","","","","","",""
"","ITI","","html-keyboard-response","335","374393","0.0-1.0-468.0","0","0","47695","","null","","","null","51","","","","","","","","","","","","","","","NaN",""
"","S1","","html-keyboard-response","336","374656","0.0-1.0-470.0","0","0","47695","","null","","","null","52","","","","","","","","","","","","","","","",""
"","ISI","","html-keyboard-response","337","375664","0.0-1.0-471.0","0","0","47695","","null","","","null","52","NaN","","","","","","","","","","","","","","",""
"","S2","","html-keyboard-response","338","375921","0.0-1.0-472.0","0","0","47695","","null","","","null","52","","NaN","","","","","","","","","","","","","",""
"","response","","html-keyboard-response","339","376231","0.0-1.0-473.0-0.0","0","0","47695","","305","","","68","52","","","2","52","training","adjacent","GF","7","6","Q.jpg","R.jpg","0","0","1","",""
"","feedback","","html-keyboard-response","340","377238","0.0-1.0-474.0-0.0","0","0","47695","","null","","","null","52","","","","","","","","","","","","","","","",""
"","ITI","","html-keyboard-response","341","378247","0.0-1.0-477.0","0","0","47695","","null","","","null","52","","","","","","","","","","","","","","","NaN",""
"","S1","","html-keyboard-response","342","378502","0.0-1.0-479.0","0","0","47695","","null","","","null","53","","","","","","","","","","","","","","","",""
"","ISI","","html-keyboard-response","343","379512","0.0-1.0-480.0","0","0","47695","","null","","","null","53","NaN","","","","","","","","","","","","","","",""
"","S2","","html-keyboard-response","344","379768","0.0-1.0-481.0","0","0","47695","","null","","","null","53","","NaN","","","","","","","","","","","","","",""
"","response","","html-keyboard-response","345","381034","0.0-1.0-482.0-0.0","0","0","47695","","1262","","","68","53","","","2","53","training","adjacent","CB","3","2","P.jpg","L.jpg","0","0","1","",""
"","feedback","","html-keyboard-response","346","382048","0.0-1.0-483.0-0.0","0","0","47695","","null","","","null","53","","","","","","","","","","","","","","","",""
"","ITI","","html-keyboard-response","347","383056","0.0-1.0-486.0","0","0","47695","","null","","","null","53","","","","","","","","","","","","","","","NaN",""
"","S1","","html-keyboard-response","348","383312","0.0-1.0-488.0","0","0","47695","","null","","","null","54","","","","","","","","","","","","","","","",""
"","ISI","","html-keyboard-response","349","384320","0.0-1.0-489.0","0","0","47695","","null","","","null","54","NaN","","","","","","","","","","","","","","",""
"","S2","","html-keyboard-response","350","384576","0.0-1.0-490.0","0","0","47695","","null","","","null","54","","NaN","","","","","","","","","","","","","",""
"","response","","html-keyboard-response","351","385537","0.0-1.0-491.0-0.0","0","0","47695","","955","","","68","54","","","2","54","training","adjacent","BA","2","1","L.jpg","M.jpg","0","0","1","",""
"","feedback","","html-keyboard-response","352","386544","0.0-1.0-492.0-0.0","0","0","47695","","null","","","null","54","","","","","","","","","","","","","","","",""
"","ITI","","html-keyboard-response","353","387552","0.0-1.0-495.0","0","0","47695","","null","","","null","54","","","","","","","","","","","","","","","NaN",""
"","S1","","html-keyboard-response","354","387808","0.0-1.0-497.0","0","0","47695","","null","","","null","55","","","","","","","","","","","","","","","",""
"","ISI","","html-keyboard-response","355","388815","0.0-1.0-498.0","0","0","47695","","null","","","null","55","NaN","","","","","","","","","","","","","","",""
"","S2","","html-keyboard-response","356","389072","0.0-1.0-499.0","0","0","47695","","null","","","null","55","","NaN","","","","","","","","","","","","","",""
"","response","","html-keyboard-response","357","389200","0.0-1.0-500.0-0.0","0","0","47695","","123","","","75","55","","","2","55","training","adjacent","FG","6","7","R.jpg","Q.jpg","1","1","1","",""
"","feedback","","html-keyboard-response","358","390208","0.0-1.0-501.0-0.0","0","0","47695","","null","","","null","55","","","","","","","","","","","","","","","",""
"","ITI","","html-keyboard-response","359","391216","0.0-1.0-504.0","0","0","47695","","null","","","null","55","","","","","","","","","","","","","","","NaN",""
"","S1","","html-keyboard-response","360","391472","0.0-1.0-506.0","0","0","47695","","null","","","null","56","","","","","","","","","","","","","","","",""
"","ISI","","html-keyboard-response","361","392480","0.0-1.0-507.0","0","0","47695","","null","","","null","56","NaN","","","","","","","","","","","","","","",""
"","S2","","html-keyboard-response","362","392734","0.0-1.0-508.0","0","0","47695","","null","","","null","56","","NaN","","","","","","","","","","","","","",""
"","response","","html-keyboard-response","363","393583","0.0-1.0-509.0-0.0","0","0","47695","","845","","","68","56","","","2","56","training","adjacent","BA","2","1","L.jpg","M.jpg","0","0","1","",""
"","feedback","","html-keyboard-response","364","394590","0.0-1.0-510.0-0.0","0","0","47695","","null","","","null","56","","","","","","","","","","","","","","","",""
"","ITI","","html-keyboard-response","365","395601","0.0-1.0-513.0","0","0","47695","","null","","","null","56","","","","","","","","","","","","","","","NaN",""
"","S1","","html-keyboard-response","366","395864","0.0-1.0-515.0","0","0","47695","","null","","","null","57","","","","","","","","","","","","","","","",""
"","ISI","","html-keyboard-response","367","396872","0.0-1.0-516.0","0","0","47695","","null","","","null","57","NaN","","","","","","","","","","","","","","",""
"","S2","","html-keyboard-response","368","397127","0.0-1.0-517.0","0","0","47695","","null","","","null","57","","NaN","","","","","","","","","","","","","",""
"","response","","html-keyboard-response","369","398098","0.0-1.0-518.0-0.0","0","0","47695","","967","","","68","57","","","2","57","training","adjacent","DE","4","5","O.jpg","N.jpg","0","1","0","",""
"","feedback","","html-keyboard-response","370","399111","0.0-1.0-519.0-0.0","0","0","47695","","null","","","null","57","","","","","","","","","","","","","","","",""
"","time_out","","html-keyboard-response","371","401120","0.0-1.0-521.0-0.0","0","0","47695","","null","","","null","57","","","","","","","","","","","","","","","",""
"","ITI","","html-keyboard-response","372","402128","0.0-1.0-522.0","0","0","47695","","null","","","null","57","","","","","","","","","","","","","","","NaN",""
"","S1","","html-keyboard-response","373","402385","0.0-1.0-524.0","0","0","47695","","null","","","null","58","","","","","","","","","","","","","","","",""
"","ISI","","html-keyboard-response","374","403392","0.0-1.0-525.0","0","0","47695","","null","","","null","58","NaN","","","","","","","","","","","","","","",""
"","S2","","html-keyboard-response","375","403647","0.0-1.0-526.0","0","0","47695","","null","","","null","58","","NaN","","","","","","","","","","","","","",""
"","response","","html-keyboard-response","376","405339","0.0-1.0-527.0-0.0","0","0","47695","","1687","","","68","58","","","2","58","training","adjacent","FE","6","5","R.jpg","N.jpg","0","0","1","",""
"","feedback","","html-keyboard-response","377","406353","0.0-1.0-528.0-0.0","0","0","47695","","null","","","null","58","","","","","","","","","","","","","","","",""
"","ITI","","html-keyboard-response","378","407359","0.0-1.0-531.0","0","0","47695","","null","","","null","58","","","","","","","","","","","","","","","NaN",""
"","S1","","html-keyboard-response","379","407616","0.0-1.0-533.0","0","0","47695","","null","","","null","59","","","","","","","","","","","","","","","",""
"","ISI","","html-keyboard-response","380","408623","0.0-1.0-534.0","0","0","47695","","null","","","null","59","NaN","","","","","","","","","","","","","","",""
"","S2","","html-keyboard-response","381","408878","0.0-1.0-535.0","0","0","47695","","null","","","null","59","","NaN","","","","","","","","","","","","","",""
"","response","","html-keyboard-response","382","409361","0.0-1.0-536.0-0.0","0","0","47695","","481","","","68","59","","","2","59","training","adjacent","GF","7","6","Q.jpg","R.jpg","0","0","1","",""
"","feedback","","html-keyboard-response","383","410368","0.0-1.0-537.0-0.0","0","0","47695","","null","","","null","59","","","","","","","","","","","","","","","",""
"","ITI","","html-keyboard-response","384","411374","0.0-1.0-540.0","0","0","47695","","null","","","null","59","","","","","","","","","","","","","","","NaN",""
"","S1","","html-keyboard-response","385","411633","0.0-1.0-542.0","0","0","47695","","null","","","null","60","","","","","","","","","","","","","","","",""
"","ISI","","html-keyboard-response","386","412638","0.0-1.0-543.0","0","0","47695","","null","","","null","60","NaN","","","","","","","","","","","","","","",""
"","S2","","html-keyboard-response","387","412896","0.0-1.0-544.0","0","0","47695","","null","","","null","60","","NaN","","","","","","","","","","","","","",""
"","response","","html-keyboard-response","388","413803","0.0-1.0-545.0-0.0","0","0","47695","","902","","","68","60","","","2","60","training","adjacent","DC","4","3","O.jpg","P.jpg","0","0","1","",""
"","feedback","","html-keyboard-response","389","414815","0.0-1.0-546.0-0.0","0","0","47695","","null","","","null","60","","","","","","","","","","","","","","","",""
"","ITI","","html-keyboard-response","390","415824","0.0-1.0-549.0","0","0","47695","","null","","","null","60","","","","","","","","","","","","","","","NaN",""
"","S1","","html-keyboard-response","391","416084","0.0-1.0-551.0","0","0","47695","","null","","","null","61","","","","","","","","","","","","","","","",""
"","ISI","","html-keyboard-response","392","417088","0.0-1.0-552.0","0","0","47695","","null","","","null","61","NaN","","","","","","","","","","","","","","",""
"","S2","","html-keyboard-response","393","417346","0.0-1.0-553.0","0","0","47695","","null","","","null","61","","NaN","","","","","","","","","","","","","",""
"","response","","html-keyboard-response","394","418033","0.0-1.0-554.0-0.0","0","0","47695","","683","","","68","61","","","2","61","training","adjacent","CB","3","2","P.jpg","L.jpg","0","0","1","",""
"","feedback","","html-keyboard-response","395","419041","0.0-1.0-555.0-0.0","0","0","47695","","null","","","null","61","","","","","","","","","","","","","","","",""
"","ITI","","html-keyboard-response","396","420048","0.0-1.0-558.0","0","0","47695","","null","","","null","61","","","","","","","","","","","","","","","NaN",""
"","S1","","html-keyboard-response","397","420304","0.0-1.0-560.0","0","0","47695","","null","","","null","62","","","","","","","","","","","","","","","",""
"","ISI","","html-keyboard-response","398","421312","0.0-1.0-561.0","0","0","47695","","null","","","null","62","NaN","","","","","","","","","","","","","","",""
"","S2","","html-keyboard-response","399","421568","0.0-1.0-562.0","0","0","47695","","null","","","null","62","","NaN","","","","","","","","","","","","","",""
"","response","","html-keyboard-response","400","422058","0.0-1.0-563.0-0.0","0","0","47695","","485","","","68","62","","","2","62","training","adjacent","CB","3","2","P.jpg","L.jpg","0","0","1","",""
"","feedback","","html-keyboard-response","401","423072","0.0-1.0-564.0-0.0","0","0","47695","","null","","","null","62","","","","","","","","","","","","","","","",""
"","ITI","","html-keyboard-response","402","424081","0.0-1.0-567.0","0","0","47695","","null","","","null","62","","","","","","","","","","","","","","","NaN",""
"","S1","","html-keyboard-response","403","424344","0.0-1.0-569.0","0","0","47695","","null","","","null","63","","","","","","","","","","","","","","","",""
"","ISI","","html-keyboard-response","404","425352","0.0-1.0-570.0","0","0","47695","","null","","","null","63","NaN","","","","","","","","","","","","","","",""
"","S2","","html-keyboard-response","405","425608","0.0-1.0-571.0","0","0","47695","","null","","","null","63","","NaN","","","","","","","","","","","","","",""
"","response","","html-keyboard-response","406","426569","0.0-1.0-572.0-0.0","0","0","47695","","957","","","68","63","","","2","63","training","adjacent","FE","6","5","R.jpg","N.jpg","0","0","1","",""
"","feedback","","html-keyboard-response","407","427575","0.0-1.0-573.0-0.0","0","0","47695","","null","","","null","63","","","","","","","","","","","","","","","",""
"","ITI","","html-keyboard-response","408","428583","0.0-1.0-576.0","0","0","47695","","null","","","null","63","","","","","","","","","","","","","","","NaN",""
"","S1","","html-keyboard-response","409","428840","0.0-1.0-578.0","0","0","47695","","null","","","null","64","","","","","","","","","","","","","","","",""
"","ISI","","html-keyboard-response","410","429848","0.0-1.0-579.0","0","0","47695","","null","","","null","64","NaN","","","","","","","","","","","","","","",""
"","S2","","html-keyboard-response","411","430104","0.0-1.0-580.0","0","0","47695","","null","","","null","64","","NaN","","","","","","","","","","","","","",""
"","response","","html-keyboard-response","412","430358","0.0-1.0-581.0-0.0","0","0","47695","","248","","","75","64","","","2","64","training","adjacent","FG","6","7","R.jpg","Q.jpg","1","1","1","",""
"","feedback","","html-keyboard-response","413","431366","0.0-1.0-582.0-0.0","0","0","47695","","null","","","null","64","","","","","","","","","","","","","","","",""
"","ITI","","html-keyboard-response","414","432378","0.0-1.0-585.0","0","0","47695","","null","","","null","64","","","","","","","","","","","","","","","NaN",""
"","S1","","html-keyboard-response","415","432640","0.0-1.0-587.0","0","0","47695","","null","","","null","65","","","","","","","","","","","","","","","",""
"","ISI","","html-keyboard-response","416","433647","0.0-1.0-588.0","0","0","47695","","null","","","null","65","NaN","","","","","","","","","","","","","","",""
"","S2","","html-keyboard-response","417","433903","0.0-1.0-589.0","0","0","47695","","null","","","null","65","","NaN","","","","","","","","","","","","","",""
"","response","","html-keyboard-response","418","434430","0.0-1.0-590.0-0.0","0","0","47695","","523","","","68","65","","","2","65","training","adjacent","BA","2","1","L.jpg","M.jpg","0","0","1","",""
"","feedback","","html-keyboard-response","419","435438","0.0-1.0-591.0-0.0","0","0","47695","","null","","","null","65","","","","","","","","","","","","","","","",""
"","ITI","","html-keyboard-response","420","436449","0.0-1.0-594.0","0","0","47695","","null","","","null","65","","","","","","","","","","","","","","","NaN",""
"","S1","","html-keyboard-response","421","436710","0.0-1.0-596.0","0","0","47695","","null","","","null","66","","","","","","","","","","","","","","","",""
"","ISI","","html-keyboard-response","422","437720","0.0-1.0-597.0","0","0","47695","","null","","","null","66","NaN","","","","","","","","","","","","","","",""
"","S2","","html-keyboard-response","423","437976","0.0-1.0-598.0","0","0","47695","","null","","","null","66","","NaN","","","","","","","","","","","","","",""
"","response","","html-keyboard-response","424","438750","0.0-1.0-599.0-0.0","0","0","47695","","768","","","75","66","","","2","66","training","adjacent","CD","3","4","P.jpg","O.jpg","1","1","1","",""
"","feedback","","html-keyboard-response","425","439761","0.0-1.0-600.0-0.0","0","0","47695","","null","","","null","66","","","","","","","","","","","","","","","",""
"","ITI","","html-keyboard-response","426","440768","0.0-1.0-603.0","0","0","47695","","null","","","null","66","","","","","","","","","","","","","","","NaN",""
"","S1","","html-keyboard-response","427","441031","0.0-1.0-605.0","0","0","47695","","null","","","null","67","","","","","","","","","","","","","","","",""
"","ISI","","html-keyboard-response","428","442040","0.0-1.0-606.0","0","0","47695","","null","","","null","67","NaN","","","","","","","","","","","","","","",""
"","S2","","html-keyboard-response","429","442296","0.0-1.0-607.0","0","0","47695","","null","","","null","67","","NaN","","","","","","","","","","","","","",""
"","response","","html-keyboard-response","430","442520","0.0-1.0-608.0-0.0","0","0","47695","","210","","","75","67","","","2","67","training","adjacent","AB","1","2","M.jpg","L.jpg","1","1","1","",""
"","feedback","","html-keyboard-response","431","443528","0.0-1.0-609.0-0.0","0","0","47695","","null","","","null","67","","","","","","","","","","","","","","","",""
"","ITI","","html-keyboard-response","432","444536","0.0-1.0-612.0","0","0","47695","","null","","","null","67","","","","","","","","","","","","","","","NaN",""
"","S1","","html-keyboard-response","433","444792","0.0-1.0-614.0","0","0","47695","","null","","","null","68","","","","","","","","","","","","","","","",""
"","ISI","","html-keyboard-response","434","445800","0.0-1.0-615.0","0","0","47695","","null","","","null","68","NaN","","","","","","","","","","","","","","",""
"","S2","","html-keyboard-response","435","446064","0.0-1.0-616.0","0","0","47695","","null","","","null","68","","NaN","","","","","","","","","","","","","",""
"","response","","html-keyboard-response","436","446670","0.0-1.0-617.0-0.0","0","0","47695","","602","","","75","68","","","2","68","training","adjacent","CD","3","4","P.jpg","O.jpg","1","1","1","",""
"","feedback","","html-keyboard-response","437","447693","0.0-1.0-618.0-0.0","0","0","47695","","null","","","null","68","","","","","","","","","","","","","","","",""
"","ITI","","html-keyboard-response","438","448704","0.0-1.0-621.0","0","0","47695","","null","","","null","68","","","","","","","","","","","","","","","NaN",""
"","S1","","html-keyboard-response","439","448960","0.0-1.0-623.0","0","0","47695","","null","","","null","69","","","","","","","","","","","","","","","",""
"","ISI","","html-keyboard-response","440","449968","0.0-1.0-624.0","0","0","47695","","null","","","null","69","NaN","","","","","","","","","","","","","","",""
"","S2","","html-keyboard-response","441","450233","0.0-1.0-625.0","0","0","47695","","null","","","null","69","","NaN","","","","","","","","","","","","","",""
"","response","","html-keyboard-response","442","450793","0.0-1.0-626.0-0.0","0","0","47695","","556","","","75","69","","","2","69","training","adjacent","CD","3","4","P.jpg","O.jpg","1","1","1","",""
"","feedback","","html-keyboard-response","443","451800","0.0-1.0-627.0-0.0","0","0","47695","","null","","","null","69","","","","","","","","","","","","","","","",""
"","ITI","","html-keyboard-response","444","452808","0.0-1.0-630.0","0","0","47695","","null","","","null","69","","","","","","","","","","","","","","","NaN",""
"","S1","","html-keyboard-response","445","453072","0.0-1.0-632.0","0","0","47695","","null","","","null","70","","","","","","","","","","","","","","","",""
"","ISI","","html-keyboard-response","446","454080","0.0-1.0-633.0","0","0","47695","","null","","","null","70","NaN","","","","","","","","","","","","","","",""
"","S2","","html-keyboard-response","447","454344","0.0-1.0-634.0","0","0","47695","","null","","","null","70","","NaN","","","","","","","","","","","","","",""
"","response","","html-keyboard-response","448","454531","0.0-1.0-635.0-0.0","0","0","47695","","182","","","68","70","","","2","70","training","adjacent","GF","7","6","Q.jpg","R.jpg","0","0","1","",""
"","feedback","","html-keyboard-response","449","455544","0.0-1.0-636.0-0.0","0","0","47695","","null","","","null","70","","","","","","","","","","","","","","","",""
"","ITI","","html-keyboard-response","450","456552","0.0-1.0-639.0","0","0","47695","","null","","","null","70","","","","","","","","","","","","","","","NaN",""
"","S1","","html-keyboard-response","451","456807","0.0-1.0-641.0","0","0","47695","","null","","","null","71","","","","","","","","","","","","","","","",""
"","ISI","","html-keyboard-response","452","457816","0.0-1.0-642.0","0","0","47695","","null","","","null","71","NaN","","","","","","","","","","","","","","",""
"","S2","","html-keyboard-response","453","458082","0.0-1.0-643.0","0","0","47695","","null","","","null","71","","NaN","","","","","","","","","","","","","",""
"","response","","html-keyboard-response","454","459193","0.0-1.0-644.0-0.0","0","0","47695","","1106","","","75","71","","","2","71","training","adjacent","EF","5","6","N.jpg","R.jpg","1","1","1","",""
"","feedback","","html-keyboard-response","455","460200","0.0-1.0-645.0-0.0","0","0","47695","","null","","","null","71","","","","","","","","","","","","","","","",""
"","ITI","","html-keyboard-response","456","461208","0.0-1.0-648.0","0","0","47695","","null","","","null","71","","","","","","","","","","","","","","","NaN",""
"","S1","","html-keyboard-response","457","461464","0.0-1.0-650.0","0","0","47695","","null","","","null","72","","","","","","","","","","","","","","","",""
"","ISI","","html-keyboard-response","458","462471","0.0-1.0-651.0","0","0","47695","","null","","","null","72","NaN","","","","","","","","","","","","","","",""
"","S2","","html-keyboard-response","459","462728","0.0-1.0-652.0","0","0","47695","","null","","","null","72","","NaN","","","","","","","","","","","","","",""
"","response","","html-keyboard-response","460","463290","0.0-1.0-653.0-0.0","0","0","47695","","556","","","75","72","","","2","72","training","adjacent","EF","5","6","N.jpg","R.jpg","1","1","1","",""
"","feedback","","html-keyboard-response","461","464304","0.0-1.0-654.0-0.0","0","0","47695","","null","","","null","72","","","","","","","","","","","","","","","",""
"","ITI","","html-keyboard-response","462","465311","0.0-1.0-657.0","0","0","47695","","null","","","null","72","","","","","","","","","","","","","","","NaN",""
"","S1","","html-keyboard-response","463","465569","0.0-1.0-659.0","0","0","47695","","null","","","null","73","","","","","","","","","","","","","","","",""
"","ISI","","html-keyboard-response","464","466576","0.0-1.0-660.0","0","0","47695","","null","","","null","73","NaN","","","","","","","","","","","","","","",""
"","S2","","html-keyboard-response","465","466832","0.0-1.0-661.0","0","0","47695","","null","","","null","73","","NaN","","","","","","","","","","","","","",""
"","response","","html-keyboard-response","466","467570","0.0-1.0-662.0-0.0","0","0","47695","","733","","","68","73","","","2","73","training","adjacent","ED","5","4","N.jpg","O.jpg","0","0","1","",""
"","feedback","","html-keyboard-response","467","468584","0.0-1.0-663.0-0.0","0","0","47695","","null","","","null","73","","","","","","","","","","","","","","","",""
"","ITI","","html-keyboard-response","468","469592","0.0-1.0-666.0","0","0","47695","","null","","","null","73","","","","","","","","","","","","","","","NaN",""
"","S1","","html-keyboard-response","469","469848","0.0-1.0-668.0","0","0","47695","","null","","","null","74","","","","","","","","","","","","","","","",""
"","ISI","","html-keyboard-response","470","470856","0.0-1.0-669.0","0","0","47695","","null","","","null","74","NaN","","","","","","","","","","","","","","",""
"","S2","","html-keyboard-response","471","471120","0.0-1.0-670.0","0","0","47695","","null","","","null","74","","NaN","","","","","","","","","","","","","",""
"","response","","html-keyboard-response","472","471610","0.0-1.0-671.0-0.0","0","0","47695","","485","","","75","74","","","2","74","training","adjacent","FG","6","7","R.jpg","Q.jpg","1","1","1","",""
"","feedback","","html-keyboard-response","473","472624","0.0-1.0-672.0-0.0","0","0","47695","","null","","","null","74","","","","","","","","","","","","","","","",""
"","ITI","","html-keyboard-response","474","473632","0.0-1.0-675.0","0","0","47695","","null","","","null","74","","","","","","","","","","","","","","","NaN",""
"","S1","","html-keyboard-response","475","473888","0.0-1.0-677.0","0","0","47695","","null","","","null","75","","","","","","","","","","","","","","","",""
"","ISI","","html-keyboard-response","476","474896","0.0-1.0-678.0","0","0","47695","","null","","","null","75","NaN","","","","","","","","","","","","","","",""
"","S2","","html-keyboard-response","477","475152","0.0-1.0-679.0","0","0","47695","","null","","","null","75","","NaN","","","","","","","","","","","","","",""
"","response","","html-keyboard-response","478","476227","0.0-1.0-680.0-0.0","0","0","47695","","1069","","","68","75","","","2","75","training","adjacent","DE","4","5","O.jpg","N.jpg","0","1","0","",""
"","feedback","","html-keyboard-response","479","477240","0.0-1.0-681.0-0.0","0","0","47695","","null","","","null","75","","","","","","","","","","","","","","","",""
"","time_out","","html-keyboard-response","480","479248","0.0-1.0-683.0-0.0","0","0","47695","","null","","","null","75","","","","","","","","","","","","","","","",""
"","ITI","","html-keyboard-response","481","480256","0.0-1.0-684.0","0","0","47695","","null","","","null","75","","","","","","","","","","","","","","","NaN",""
"","S1","","html-keyboard-response","482","480522","0.0-1.0-686.0","0","0","47695","","null","","","null","76","","","","","","","","","","","","","","","",""
"","ISI","","html-keyboard-response","483","481527","0.0-1.0-687.0","0","0","47695","","null","","","null","76","NaN","","","","","","","","","","","","","","",""
"","S2","","html-keyboard-response","484","481784","0.0-1.0-688.0","0","0","47695","","null","","","null","76","","NaN","","","","","","","","","","","","","",""
"","response","","html-keyboard-response","485","481944","0.0-1.0-689.0-0.0","0","0","47695","","156","","","75","76","","","2","76","training","adjacent","DE","4","5","O.jpg","N.jpg","1","1","1","",""
"","feedback","","html-keyboard-response","486","482952","0.0-1.0-690.0-0.0","0","0","47695","","null","","","null","76","","","","","","","","","","","","","","","",""
"","ITI","","html-keyboard-response","487","483960","0.0-1.0-693.0","0","0","47695","","null","","","null","76","","","","","","","","","","","","","","","NaN",""
"","S1","","html-keyboard-response","488","484223","0.0-1.0-695.0","0","0","47695","","null","","","null","77","","","","","","","","","","","","","","","",""
"","ISI","","html-keyboard-response","489","485232","0.0-1.0-696.0","0","0","47695","","null","","","null","77","NaN","","","","","","","","","","","","","","",""
"","S2","","html-keyboard-response","490","485488","0.0-1.0-697.0","0","0","47695","","null","","","null","77","","NaN","","","","","","","","","","","","","",""
"","response","","html-keyboard-response","491","486473","0.0-1.0-698.0-0.0","0","0","47695","","981","","","75","77","","","2","77","training","adjacent","BC","2","3","L.jpg","P.jpg","1","1","1","",""
"","feedback","","html-keyboard-response","492","487479","0.0-1.0-699.0-0.0","0","0","47695","","null","","","null","77","","","","","","","","","","","","","","","",""
"","ITI","","html-keyboard-response","493","488488","0.0-1.0-702.0","0","0","47695","","null","","","null","77","","","","","","","","","","","","","","","NaN",""
"","S1","","html-keyboard-response","494","488744","0.0-1.0-704.0","0","0","47695","","null","","","null","78","","","","","","","","","","","","","","","",""
"","ISI","","html-keyboard-response","495","489752","0.0-1.0-705.0","0","0","47695","","null","","","null","78","NaN","","","","","","","","","","","","","","",""
"","S2","","html-keyboard-response","496","490008","0.0-1.0-706.0","0","0","47695","","null","","","null","78","","NaN","","","","","","","","","","","","","",""
"","response","","html-keyboard-response","497","490687","0.0-1.0-707.0-0.0","0","0","47695","","674","","","68","78","","","2","78","training","adjacent","ED","5","4","N.jpg","O.jpg","0","0","1","",""
"","feedback","","html-keyboard-response","498","491694","0.0-1.0-708.0-0.0","0","0","47695","","null","","","null","78","","","","","","","","","","","","","","","",""
"","ITI","","html-keyboard-response","499","492704","0.0-1.0-711.0","0","0","47695","","null","","","null","78","","","","","","","","","","","","","","","NaN",""
"","S1","","html-keyboard-response","500","492959","0.0-1.0-713.0","0","0","47695","","null","","","null","79","","","","","","","","","","","","","","","",""
"","ISI","","html-keyboard-response","501","493968","0.0-1.0-714.0","0","0","47695","","null","","","null","79","NaN","","","","","","","","","","","","","","",""
"","S2","","html-keyboard-response","502","494224","0.0-1.0-715.0","0","0","47695","","null","","","null","79","","NaN","","","","","","","","","","","","","",""
"","response","","html-keyboard-response","503","495475","0.0-1.0-716.0-0.0","0","0","47695","","1243","","","75","79","","","2","79","training","adjacent","BC","2","3","L.jpg","P.jpg","1","1","1","",""
"","feedback","","html-keyboard-response","504","496486","0.0-1.0-717.0-0.0","0","0","47695","","null","","","null","79","","","","","","","","","","","","","","","",""
"","ITI","","html-keyboard-response","505","497496","0.0-1.0-720.0","0","0","47695","","null","","","null","79","","","","","","","","","","","","","","","NaN",""
"","S1","","html-keyboard-response","506","497751","0.0-1.0-722.0","0","0","47695","","null","","","null","80","","","","","","","","","","","","","","","",""
"","ISI","","html-keyboard-response","507","498760","0.0-1.0-723.0","0","0","47695","","null","","","null","80","NaN","","","","","","","","","","","","","","",""
"","S2","","html-keyboard-response","508","499016","0.0-1.0-724.0","0","0","47695","","null","","","null","80","","NaN","","","","","","","","","","","","","",""
"","response","","html-keyboard-response","509","500022","0.0-1.0-725.0-0.0","0","0","47695","","1002","","","68","80","","","2","80","training","adjacent","DC","4","3","O.jpg","P.jpg","0","0","1","",""
"","feedback","","html-keyboard-response","510","501030","0.0-1.0-726.0-0.0","0","0","47695","","null","","","null","80","","","","","","","","","","","","","","","",""
"","ITI","","html-keyboard-response","511","502039","0.0-1.0-729.0","0","0","47695","","null","","","null","80","","","","","","","","","","","","","","","NaN",""
"","S1","","html-keyboard-response","512","502297","0.0-1.0-731.0","0","0","47695","","null","","","null","81","","","","","","","","","","","","","","","",""
"","ISI","","html-keyboard-response","513","503305","0.0-1.0-732.0","0","0","47695","","null","","","null","81","NaN","","","","","","","","","","","","","","",""
"","S2","","html-keyboard-response","514","503567","0.0-1.0-733.0","0","0","47695","","null","","","null","81","","NaN","","","","","","","","","","","","","",""
"","response","","html-keyboard-response","515","504706","0.0-1.0-734.0-0.0","0","0","47695","","1133","","","68","81","","","2","81","training","adjacent","ED","5","4","N.jpg","O.jpg","0","0","1","",""
"","feedback","","html-keyboard-response","516","505718","0.0-1.0-735.0-0.0","0","0","47695","","null","","","null","81","","","","","","","","","","","","","","","",""
"","ITI","","html-keyboard-response","517","506728","0.0-1.0-738.0","0","0","47695","","null","","","null","81","","","","","","","","","","","","","","","NaN",""
"","S1","","html-keyboard-response","518","506984","0.0-1.0-740.0","0","0","47695","","null","","","null","82","","","","","","","","","","","","","","","",""
"","ISI","","html-keyboard-response","519","507992","0.0-1.0-741.0","0","0","47695","","null","","","null","82","NaN","","","","","","","","","","","","","","",""
"","S2","","html-keyboard-response","520","508254","0.0-1.0-742.0","0","0","47695","","null","","","null","82","","NaN","","","","","","","","","","","","","",""
"","response","","html-keyboard-response","521","509332","0.0-1.0-743.0-0.0","0","0","47695","","1075","","","75","82","","","2","82","training","adjacent","CD","3","4","P.jpg","O.jpg","1","1","1","",""
"","feedback","","html-keyboard-response","522","510349","0.0-1.0-744.0-0.0","0","0","47695","","null","","","null","82","","","","","","","","","","","","","","","",""
"","ITI","","html-keyboard-response","523","511360","0.0-1.0-747.0","0","0","47695","","null","","","null","82","","","","","","","","","","","","","","","NaN",""
"","S1","","html-keyboard-response","524","511623","0.0-1.0-749.0","0","0","47695","","null","","","null","83","","","","","","","","","","","","","","","",""
"","ISI","","html-keyboard-response","525","512634","0.0-1.0-750.0","0","0","47695","","null","","","null","83","NaN","","","","","","","","","","","","","","",""
"","S2","","html-keyboard-response","526","512896","0.0-1.0-751.0","0","0","47695","","null","","","null","83","","NaN","","","","","","","","","","","","","",""
"","response","","html-keyboard-response","527","514545","0.0-1.0-752.0-0.0","0","0","47695","","1643","","","75","83","","","2","83","training","adjacent","DE","4","5","O.jpg","N.jpg","1","1","1","",""
"","feedback","","html-keyboard-response","528","515552","0.0-1.0-753.0-0.0","0","0","47695","","null","","","null","83","","","","","","","","","","","","","","","",""
"","ITI","","html-keyboard-response","529","516560","0.0-1.0-756.0","0","0","47695","","null","","","null","83","","","","","","","","","","","","","","","NaN",""
"","S1","","html-keyboard-response","530","516814","0.0-1.0-758.0","0","0","47695","","null","","","null","84","","","","","","","","","","","","","","","",""
"","ISI","","html-keyboard-response","531","517823","0.0-1.0-759.0","0","0","47695","","null","","","null","84","NaN","","","","","","","","","","","","","","",""
"","S2","","html-keyboard-response","532","518083","0.0-1.0-760.0","0","0","47695","","null","","","null","84","","NaN","","","","","","","","","","","","","",""
"","response","","html-keyboard-response","533","518342","0.0-1.0-761.0-0.0","0","0","47695","","247","","","75","84","","","2","84","training","adjacent","AB","1","2","M.jpg","L.jpg","1","1","1","",""
"","feedback","","html-keyboard-response","534","519352","0.0-1.0-762.0-0.0","0","0","47695","","null","","","null","84","","","","","","","","","","","","","","","",""
"","ITI","","html-keyboard-response","535","520360","0.0-1.0-765.0","0","0","47695","","null","","","null","84","","","","","","","","","","","","","","","NaN",""
"","S1","","html-keyboard-response","536","520616","0.0-1.0-767.0","0","0","47695","","null","","","null","85","","","","","","","","","","","","","","","",""
"","ISI","","html-keyboard-response","537","521623","0.0-1.0-768.0","0","0","47695","","null","","","null","85","NaN","","","","","","","","","","","","","","",""
"","S2","","html-keyboard-response","538","521880","0.0-1.0-769.0","0","0","47695","","null","","","null","85","","NaN","","","","","","","","","","","","","",""
"","response","","html-keyboard-response","539","522182","0.0-1.0-770.0-0.0","0","0","47695","","296","","","75","85","","","2","85","training","adjacent","FG","6","7","R.jpg","Q.jpg","1","1","1","",""
"","feedback","","html-keyboard-response","540","523192","0.0-1.0-771.0-0.0","0","0","47695","","null","","","null","85","","","","","","","","","","","","","","","",""
"","ITI","","html-keyboard-response","541","524200","0.0-1.0-774.0","0","0","47695","","null","","","null","85","","","","","","","","","","","","","","","NaN",""
"","S1","","html-keyboard-response","542","524455","0.0-1.0-776.0","0","0","47695","","null","","","null","86","","","","","","","","","","","","","","","",""
"","ISI","","html-keyboard-response","543","525464","0.0-1.0-777.0","0","0","47695","","null","","","null","86","NaN","","","","","","","","","","","","","","",""
"","S2","","html-keyboard-response","544","525721","0.0-1.0-778.0","0","0","47695","","null","","","null","86","","NaN","","","","","","","","","","","","","",""
"","response","","html-keyboard-response","545","526529","0.0-1.0-779.0-0.0","0","0","47695","","804","","","68","86","","","2","86","training","adjacent","CB","3","2","P.jpg","L.jpg","0","0","1","",""
"","feedback","","html-keyboard-response","546","527536","0.0-1.0-780.0-0.0","0","0","47695","","null","","","null","86","","","","","","","","","","","","","","","",""
"","ITI","","html-keyboard-response","547","528544","0.0-1.0-783.0","0","0","47695","","null","","","null","86","","","","","","","","","","","","","","","NaN",""
"","S1","","html-keyboard-response","548","528800","0.0-1.0-785.0","0","0","47695","","null","","","null","87","","","","","","","","","","","","","","","",""
"","ISI","","html-keyboard-response","549","529807","0.0-1.0-786.0","0","0","47695","","null","","","null","87","NaN","","","","","","","","","","","","","","",""
"","S2","","html-keyboard-response","550","530072","0.0-1.0-787.0","0","0","47695","","null","","","null","87","","NaN","","","","","","","","","","","","","",""
"","response","","html-keyboard-response","551","530706","0.0-1.0-788.0-0.0","0","0","47695","","631","","","75","87","","","2","87","training","adjacent","AB","1","2","M.jpg","L.jpg","1","1","1","",""
"","feedback","","html-keyboard-response","552","531720","0.0-1.0-789.0-0.0","0","0","47695","","null","","","null","87","","","","","","","","","","","","","","","",""
"","ITI","","html-keyboard-response","553","532728","0.0-1.0-792.0","0","0","47695","","null","","","null","87","","","","","","","","","","","","","","","NaN",""
"","S1","","html-keyboard-response","554","532984","0.0-1.0-794.0","0","0","47695","","null","","","null","88","","","","","","","","","","","","","","","",""
"","ISI","","html-keyboard-response","555","533992","0.0-1.0-795.0","0","0","47695","","null","","","null","88","NaN","","","","","","","","","","","","","","",""
"","S2","","html-keyboard-response","556","534248","0.0-1.0-796.0","0","0","47695","","null","","","null","88","","NaN","","","","","","","","","","","","","",""
"","response","","html-keyboard-response","557","535696","0.0-1.0-797.0-0.0","0","0","47695","","1444","","","75","88","","","2","88","training","adjacent","EF","5","6","N.jpg","R.jpg","1","1","1","",""
"","feedback","","html-keyboard-response","558","536704","0.0-1.0-798.0-0.0","0","0","47695","","null","","","null","88","","","","","","","","","","","","","","","",""
"","ITI","","html-keyboard-response","559","537712","0.0-1.0-801.0","0","0","47695","","null","","","null","88","","","","","","","","","","","","","","","NaN",""
"","S1","","html-keyboard-response","560","537968","0.0-1.0-803.0","0","0","47695","","null","","","null","89","","","","","","","","","","","","","","","",""
"","ISI","","html-keyboard-response","561","538974","0.0-1.0-804.0","0","0","47695","","null","","","null","89","NaN","","","","","","","","","","","","","","",""
"","S2","","html-keyboard-response","562","539232","0.0-1.0-805.0","0","0","47695","","null","","","null","89","","NaN","","","","","","","","","","","","","",""
"","response","","html-keyboard-response","563","540127","0.0-1.0-806.0-0.0","0","0","47695","","889","","","75","89","","","2","89","training","adjacent","EF","5","6","N.jpg","R.jpg","1","1","1","",""
"","feedback","","html-keyboard-response","564","541136","0.0-1.0-807.0-0.0","0","0","47695","","null","","","null","89","","","","","","","","","","","","","","","",""
"","ITI","","html-keyboard-response","565","542144","0.0-1.0-810.0","0","0","47695","","null","","","null","89","","","","","","","","","","","","","","","NaN",""
"","S1","","html-keyboard-response","566","542398","0.0-1.0-812.0","0","0","47695","","null","","","null","90","","","","","","","","","","","","","","","",""
"","ISI","","html-keyboard-response","567","543408","0.0-1.0-813.0","0","0","47695","","null","","","null","90","NaN","","","","","","","","","","","","","","",""
"","S2","","html-keyboard-response","568","543664","0.0-1.0-814.0","0","0","47695","","null","","","null","90","","NaN","","","","","","","","","","","","","",""
"","response","","html-keyboard-response","569","544901","0.0-1.0-815.0-0.0","0","0","47695","","1233","","","75","90","","","2","90","training","adjacent","BC","2","3","L.jpg","P.jpg","1","1","1","",""
"","feedback","","html-keyboard-response","570","545912","0.0-1.0-816.0-0.0","0","0","47695","","null","","","null","90","","","","","","","","","","","","","","","",""
"","ITI","","html-keyboard-response","571","546921","0.0-1.0-819.0","0","0","47695","","null","","","null","90","","","","","","","","","","","","","","","NaN",""
"","S1","","html-keyboard-response","572","547184","0.0-1.0-821.0","0","0","47695","","null","","","null","91","","","","","","","","","","","","","","","",""
"","ISI","","html-keyboard-response","573","548192","0.0-1.0-822.0","0","0","47695","","null","","","null","91","NaN","","","","","","","","","","","","","","",""
"","S2","","html-keyboard-response","574","548446","0.0-1.0-823.0","0","0","47695","","null","","","null","91","","NaN","","","","","","","","","","","","","",""
"","response","","html-keyboard-response","575","548798","0.0-1.0-824.0-0.0","0","0","47695","","347","","","75","91","","","2","91","training","adjacent","AB","1","2","M.jpg","L.jpg","1","1","1","",""
"","feedback","","html-keyboard-response","576","549808","0.0-1.0-825.0-0.0","0","0","47695","","null","","","null","91","","","","","","","","","","","","","","","",""
"","ITI","","html-keyboard-response","577","550814","0.0-1.0-828.0","0","0","47695","","null","","","null","91","","","","","","","","","","","","","","","NaN",""
"","S1","","html-keyboard-response","578","551072","0.0-1.0-830.0","0","0","47695","","null","","","null","92","","","","","","","","","","","","","","","",""
"","ISI","","html-keyboard-response","579","552083","0.0-1.0-831.0","0","0","47695","","null","","","null","92","NaN","","","","","","","","","","","","","","",""
"","S2","","html-keyboard-response","580","552342","0.0-1.0-832.0","0","0","47695","","null","","","null","92","","NaN","","","","","","","","","","","","","",""
"","response","","html-keyboard-response","581","553041","0.0-1.0-833.0-0.0","0","0","47695","","695","","","75","92","","","2","92","training","adjacent","BC","2","3","L.jpg","P.jpg","1","1","1","",""
"","feedback","","html-keyboard-response","582","554048","0.0-1.0-834.0-0.0","0","0","47695","","null","","","null","92","","","","","","","","","","","","","","","",""
