"success","ttype","start_time","trial_type","trial_index","time_elapsed","internal_node_id","warning","missed_checkup","PID","view_history","rt","responses","repeat_instructions","key_press","index","keypress_isi","keypress_S2","block","trial_num","phase","group_type","pair_type","S1_stim","S2_stim","S1_img","S2_img","S1_chosen","S1_higher","accuracy","keypress_iti","total_bonus_tally"
"true","full_screen","d04132023hr1444","fullscreen","0","10733","0.0-0.0","0","0","19295","","","","","","","","","","","","","","","","","","","","","",""
"","instructions","","instructions","1","53248","0.0-1.0-0.0-0.0","0","0","19295","[{""page_index"":0,""viewing_time"":22383},{""page_index"":1,""viewing_time"":7755},{""page_index"":2,""viewing_time"":11017},{""page_index"":3,""viewing_time"":1359}]","42514","","","","","","","","","","","","","","","","","","","",""
"","comprehension_check","","survey-multi-choice","2","75063","0.0-1.0-0.0-1.0","0","0","19295","","21812","{""Q0"":""True"",""Q1"":""D"",""Q2"":""Once the second image appears and while the screen 'MAKE A CHOICE' is shown"",""Q3"":""Green mark"",""Q4"":""either D or K""}","1","","","","","","","","","","","","","","","","","",""
"","missed_instruction_checkup","","html-keyboard-response","3","77262","0.0-1.0-0.0-2.0-0.0","0","1","19295","","2196","","","32","","","","","","","","","","","","","","","","",""
"","instructions","","instructions","4","82177","0.0-1.0-0.1-0.1","0","0","19295","[{""page_index"":0,""viewing_time"":2700},{""page_index"":1,""viewing_time"":803},{""page_index"":2,""viewing_time"":737},{""page_index"":3,""viewing_time"":674}]","4914","","","","","","","","","","","","","","","","","","","",""
"","comprehension_check","","survey-multi-choice","5","99049","0.0-1.0-0.1-1.1","0","0","19295","","16870","{""Q0"":""False"",""Q1"":""D"",""Q2"":""Only when the screen 'MAKE A CHOICE' is shown"",""Q3"":""Green mark"",""Q4"":""either D or K""}","1","","","","","","","","","","","","","","","","","",""
"","missed_instruction_checkup","","html-keyboard-response","6","100908","0.0-1.0-0.1-2.1-0.1","0","1","19295","","1858","","","32","","","","","","","","","","","","","","","","",""
"","instructions","","instructions","7","109679","0.0-1.0-0.2-0.2","0","0","19295","[{""page_index"":0,""viewing_time"":2473},{""page_index"":1,""viewing_time"":5295},{""page_index"":2,""viewing_time"":526},{""page_index"":3,""viewing_time"":476}]","8770","","","","","","","","","","","","","","","","","","","",""
"","comprehension_check","","survey-multi-choice","8","118424","0.0-1.0-0.2-1.2","0","0","19295","","8743","{""Q0"":""False"",""Q1"":""D"",""Q2"":""Once the second image appears and while the screen 'MAKE A CHOICE' is shown"",""Q3"":""Green mark"",""Q4"":""either D or K""}","1","","","","","","","","","","","","","","","","","",""
"","missed_instruction_checkup","","html-keyboard-response","9","120852","0.0-1.0-0.2-2.2-0.2","0","1","19295","","2426","","","32","","","","","","","","","","","","","","","","",""
"","instructions","","instructions","10","127834","0.0-1.0-0.3-0.3","0","0","19295","[{""page_index"":0,""viewing_time"":3170},{""page_index"":1,""viewing_time"":2562},{""page_index"":2,""viewing_time"":631},{""page_index"":3,""viewing_time"":618}]","6981","","","","","","","","","","","","","","","","","","","",""
"","comprehension_check","","survey-multi-choice","11","136721","0.0-1.0-0.3-1.3","0","0","19295","","8884","{""Q0"":""True"",""Q1"":""K"",""Q2"":""Once the second image appears and while the screen 'MAKE A CHOICE' is shown"",""Q3"":""Green mark"",""Q4"":""either D or K""}","0","","","","","","","","","","","","","","","","","",""
"","start_exp","","html-keyboard-response","12","138519","0.0-1.0-1.0","0","0","19295","","1796","","","32","","","","","","","","","","","","","","","","",""
"","S1","","html-keyboard-response","13","138771","0.0-1.0-2.0","0","0","19295","","null","","","null","0","","","","","","","","","","","","","","","",""
"","ISI","","html-keyboard-response","14","139773","0.0-1.0-3.0","0","0","19295","","null","","","null","0","NaN","","","","","","","","","","","","","","",""
"","S2","","html-keyboard-response","15","140025","0.0-1.0-4.0","0","0","19295","","null","","","null","0","","NaN","","","","","","","","","","","","","",""
"","response","","html-keyboard-response","16","141195","0.0-1.0-5.0-0.0","0","0","19295","","1169","","","75","0","","","1","0","training","adjacent","DC","4","3","R.jpg","Q.jpg","1","0","0","",""
"","feedback","","html-keyboard-response","17","142198","0.0-1.0-6.0-0.0","0","0","19295","","null","","","null","0","","","","","","","","","","","","","","","",""
"","time_out","","html-keyboard-response","18","144200","0.0-1.0-8.0-0.0","0","0","19295","","null","","","null","0","","","","","","","","","","","","","","","",""
"","ITI","","html-keyboard-response","19","145203","0.0-1.0-9.0","0","0","19295","","null","","","null","0","","","","","","","","","","","","","","","NaN",""
"","S1","","html-keyboard-response","20","145454","0.0-1.0-11.0","0","0","19295","","null","","","null","1","","","","","","","","","","","","","","","",""
"","ISI","","html-keyboard-response","21","146457","0.0-1.0-12.0","0","0","19295","","null","","","null","1","NaN","","","","","","","","","","","","","","",""
"","S2","","html-keyboard-response","22","146709","0.0-1.0-13.0","0","0","19295","","null","","","null","1","","NaN","","","","","","","","","","","","","",""
"","response","","html-keyboard-response","23","147760","0.0-1.0-14.0-0.0","0","0","19295","","1050","","","68","1","","","1","1","training","adjacent","BA","2","1","O.jpg","N.jpg","0","0","1","",""
"","feedback","","html-keyboard-response","24","148762","0.0-1.0-15.0-0.0","0","0","19295","","null","","","null","1","","","","","","","","","","","","","","","",""
"","ITI","","html-keyboard-response","25","149764","0.0-1.0-18.0","0","0","19295","","null","","","null","1","","","","","","","","","","","","","","","NaN",""
"","S1","","html-keyboard-response","26","150016","0.0-1.0-20.0","0","0","19295","","null","","","null","2","","","","","","","","","","","","","","","",""
"","ISI","","html-keyboard-response","27","151018","0.0-1.0-21.0","0","0","19295","","null","","","null","2","NaN","","","","","","","","","","","","","","",""
"","S2","","html-keyboard-response","28","151271","0.0-1.0-22.0","0","0","19295","","null","","","null","2","","NaN","","","","","","","","","","","","","",""
"","response","","html-keyboard-response","29","152719","0.0-1.0-23.0-0.0","0","0","19295","","1447","","","68","2","","","1","2","training","adjacent","GF","7","6","M.jpg","P.jpg","0","0","1","",""
"","feedback","","html-keyboard-response","30","153722","0.0-1.0-24.0-0.0","0","0","19295","","null","","","null","2","","","","","","","","","","","","","","","",""
"","ITI","","html-keyboard-response","31","154724","0.0-1.0-27.0","0","0","19295","","null","","","null","2","","","","","","","","","","","","","","","NaN",""
"","S1","","html-keyboard-response","32","154975","0.0-1.0-29.0","0","0","19295","","null","","","null","3","","","","","","","","","","","","","","","",""
"","ISI","","html-keyboard-response","33","155979","0.0-1.0-30.0","0","0","19295","","null","","","null","3","NaN","","","","","","","","","","","","","","",""
"","S2","","html-keyboard-response","34","156231","0.0-1.0-31.0","0","0","19295","","null","","","null","3","","NaN","","","","","","","","","","","","","",""
"","response","","html-keyboard-response","35","157366","0.0-1.0-32.0-0.0","0","0","19295","","1133","","","68","3","","","1","3","training","adjacent","DE","4","5","R.jpg","L.jpg","0","1","0","",""
"","feedback","","html-keyboard-response","36","158369","0.0-1.0-33.0-0.0","0","0","19295","","null","","","null","3","","","","","","","","","","","","","","","",""
"","time_out","","html-keyboard-response","37","160371","0.0-1.0-35.0-0.0","0","0","19295","","null","","","null","3","","","","","","","","","","","","","","","",""
"","ITI","","html-keyboard-response","38","161374","0.0-1.0-36.0","0","0","19295","","null","","","null","3","","","","","","","","","","","","","","","NaN",""
"","S1","","html-keyboard-response","39","161626","0.0-1.0-38.0","0","0","19295","","null","","","null","4","","","","","","","","","","","","","","","",""
"","ISI","","html-keyboard-response","40","162629","0.0-1.0-39.0","0","0","19295","","null","","","null","4","NaN","","","","","","","","","","","","","","",""
"","S2","","html-keyboard-response","41","162882","0.0-1.0-40.0","0","0","19295","","null","","","null","4","","NaN","","","","","","","","","","","","","",""
"","response","","html-keyboard-response","42","163689","0.0-1.0-41.0-0.0","0","0","19295","","805","","","68","4","","","1","4","training","adjacent","GF","7","6","M.jpg","P.jpg","0","0","1","",""
"","feedback","","html-keyboard-response","43","164691","0.0-1.0-42.0-0.0","0","0","19295","","null","","","null","4","","","","","","","","","","","","","","","",""
"","ITI","","html-keyboard-response","44","165693","0.0-1.0-45.0","0","0","19295","","null","","","null","4","","","","","","","","","","","","","","","NaN",""
"","S1","","html-keyboard-response","45","165946","0.0-1.0-47.0","0","0","19295","","null","","","null","5","","","","","","","","","","","","","","","",""
"","ISI","","html-keyboard-response","46","166948","0.0-1.0-48.0","0","0","19295","","null","","","null","5","NaN","","","","","","","","","","","","","","",""
"","S2","","html-keyboard-response","47","167200","0.0-1.0-49.0","0","0","19295","","null","","","null","5","","NaN","","","","","","","","","","","","","",""
"","response","","html-keyboard-response","48","168895","0.0-1.0-50.0-0.0","0","0","19295","","1693","","","75","5","","","1","5","training","adjacent","FE","6","5","P.jpg","L.jpg","1","0","0","",""
"","feedback","","html-keyboard-response","49","169897","0.0-1.0-51.0-0.0","0","0","19295","","null","","","null","5","","","","","","","","","","","","","","","",""
"","time_out","","html-keyboard-response","50","171899","0.0-1.0-53.0-0.0","0","0","19295","","null","","","null","5","","","","","","","","","","","","","","","",""
"","ITI","","html-keyboard-response","51","172901","0.0-1.0-54.0","0","0","19295","","null","","","null","5","","","","","","","","","","","","","","","NaN",""
"","S1","","html-keyboard-response","52","173154","0.0-1.0-56.0","0","0","19295","","null","","","null","6","","","","","","","","","","","","","","","",""
"","ISI","","html-keyboard-response","53","174156","0.0-1.0-57.0","0","0","19295","","null","","","null","6","NaN","","","","","","","","","","","","","","",""
"","S2","","html-keyboard-response","54","174408","0.0-1.0-58.0","0","0","19295","","null","","","null","6","","NaN","","","","","","","","","","","","","",""
"","response","","html-keyboard-response","55","175457","0.0-1.0-59.0-0.0","0","0","19295","","1047","","","68","6","","","1","6","training","adjacent","DC","4","3","R.jpg","Q.jpg","0","0","1","",""
"","feedback","","html-keyboard-response","56","176459","0.0-1.0-60.0-0.0","0","0","19295","","null","","","null","6","","","","","","","","","","","","","","","",""
"","ITI","","html-keyboard-response","57","177462","0.0-1.0-63.0","0","0","19295","","null","","","null","6","","","","","","","","","","","","","","","NaN",""
"","S1","","html-keyboard-response","58","177714","0.0-1.0-65.0","0","0","19295","","null","","","null","7","","","","","","","","","","","","","","","",""
"","ISI","","html-keyboard-response","59","178716","0.0-1.0-66.0","0","0","19295","","null","","","null","7","NaN","","","","","","","","","","","","","","",""
"","S2","","html-keyboard-response","60","178969","0.0-1.0-67.0","0","0","19295","","null","","","null","7","","NaN","","","","","","","","","","","","","",""
"","response","","html-keyboard-response","61","180612","0.0-1.0-68.0-0.0","0","0","19295","","1641","","","68","7","","","1","7","training","adjacent","CB","3","2","Q.jpg","O.jpg","0","0","1","",""
"","feedback","","html-keyboard-response","62","181614","0.0-1.0-69.0-0.0","0","0","19295","","null","","","null","7","","","","","","","","","","","","","","","",""
"","ITI","","html-keyboard-response","63","182616","0.0-1.0-72.0","0","0","19295","","null","","","null","7","","","","","","","","","","","","","","","NaN",""
"","S1","","html-keyboard-response","64","182869","0.0-1.0-74.0","0","0","19295","","null","","","null","8","","","","","","","","","","","","","","","",""
"","ISI","","html-keyboard-response","65","183871","0.0-1.0-75.0","0","0","19295","","null","","","null","8","NaN","","","","","","","","","","","","","","",""
"","S2","","html-keyboard-response","66","184123","0.0-1.0-76.0","0","0","19295","","null","","","null","8","","NaN","","","","","","","","","","","","","",""
"","response","","html-keyboard-response","67","184818","0.0-1.0-77.0-0.0","0","0","19295","","694","","","75","8","","","1","8","training","adjacent","BC","2","3","O.jpg","Q.jpg","1","1","1","",""
"","feedback","","html-keyboard-response","68","185820","0.0-1.0-78.0-0.0","0","0","19295","","null","","","null","8","","","","","","","","","","","","","","","",""
"","ITI","","html-keyboard-response","69","186823","0.0-1.0-81.0","0","0","19295","","null","","","null","8","","","","","","","","","","","","","","","NaN",""
"","S1","","html-keyboard-response","70","187075","0.0-1.0-83.0","0","0","19295","","null","","","null","9","","","","","","","","","","","","","","","",""
"","ISI","","html-keyboard-response","71","188078","0.0-1.0-84.0","0","0","19295","","null","","","null","9","NaN","","","","","","","","","","","","","","",""
"","S2","","html-keyboard-response","72","188334","0.0-1.0-85.0","0","0","19295","","null","","","null","9","","NaN","","","","","","","","","","","","","",""
"","response","","html-keyboard-response","73","189619","0.0-1.0-86.0-0.0","0","0","19295","","1284","","","68","9","","","1","9","training","adjacent","AB","1","2","N.jpg","O.jpg","0","1","0","",""
"","feedback","","html-keyboard-response","74","190621","0.0-1.0-87.0-0.0","0","0","19295","","null","","","null","9","","","","","","","","","","","","","","","",""
"","time_out","","html-keyboard-response","75","192623","0.0-1.0-89.0-0.0","0","0","19295","","null","","","null","9","","","","","","","","","","","","","","","",""
"","ITI","","html-keyboard-response","76","193626","0.0-1.0-90.0","0","0","19295","","null","","","null","9","","","","","","","","","","","","","","","NaN",""
"","S1","","html-keyboard-response","77","193878","0.0-1.0-92.0","0","0","19295","","null","","","null","10","","","","","","","","","","","","","","","",""
"","ISI","","html-keyboard-response","78","194880","0.0-1.0-93.0","0","0","19295","","null","","","null","10","NaN","","","","","","","","","","","","","","",""
"","S2","","html-keyboard-response","79","195132","0.0-1.0-94.0","0","0","19295","","null","","","null","10","","NaN","","","","","","","","","","","","","",""
"","response","","html-keyboard-response","80","196509","0.0-1.0-95.0-0.0","0","0","19295","","1375","","","68","10","","","1","10","training","adjacent","BA","2","1","O.jpg","N.jpg","0","0","1","",""
"","feedback","","html-keyboard-response","81","197512","0.0-1.0-96.0-0.0","0","0","19295","","null","","","null","10","","","","","","","","","","","","","","","",""
"","ITI","","html-keyboard-response","82","198514","0.0-1.0-99.0","0","0","19295","","null","","","null","10","","","","","","","","","","","","","","","NaN",""
"","S1","","html-keyboard-response","83","198770","0.0-1.0-101.0","0","0","19295","","null","","","null","11","","","","","","","","","","","","","","","",""
"","ISI","","html-keyboard-response","84","199773","0.0-1.0-102.0","0","0","19295","","null","","","null","11","NaN","","","","","","","","","","","","","","",""
"","S2","","html-keyboard-response","85","200027","0.0-1.0-103.0","0","0","19295","","null","","","null","11","","NaN","","","","","","","","","","","","","",""
"","response","","html-keyboard-response","86","201428","0.0-1.0-104.0-0.0","0","0","19295","","1400","","","68","11","","","1","11","training","adjacent","CB","3","2","Q.jpg","O.jpg","0","0","1","",""
"","feedback","","html-keyboard-response","87","202431","0.0-1.0-105.0-0.0","0","0","19295","","null","","","null","11","","","","","","","","","","","","","","","",""
"","ITI","","html-keyboard-response","88","203432","0.0-1.0-108.0","0","0","19295","","null","","","null","11","","","","","","","","","","","","","","","NaN",""
"","S1","","html-keyboard-response","89","203685","0.0-1.0-110.0","0","0","19295","","null","","","null","12","","","","","","","","","","","","","","","",""
"","ISI","","html-keyboard-response","90","204687","0.0-1.0-111.0","0","0","19295","","null","","","null","12","NaN","","","","","","","","","","","","","","",""
"","S2","","html-keyboard-response","91","204941","0.0-1.0-112.0","0","0","19295","","null","","","null","12","","NaN","","","","","","","","","","","","","",""
"","response","","html-keyboard-response","92","205250","0.0-1.0-113.0-0.0","0","0","19295","","308","","","75","12","","","1","12","training","adjacent","BA","2","1","O.jpg","N.jpg","1","0","0","",""
"","feedback","","html-keyboard-response","93","206253","0.0-1.0-114.0-0.0","0","0","19295","","null","","","null","12","","","","","","","","","","","","","","","",""
"","time_out","","html-keyboard-response","94","208255","0.0-1.0-116.0-0.0","0","0","19295","","null","","","null","12","","","","","","","","","","","","","","","",""
"","ITI","","html-keyboard-response","95","209257","0.0-1.0-117.0","0","0","19295","","null","","","null","12","","","","","","","","","","","","","","","NaN",""
"","S1","","html-keyboard-response","96","209510","0.0-1.0-119.0","0","0","19295","","null","","","null","13","","","","","","","","","","","","","","","",""
"","ISI","","html-keyboard-response","97","210512","0.0-1.0-120.0","0","0","19295","","null","","","null","13","NaN","","","","","","","","","","","","","","",""
"","S2","","html-keyboard-response","98","210766","0.0-1.0-121.0","0","0","19295","","null","","","null","13","","NaN","","","","","","","","","","","","","",""
"","response","","html-keyboard-response","99","212096","0.0-1.0-122.0-0.0","0","0","19295","","1329","","","68","13","","","1","13","training","adjacent","BA","2","1","O.jpg","N.jpg","0","0","1","",""
"","feedback","","html-keyboard-response","100","213098","0.0-1.0-123.0-0.0","0","0","19295","","null","","","null","13","","","","","","","","","","","","","","","",""
"","ITI","","html-keyboard-response","101","214100","0.0-1.0-126.0","0","0","19295","","null","","","null","13","","","","","","","","","","","","","","","NaN",""
"","S1","","html-keyboard-response","102","214353","0.0-1.0-128.0","0","0","19295","","null","","","null","14","","","","","","","","","","","","","","","",""
"","ISI","","html-keyboard-response","103","215355","0.0-1.0-129.0","0","0","19295","","null","","","null","14","NaN","","","","","","","","","","","","","","",""
"","S2","","html-keyboard-response","104","215608","0.0-1.0-130.0","0","0","19295","","null","","","null","14","","NaN","","","","","","","","","","","","","",""
"","response","","html-keyboard-response","105","216696","0.0-1.0-131.0-0.0","0","0","19295","","1086","","","68","14","","","1","14","training","adjacent","GF","7","6","M.jpg","P.jpg","0","0","1","",""
"","feedback","","html-keyboard-response","106","217699","0.0-1.0-132.0-0.0","0","0","19295","","null","","","null","14","","","","","","","","","","","","","","","",""
"","ITI","","html-keyboard-response","107","218701","0.0-1.0-135.0","0","0","19295","","null","","","null","14","","","","","","","","","","","","","","","NaN",""
"","S1","","html-keyboard-response","108","218953","0.0-1.0-137.0","0","0","19295","","null","","","null","15","","","","","","","","","","","","","","","",""
"","ISI","","html-keyboard-response","109","219956","0.0-1.0-138.0","0","0","19295","","null","","","null","15","NaN","","","","","","","","","","","","","","",""
"","S2","","html-keyboard-response","110","220209","0.0-1.0-139.0","0","0","19295","","null","","","null","15","","NaN","","","","","","","","","","","","","",""
"","response","","html-keyboard-response","111","221580","0.0-1.0-140.0-0.0","0","0","19295","","1370","","","75","15","","","1","15","training","adjacent","DE","4","5","R.jpg","L.jpg","1","1","1","",""
"","feedback","","html-keyboard-response","112","222583","0.0-1.0-141.0-0.0","0","0","19295","","null","","","null","15","","","","","","","","","","","","","","","",""
"","ITI","","html-keyboard-response","113","223585","0.0-1.0-144.0","0","0","19295","","null","","","null","15","","","","","","","","","","","","","","","NaN",""
"","S1","","html-keyboard-response","114","223837","0.0-1.0-146.0","0","0","19295","","null","","","null","16","","","","","","","","","","","","","","","",""
"","ISI","","html-keyboard-response","115","224839","0.0-1.0-147.0","0","0","19295","","null","","","null","16","NaN","","","","","","","","","","","","","","",""
"","S2","","html-keyboard-response","116","225091","0.0-1.0-148.0","0","0","19295","","null","","","null","16","","NaN","","","","","","","","","","","","","",""
"","response","","html-keyboard-response","117","225734","0.0-1.0-149.0-0.0","0","0","19295","","642","","","68","16","","","1","16","training","adjacent","GF","7","6","M.jpg","P.jpg","0","0","1","",""
"","feedback","","html-keyboard-response","118","226737","0.0-1.0-150.0-0.0","0","0","19295","","null","","","null","16","","","","","","","","","","","","","","","",""
"","ITI","","html-keyboard-response","119","227739","0.0-1.0-153.0","0","0","19295","","null","","","null","16","","","","","","","","","","","","","","","NaN",""
"","S1","","html-keyboard-response","120","227991","0.0-1.0-155.0","0","0","19295","","null","","","null","17","","","","","","","","","","","","","","","",""
"","ISI","","html-keyboard-response","121","228994","0.0-1.0-156.0","0","0","19295","","null","","","null","17","NaN","","","","","","","","","","","","","","",""
"","S2","","html-keyboard-response","122","229247","0.0-1.0-157.0","0","0","19295","","null","","","null","17","","NaN","","","","","","","","","","","","","",""
"","response","","html-keyboard-response","123","230467","0.0-1.0-158.0-0.0","0","0","19295","","1219","","","68","17","","","1","17","training","adjacent","EF","5","6","L.jpg","P.jpg","0","1","0","",""
"","feedback","","html-keyboard-response","124","231470","0.0-1.0-159.0-0.0","0","0","19295","","null","","","null","17","","","","","","","","","","","","","","","",""
"","time_out","","html-keyboard-response","125","233473","0.0-1.0-161.0-0.0","0","0","19295","","null","","","null","17","","","","","","","","","","","","","","","",""
"","ITI","","html-keyboard-response","126","234475","0.0-1.0-162.0","0","0","19295","","null","","","null","17","","","","","","","","","","","","","","","NaN",""
"","S1","","html-keyboard-response","127","234727","0.0-1.0-164.0","0","0","19295","","null","","","null","18","","","","","","","","","","","","","","","",""
"","ISI","","html-keyboard-response","128","235728","0.0-1.0-165.0","0","0","19295","","null","","","null","18","NaN","","","","","","","","","","","","","","",""
"","S2","","html-keyboard-response","129","235990","0.0-1.0-166.0","0","0","19295","","null","","","null","18","","NaN","","","","","","","","","","","","","",""
"","response","","html-keyboard-response","130","237272","0.0-1.0-167.0-0.0","0","0","19295","","1282","","","75","18","","","1","18","training","adjacent","EF","5","6","L.jpg","P.jpg","1","1","1","",""
"","feedback","","html-keyboard-response","131","238275","0.0-1.0-168.0-0.0","0","0","19295","","null","","","null","18","","","","","","","","","","","","","","","",""
"","ITI","","html-keyboard-response","132","239277","0.0-1.0-171.0","0","0","19295","","null","","","null","18","","","","","","","","","","","","","","","NaN",""
"","S1","","html-keyboard-response","133","239530","0.0-1.0-173.0","0","0","19295","","null","","","null","19","","","","","","","","","","","","","","","",""
"","ISI","","html-keyboard-response","134","240533","0.0-1.0-174.0","0","0","19295","","null","","","null","19","NaN","","","","","","","","","","","","","","",""
"","S2","","html-keyboard-response","135","240785","0.0-1.0-175.0","0","0","19295","","null","","","null","19","","NaN","","","","","","","","","","","","","",""
"","response","","html-keyboard-response","136","241243","0.0-1.0-176.0-0.0","0","0","19295","","457","","","68","19","","","1","19","training","adjacent","CB","3","2","Q.jpg","O.jpg","0","0","1","",""
"","feedback","","html-keyboard-response","137","242245","0.0-1.0-177.0-0.0","0","0","19295","","null","","","null","19","","","","","","","","","","","","","","","",""
"","ITI","","html-keyboard-response","138","243247","0.0-1.0-180.0","0","0","19295","","null","","","null","19","","","","","","","","","","","","","","","NaN",""
"","S1","","html-keyboard-response","139","243500","0.0-1.0-182.0","0","0","19295","","null","","","null","20","","","","","","","","","","","","","","","",""
"","ISI","","html-keyboard-response","140","244501","0.0-1.0-183.0","0","0","19295","","null","","","null","20","NaN","","","","","","","","","","","","","","",""
"","S2","","html-keyboard-response","141","244753","0.0-1.0-184.0","0","0","19295","","null","","","null","20","","NaN","","","","","","","","","","","","","",""
"","response","","html-keyboard-response","142","244826","0.0-1.0-185.0-0.0","0","0","19295","","71","","","75","20","","","1","20","training","adjacent","AB","1","2","N.jpg","O.jpg","1","1","1","",""
"","feedback","","html-keyboard-response","143","245828","0.0-1.0-186.0-0.0","0","0","19295","","null","","","null","20","","","","","","","","","","","","","","","",""
"","ITI","","html-keyboard-response","144","246830","0.0-1.0-189.0","0","0","19295","","null","","","null","20","","","","","","","","","","","","","","","NaN",""
"","S1","","html-keyboard-response","145","247083","0.0-1.0-191.0","0","0","19295","","null","","","null","21","","","","","","","","","","","","","","","",""
"","ISI","","html-keyboard-response","146","248084","0.0-1.0-192.0","0","0","19295","","null","","","null","21","NaN","","","","","","","","","","","","","","",""
"","S2","","html-keyboard-response","147","248337","0.0-1.0-193.0","0","0","19295","","null","","","null","21","","NaN","","","","","","","","","","","","","",""
"","response","","html-keyboard-response","148","249257","0.0-1.0-194.0-0.0","0","0","19295","","918","","","75","21","","","1","21","training","adjacent","FG","6","7","P.jpg","M.jpg","1","1","1","",""
"","feedback","","html-keyboard-response","149","250259","0.0-1.0-195.0-0.0","0","0","19295","","null","","","null","21","","","","","","","","","","","","","","","",""
"","ITI","","html-keyboard-response","150","251261","0.0-1.0-198.0","0","0","19295","","null","","","null","21","","","","","","","","","","","","","","","NaN",""
"","S1","","html-keyboard-response","151","251513","0.0-1.0-200.0","0","0","19295","","null","","","null","22","","","","","","","","","","","","","","","",""
"","ISI","","html-keyboard-response","152","252515","0.0-1.0-201.0","0","0","19295","","null","","","null","22","NaN","","","","","","","","","","","","","","",""
"","S2","","html-keyboard-response","153","252767","0.0-1.0-202.0","0","0","19295","","null","","","null","22","","NaN","","","","","","","","","","","","","",""
"","response","","html-keyboard-response","154","253780","0.0-1.0-203.0-0.0","0","0","19295","","1011","","","75","22","","","1","22","training","adjacent","ED","5","4","L.jpg","R.jpg","1","0","0","",""
"","feedback","","html-keyboard-response","155","254783","0.0-1.0-204.0-0.0","0","0","19295","","null","","","null","22","","","","","","","","","","","","","","","",""
"","time_out","","html-keyboard-response","156","256785","0.0-1.0-206.0-0.0","0","0","19295","","null","","","null","22","","","","","","","","","","","","","","","",""
"","ITI","","html-keyboard-response","157","257786","0.0-1.0-207.0","0","0","19295","","null","","","null","22","","","","","","","","","","","","","","","NaN",""
"","S1","","html-keyboard-response","158","258038","0.0-1.0-209.0","0","0","19295","","null","","","null","23","","","","","","","","","","","","","","","",""
"","ISI","","html-keyboard-response","159","259042","0.0-1.0-210.0","0","0","19295","","null","","","null","23","NaN","","","","","","","","","","","","","","",""
"","S2","","html-keyboard-response","160","259295","0.0-1.0-211.0","0","0","19295","","null","","","null","23","","NaN","","","","","","","","","","","","","",""
"","response","","html-keyboard-response","161","260155","0.0-1.0-212.0-0.0","0","0","19295","","859","","","75","23","","","1","23","training","adjacent","FE","6","5","P.jpg","L.jpg","1","0","0","",""
"","feedback","","html-keyboard-response","162","261157","0.0-1.0-213.0-0.0","0","0","19295","","null","","","null","23","","","","","","","","","","","","","","","",""
"","time_out","","html-keyboard-response","163","263159","0.0-1.0-215.0-0.0","0","0","19295","","null","","","null","23","","","","","","","","","","","","","","","",""
"","ITI","","html-keyboard-response","164","264162","0.0-1.0-216.0","0","0","19295","","null","","","null","23","","","","","","","","","","","","","","","NaN",""
"","S1","","html-keyboard-response","165","264415","0.0-1.0-218.0","0","0","19295","","null","","","null","24","","","","","","","","","","","","","","","",""
"","ISI","","html-keyboard-response","166","265417","0.0-1.0-219.0","0","0","19295","","null","","","null","24","NaN","","","","","","","","","","","","","","",""
"","S2","","html-keyboard-response","167","265669","0.0-1.0-220.0","0","0","19295","","null","","","null","24","","NaN","","","","","","","","","","","","","",""
"","response","","html-keyboard-response","168","266184","0.0-1.0-221.0-0.0","0","0","19295","","513","","","68","24","","","1","24","training","adjacent","FE","6","5","P.jpg","L.jpg","0","0","1","",""
"","feedback","","html-keyboard-response","169","267187","0.0-1.0-222.0-0.0","0","0","19295","","null","","","null","24","","","","","","","","","","","","","","","",""
"","ITI","","html-keyboard-response","170","268190","0.0-1.0-225.0","0","0","19295","","null","","","null","24","","","","","","","","","","","","","","","NaN",""
"","S1","","html-keyboard-response","171","268442","0.0-1.0-227.0","0","0","19295","","null","","","null","25","","","","","","","","","","","","","","","",""
"","ISI","","html-keyboard-response","172","269445","0.0-1.0-228.0","0","0","19295","","null","","","null","25","NaN","","","","","","","","","","","","","","",""
"","S2","","html-keyboard-response","173","269696","0.0-1.0-229.0","0","0","19295","","null","","","null","25","","NaN","","","","","","","","","","","","","",""
"","response","","html-keyboard-response","174","270476","0.0-1.0-230.0-0.0","0","0","19295","","778","","","75","25","","","1","25","training","adjacent","CD","3","4","Q.jpg","R.jpg","1","1","1","",""
"","feedback","","html-keyboard-response","175","271478","0.0-1.0-231.0-0.0","0","0","19295","","null","","","null","25","","","","","","","","","","","","","","","",""
"","ITI","","html-keyboard-response","176","272481","0.0-1.0-234.0","0","0","19295","","null","","","null","25","","","","","","","","","","","","","","","NaN",""
"","S1","","html-keyboard-response","177","272734","0.0-1.0-236.0","0","0","19295","","null","","","null","26","","","","","","","","","","","","","","","",""
"","ISI","","html-keyboard-response","178","273736","0.0-1.0-237.0","0","0","19295","","null","","","null","26","NaN","","","","","","","","","","","","","","",""
"","S2","","html-keyboard-response","179","273989","0.0-1.0-238.0","0","0","19295","","null","","","null","26","","NaN","","","","","","","","","","","","","",""
"","response","","html-keyboard-response","180","274458","0.0-1.0-239.0-0.0","0","0","19295","","468","","","75","26","","","1","26","training","adjacent","DC","4","3","R.jpg","Q.jpg","1","0","0","",""
"","feedback","","html-keyboard-response","181","275473","0.0-1.0-240.0-0.0","0","0","19295","","null","","","null","26","","","","","","","","","","","","","","","",""
"","time_out","","html-keyboard-response","182","277476","0.0-1.0-242.0-0.0","0","0","19295","","null","","","null","26","","","","","","","","","","","","","","","",""
"","ITI","","html-keyboard-response","183","278477","0.0-1.0-243.0","0","0","19295","","null","","","null","26","","","","","","","","","","","","","","","NaN",""
"","S1","","html-keyboard-response","184","278730","0.0-1.0-245.0","0","0","19295","","null","","","null","27","","","","","","","","","","","","","","","",""
"","ISI","","html-keyboard-response","185","279732","0.0-1.0-246.0","0","0","19295","","null","","","null","27","NaN","","","","","","","","","","","","","","",""
"","S2","","html-keyboard-response","186","279985","0.0-1.0-247.0","0","0","19295","","null","","","null","27","","NaN","","","","","","","","","","","","","",""
"","response","","html-keyboard-response","187","281635","0.0-1.0-248.0-0.0","0","0","19295","","1649","","","68","27","","","1","27","training","adjacent","CD","3","4","Q.jpg","R.jpg","0","1","0","",""
"","feedback","","html-keyboard-response","188","282638","0.0-1.0-249.0-0.0","0","0","19295","","null","","","null","27","","","","","","","","","","","","","","","",""
"","time_out","","html-keyboard-response","189","284641","0.0-1.0-251.0-0.0","0","0","19295","","null","","","null","27","","","","","","","","","","","","","","","",""
"","ITI","","html-keyboard-response","190","285643","0.0-1.0-252.0","0","0","19295","","null","","","null","27","","","","","","","","","","","","","","","NaN",""
"","S1","","html-keyboard-response","191","285895","0.0-1.0-254.0","0","0","19295","","null","","","null","28","","","","","","","","","","","","","","","",""
"","ISI","","html-keyboard-response","192","286898","0.0-1.0-255.0","0","0","19295","","null","","","null","28","NaN","","","","","","","","","","","","","","",""
"","S2","","html-keyboard-response","193","287150","0.0-1.0-256.0","0","0","19295","","null","","","null","28","","NaN","","","","","","","","","","","","","",""
"","response","","html-keyboard-response","194","287255","0.0-1.0-257.0-0.0","0","0","19295","","103","","","75","28","","","1","28","training","adjacent","AB","1","2","N.jpg","O.jpg","1","1","1","",""
"","feedback","","html-keyboard-response","195","288257","0.0-1.0-258.0-0.0","0","0","19295","","null","","","null","28","","","","","","","","","","","","","","","",""
"","ITI","","html-keyboard-response","196","289260","0.0-1.0-261.0","0","0","19295","","null","","","null","28","","","","","","","","","","","","","","","NaN",""
"","S1","","html-keyboard-response","197","289511","0.0-1.0-263.0","0","0","19295","","null","","","null","29","","","","","","","","","","","","","","","",""
"","ISI","","html-keyboard-response","198","290513","0.0-1.0-264.0","0","0","19295","","null","","","null","29","NaN","","","","","","","","","","","","","","",""
"","S2","","html-keyboard-response","199","290766","0.0-1.0-265.0","0","0","19295","","null","","","null","29","","NaN","","","","","","","","","","","","","",""
"","response","","html-keyboard-response","200","292003","0.0-1.0-266.0-0.0","0","0","19295","","1236","","","68","29","","","1","29","training","adjacent","ED","5","4","L.jpg","R.jpg","0","0","1","",""
"","feedback","","html-keyboard-response","201","293007","0.0-1.0-267.0-0.0","0","0","19295","","null","","","null","29","","","","","","","","","","","","","","","",""
"","ITI","","html-keyboard-response","202","294009","0.0-1.0-270.0","0","0","19295","","null","","","null","29","","","","","","","","","","","","","","","NaN",""
"","S1","","html-keyboard-response","203","294262","0.0-1.0-272.0","0","0","19295","","null","","","null","30","","","","","","","","","","","","","","","",""
"","ISI","","html-keyboard-response","204","295265","0.0-1.0-273.0","0","0","19295","","null","","","null","30","NaN","","","","","","","","","","","","","","",""
"","S2","","html-keyboard-response","205","295517","0.0-1.0-274.0","0","0","19295","","null","","","null","30","","NaN","","","","","","","","","","","","","",""
"","response","","html-keyboard-response","206","296608","0.0-1.0-275.0-0.0","0","0","19295","","1089","","","68","30","","","1","30","training","adjacent","ED","5","4","L.jpg","R.jpg","0","0","1","",""
"","feedback","","html-keyboard-response","207","297611","0.0-1.0-276.0-0.0","0","0","19295","","null","","","null","30","","","","","","","","","","","","","","","",""
"","ITI","","html-keyboard-response","208","298621","0.0-1.0-279.0","0","0","19295","","null","","","null","30","","","","","","","","","","","","","","","NaN",""
"","S1","","html-keyboard-response","209","298873","0.0-1.0-281.0","0","0","19295","","null","","","null","31","","","","","","","","","","","","","","","",""
"","ISI","","html-keyboard-response","210","299876","0.0-1.0-282.0","0","0","19295","","null","","","null","31","NaN","","","","","","","","","","","","","","",""
"","S2","","html-keyboard-response","211","300128","0.0-1.0-283.0","0","0","19295","","null","","","null","31","","NaN","","","","","","","","","","","","","",""
"","response","","html-keyboard-response","212","301171","0.0-1.0-284.0-0.0","0","0","19295","","1042","","","68","31","","","1","31","training","adjacent","CB","3","2","Q.jpg","O.jpg","0","0","1","",""
"","feedback","","html-keyboard-response","213","302173","0.0-1.0-285.0-0.0","0","0","19295","","null","","","null","31","","","","","","","","","","","","","","","",""
"","ITI","","html-keyboard-response","214","303175","0.0-1.0-288.0","0","0","19295","","null","","","null","31","","","","","","","","","","","","","","","NaN",""
"","S1","","html-keyboard-response","215","303428","0.0-1.0-290.0","0","0","19295","","null","","","null","32","","","","","","","","","","","","","","","",""
"","ISI","","html-keyboard-response","216","304430","0.0-1.0-291.0","0","0","19295","","null","","","null","32","NaN","","","","","","","","","","","","","","",""
"","S2","","html-keyboard-response","217","304682","0.0-1.0-292.0","0","0","19295","","null","","","null","32","","NaN","","","","","","","","","","","","","",""
"","response","","html-keyboard-response","218","306150","0.0-1.0-293.0-0.0","0","0","19295","","1467","","","75","32","","","1","32","training","adjacent","FG","6","7","P.jpg","M.jpg","1","1","1","",""
"","feedback","","html-keyboard-response","219","307164","0.0-1.0-294.0-0.0","0","0","19295","","null","","","null","32","","","","","","","","","","","","","","","",""
"","ITI","","html-keyboard-response","220","308166","0.0-1.0-297.0","0","0","19295","","null","","","null","32","","","","","","","","","","","","","","","NaN",""
"","S1","","html-keyboard-response","221","308418","0.0-1.0-299.0","0","0","19295","","null","","","null","33","","","","","","","","","","","","","","","",""
"","ISI","","html-keyboard-response","222","309420","0.0-1.0-300.0","0","0","19295","","null","","","null","33","NaN","","","","","","","","","","","","","","",""
"","S2","","html-keyboard-response","223","309672","0.0-1.0-301.0","0","0","19295","","null","","","null","33","","NaN","","","","","","","","","","","","","",""
"","response","","html-keyboard-response","224","311357","0.0-1.0-302.0-0.0","0","0","19295","","1683","","","68","33","","","1","33","training","adjacent","CD","3","4","Q.jpg","R.jpg","0","1","0","",""
"","feedback","","html-keyboard-response","225","312360","0.0-1.0-303.0-0.0","0","0","19295","","null","","","null","33","","","","","","","","","","","","","","","",""
"","time_out","","html-keyboard-response","226","314362","0.0-1.0-305.0-0.0","0","0","19295","","null","","","null","33","","","","","","","","","","","","","","","",""
"","ITI","","html-keyboard-response","227","315364","0.0-1.0-306.0","0","0","19295","","null","","","null","33","","","","","","","","","","","","","","","NaN",""
"","S1","","html-keyboard-response","228","315616","0.0-1.0-308.0","0","0","19295","","null","","","null","34","","","","","","","","","","","","","","","",""
"","ISI","","html-keyboard-response","229","316617","0.0-1.0-309.0","0","0","19295","","null","","","null","34","NaN","","","","","","","","","","","","","","",""
"","S2","","html-keyboard-response","230","316870","0.0-1.0-310.0","0","0","19295","","null","","","null","34","","NaN","","","","","","","","","","","","","",""
"","response","","html-keyboard-response","231","318158","0.0-1.0-311.0-0.0","0","0","19295","","1286","","","75","34","","","1","34","training","adjacent","FE","6","5","P.jpg","L.jpg","1","0","0","",""
"","feedback","","html-keyboard-response","232","319161","0.0-1.0-312.0-0.0","0","0","19295","","null","","","null","34","","","","","","","","","","","","","","","",""
"","time_out","","html-keyboard-response","233","321163","0.0-1.0-314.0-0.0","0","0","19295","","null","","","null","34","","","","","","","","","","","","","","","",""
"","ITI","","html-keyboard-response","234","322166","0.0-1.0-315.0","0","0","19295","","null","","","null","34","","","","","","","","","","","","","","","NaN",""
"","S1","","html-keyboard-response","235","322419","0.0-1.0-317.0","0","0","19295","","null","","","null","35","","","","","","","","","","","","","","","",""
"","ISI","","html-keyboard-response","236","323422","0.0-1.0-318.0","0","0","19295","","null","","","null","35","NaN","","","","","","","","","","","","","","",""
"","S2","","html-keyboard-response","237","323674","0.0-1.0-319.0","0","0","19295","","null","","","null","35","","NaN","","","","","","","","","","","","","",""
"","response","","html-keyboard-response","238","324352","0.0-1.0-320.0-0.0","0","0","19295","","676","","","75","35","","","1","35","training","adjacent","BC","2","3","O.jpg","Q.jpg","1","1","1","",""
"","feedback","","html-keyboard-response","239","325360","0.0-1.0-321.0-0.0","0","0","19295","","null","","","null","35","","","","","","","","","","","","","","","",""
"","ITI","","html-keyboard-response","240","326363","0.0-1.0-324.0","0","0","19295","","null","","","null","35","","","","","","","","","","","","","","","NaN",""
"","S1","","html-keyboard-response","241","326615","0.0-1.0-326.0","0","0","19295","","null","","","null","36","","","","","","","","","","","","","","","",""
"","ISI","","html-keyboard-response","242","327617","0.0-1.0-327.0","0","0","19295","","null","","","null","36","NaN","","","","","","","","","","","","","","",""
"","S2","","html-keyboard-response","243","327869","0.0-1.0-328.0","0","0","19295","","null","","","null","36","","NaN","","","","","","","","","","","","","",""
"","response","","html-keyboard-response","244","328541","0.0-1.0-329.0-0.0","0","0","19295","","671","","","75","36","","","1","36","training","adjacent","DE","4","5","R.jpg","L.jpg","1","1","1","",""
"","feedback","","html-keyboard-response","245","329544","0.0-1.0-330.0-0.0","0","0","19295","","null","","","null","36","","","","","","","","","","","","","","","",""
"","ITI","","html-keyboard-response","246","330547","0.0-1.0-333.0","0","0","19295","","null","","","null","36","","","","","","","","","","","","","","","NaN",""
"","S1","","html-keyboard-response","247","330800","0.0-1.0-335.0","0","0","19295","","null","","","null","37","","","","","","","","","","","","","","","",""
"","ISI","","html-keyboard-response","248","331801","0.0-1.0-336.0","0","0","19295","","null","","","null","37","NaN","","","","","","","","","","","","","","",""
"","S2","","html-keyboard-response","249","332055","0.0-1.0-337.0","0","0","19295","","null","","","null","37","","NaN","","","","","","","","","","","","","",""
"","response","","html-keyboard-response","250","333504","0.0-1.0-338.0-0.0","0","0","19295","","1448","","","75","37","","","1","37","training","adjacent","FG","6","7","P.jpg","M.jpg","1","1","1","",""
"","feedback","","html-keyboard-response","251","334507","0.0-1.0-339.0-0.0","0","0","19295","","null","","","null","37","","","","","","","","","","","","","","","",""
"","ITI","","html-keyboard-response","252","335509","0.0-1.0-342.0","0","0","19295","","null","","","null","37","","","","","","","","","","","","","","","NaN",""
"","S1","","html-keyboard-response","253","335761","0.0-1.0-344.0","0","0","19295","","null","","","null","38","","","","","","","","","","","","","","","",""
"","ISI","","html-keyboard-response","254","336764","0.0-1.0-345.0","0","0","19295","","null","","","null","38","NaN","","","","","","","","","","","","","","",""
"","S2","","html-keyboard-response","255","337016","0.0-1.0-346.0","0","0","19295","","null","","","null","38","","NaN","","","","","","","","","","","","","",""
"","response","","html-keyboard-response","256","338711","0.0-1.0-347.0-0.0","0","0","19295","","1694","","","75","38","","","1","38","training","adjacent","EF","5","6","L.jpg","P.jpg","1","1","1","",""
"","feedback","","html-keyboard-response","257","339714","0.0-1.0-348.0-0.0","0","0","19295","","null","","","null","38","","","","","","","","","","","","","","","",""
"","ITI","","html-keyboard-response","258","340716","0.0-1.0-351.0","0","0","19295","","null","","","null","38","","","","","","","","","","","","","","","NaN",""
"","S1","","html-keyboard-response","259","340968","0.0-1.0-353.0","0","0","19295","","null","","","null","39","","","","","","","","","","","","","","","",""
"","ISI","","html-keyboard-response","260","341971","0.0-1.0-354.0","0","0","19295","","null","","","null","39","NaN","","","","","","","","","","","","","","",""
"","S2","","html-keyboard-response","261","342224","0.0-1.0-355.0","0","0","19295","","null","","","null","39","","NaN","","","","","","","","","","","","","",""
"","response","","html-keyboard-response","262","342962","0.0-1.0-356.0-0.0","0","0","19295","","738","","","75","39","","","1","39","training","adjacent","DE","4","5","R.jpg","L.jpg","1","1","1","",""
"","feedback","","html-keyboard-response","263","343964","0.0-1.0-357.0-0.0","0","0","19295","","null","","","null","39","","","","","","","","","","","","","","","",""
"","ITI","","html-keyboard-response","264","344971","0.0-1.0-360.0","0","0","19295","","null","","","null","39","","","","","","","","","","","","","","","NaN",""
"","S1","","html-keyboard-response","265","345223","0.0-1.0-362.0","0","0","19295","","null","","","null","40","","","","","","","","","","","","","","","",""
"","ISI","","html-keyboard-response","266","346225","0.0-1.0-363.0","0","0","19295","","null","","","null","40","NaN","","","","","","","","","","","","","","",""
"","S2","","html-keyboard-response","267","346478","0.0-1.0-364.0","0","0","19295","","null","","","null","40","","NaN","","","","","","","","","","","","","",""
"","response","","html-keyboard-response","268","348100","0.0-1.0-365.0-0.0","0","0","19295","","1621","","","75","40","","","1","40","training","adjacent","EF","5","6","L.jpg","P.jpg","1","1","1","",""
"","feedback","","html-keyboard-response","269","349103","0.0-1.0-366.0-0.0","0","0","19295","","null","","","null","40","","","","","","","","","","","","","","","",""
"","ITI","","html-keyboard-response","270","350105","0.0-1.0-369.0","0","0","19295","","null","","","null","40","","","","","","","","","","","","","","","NaN",""
"","S1","","html-keyboard-response","271","350357","0.0-1.0-371.0","0","0","19295","","null","","","null","41","","","","","","","","","","","","","","","",""
"","ISI","","html-keyboard-response","272","351359","0.0-1.0-372.0","0","0","19295","","null","","","null","41","NaN","","","","","","","","","","","","","","",""
"","S2","","html-keyboard-response","273","351611","0.0-1.0-373.0","0","0","19295","","null","","","null","41","","NaN","","","","","","","","","","","","","",""
"","response","","html-keyboard-response","274","352598","0.0-1.0-374.0-0.0","0","0","19295","","986","","","68","41","","","1","41","training","adjacent","ED","5","4","L.jpg","R.jpg","0","0","1","",""
"","feedback","","html-keyboard-response","275","353601","0.0-1.0-375.0-0.0","0","0","19295","","null","","","null","41","","","","","","","","","","","","","","","",""
"","ITI","","html-keyboard-response","276","354603","0.0-1.0-378.0","0","0","19295","","null","","","null","41","","","","","","","","","","","","","","","NaN",""
"","S1","","html-keyboard-response","277","354855","0.0-1.0-380.0","0","0","19295","","null","","","null","42","","","","","","","","","","","","","","","",""
"","ISI","","html-keyboard-response","278","355857","0.0-1.0-381.0","0","0","19295","","null","","","null","42","NaN","","","","","","","","","","","","","","",""
"","S2","","html-keyboard-response","279","356109","0.0-1.0-382.0","0","0","19295","","null","","","null","42","","NaN","","","","","","","","","","","","","",""
"","response","","html-keyboard-response","280","357094","0.0-1.0-383.0-0.0","0","0","19295","","983","","","68","42","","","1","42","training","adjacent","DC","4","3","R.jpg","Q.jpg","0","0","1","",""
"","feedback","","html-keyboard-response","281","358097","0.0-1.0-384.0-0.0","0","0","19295","","null","","","null","42","","","","","","","","","","","","","","","",""
"","ITI","","html-keyboard-response","282","359099","0.0-1.0-387.0","0","0","19295","","null","","","null","42","","","","","","","","","","","","","","","NaN",""
"","S1","","html-keyboard-response","283","359352","0.0-1.0-389.0","0","0","19295","","null","","","null","43","","","","","","","","","","","","","","","",""
"","ISI","","html-keyboard-response","284","360355","0.0-1.0-390.0","0","0","19295","","null","","","null","43","NaN","","","","","","","","","","","","","","",""
"","S2","","html-keyboard-response","285","360607","0.0-1.0-391.0","0","0","19295","","null","","","null","43","","NaN","","","","","","","","","","","","","",""
"","response","","html-keyboard-response","286","361431","0.0-1.0-392.0-0.0","0","0","19295","","823","","","75","43","","","1","43","training","adjacent","BC","2","3","O.jpg","Q.jpg","1","1","1","",""
"","feedback","","html-keyboard-response","287","362433","0.0-1.0-393.0-0.0","0","0","19295","","null","","","null","43","","","","","","","","","","","","","","","",""
"","ITI","","html-keyboard-response","288","363436","0.0-1.0-396.0","0","0","19295","","null","","","null","43","","","","","","","","","","","","","","","NaN",""
"","S1","","html-keyboard-response","289","363688","0.0-1.0-398.0","0","0","19295","","null","","","null","44","","","","","","","","","","","","","","","",""
"","ISI","","html-keyboard-response","290","364690","0.0-1.0-399.0","0","0","19295","","null","","","null","44","NaN","","","","","","","","","","","","","","",""
"","S2","","html-keyboard-response","291","364943","0.0-1.0-400.0","0","0","19295","","null","","","null","44","","NaN","","","","","","","","","","","","","",""
"","response","","html-keyboard-response","292","365268","0.0-1.0-401.0-0.0","0","0","19295","","324","","","75","44","","","1","44","training","adjacent","BC","2","3","O.jpg","Q.jpg","1","1","1","",""
"","feedback","","html-keyboard-response","293","366271","0.0-1.0-402.0-0.0","0","0","19295","","null","","","null","44","","","","","","","","","","","","","","","",""
"","ITI","","html-keyboard-response","294","367273","0.0-1.0-405.0","0","0","19295","","null","","","null","44","","","","","","","","","","","","","","","NaN",""
"","S1","","html-keyboard-response","295","367524","0.0-1.0-407.0","0","0","19295","","null","","","null","45","","","","","","","","","","","","","","","",""
"","ISI","","html-keyboard-response","296","368527","0.0-1.0-408.0","0","0","19295","","null","","","null","45","NaN","","","","","","","","","","","","","","",""
"","S2","","html-keyboard-response","297","368780","0.0-1.0-409.0","0","0","19295","","null","","","null","45","","NaN","","","","","","","","","","","","","",""
"","response","","html-keyboard-response","298","370290","0.0-1.0-410.0-0.0","0","0","19295","","1509","","","68","45","","","1","45","training","adjacent","FG","6","7","P.jpg","M.jpg","0","1","0","",""
"","feedback","","html-keyboard-response","299","371292","0.0-1.0-411.0-0.0","0","0","19295","","null","","","null","45","","","","","","","","","","","","","","","",""
"","time_out","","html-keyboard-response","300","373295","0.0-1.0-413.0-0.0","0","0","19295","","null","","","null","45","","","","","","","","","","","","","","","",""
"","ITI","","html-keyboard-response","301","374298","0.0-1.0-414.0","0","0","19295","","null","","","null","45","","","","","","","","","","","","","","","NaN",""
"","S1","","html-keyboard-response","302","374551","0.0-1.0-416.0","0","0","19295","","null","","","null","46","","","","","","","","","","","","","","","",""
"","ISI","","html-keyboard-response","303","375552","0.0-1.0-417.0","0","0","19295","","null","","","null","46","NaN","","","","","","","","","","","","","","",""
"","S2","","html-keyboard-response","304","375805","0.0-1.0-418.0","0","0","19295","","null","","","null","46","","NaN","","","","","","","","","","","","","",""
"","response","","html-keyboard-response","305","377266","0.0-1.0-419.0-0.0","0","0","19295","","1460","","","75","46","","","1","46","training","adjacent","CD","3","4","Q.jpg","R.jpg","1","1","1","",""
"","feedback","","html-keyboard-response","306","378269","0.0-1.0-420.0-0.0","0","0","19295","","null","","","null","46","","","","","","","","","","","","","","","",""
"","ITI","","html-keyboard-response","307","379272","0.0-1.0-423.0","0","0","19295","","null","","","null","46","","","","","","","","","","","","","","","NaN",""
"","S1","","html-keyboard-response","308","379524","0.0-1.0-425.0","0","0","19295","","null","","","null","47","","","","","","","","","","","","","","","",""
"","ISI","","html-keyboard-response","309","380526","0.0-1.0-426.0","0","0","19295","","null","","","null","47","NaN","","","","","","","","","","","","","","",""
"","S2","","html-keyboard-response","310","380779","0.0-1.0-427.0","0","0","19295","","null","","","null","47","","NaN","","","","","","","","","","","","","",""
"","response","","html-keyboard-response","311","381566","0.0-1.0-428.0-0.0","0","0","19295","","785","","","75","47","","","1","47","training","adjacent","AB","1","2","N.jpg","O.jpg","1","1","1","",""
"","feedback","","html-keyboard-response","312","382569","0.0-1.0-429.0-0.0","0","0","19295","","null","","","null","47","","","","","","","","","","","","","","","",""
"","ITI","","html-keyboard-response","313","383571","0.0-1.0-432.0","0","0","19295","","null","","","null","47","","","","","","","","","","","","","","","NaN",""
"","block_over","","html-keyboard-response","314","394256","0.0-1.0-433.0-0.0","0","0","19295","","10683","","","32","47","","","","","","","","","","","","","","","",""
"","S1","","html-keyboard-response","315","394509","0.0-1.0-434.0","0","0","19295","","null","","","null","48","","","","","","","","","","","","","","","",""
"","ISI","","html-keyboard-response","316","395511","0.0-1.0-435.0","0","0","19295","","null","","","null","48","NaN","","","","","","","","","","","","","","",""
"","S2","","html-keyboard-response","317","395763","0.0-1.0-436.0","0","0","19295","","null","","","null","48","","NaN","","","","","","","","","","","","","",""
"","response","","html-keyboard-response","318","396957","0.0-1.0-437.0-0.0","0","0","19295","","1192","","","68","48","","","2","48","training","adjacent","DC","4","3","R.jpg","Q.jpg","0","0","1","",""
"","feedback","","html-keyboard-response","319","397958","0.0-1.0-438.0-0.0","0","0","19295","","null","","","null","48","","","","","","","","","","","","","","","",""
"","ITI","","html-keyboard-response","320","398960","0.0-1.0-441.0","0","0","19295","","null","","","null","48","","","","","","","","","","","","","","","NaN",""
"","S1","","html-keyboard-response","321","399212","0.0-1.0-443.0","0","0","19295","","null","","","null","49","","","","","","","","","","","","","","","",""
"","ISI","","html-keyboard-response","322","400214","0.0-1.0-444.0","0","0","19295","","null","","","null","49","NaN","","","","","","","","","","","","","","",""
"","S2","","html-keyboard-response","323","400466","0.0-1.0-445.0","0","0","19295","","null","","","null","49","","NaN","","","","","","","","","","","","","",""
"","response","","html-keyboard-response","324","400529","0.0-1.0-446.0-0.0","0","0","19295","","63","","","75","49","","","2","49","training","adjacent","AB","1","2","N.jpg","O.jpg","1","1","1","",""
"","feedback","","html-keyboard-response","325","401532","0.0-1.0-447.0-0.0","0","0","19295","","null","","","null","49","","","","","","","","","","","","","","","",""
"","ITI","","html-keyboard-response","326","402535","0.0-1.0-450.0","0","0","19295","","null","","","null","49","","","","","","","","","","","","","","","NaN",""
"","S1","","html-keyboard-response","327","402787","0.0-1.0-452.0","0","0","19295","","null","","","null","50","","","","","","","","","","","","","","","",""
"","ISI","","html-keyboard-response","328","403789","0.0-1.0-453.0","0","0","19295","","null","","","null","50","NaN","","","","","","","","","","","","","","",""
"","S2","","html-keyboard-response","329","404041","0.0-1.0-454.0","0","0","19295","","null","","","null","50","","NaN","","","","","","","","","","","","","",""
"","response","","html-keyboard-response","330","405115","0.0-1.0-455.0-0.0","0","0","19295","","1072","","","75","50","","","2","50","training","adjacent","FG","6","7","P.jpg","M.jpg","1","1","1","",""
"","feedback","","html-keyboard-response","331","406117","0.0-1.0-456.0-0.0","0","0","19295","","null","","","null","50","","","","","","","","","","","","","","","",""
"","ITI","","html-keyboard-response","332","407120","0.0-1.0-459.0","0","0","19295","","null","","","null","50","","","","","","","","","","","","","","","NaN",""
"","S1","","html-keyboard-response","333","407372","0.0-1.0-461.0","0","0","19295","","null","","","null","51","","","","","","","","","","","","","","","",""
"","ISI","","html-keyboard-response","334","408375","0.0-1.0-462.0","0","0","19295","","null","","","null","51","NaN","","","","","","","","","","","","","","",""
"","S2","","html-keyboard-response","335","408627","0.0-1.0-463.0","0","0","19295","","null","","","null","51","","NaN","","","","","","","","","","","","","",""
"","response","","html-keyboard-response","336","409921","0.0-1.0-464.0-0.0","0","0","19295","","1293","","","68","51","","","2","51","training","adjacent","GF","7","6","M.jpg","P.jpg","0","0","1","",""
"","feedback","","html-keyboard-response","337","410923","0.0-1.0-465.0-0.0","0","0","19295","","null","","","null","51","","","","","","","","","","","","","","","",""
"","ITI","","html-keyboard-response","338","411925","0.0-1.0-468.0","0","0","19295","","null","","","null","51","","","","","","","","","","","","","","","NaN",""
"","S1","","html-keyboard-response","339","412177","0.0-1.0-470.0","0","0","19295","","null","","","null","52","","","","","","","","","","","","","","","",""
"","ISI","","html-keyboard-response","340","413179","0.0-1.0-471.0","0","0","19295","","null","","","null","52","NaN","","","","","","","","","","","","","","",""
"","S2","","html-keyboard-response","341","413432","0.0-1.0-472.0","0","0","19295","","null","","","null","52","","NaN","","","","","","","","","","","","","",""
"","response","","html-keyboard-response","342","413895","0.0-1.0-473.0-0.0","0","0","19295","","463","","","68","52","","","2","52","training","adjacent","BA","2","1","O.jpg","N.jpg","0","0","1","",""
"","feedback","","html-keyboard-response","343","414898","0.0-1.0-474.0-0.0","0","0","19295","","null","","","null","52","","","","","","","","","","","","","","","",""
"","ITI","","html-keyboard-response","344","415900","0.0-1.0-477.0","0","0","19295","","null","","","null","52","","","","","","","","","","","","","","","NaN",""
"","S1","","html-keyboard-response","345","416153","0.0-1.0-479.0","0","0","19295","","null","","","null","53","","","","","","","","","","","","","","","",""
"","ISI","","html-keyboard-response","346","417156","0.0-1.0-480.0","0","0","19295","","null","","","null","53","NaN","","","","","","","","","","","","","","",""
"","S2","","html-keyboard-response","347","417409","0.0-1.0-481.0","0","0","19295","","null","","","null","53","","NaN","","","","","","","","","","","","","",""
"","response","","html-keyboard-response","348","417917","0.0-1.0-482.0-0.0","0","0","19295","","508","","","75","53","","","2","53","training","adjacent","BC","2","3","O.jpg","Q.jpg","1","1","1","",""
"","feedback","","html-keyboard-response","349","418920","0.0-1.0-483.0-0.0","0","0","19295","","null","","","null","53","","","","","","","","","","","","","","","",""
"","ITI","","html-keyboard-response","350","419922","0.0-1.0-486.0","0","0","19295","","null","","","null","53","","","","","","","","","","","","","","","NaN",""
"","S1","","html-keyboard-response","351","420174","0.0-1.0-488.0","0","0","19295","","null","","","null","54","","","","","","","","","","","","","","","",""
"","ISI","","html-keyboard-response","352","421177","0.0-1.0-489.0","0","0","19295","","null","","","null","54","NaN","","","","","","","","","","","","","","",""
"","S2","","html-keyboard-response","353","421429","0.0-1.0-490.0","0","0","19295","","null","","","null","54","","NaN","","","","","","","","","","","","","",""
"","response","","html-keyboard-response","354","422007","0.0-1.0-491.0-0.0","0","0","19295","","576","","","68","54","","","2","54","training","adjacent","BA","2","1","O.jpg","N.jpg","0","0","1","",""
"","feedback","","html-keyboard-response","355","423010","0.0-1.0-492.0-0.0","0","0","19295","","null","","","null","54","","","","","","","","","","","","","","","",""
"","ITI","","html-keyboard-response","356","424013","0.0-1.0-495.0","0","0","19295","","null","","","null","54","","","","","","","","","","","","","","","NaN",""
"","S1","","html-keyboard-response","357","424266","0.0-1.0-497.0","0","0","19295","","null","","","null","55","","","","","","","","","","","","","","","",""
"","ISI","","html-keyboard-response","358","425269","0.0-1.0-498.0","0","0","19295","","null","","","null","55","NaN","","","","","","","","","","","","","","",""
"","S2","","html-keyboard-response","359","425521","0.0-1.0-499.0","0","0","19295","","null","","","null","55","","NaN","","","","","","","","","","","","","",""
"","response","","html-keyboard-response","360","426424","0.0-1.0-500.0-0.0","0","0","19295","","901","","","68","55","","","2","55","training","adjacent","CB","3","2","Q.jpg","O.jpg","0","0","1","",""
"","feedback","","html-keyboard-response","361","427426","0.0-1.0-501.0-0.0","0","0","19295","","null","","","null","55","","","","","","","","","","","","","","","",""
"","ITI","","html-keyboard-response","362","428429","0.0-1.0-504.0","0","0","19295","","null","","","null","55","","","","","","","","","","","","","","","NaN",""
"","S1","","html-keyboard-response","363","428681","0.0-1.0-506.0","0","0","19295","","null","","","null","56","","","","","","","","","","","","","","","",""
"","ISI","","html-keyboard-response","364","429683","0.0-1.0-507.0","0","0","19295","","null","","","null","56","NaN","","","","","","","","","","","","","","",""
"","S2","","html-keyboard-response","365","429936","0.0-1.0-508.0","0","0","19295","","null","","","null","56","","NaN","","","","","","","","","","","","","",""
"","response","","html-keyboard-response","366","430716","0.0-1.0-509.0-0.0","0","0","19295","","779","","","75","56","","","2","56","training","adjacent","DE","4","5","R.jpg","L.jpg","1","1","1","",""
"","feedback","","html-keyboard-response","367","431719","0.0-1.0-510.0-0.0","0","0","19295","","null","","","null","56","","","","","","","","","","","","","","","",""
"","ITI","","html-keyboard-response","368","432721","0.0-1.0-513.0","0","0","19295","","null","","","null","56","","","","","","","","","","","","","","","NaN",""
"","S1","","html-keyboard-response","369","432972","0.0-1.0-515.0","0","0","19295","","null","","","null","57","","","","","","","","","","","","","","","",""
"","ISI","","html-keyboard-response","370","433974","0.0-1.0-516.0","0","0","19295","","null","","","null","57","NaN","","","","","","","","","","","","","","",""
"","S2","","html-keyboard-response","371","434227","0.0-1.0-517.0","0","0","19295","","null","","","null","57","","NaN","","","","","","","","","","","","","",""
"","response","","html-keyboard-response","372","434416","0.0-1.0-518.0-0.0","0","0","19295","","187","","","75","57","","","2","57","training","adjacent","AB","1","2","N.jpg","O.jpg","1","1","1","",""
"","feedback","","html-keyboard-response","373","435418","0.0-1.0-519.0-0.0","0","0","19295","","null","","","null","57","","","","","","","","","","","","","","","",""
"","ITI","","html-keyboard-response","374","436421","0.0-1.0-522.0","0","0","19295","","null","","","null","57","","","","","","","","","","","","","","","NaN",""
"","S1","","html-keyboard-response","375","436674","0.0-1.0-524.0","0","0","19295","","null","","","null","58","","","","","","","","","","","","","","","",""
"","ISI","","html-keyboard-response","376","437677","0.0-1.0-525.0","0","0","19295","","null","","","null","58","NaN","","","","","","","","","","","","","","",""
"","S2","","html-keyboard-response","377","437929","0.0-1.0-526.0","0","0","19295","","null","","","null","58","","NaN","","","","","","","","","","","","","",""
"","response","","html-keyboard-response","378","438343","0.0-1.0-527.0-0.0","0","0","19295","","412","","","75","58","","","2","58","training","adjacent","AB","1","2","N.jpg","O.jpg","1","1","1","",""
"","feedback","","html-keyboard-response","379","439346","0.0-1.0-528.0-0.0","0","0","19295","","null","","","null","58","","","","","","","","","","","","","","","",""
"","ITI","","html-keyboard-response","380","440349","0.0-1.0-531.0","0","0","19295","","null","","","null","58","","","","","","","","","","","","","","","NaN",""
"","S1","","html-keyboard-response","381","440601","0.0-1.0-533.0","0","0","19295","","null","","","null","59","","","","","","","","","","","","","","","",""
"","ISI","","html-keyboard-response","382","441603","0.0-1.0-534.0","0","0","19295","","null","","","null","59","NaN","","","","","","","","","","","","","","",""
"","S2","","html-keyboard-response","383","441855","0.0-1.0-535.0","0","0","19295","","null","","","null","59","","NaN","","","","","","","","","","","","","",""
"","response","","html-keyboard-response","384","442596","0.0-1.0-536.0-0.0","0","0","19295","","739","","","75","59","","","2","59","training","adjacent","DE","4","5","R.jpg","L.jpg","1","1","1","",""
"","feedback","","html-keyboard-response","385","443598","0.0-1.0-537.0-0.0","0","0","19295","","null","","","null","59","","","","","","","","","","","","","","","",""
"","ITI","","html-keyboard-response","386","444601","0.0-1.0-540.0","0","0","19295","","null","","","null","59","","","","","","","","","","","","","","","NaN",""
"","S1","","html-keyboard-response","387","444853","0.0-1.0-542.0","0","0","19295","","null","","","null","60","","","","","","","","","","","","","","","",""
"","ISI","","html-keyboard-response","388","445854","0.0-1.0-543.0","0","0","19295","","null","","","null","60","NaN","","","","","","","","","","","","","","",""
"","S2","","html-keyboard-response","389","446107","0.0-1.0-544.0","0","0","19295","","null","","","null","60","","NaN","","","","","","","","","","","","","",""
"","response","","html-keyboard-response","390","447608","0.0-1.0-545.0-0.0","0","0","19295","","1500","","","75","60","","","2","60","training","adjacent","CD","3","4","Q.jpg","R.jpg","1","1","1","",""
"","feedback","","html-keyboard-response","391","448610","0.0-1.0-546.0-0.0","0","0","19295","","null","","","null","60","","","","","","","","","","","","","","","",""
"","ITI","","html-keyboard-response","392","449612","0.0-1.0-549.0","0","0","19295","","null","","","null","60","","","","","","","","","","","","","","","NaN",""
"","S1","","html-keyboard-response","393","449865","0.0-1.0-551.0","0","0","19295","","null","","","null","61","","","","","","","","","","","","","","","",""
"","ISI","","html-keyboard-response","394","450868","0.0-1.0-552.0","0","0","19295","","null","","","null","61","NaN","","","","","","","","","","","","","","",""
"","S2","","html-keyboard-response","395","451120","0.0-1.0-553.0","0","0","19295","","null","","","null","61","","NaN","","","","","","","","","","","","","",""
"","response","","html-keyboard-response","396","451591","0.0-1.0-554.0-0.0","0","0","19295","","470","","","68","61","","","2","61","training","adjacent","BA","2","1","O.jpg","N.jpg","0","0","1","",""
"","feedback","","html-keyboard-response","397","452593","0.0-1.0-555.0-0.0","0","0","19295","","null","","","null","61","","","","","","","","","","","","","","","",""
"","ITI","","html-keyboard-response","398","453595","0.0-1.0-558.0","0","0","19295","","null","","","null","61","","","","","","","","","","","","","","","NaN",""
"","S1","","html-keyboard-response","399","453847","0.0-1.0-560.0","0","0","19295","","null","","","null","62","","","","","","","","","","","","","","","",""
"","ISI","","html-keyboard-response","400","454849","0.0-1.0-561.0","0","0","19295","","null","","","null","62","NaN","","","","","","","","","","","","","","",""
"","S2","","html-keyboard-response","401","455116","0.0-1.0-562.0","0","0","19295","","null","","","null","62","","NaN","","","","","","","","","","","","","",""
"","response","","html-keyboard-response","402","455832","0.0-1.0-563.0-0.0","0","0","19295","","714","","","68","62","","","2","62","training","adjacent","CB","3","2","Q.jpg","O.jpg","0","0","1","",""
"","feedback","","html-keyboard-response","403","456835","0.0-1.0-564.0-0.0","0","0","19295","","null","","","null","62","","","","","","","","","","","","","","","",""
"","ITI","","html-keyboard-response","404","457837","0.0-1.0-567.0","0","0","19295","","null","","","null","62","","","","","","","","","","","","","","","NaN",""
"","S1","","html-keyboard-response","405","458089","0.0-1.0-569.0","0","0","19295","","null","","","null","63","","","","","","","","","","","","","","","",""
"","ISI","","html-keyboard-response","406","459092","0.0-1.0-570.0","0","0","19295","","null","","","null","63","NaN","","","","","","","","","","","","","","",""
"","S2","","html-keyboard-response","407","459345","0.0-1.0-571.0","0","0","19295","","null","","","null","63","","NaN","","","","","","","","","","","","","",""
"","response","","html-keyboard-response","408","460972","0.0-1.0-572.0-0.0","0","0","19295","","1625","","","68","63","","","2","63","training","adjacent","CB","3","2","Q.jpg","O.jpg","0","0","1","",""
"","feedback","","html-keyboard-response","409","461974","0.0-1.0-573.0-0.0","0","0","19295","","null","","","null","63","","","","","","","","","","","","","","","",""
"","ITI","","html-keyboard-response","410","462976","0.0-1.0-576.0","0","0","19295","","null","","","null","63","","","","","","","","","","","","","","","NaN",""
"","S1","","html-keyboard-response","411","463229","0.0-1.0-578.0","0","0","19295","","null","","","null","64","","","","","","","","","","","","","","","",""
"","ISI","","html-keyboard-response","412","464231","0.0-1.0-579.0","0","0","19295","","null","","","null","64","NaN","","","","","","","","","","","","","","",""
"","S2","","html-keyboard-response","413","464483","0.0-1.0-580.0","0","0","19295","","null","","","null","64","","NaN","","","","","","","","","","","","","",""
"","response","","html-keyboard-response","414","466235","0.0-1.0-581.0-0.0","0","0","19295","","null","","","null","64","","","2","64","training","adjacent","FG","6","7","P.jpg","M.jpg","NaN","1","0","",""
"","too_slow_prompt","","html-keyboard-response","415","467238","0.0-1.0-583.0-0.0","1","0","19295","","null","","","null","","","","","","","","","","","","","","","","",""
"","time_out","","html-keyboard-response","416","469241","0.0-1.0-584.0-0.0","0","0","19295","","null","","","null","64","","","","","","","","","","","","","","","",""
"","ITI","","html-keyboard-response","417","470243","0.0-1.0-585.0","0","0","19295","","null","","","null","64","","","","","","","","","","","","","","","NaN",""
"","S1","","html-keyboard-response","418","470495","0.0-1.0-587.0","0","0","19295","","null","","","null","65","","","","","","","","","","","","","","","",""
"","ISI","","html-keyboard-response","419","471496","0.0-1.0-588.0","0","0","19295","","null","","","null","65","NaN","","","","","","","","","","","","","","",""
"","S2","","html-keyboard-response","420","471748","0.0-1.0-589.0","0","0","19295","","null","","","null","65","","NaN","","","","","","","","","","","","","",""
"","response","","html-keyboard-response","421","472410","0.0-1.0-590.0-0.0","0","0","19295","","661","","","68","65","","","2","65","training","adjacent","GF","7","6","M.jpg","P.jpg","0","0","1","",""
"","feedback","","html-keyboard-response","422","473412","0.0-1.0-591.0-0.0","0","0","19295","","null","","","null","65","","","","","","","","","","","","","","","",""
"","ITI","","html-keyboard-response","423","474415","0.0-1.0-594.0","0","0","19295","","null","","","null","65","","","","","","","","","","","","","","","NaN",""
"","S1","","html-keyboard-response","424","474667","0.0-1.0-596.0","0","0","19295","","null","","","null","66","","","","","","","","","","","","","","","",""
"","ISI","","html-keyboard-response","425","475669","0.0-1.0-597.0","0","0","19295","","null","","","null","66","NaN","","","","","","","","","","","","","","",""
"","S2","","html-keyboard-response","426","475923","0.0-1.0-598.0","0","0","19295","","null","","","null","66","","NaN","","","","","","","","","","","","","",""
"","response","","html-keyboard-response","427","476522","0.0-1.0-599.0-0.0","0","0","19295","","599","","","75","66","","","2","66","training","adjacent","DE","4","5","R.jpg","L.jpg","1","1","1","",""
"","feedback","","html-keyboard-response","428","477525","0.0-1.0-600.0-0.0","0","0","19295","","null","","","null","66","","","","","","","","","","","","","","","",""
"","ITI","","html-keyboard-response","429","478527","0.0-1.0-603.0","0","0","19295","","null","","","null","66","","","","","","","","","","","","","","","NaN",""
"","S1","","html-keyboard-response","430","478779","0.0-1.0-605.0","0","0","19295","","null","","","null","67","","","","","","","","","","","","","","","",""
"","ISI","","html-keyboard-response","431","479781","0.0-1.0-606.0","0","0","19295","","null","","","null","67","NaN","","","","","","","","","","","","","","",""
"","S2","","html-keyboard-response","432","480034","0.0-1.0-607.0","0","0","19295","","null","","","null","67","","NaN","","","","","","","","","","","","","",""
"","response","","html-keyboard-response","433","481232","0.0-1.0-608.0-0.0","0","0","19295","","1198","","","68","67","","","2","67","training","adjacent","DC","4","3","R.jpg","Q.jpg","0","0","1","",""
"","feedback","","html-keyboard-response","434","482234","0.0-1.0-609.0-0.0","0","0","19295","","null","","","null","67","","","","","","","","","","","","","","","",""
"","ITI","","html-keyboard-response","435","483237","0.0-1.0-612.0","0","0","19295","","null","","","null","67","","","","","","","","","","","","","","","NaN",""
"","S1","","html-keyboard-response","436","483489","0.0-1.0-614.0","0","0","19295","","null","","","null","68","","","","","","","","","","","","","","","",""
"","ISI","","html-keyboard-response","437","484491","0.0-1.0-615.0","0","0","19295","","null","","","null","68","NaN","","","","","","","","","","","","","","",""
"","S2","","html-keyboard-response","438","484744","0.0-1.0-616.0","0","0","19295","","null","","","null","68","","NaN","","","","","","","","","","","","","",""
"","response","","html-keyboard-response","439","485152","0.0-1.0-617.0-0.0","0","0","19295","","407","","","75","68","","","2","68","training","adjacent","FE","6","5","P.jpg","L.jpg","1","0","0","",""
"","feedback","","html-keyboard-response","440","486155","0.0-1.0-618.0-0.0","0","0","19295","","null","","","null","68","","","","","","","","","","","","","","","",""
"","time_out","","html-keyboard-response","441","488158","0.0-1.0-620.0-0.0","0","0","19295","","null","","","null","68","","","","","","","","","","","","","","","",""
"","ITI","","html-keyboard-response","442","489161","0.0-1.0-621.0","0","0","19295","","null","","","null","68","","","","","","","","","","","","","","","NaN",""
"","S1","","html-keyboard-response","443","489413","0.0-1.0-623.0","0","0","19295","","null","","","null","69","","","","","","","","","","","","","","","",""
"","ISI","","html-keyboard-response","444","490415","0.0-1.0-624.0","0","0","19295","","null","","","null","69","NaN","","","","","","","","","","","","","","",""
"","S2","","html-keyboard-response","445","490669","0.0-1.0-625.0","0","0","19295","","null","","","null","69","","NaN","","","","","","","","","","","","","",""
"","response","","html-keyboard-response","446","491698","0.0-1.0-626.0-0.0","0","0","19295","","1028","","","68","69","","","2","69","training","adjacent","FE","6","5","P.jpg","L.jpg","0","0","1","",""
"","feedback","","html-keyboard-response","447","492700","0.0-1.0-627.0-0.0","0","0","19295","","null","","","null","69","","","","","","","","","","","","","","","",""
"","ITI","","html-keyboard-response","448","493703","0.0-1.0-630.0","0","0","19295","","null","","","null","69","","","","","","","","","","","","","","","NaN",""
"","S1","","html-keyboard-response","449","493956","0.0-1.0-632.0","0","0","19295","","null","","","null","70","","","","","","","","","","","","","","","",""
"","ISI","","html-keyboard-response","450","494958","0.0-1.0-633.0","0","0","19295","","null","","","null","70","NaN","","","","","","","","","","","","","","",""
"","S2","","html-keyboard-response","451","495211","0.0-1.0-634.0","0","0","19295","","null","","","null","70","","NaN","","","","","","","","","","","","","",""
"","response","","html-keyboard-response","452","495908","0.0-1.0-635.0-0.0","0","0","19295","","696","","","75","70","","","2","70","training","adjacent","DE","4","5","R.jpg","L.jpg","1","1","1","",""
"","feedback","","html-keyboard-response","453","496911","0.0-1.0-636.0-0.0","0","0","19295","","null","","","null","70","","","","","","","","","","","","","","","",""
"","ITI","","html-keyboard-response","454","497913","0.0-1.0-639.0","0","0","19295","","null","","","null","70","","","","","","","","","","","","","","","NaN",""
"","S1","","html-keyboard-response","455","498166","0.0-1.0-641.0","0","0","19295","","null","","","null","71","","","","","","","","","","","","","","","",""
"","ISI","","html-keyboard-response","456","499169","0.0-1.0-642.0","0","0","19295","","null","","","null","71","NaN","","","","","","","","","","","","","","",""
"","S2","","html-keyboard-response","457","499423","0.0-1.0-643.0","0","0","19295","","null","","","null","71","","NaN","","","","","","","","","","","","","",""
"","response","","html-keyboard-response","458","500435","0.0-1.0-644.0-0.0","0","0","19295","","1011","","","75","71","","","2","71","training","adjacent","BC","2","3","O.jpg","Q.jpg","1","1","1","",""
"","feedback","","html-keyboard-response","459","501438","0.0-1.0-645.0-0.0","0","0","19295","","null","","","null","71","","","","","","","","","","","","","","","",""
"","ITI","","html-keyboard-response","460","502441","0.0-1.0-648.0","0","0","19295","","null","","","null","71","","","","","","","","","","","","","","","NaN",""
"","S1","","html-keyboard-response","461","502693","0.0-1.0-650.0","0","0","19295","","null","","","null","72","","","","","","","","","","","","","","","",""
"","ISI","","html-keyboard-response","462","503697","0.0-1.0-651.0","0","0","19295","","null","","","null","72","NaN","","","","","","","","","","","","","","",""
"","S2","","html-keyboard-response","463","503951","0.0-1.0-652.0","0","0","19295","","null","","","null","72","","NaN","","","","","","","","","","","","","",""
"","response","","html-keyboard-response","464","504083","0.0-1.0-653.0-0.0","0","0","19295","","129","","","68","72","","","2","72","training","adjacent","CB","3","2","Q.jpg","O.jpg","0","0","1","",""
"","feedback","","html-keyboard-response","465","505086","0.0-1.0-654.0-0.0","0","0","19295","","null","","","null","72","","","","","","","","","","","","","","","",""
"","ITI","","html-keyboard-response","466","506088","0.0-1.0-657.0","0","0","19295","","null","","","null","72","","","","","","","","","","","","","","","NaN",""
"","S1","","html-keyboard-response","467","506340","0.0-1.0-659.0","0","0","19295","","null","","","null","73","","","","","","","","","","","","","","","",""
"","ISI","","html-keyboard-response","468","507342","0.0-1.0-660.0","0","0","19295","","null","","","null","73","NaN","","","","","","","","","","","","","","",""
"","S2","","html-keyboard-response","469","507595","0.0-1.0-661.0","0","0","19295","","null","","","null","73","","NaN","","","","","","","","","","","","","",""
"","response","","html-keyboard-response","470","509156","0.0-1.0-662.0-0.0","0","0","19295","","1561","","","68","73","","","2","73","training","adjacent","ED","5","4","L.jpg","R.jpg","0","0","1","",""
"","feedback","","html-keyboard-response","471","510159","0.0-1.0-663.0-0.0","0","0","19295","","null","","","null","73","","","","","","","","","","","","","","","",""
"","ITI","","html-keyboard-response","472","511161","0.0-1.0-666.0","0","0","19295","","null","","","null","73","","","","","","","","","","","","","","","NaN",""
"","S1","","html-keyboard-response","473","511413","0.0-1.0-668.0","0","0","19295","","null","","","null","74","","","","","","","","","","","","","","","",""
"","ISI","","html-keyboard-response","474","512415","0.0-1.0-669.0","0","0","19295","","null","","","null","74","NaN","","","","","","","","","","","","","","",""
"","S2","","html-keyboard-response","475","512668","0.0-1.0-670.0","0","0","19295","","null","","","null","74","","NaN","","","","","","","","","","","","","",""
"","response","","html-keyboard-response","476","514063","0.0-1.0-671.0-0.0","0","0","19295","","1395","","","68","74","","","2","74","training","adjacent","FE","6","5","P.jpg","L.jpg","0","0","1","",""
"","feedback","","html-keyboard-response","477","515066","0.0-1.0-672.0-0.0","0","0","19295","","null","","","null","74","","","","","","","","","","","","","","","",""
"","ITI","","html-keyboard-response","478","516067","0.0-1.0-675.0","0","0","19295","","null","","","null","74","","","","","","","","","","","","","","","NaN",""
"","S1","","html-keyboard-response","479","516319","0.0-1.0-677.0","0","0","19295","","null","","","null","75","","","","","","","","","","","","","","","",""
"","ISI","","html-keyboard-response","480","517321","0.0-1.0-678.0","0","0","19295","","null","","","null","75","NaN","","","","","","","","","","","","","","",""
"","S2","","html-keyboard-response","481","517573","0.0-1.0-679.0","0","0","19295","","null","","","null","75","","NaN","","","","","","","","","","","","","",""
"","response","","html-keyboard-response","482","518392","0.0-1.0-680.0-0.0","0","0","19295","","817","","","75","75","","","2","75","training","adjacent","EF","5","6","L.jpg","P.jpg","1","1","1","",""
"","feedback","","html-keyboard-response","483","519394","0.0-1.0-681.0-0.0","0","0","19295","","null","","","null","75","","","","","","","","","","","","","","","",""
"","ITI","","html-keyboard-response","484","520396","0.0-1.0-684.0","0","0","19295","","null","","","null","75","","","","","","","","","","","","","","","NaN",""
"","S1","","html-keyboard-response","485","520648","0.0-1.0-686.0","0","0","19295","","null","","","null","76","","","","","","","","","","","","","","","",""
"","ISI","","html-keyboard-response","486","521650","0.0-1.0-687.0","0","0","19295","","753","","","76","76","l","","","","","","","","","","","","","","",""
"","S2","","html-keyboard-response","487","521904","0.0-1.0-688.0","0","0","19295","","null","","","null","76","","NaN","","","","","","","","","","","","","",""
"","response","","html-keyboard-response","488","523031","0.0-1.0-689.0-0.0","0","0","19295","","1126","","","75","76","","","2","76","training","adjacent","FE","6","5","P.jpg","L.jpg","1","0","0","",""
"","feedback","","html-keyboard-response","489","524034","0.0-1.0-690.0-0.0","0","0","19295","","null","","","null","76","","","","","","","","","","","","","","","",""
"","time_out","","html-keyboard-response","490","526037","0.0-1.0-692.0-0.0","0","0","19295","","null","","","null","76","","","","","","","","","","","","","","","",""
"","ITI","","html-keyboard-response","491","527039","0.0-1.0-693.0","0","0","19295","","null","","","null","76","","","","","","","","","","","","","","","NaN",""
"","S1","","html-keyboard-response","492","527291","0.0-1.0-695.0","0","0","19295","","null","","","null","77","","","","","","","","","","","","","","","",""
"","ISI","","html-keyboard-response","493","528300","0.0-1.0-696.0","0","0","19295","","null","","","null","77","NaN","","","","","","","","","","","","","","",""
"","S2","","html-keyboard-response","494","528552","0.0-1.0-697.0","0","0","19295","","null","","","null","77","","NaN","","","","","","","","","","","","","",""
"","response","","html-keyboard-response","495","529220","0.0-1.0-698.0-0.0","0","0","19295","","667","","","75","77","","","2","77","training","adjacent","CD","3","4","Q.jpg","R.jpg","1","1","1","",""
"","feedback","","html-keyboard-response","496","530223","0.0-1.0-699.0-0.0","0","0","19295","","null","","","null","77","","","","","","","","","","","","","","","",""
"","ITI","","html-keyboard-response","497","531226","0.0-1.0-702.0","0","0","19295","","null","","","null","77","","","","","","","","","","","","","","","NaN",""
"","S1","","html-keyboard-response","498","531479","0.0-1.0-704.0","0","0","19295","","null","","","null","78","","","","","","","","","","","","","","","",""
"","ISI","","html-keyboard-response","499","532481","0.0-1.0-705.0","0","0","19295","","null","","","null","78","NaN","","","","","","","","","","","","","","",""
"","S2","","html-keyboard-response","500","532735","0.0-1.0-706.0","0","0","19295","","null","","","null","78","","NaN","","","","","","","","","","","","","",""
"","response","","html-keyboard-response","501","533819","0.0-1.0-707.0-0.0","0","0","19295","","1083","","","68","78","","","2","78","training","adjacent","ED","5","4","L.jpg","R.jpg","0","0","1","",""
"","feedback","","html-keyboard-response","502","534820","0.0-1.0-708.0-0.0","0","0","19295","","null","","","null","78","","","","","","","","","","","","","","","",""
"","ITI","","html-keyboard-response","503","535823","0.0-1.0-711.0","0","0","19295","","null","","","null","78","","","","","","","","","","","","","","","NaN",""
"","S1","","html-keyboard-response","504","536075","0.0-1.0-713.0","0","0","19295","","null","","","null","79","","","","","","","","","","","","","","","",""
"","ISI","","html-keyboard-response","505","537078","0.0-1.0-714.0","0","0","19295","","null","","","null","79","NaN","","","","","","","","","","","","","","",""
"","S2","","html-keyboard-response","506","537330","0.0-1.0-715.0","0","0","19295","","null","","","null","79","","NaN","","","","","","","","","","","","","",""
"","response","","html-keyboard-response","507","538422","0.0-1.0-716.0-0.0","0","0","19295","","1091","","","68","79","","","2","79","training","adjacent","DC","4","3","R.jpg","Q.jpg","0","0","1","",""
"","feedback","","html-keyboard-response","508","539424","0.0-1.0-717.0-0.0","0","0","19295","","null","","","null","79","","","","","","","","","","","","","","","",""
"","ITI","","html-keyboard-response","509","540426","0.0-1.0-720.0","0","0","19295","","null","","","null","79","","","","","","","","","","","","","","","NaN",""
"","S1","","html-keyboard-response","510","540679","0.0-1.0-722.0","0","0","19295","","null","","","null","80","","","","","","","","","","","","","","","",""
"","ISI","","html-keyboard-response","511","541681","0.0-1.0-723.0","0","0","19295","","null","","","null","80","NaN","","","","","","","","","","","","","","",""
"","S2","","html-keyboard-response","512","541934","0.0-1.0-724.0","0","0","19295","","null","","","null","80","","NaN","","","","","","","","","","","","","",""
"","response","","html-keyboard-response","513","543280","0.0-1.0-725.0-0.0","0","0","19295","","1345","","","68","80","","","2","80","training","adjacent","ED","5","4","L.jpg","R.jpg","0","0","1","",""
"","feedback","","html-keyboard-response","514","544282","0.0-1.0-726.0-0.0","0","0","19295","","null","","","null","80","","","","","","","","","","","","","","","",""
"","ITI","","html-keyboard-response","515","545285","0.0-1.0-729.0","0","0","19295","","null","","","null","80","","","","","","","","","","","","","","","NaN",""
"","S1","","html-keyboard-response","516","545538","0.0-1.0-731.0","0","0","19295","","null","","","null","81","","","","","","","","","","","","","","","",""
"","ISI","","html-keyboard-response","517","546540","0.0-1.0-732.0","0","0","19295","","null","","","null","81","NaN","","","","","","","","","","","","","","",""
"","S2","","html-keyboard-response","518","546793","0.0-1.0-733.0","0","0","19295","","null","","","null","81","","NaN","","","","","","","","","","","","","",""
"","response","","html-keyboard-response","519","547612","0.0-1.0-734.0-0.0","0","0","19295","","818","","","75","81","","","2","81","training","adjacent","BC","2","3","O.jpg","Q.jpg","1","1","1","",""
"","feedback","","html-keyboard-response","520","548614","0.0-1.0-735.0-0.0","0","0","19295","","null","","","null","81","","","","","","","","","","","","","","","",""
"","ITI","","html-keyboard-response","521","549617","0.0-1.0-738.0","0","0","19295","","null","","","null","81","","","","","","","","","","","","","","","NaN",""
"","S1","","html-keyboard-response","522","549869","0.0-1.0-740.0","0","0","19295","","null","","","null","82","","","","","","","","","","","","","","","",""
"","ISI","","html-keyboard-response","523","550872","0.0-1.0-741.0","0","0","19295","","null","","","null","82","NaN","","","","","","","","","","","","","","",""
"","S2","","html-keyboard-response","524","551124","0.0-1.0-742.0","0","0","19295","","null","","","null","82","","NaN","","","","","","","","","","","","","",""
"","response","","html-keyboard-response","525","551833","0.0-1.0-743.0-0.0","0","0","19295","","707","","","68","82","","","2","82","training","adjacent","EF","5","6","L.jpg","P.jpg","0","1","0","",""
"","feedback","","html-keyboard-response","526","552835","0.0-1.0-744.0-0.0","0","0","19295","","null","","","null","82","","","","","","","","","","","","","","","",""
"","time_out","","html-keyboard-response","527","554837","0.0-1.0-746.0-0.0","0","0","19295","","null","","","null","82","","","","","","","","","","","","","","","",""
"","ITI","","html-keyboard-response","528","555839","0.0-1.0-747.0","0","0","19295","","null","","","null","82","","","","","","","","","","","","","","","NaN",""
"","S1","","html-keyboard-response","529","556098","0.0-1.0-749.0","0","0","19295","","null","","","null","83","","","","","","","","","","","","","","","",""
"","ISI","","html-keyboard-response","530","557109","0.0-1.0-750.0","0","0","19295","","null","","","null","83","NaN","","","","","","","","","","","","","","",""
"","S2","","html-keyboard-response","531","557363","0.0-1.0-751.0","0","0","19295","","null","","","null","83","","NaN","","","","","","","","","","","","","",""
"","response","","html-keyboard-response","532","557949","0.0-1.0-752.0-0.0","0","0","19295","","585","","","68","83","","","2","83","training","adjacent","BA","2","1","O.jpg","N.jpg","0","0","1","",""
"","feedback","","html-keyboard-response","533","558952","0.0-1.0-753.0-0.0","0","0","19295","","null","","","null","83","","","","","","","","","","","","","","","",""
"","ITI","","html-keyboard-response","534","559954","0.0-1.0-756.0","0","0","19295","","null","","","null","83","","","","","","","","","","","","","","","NaN",""
"","S1","","html-keyboard-response","535","560207","0.0-1.0-758.0","0","0","19295","","null","","","null","84","","","","","","","","","","","","","","","",""
"","ISI","","html-keyboard-response","536","561210","0.0-1.0-759.0","0","0","19295","","null","","","null","84","NaN","","","","","","","","","","","","","","",""
"","S2","","html-keyboard-response","537","561463","0.0-1.0-760.0","0","0","19295","","null","","","null","84","","NaN","","","","","","","","","","","","","",""
"","response","","html-keyboard-response","538","561743","0.0-1.0-761.0-0.0","0","0","19295","","278","","","75","84","","","2","84","training","adjacent","AB","1","2","N.jpg","O.jpg","1","1","1","",""
"","feedback","","html-keyboard-response","539","562747","0.0-1.0-762.0-0.0","0","0","19295","","null","","","null","84","","","","","","","","","","","","","","","",""
"","ITI","","html-keyboard-response","540","563749","0.0-1.0-765.0","0","0","19295","","null","","","null","84","","","","","","","","","","","","","","","NaN",""
"","S1","","html-keyboard-response","541","564008","0.0-1.0-767.0","0","0","19295","","null","","","null","85","","","","","","","","","","","","","","","",""
"","ISI","","html-keyboard-response","542","565010","0.0-1.0-768.0","0","0","19295","","null","","","null","85","NaN","","","","","","","","","","","","","","",""
"","S2","","html-keyboard-response","543","565263","0.0-1.0-769.0","0","0","19295","","null","","","null","85","","NaN","","","","","","","","","","","","","",""
"","response","","html-keyboard-response","544","566350","0.0-1.0-770.0-0.0","0","0","19295","","1087","","","68","85","","","2","85","training","adjacent","FG","6","7","P.jpg","M.jpg","0","1","0","",""
"","feedback","","html-keyboard-response","545","567353","0.0-1.0-771.0-0.0","0","0","19295","","null","","","null","85","","","","","","","","","","","","","","","",""
"","time_out","","html-keyboard-response","546","569355","0.0-1.0-773.0-0.0","0","0","19295","","null","","","null","85","","","","","","","","","","","","","","","",""
"","ITI","","html-keyboard-response","547","570357","0.0-1.0-774.0","0","0","19295","","null","","","null","85","","","","","","","","","","","","","","","NaN",""
"","S1","","html-keyboard-response","548","570609","0.0-1.0-776.0","0","0","19295","","null","","","null","86","","","","","","","","","","","","","","","",""
"","ISI","","html-keyboard-response","549","571610","0.0-1.0-777.0","0","0","19295","","null","","","null","86","NaN","","","","","","","","","","","","","","",""
"","S2","","html-keyboard-response","550","571872","0.0-1.0-778.0","0","0","19295","","null","","","null","86","","NaN","","","","","","","","","","","","","",""
"","response","","html-keyboard-response","551","572841","0.0-1.0-779.0-0.0","0","0","19295","","968","","","75","86","","","2","86","training","adjacent","FG","6","7","P.jpg","M.jpg","1","1","1","",""
"","feedback","","html-keyboard-response","552","573843","0.0-1.0-780.0-0.0","0","0","19295","","null","","","null","86","","","","","","","","","","","","","","","",""
"","ITI","","html-keyboard-response","553","574845","0.0-1.0-783.0","0","0","19295","","null","","","null","86","","","","","","","","","","","","","","","NaN",""
"","S1","","html-keyboard-response","554","575097","0.0-1.0-785.0","0","0","19295","","null","","","null","87","","","","","","","","","","","","","","","",""
"","ISI","","html-keyboard-response","555","576100","0.0-1.0-786.0","0","0","19295","","null","","","null","87","NaN","","","","","","","","","","","","","","",""
"","S2","","html-keyboard-response","556","576365","0.0-1.0-787.0","0","0","19295","","null","","","null","87","","NaN","","","","","","","","","","","","","",""
"","response","","html-keyboard-response","557","577310","0.0-1.0-788.0-0.0","0","0","19295","","943","","","75","87","","","2","87","training","adjacent","CD","3","4","Q.jpg","R.jpg","1","1","1","",""
"","feedback","","html-keyboard-response","558","578312","0.0-1.0-789.0-0.0","0","0","19295","","null","","","null","87","","","","","","","","","","","","","","","",""
"","ITI","","html-keyboard-response","559","579314","0.0-1.0-792.0","0","0","19295","","null","","","null","87","","","","","","","","","","","","","","","NaN",""
"","S1","","html-keyboard-response","560","579566","0.0-1.0-794.0","0","0","19295","","null","","","null","88","","","","","","","","","","","","","","","",""
"","ISI","","html-keyboard-response","561","580568","0.0-1.0-795.0","0","0","19295","","null","","","null","88","NaN","","","","","","","","","","","","","","",""
"","S2","","html-keyboard-response","562","580821","0.0-1.0-796.0","0","0","19295","","null","","","null","88","","NaN","","","","","","","","","","","","","",""
"","response","","html-keyboard-response","563","582324","0.0-1.0-797.0-0.0","0","0","19295","","1502","","","75","88","","","2","88","training","adjacent","DC","4","3","R.jpg","Q.jpg","1","0","0","",""
"","feedback","","html-keyboard-response","564","583327","0.0-1.0-798.0-0.0","0","0","19295","","null","","","null","88","","","","","","","","","","","","","","","",""
"","time_out","","html-keyboard-response","565","585329","0.0-1.0-800.0-0.0","0","0","19295","","null","","","null","88","","","","","","","","","","","","","","","",""
"","ITI","","html-keyboard-response","566","586332","0.0-1.0-801.0","0","0","19295","","null","","","null","88","","","","","","","","","","","","","","","NaN",""
"","S1","","html-keyboard-response","567","586585","0.0-1.0-803.0","0","0","19295","","null","","","null","89","","","","","","","","","","","","","","","",""
"","ISI","","html-keyboard-response","568","587587","0.0-1.0-804.0","0","0","19295","","null","","","null","89","NaN","","","","","","","","","","","","","","",""
"","S2","","html-keyboard-response","569","587840","0.0-1.0-805.0","0","0","19295","","null","","","null","89","","NaN","","","","","","","","","","","","","",""
"","response","","html-keyboard-response","570","588709","0.0-1.0-806.0-0.0","0","0","19295","","868","","","68","89","","","2","89","training","adjacent","GF","7","6","M.jpg","P.jpg","0","0","1","",""
"","feedback","","html-keyboard-response","571","589711","0.0-1.0-807.0-0.0","0","0","19295","","null","","","null","89","","","","","","","","","","","","","","","",""
"","ITI","","html-keyboard-response","572","590714","0.0-1.0-810.0","0","0","19295","","null","","","null","89","","","","","","","","","","","","","","","NaN",""
"","S1","","html-keyboard-response","573","590967","0.0-1.0-812.0","0","0","19295","","null","","","null","90","","","","","","","","","","","","","","","",""
"","ISI","","html-keyboard-response","574","591968","0.0-1.0-813.0","0","0","19295","","null","","","null","90","NaN","","","","","","","","","","","","","","",""
"","S2","","html-keyboard-response","575","592220","0.0-1.0-814.0","0","0","19295","","null","","","null","90","","NaN","","","","","","","","","","","","","",""
"","response","","html-keyboard-response","576","592594","0.0-1.0-815.0-0.0","0","0","19295","","374","","","75","90","","","2","90","training","adjacent","BC","2","3","O.jpg","Q.jpg","1","1","1","",""
