"success","ttype","start_time","trial_type","trial_index","time_elapsed","internal_node_id","warning","missed_checkup","PID","view_history","rt","responses","repeat_instructions","key_press","index","keypress_isi","keypress_S2","block","trial_num","phase","group_type","pair_type","S1_stim","S2_stim","S1_img","S2_img","S1_chosen","S1_higher","accuracy","keypress_iti","total_bonus_tally"
"true","full_screen","d04062023hr1717","fullscreen","0","14920","0.0-0.0","0","0","71639","","","","","","","","","","","","","","","","","","","","","",""
"","instructions","","instructions","1","64133","0.0-1.0-0.0-0.0","0","0","71639","[{""page_index"":0,""viewing_time"":7012},{""page_index"":1,""viewing_time"":26555},{""page_index"":2,""viewing_time"":13651},{""page_index"":3,""viewing_time"":1985}]","49203","","","","","","","","","","","","","","","","","","","",""
"","comprehension_check","","survey-multi-choice","2","95446","0.0-1.0-0.0-1.0","0","0","71639","","31301","{""Q0"":""True"",""Q1"":""K"",""Q2"":""Only when the screen 'MAKE A CHOICE' is shown"",""Q3"":""Green mark"",""Q4"":""either D or K""}","1","","","","","","","","","","","","","","","","","",""
"","missed_instruction_checkup","","html-keyboard-response","3","97003","0.0-1.0-0.0-2.0-0.0","0","1","71639","","1553","","","32","","","","","","","","","","","","","","","","",""
"","instructions","","instructions","4","106196","0.0-1.0-0.1-0.1","0","0","71639","[{""page_index"":0,""viewing_time"":2079},{""page_index"":1,""viewing_time"":4533},{""page_index"":2,""viewing_time"":1460},{""page_index"":3,""viewing_time"":1118}]","9190","","","","","","","","","","","","","","","","","","","",""
"","comprehension_check","","survey-multi-choice","5","119077","0.0-1.0-0.1-1.1","0","0","71639","","12874","{""Q0"":""True"",""Q1"":""K"",""Q2"":""Once the second image appears and while the screen 'MAKE A CHOICE' is shown"",""Q3"":""Green mark"",""Q4"":""either D or K""}","0","","","","","","","","","","","","","","","","","",""
"","start_exp","","html-keyboard-response","6","120356","0.0-1.0-1.0","0","0","71639","","1273","","","32","","","","","","","","","","","","","","","","",""
"","S1","","html-keyboard-response","7","120515","0.0-1.0-2.0","0","0","71639","","null","","","null","0","","","","","","","","","","","","","","","",""
"","ISI","","html-keyboard-response","8","122531","0.0-1.0-3.0","0","0","71639","","null","","","null","0","NaN","","","","","","","","","","","","","","",""
"","S2","","html-keyboard-response","9","122689","0.0-1.0-4.0","0","0","71639","","null","","","null","0","","NaN","","","","","","","","","","","","","",""
"","response","","html-keyboard-response","10","123793","0.0-1.0-5.0-0.0","0","0","71639","","1100","","","68","0","","","1","0","training","adjacent","DC","4","3","L.jpg","O.jpg","0","0","1","",""
"","feedback","","html-keyboard-response","11","124810","0.0-1.0-6.0-0.0","0","0","71639","","null","","","null","0","","","","","","","","","","","","","","","",""
"","ITI","","html-keyboard-response","12","125825","0.0-1.0-9.0","0","0","71639","","null","","","null","0","","","","","","","","","","","","","","","NaN",""
"","S1","","html-keyboard-response","13","125981","0.0-1.0-11.0","0","0","71639","","null","","","null","1","","","","","","","","","","","","","","","",""
"","ISI","","html-keyboard-response","14","127996","0.0-1.0-12.0","0","0","71639","","null","","","null","1","NaN","","","","","","","","","","","","","","",""
"","S2","","html-keyboard-response","15","128160","0.0-1.0-13.0","0","0","71639","","null","","","null","1","","NaN","","","","","","","","","","","","","",""
"","response","","html-keyboard-response","16","129616","0.0-1.0-14.0-0.0","0","0","71639","","1453","","","75","1","","","1","1","training","adjacent","FG","6","7","P.jpg","M.jpg","1","1","1","",""
"","feedback","","html-keyboard-response","17","130628","0.0-1.0-15.0-0.0","0","0","71639","","null","","","null","1","","","","","","","","","","","","","","","",""
"","ITI","","html-keyboard-response","18","131643","0.0-1.0-18.0","0","0","71639","","null","","","null","1","","","","","","","","","","","","","","","NaN",""
"","S1","","html-keyboard-response","19","131810","0.0-1.0-20.0","0","0","71639","","null","","","null","2","","","","","","","","","","","","","","","",""
"","ISI","","html-keyboard-response","20","133821","0.0-1.0-21.0","0","0","71639","","null","","","null","2","NaN","","","","","","","","","","","","","","",""
"","S2","","html-keyboard-response","21","133987","0.0-1.0-22.0","0","0","71639","","null","","","null","2","","NaN","","","","","","","","","","","","","",""
"","response","","html-keyboard-response","22","135851","0.0-1.0-23.0-0.0","0","0","71639","","null","","","null","2","","","1","2","training","adjacent","BA","2","1","Q.jpg","N.jpg","NaN","0","0","",""
"","too_slow_prompt","","html-keyboard-response","23","136867","0.0-1.0-25.0-0.0","1","0","71639","","null","","","null","","","","","","","","","","","","","","","","",""
"","time_out","","html-keyboard-response","24","138873","0.0-1.0-26.0-0.0","0","0","71639","","null","","","null","2","","","","","","","","","","","","","","","",""
"","ITI","","html-keyboard-response","25","139886","0.0-1.0-27.0","0","0","71639","","null","","","null","2","","","","","","","","","","","","","","","NaN",""
"","S1","","html-keyboard-response","26","140051","0.0-1.0-29.0","0","0","71639","","null","","","null","3","","","","","","","","","","","","","","","",""
"","ISI","","html-keyboard-response","27","142061","0.0-1.0-30.0","0","0","71639","","null","","","null","3","NaN","","","","","","","","","","","","","","",""
"","S2","","html-keyboard-response","28","142217","0.0-1.0-31.0","0","0","71639","","null","","","null","3","","NaN","","","","","","","","","","","","","",""
"","response","","html-keyboard-response","29","143285","0.0-1.0-32.0-0.0","0","0","71639","","1066","","","75","3","","","1","3","training","adjacent","CD","3","4","O.jpg","L.jpg","1","1","1","",""
"","feedback","","html-keyboard-response","30","144294","0.0-1.0-33.0-0.0","0","0","71639","","null","","","null","3","","","","","","","","","","","","","","","",""
"","ITI","","html-keyboard-response","31","145313","0.0-1.0-36.0","0","0","71639","","null","","","null","3","","","","","","","","","","","","","","","NaN",""
"","S1","","html-keyboard-response","32","145476","0.0-1.0-38.0","0","0","71639","","null","","","null","4","","","","","","","","","","","","","","","",""
"","ISI","","html-keyboard-response","33","147489","0.0-1.0-39.0","0","0","71639","","null","","","null","4","NaN","","","","","","","","","","","","","","",""
"","S2","","html-keyboard-response","34","147644","0.0-1.0-40.0","0","0","71639","","null","","","null","4","","NaN","","","","","","","","","","","","","",""
"","response","","html-keyboard-response","35","148184","0.0-1.0-41.0-0.0","0","0","71639","","536","","","75","4","","","1","4","training","adjacent","CD","3","4","O.jpg","L.jpg","1","1","1","",""
"","feedback","","html-keyboard-response","36","149192","0.0-1.0-42.0-0.0","0","0","71639","","null","","","null","4","","","","","","","","","","","","","","","",""
"","ITI","","html-keyboard-response","37","150209","0.0-1.0-45.0","0","0","71639","","null","","","null","4","","","","","","","","","","","","","","","NaN",""
"","S1","","html-keyboard-response","38","150374","0.0-1.0-47.0","0","0","71639","","null","","","null","5","","","","","","","","","","","","","","","",""
"","ISI","","html-keyboard-response","39","152383","0.0-1.0-48.0","0","0","71639","","null","","","null","5","NaN","","","","","","","","","","","","","","",""
"","S2","","html-keyboard-response","40","152548","0.0-1.0-49.0","0","0","71639","","null","","","null","5","","NaN","","","","","","","","","","","","","",""
"","response","","html-keyboard-response","41","152814","0.0-1.0-50.0-0.0","0","0","71639","","264","","","75","5","","","1","5","training","adjacent","FG","6","7","P.jpg","M.jpg","1","1","1","",""
"","feedback","","html-keyboard-response","42","153827","0.0-1.0-51.0-0.0","0","0","71639","","null","","","null","5","","","","","","","","","","","","","","","",""
"","ITI","","html-keyboard-response","43","154839","0.0-1.0-54.0","0","0","71639","","null","","","null","5","","","","","","","","","","","","","","","NaN",""
"","S1","","html-keyboard-response","44","154996","0.0-1.0-56.0","0","0","71639","","null","","","null","6","","","","","","","","","","","","","","","",""
"","ISI","","html-keyboard-response","45","157012","0.0-1.0-57.0","0","0","71639","","null","","","null","6","NaN","","","","","","","","","","","","","","",""
"","S2","","html-keyboard-response","46","157174","0.0-1.0-58.0","0","0","71639","","null","","","null","6","","NaN","","","","","","","","","","","","","",""
"","response","","html-keyboard-response","47","158007","0.0-1.0-59.0-0.0","0","0","71639","","829","","","68","6","","","1","6","training","adjacent","EF","5","6","R.jpg","P.jpg","0","1","0","",""
"","feedback","","html-keyboard-response","48","159023","0.0-1.0-60.0-0.0","0","0","71639","","null","","","null","6","","","","","","","","","","","","","","","",""
"","time_out","","html-keyboard-response","49","161032","0.0-1.0-62.0-0.0","0","0","71639","","null","","","null","6","","","","","","","","","","","","","","","",""
"","ITI","","html-keyboard-response","50","162036","0.0-1.0-63.0","0","0","71639","","null","","","null","6","","","","","","","","","","","","","","","NaN",""
"","S1","","html-keyboard-response","51","162199","0.0-1.0-65.0","0","0","71639","","null","","","null","7","","","","","","","","","","","","","","","",""
"","ISI","","html-keyboard-response","52","164216","0.0-1.0-66.0","0","0","71639","","null","","","null","7","NaN","","","","","","","","","","","","","","",""
"","S2","","html-keyboard-response","53","164377","0.0-1.0-67.0","0","0","71639","","null","","","null","7","","NaN","","","","","","","","","","","","","",""
"","response","","html-keyboard-response","54","164644","0.0-1.0-68.0-0.0","0","0","71639","","265","","","75","7","","","1","7","training","adjacent","CB","3","2","O.jpg","Q.jpg","1","0","0","",""
"","feedback","","html-keyboard-response","55","165649","0.0-1.0-69.0-0.0","0","0","71639","","null","","","null","7","","","","","","","","","","","","","","","",""
"","time_out","","html-keyboard-response","56","167656","0.0-1.0-71.0-0.0","0","0","71639","","null","","","null","7","","","","","","","","","","","","","","","",""
"","ITI","","html-keyboard-response","57","168690","0.0-1.0-72.0","0","0","71639","","null","","","null","7","","","","","","","","","","","","","","","NaN",""
"","S1","","html-keyboard-response","58","168852","0.0-1.0-74.0","0","0","71639","","null","","","null","8","","","","","","","","","","","","","","","",""
"","ISI","","html-keyboard-response","59","170867","0.0-1.0-75.0","0","0","71639","","null","","","null","8","NaN","","","","","","","","","","","","","","",""
"","S2","","html-keyboard-response","60","171033","0.0-1.0-76.0","0","0","71639","","null","","","null","8","","NaN","","","","","","","","","","","","","",""
"","response","","html-keyboard-response","61","171702","0.0-1.0-77.0-0.0","0","0","71639","","667","","","75","8","","","1","8","training","adjacent","AB","1","2","N.jpg","Q.jpg","1","1","1","",""
"","feedback","","html-keyboard-response","62","172783","0.0-1.0-78.0-0.0","0","0","71639","","null","","","null","8","","","","","","","","","","","","","","","",""
"","ITI","","html-keyboard-response","63","173800","0.0-1.0-81.0","0","0","71639","","null","","","null","8","","","","","","","","","","","","","","","NaN",""
"","S1","","html-keyboard-response","64","173966","0.0-1.0-83.0","0","0","71639","","null","","","null","9","","","","","","","","","","","","","","","",""
"","ISI","","html-keyboard-response","65","175972","0.0-1.0-84.0","0","0","71639","","null","","","null","9","NaN","","","","","","","","","","","","","","",""
"","S2","","html-keyboard-response","66","176138","0.0-1.0-85.0","0","0","71639","","null","","","null","9","","NaN","","","","","","","","","","","","","",""
"","response","","html-keyboard-response","67","176700","0.0-1.0-86.0-0.0","0","0","71639","","555","","","75","9","","","1","9","training","adjacent","FG","6","7","P.jpg","M.jpg","1","1","1","",""
"","feedback","","html-keyboard-response","68","177708","0.0-1.0-87.0-0.0","0","0","71639","","null","","","null","9","","","","","","","","","","","","","","","",""
"","ITI","","html-keyboard-response","69","178714","0.0-1.0-90.0","0","0","71639","","null","","","null","9","","","","","","","","","","","","","","","NaN",""
"","S1","","html-keyboard-response","70","178868","0.0-1.0-92.0","0","0","71639","","null","","","null","10","","","","","","","","","","","","","","","",""
"","ISI","","html-keyboard-response","71","180879","0.0-1.0-93.0","0","0","71639","","null","","","null","10","NaN","","","","","","","","","","","","","","",""
"","S2","","html-keyboard-response","72","181043","0.0-1.0-94.0","0","0","71639","","null","","","null","10","","NaN","","","","","","","","","","","","","",""
"","response","","html-keyboard-response","73","181517","0.0-1.0-95.0-0.0","0","0","71639","","467","","","68","10","","","1","10","training","adjacent","AB","1","2","N.jpg","Q.jpg","0","1","0","",""
"","feedback","","html-keyboard-response","74","182536","0.0-1.0-96.0-0.0","0","0","71639","","null","","","null","10","","","","","","","","","","","","","","","",""
"","time_out","","html-keyboard-response","75","184545","0.0-1.0-98.0-0.0","0","0","71639","","null","","","null","10","","","","","","","","","","","","","","","",""
"","ITI","","html-keyboard-response","76","185557","0.0-1.0-99.0","0","0","71639","","null","","","null","10","","","","","","","","","","","","","","","NaN",""
"","S1","","html-keyboard-response","77","185725","0.0-1.0-101.0","0","0","71639","","null","","","null","11","","","","","","","","","","","","","","","",""
"","ISI","","html-keyboard-response","78","187737","0.0-1.0-102.0","0","0","71639","","null","","","null","11","NaN","","","","","","","","","","","","","","",""
"","S2","","html-keyboard-response","79","187895","0.0-1.0-103.0","0","0","71639","","null","","","null","11","","NaN","","","","","","","","","","","","","",""
"","response","","html-keyboard-response","80","188293","0.0-1.0-104.0-0.0","0","0","71639","","396","","","75","11","","","1","11","training","adjacent","AB","1","2","N.jpg","Q.jpg","1","1","1","",""
"","feedback","","html-keyboard-response","81","189312","0.0-1.0-105.0-0.0","0","0","71639","","null","","","null","11","","","","","","","","","","","","","","","",""
"","ITI","","html-keyboard-response","82","190317","0.0-1.0-108.0","0","0","71639","","null","","","null","11","","","","","","","","","","","","","","","NaN",""
"","S1","","html-keyboard-response","83","190474","0.0-1.0-110.0","0","0","71639","","null","","","null","12","","","","","","","","","","","","","","","",""
"","ISI","","html-keyboard-response","84","192491","0.0-1.0-111.0","0","0","71639","","null","","","null","12","NaN","","","","","","","","","","","","","","",""
"","S2","","html-keyboard-response","85","192649","0.0-1.0-112.0","0","0","71639","","null","","","null","12","","NaN","","","","","","","","","","","","","",""
"","response","","html-keyboard-response","86","193221","0.0-1.0-113.0-0.0","0","0","71639","","569","","","68","12","","","1","12","training","adjacent","DE","4","5","L.jpg","R.jpg","0","1","0","",""
"","feedback","","html-keyboard-response","87","194231","0.0-1.0-114.0-0.0","0","0","71639","","null","","","null","12","","","","","","","","","","","","","","","",""
"","time_out","","html-keyboard-response","88","196238","0.0-1.0-116.0-0.0","0","0","71639","","null","","","null","12","","","","","","","","","","","","","","","",""
"","ITI","","html-keyboard-response","89","197249","0.0-1.0-117.0","0","0","71639","","null","","","null","12","","","","","","","","","","","","","","","NaN",""
"","S1","","html-keyboard-response","90","197408","0.0-1.0-119.0","0","0","71639","","null","","","null","13","","","","","","","","","","","","","","","",""
"","ISI","","html-keyboard-response","91","199425","0.0-1.0-120.0","0","0","71639","","null","","","null","13","NaN","","","","","","","","","","","","","","",""
"","S2","","html-keyboard-response","92","199580","0.0-1.0-121.0","0","0","71639","","null","","","null","13","","NaN","","","","","","","","","","","","","",""
"","response","","html-keyboard-response","93","200108","0.0-1.0-122.0-0.0","0","0","71639","","522","","","68","13","","","1","13","training","adjacent","DC","4","3","L.jpg","O.jpg","0","0","1","",""
"","feedback","","html-keyboard-response","94","201123","0.0-1.0-123.0-0.0","0","0","71639","","null","","","null","13","","","","","","","","","","","","","","","",""
"","ITI","","html-keyboard-response","95","202135","0.0-1.0-126.0","0","0","71639","","null","","","null","13","","","","","","","","","","","","","","","NaN",""
"","S1","","html-keyboard-response","96","202293","0.0-1.0-128.0","0","0","71639","","null","","","null","14","","","","","","","","","","","","","","","",""
"","ISI","","html-keyboard-response","97","204305","0.0-1.0-129.0","0","0","71639","","null","","","null","14","NaN","","","","","","","","","","","","","","",""
"","S2","","html-keyboard-response","98","204472","0.0-1.0-130.0","0","0","71639","","null","","","null","14","","NaN","","","","","","","","","","","","","",""
"","response","","html-keyboard-response","99","206201","0.0-1.0-131.0-0.0","0","0","71639","","1722","","","68","14","","","1","14","training","adjacent","BC","2","3","Q.jpg","O.jpg","0","1","0","",""
"","feedback","","html-keyboard-response","100","207210","0.0-1.0-132.0-0.0","0","0","71639","","null","","","null","14","","","","","","","","","","","","","","","",""
"","time_out","","html-keyboard-response","101","209225","0.0-1.0-134.0-0.0","0","0","71639","","null","","","null","14","","","","","","","","","","","","","","","",""
"","ITI","","html-keyboard-response","102","210240","0.0-1.0-135.0","0","0","71639","","null","","","null","14","","","","","","","","","","","","","","","NaN",""
"","S1","","html-keyboard-response","103","210403","0.0-1.0-137.0","0","0","71639","","null","","","null","15","","","","","","","","","","","","","","","",""
"","ISI","","html-keyboard-response","104","212418","0.0-1.0-138.0","0","0","71639","","null","","","null","15","NaN","","","","","","","","","","","","","","",""
"","S2","","html-keyboard-response","105","212579","0.0-1.0-139.0","0","0","71639","","null","","","null","15","","NaN","","","","","","","","","","","","","",""
"","response","","html-keyboard-response","106","213851","0.0-1.0-140.0-0.0","0","0","71639","","1269","","","75","15","","","1","15","training","adjacent","GF","7","6","M.jpg","P.jpg","1","0","0","",""
"","feedback","","html-keyboard-response","107","214862","0.0-1.0-141.0-0.0","0","0","71639","","null","","","null","15","","","","","","","","","","","","","","","",""
"","time_out","","html-keyboard-response","108","216880","0.0-1.0-143.0-0.0","0","0","71639","","null","","","null","15","","","","","","","","","","","","","","","",""
"","ITI","","html-keyboard-response","109","217887","0.0-1.0-144.0","0","0","71639","","null","","","null","15","","","","","","","","","","","","","","","NaN",""
"","S1","","html-keyboard-response","110","218047","0.0-1.0-146.0","0","0","71639","","null","","","null","16","","","","","","","","","","","","","","","",""
"","ISI","","html-keyboard-response","111","220053","0.0-1.0-147.0","0","0","71639","","null","","","null","16","NaN","","","","","","","","","","","","","","",""
"","S2","","html-keyboard-response","112","220216","0.0-1.0-148.0","0","0","71639","","null","","","null","16","","NaN","","","","","","","","","","","","","",""
"","response","","html-keyboard-response","113","221495","0.0-1.0-149.0-0.0","0","0","71639","","1275","","","75","16","","","1","16","training","adjacent","DE","4","5","L.jpg","R.jpg","1","1","1","",""
"","feedback","","html-keyboard-response","114","222513","0.0-1.0-150.0-0.0","0","0","71639","","null","","","null","16","","","","","","","","","","","","","","","",""
"","ITI","","html-keyboard-response","115","223518","0.0-1.0-153.0","0","0","71639","","null","","","null","16","","","","","","","","","","","","","","","NaN",""
"","S1","","html-keyboard-response","116","223674","0.0-1.0-155.0","0","0","71639","","null","","","null","17","","","","","","","","","","","","","","","",""
"","ISI","","html-keyboard-response","117","225684","0.0-1.0-156.0","0","0","71639","","null","","","null","17","NaN","","","","","","","","","","","","","","",""
"","S2","","html-keyboard-response","118","225843","0.0-1.0-157.0","0","0","71639","","null","","","null","17","","NaN","","","","","","","","","","","","","",""
"","response","","html-keyboard-response","119","226745","0.0-1.0-158.0-0.0","0","0","71639","","898","","","68","17","","","1","17","training","adjacent","EF","5","6","R.jpg","P.jpg","0","1","0","",""
"","feedback","","html-keyboard-response","120","227751","0.0-1.0-159.0-0.0","0","0","71639","","null","","","null","17","","","","","","","","","","","","","","","",""
"","time_out","","html-keyboard-response","121","229767","0.0-1.0-161.0-0.0","0","0","71639","","null","","","null","17","","","","","","","","","","","","","","","",""
"","ITI","","html-keyboard-response","122","230775","0.0-1.0-162.0","0","0","71639","","null","","","null","17","","","","","","","","","","","","","","","NaN",""
"","S1","","html-keyboard-response","123","230937","0.0-1.0-164.0","0","0","71639","","null","","","null","18","","","","","","","","","","","","","","","",""
"","ISI","","html-keyboard-response","124","232943","0.0-1.0-165.0","0","0","71639","","null","","","null","18","NaN","","","","","","","","","","","","","","",""
"","S2","","html-keyboard-response","125","233113","0.0-1.0-166.0","0","0","71639","","null","","","null","18","","NaN","","","","","","","","","","","","","",""
"","response","","html-keyboard-response","126","234164","0.0-1.0-167.0-0.0","0","0","71639","","1048","","","75","18","","","1","18","training","adjacent","AB","1","2","N.jpg","Q.jpg","1","1","1","",""
"","feedback","","html-keyboard-response","127","235177","0.0-1.0-168.0-0.0","0","0","71639","","null","","","null","18","","","","","","","","","","","","","","","",""
"","ITI","","html-keyboard-response","128","236193","0.0-1.0-171.0","0","0","71639","","null","","","null","18","","","","","","","","","","","","","","","NaN",""
"","S1","","html-keyboard-response","129","236352","0.0-1.0-173.0","0","0","71639","","null","","","null","19","","","","","","","","","","","","","","","",""
"","ISI","","html-keyboard-response","130","238357","0.0-1.0-174.0","0","0","71639","","null","","","null","19","NaN","","","","","","","","","","","","","","",""
"","S2","","html-keyboard-response","131","238517","0.0-1.0-175.0","0","0","71639","","null","","","null","19","","NaN","","","","","","","","","","","","","",""
"","response","","html-keyboard-response","132","238711","0.0-1.0-176.0-0.0","0","0","71639","","191","","","75","19","","","1","19","training","adjacent","ED","5","4","R.jpg","L.jpg","1","0","0","",""
"","feedback","","html-keyboard-response","133","239727","0.0-1.0-177.0-0.0","0","0","71639","","null","","","null","19","","","","","","","","","","","","","","","",""
"","time_out","","html-keyboard-response","134","241741","0.0-1.0-179.0-0.0","0","0","71639","","null","","","null","19","","","","","","","","","","","","","","","",""
"","ITI","","html-keyboard-response","135","242748","0.0-1.0-180.0","0","0","71639","","null","","","null","19","","","","","","","","","","","","","","","NaN",""
"","S1","","html-keyboard-response","136","242905","0.0-1.0-182.0","0","0","71639","","null","","","null","20","","","","","","","","","","","","","","","",""
"","ISI","","html-keyboard-response","137","244911","0.0-1.0-183.0","0","0","71639","","null","","","null","20","NaN","","","","","","","","","","","","","","",""
"","S2","","html-keyboard-response","138","245067","0.0-1.0-184.0","0","0","71639","","null","","","null","20","","NaN","","","","","","","","","","","","","",""
"","response","","html-keyboard-response","139","245340","0.0-1.0-185.0-0.0","0","0","71639","","270","","","75","20","","","1","20","training","adjacent","CB","3","2","O.jpg","Q.jpg","1","0","0","",""
"","feedback","","html-keyboard-response","140","246345","0.0-1.0-186.0-0.0","0","0","71639","","null","","","null","20","","","","","","","","","","","","","","","",""
"","time_out","","html-keyboard-response","141","248349","0.0-1.0-188.0-0.0","0","0","71639","","null","","","null","20","","","","","","","","","","","","","","","",""
"","ITI","","html-keyboard-response","142","249359","0.0-1.0-189.0","0","0","71639","","null","","","null","20","","","","","","","","","","","","","","","NaN",""
"","S1","","html-keyboard-response","143","249517","0.0-1.0-191.0","0","0","71639","","null","","","null","21","","","","","","","","","","","","","","","",""
"","ISI","","html-keyboard-response","144","251524","0.0-1.0-192.0","0","0","71639","","null","","","null","21","NaN","","","","","","","","","","","","","","",""
"","S2","","html-keyboard-response","145","251690","0.0-1.0-193.0","0","0","71639","","null","","","null","21","","NaN","","","","","","","","","","","","","",""
"","response","","html-keyboard-response","146","251987","0.0-1.0-194.0-0.0","0","0","71639","","291","","","75","21","","","1","21","training","adjacent","CD","3","4","O.jpg","L.jpg","1","1","1","",""
"","feedback","","html-keyboard-response","147","253000","0.0-1.0-195.0-0.0","0","0","71639","","null","","","null","21","","","","","","","","","","","","","","","",""
"","ITI","","html-keyboard-response","148","254009","0.0-1.0-198.0","0","0","71639","","null","","","null","21","","","","","","","","","","","","","","","NaN",""
"","S1","","html-keyboard-response","149","254173","0.0-1.0-200.0","0","0","71639","","null","","","null","22","","","","","","","","","","","","","","","",""
"","ISI","","html-keyboard-response","150","256183","0.0-1.0-201.0","0","0","71639","","null","","","null","22","NaN","","","","","","","","","","","","","","",""
"","S2","","html-keyboard-response","151","256346","0.0-1.0-202.0","0","0","71639","","null","","","null","22","","NaN","","","","","","","","","","","","","",""
"","response","","html-keyboard-response","152","256592","0.0-1.0-203.0-0.0","0","0","71639","","244","","","75","22","","","1","22","training","adjacent","DC","4","3","L.jpg","O.jpg","1","0","0","",""
"","feedback","","html-keyboard-response","153","257608","0.0-1.0-204.0-0.0","0","0","71639","","null","","","null","22","","","","","","","","","","","","","","","",""
"","time_out","","html-keyboard-response","154","259615","0.0-1.0-206.0-0.0","0","0","71639","","null","","","null","22","","","","","","","","","","","","","","","",""
"","ITI","","html-keyboard-response","155","260626","0.0-1.0-207.0","0","0","71639","","null","","","null","22","","","","","","","","","","","","","","","NaN",""
"","S1","","html-keyboard-response","156","260792","0.0-1.0-209.0","0","0","71639","","null","","","null","23","","","","","","","","","","","","","","","",""
"","ISI","","html-keyboard-response","157","262799","0.0-1.0-210.0","0","0","71639","","null","","","null","23","NaN","","","","","","","","","","","","","","",""
"","S2","","html-keyboard-response","158","262969","0.0-1.0-211.0","0","0","71639","","null","","","null","23","","NaN","","","","","","","","","","","","","",""
"","response","","html-keyboard-response","159","263621","0.0-1.0-212.0-0.0","0","0","71639","","648","","","68","23","","","1","23","training","adjacent","DE","4","5","L.jpg","R.jpg","0","1","0","",""
"","feedback","","html-keyboard-response","160","264637","0.0-1.0-213.0-0.0","0","0","71639","","null","","","null","23","","","","","","","","","","","","","","","",""
"","time_out","","html-keyboard-response","161","266652","0.0-1.0-215.0-0.0","0","0","71639","","null","","","null","23","","","","","","","","","","","","","","","",""
"","ITI","","html-keyboard-response","162","267664","0.0-1.0-216.0","0","0","71639","","null","","","null","23","","","","","","","","","","","","","","","NaN",""
"","S1","","html-keyboard-response","163","267821","0.0-1.0-218.0","0","0","71639","","null","","","null","24","","","","","","","","","","","","","","","",""
"","ISI","","html-keyboard-response","164","269829","0.0-1.0-219.0","0","0","71639","","null","","","null","24","NaN","","","","","","","","","","","","","","",""
"","S2","","html-keyboard-response","165","269993","0.0-1.0-220.0","0","0","71639","","null","","","null","24","","NaN","","","","","","","","","","","","","",""
"","response","","html-keyboard-response","166","271118","0.0-1.0-221.0-0.0","0","0","71639","","1122","","","68","24","","","1","24","training","adjacent","GF","7","6","M.jpg","P.jpg","0","0","1","",""
"","feedback","","html-keyboard-response","167","272137","0.0-1.0-222.0-0.0","0","0","71639","","null","","","null","24","","","","","","","","","","","","","","","",""
"","ITI","","html-keyboard-response","168","273146","0.0-1.0-225.0","0","0","71639","","null","","","null","24","","","","","","","","","","","","","","","NaN",""
"","S1","","html-keyboard-response","169","273308","0.0-1.0-227.0","0","0","71639","","null","","","null","25","","","","","","","","","","","","","","","",""
"","ISI","","html-keyboard-response","170","275319","0.0-1.0-228.0","0","0","71639","","null","","","null","25","NaN","","","","","","","","","","","","","","",""
"","S2","","html-keyboard-response","171","275475","0.0-1.0-229.0","0","0","71639","","null","","","null","25","","NaN","","","","","","","","","","","","","",""
"","response","","html-keyboard-response","172","276781","0.0-1.0-230.0-0.0","0","0","71639","","1304","","","68","25","","","1","25","training","adjacent","BC","2","3","Q.jpg","O.jpg","0","1","0","",""
"","feedback","","html-keyboard-response","173","277788","0.0-1.0-231.0-0.0","0","0","71639","","null","","","null","25","","","","","","","","","","","","","","","",""
"","time_out","","html-keyboard-response","174","279798","0.0-1.0-233.0-0.0","0","0","71639","","null","","","null","25","","","","","","","","","","","","","","","",""
"","ITI","","html-keyboard-response","175","280815","0.0-1.0-234.0","0","0","71639","","null","","","null","25","","","","","","","","","","","","","","","NaN",""
"","S1","","html-keyboard-response","176","280973","0.0-1.0-236.0","0","0","71639","","null","","","null","26","","","","","","","","","","","","","","","",""
"","ISI","","html-keyboard-response","177","282985","0.0-1.0-237.0","0","0","71639","","null","","","null","26","NaN","","","","","","","","","","","","","","",""
"","S2","","html-keyboard-response","178","283141","0.0-1.0-238.0","0","0","71639","","null","","","null","26","","NaN","","","","","","","","","","","","","",""
"","response","","html-keyboard-response","179","283789","0.0-1.0-239.0-0.0","0","0","71639","","643","","","75","26","","","1","26","training","adjacent","ED","5","4","R.jpg","L.jpg","1","0","0","",""
"","feedback","","html-keyboard-response","180","284806","0.0-1.0-240.0-0.0","0","0","71639","","null","","","null","26","","","","","","","","","","","","","","","",""
"","time_out","","html-keyboard-response","181","286811","0.0-1.0-242.0-0.0","0","0","71639","","null","","","null","26","","","","","","","","","","","","","","","",""
"","ITI","","html-keyboard-response","182","287822","0.0-1.0-243.0","0","0","71639","","null","","","null","26","","","","","","","","","","","","","","","NaN",""
"","S1","","html-keyboard-response","183","287990","0.0-1.0-245.0","0","0","71639","","null","","","null","27","","","","","","","","","","","","","","","",""
"","ISI","","html-keyboard-response","184","290000","0.0-1.0-246.0","0","0","71639","","null","","","null","27","NaN","","","","","","","","","","","","","","",""
"","S2","","html-keyboard-response","185","290156","0.0-1.0-247.0","0","0","71639","","null","","","null","27","","NaN","","","","","","","","","","","","","",""
"","response","","html-keyboard-response","186","291072","0.0-1.0-248.0-0.0","0","0","71639","","912","","","75","27","","","1","27","training","adjacent","ED","5","4","R.jpg","L.jpg","1","0","0","",""
"","feedback","","html-keyboard-response","187","292080","0.0-1.0-249.0-0.0","0","0","71639","","null","","","null","27","","","","","","","","","","","","","","","",""
"","time_out","","html-keyboard-response","188","294089","0.0-1.0-251.0-0.0","0","0","71639","","null","","","null","27","","","","","","","","","","","","","","","",""
"","ITI","","html-keyboard-response","189","295104","0.0-1.0-252.0","0","0","71639","","null","","","null","27","","","","","","","","","","","","","","","NaN",""
"","S1","","html-keyboard-response","190","295268","0.0-1.0-254.0","0","0","71639","","null","","","null","28","","","","","","","","","","","","","","","",""
"","ISI","","html-keyboard-response","191","297278","0.0-1.0-255.0","0","0","71639","","null","","","null","28","NaN","","","","","","","","","","","","","","",""
"","S2","","html-keyboard-response","192","297438","0.0-1.0-256.0","0","0","71639","","null","","","null","28","","NaN","","","","","","","","","","","","","",""
"","response","","html-keyboard-response","193","298764","0.0-1.0-257.0-0.0","0","0","71639","","1321","","","68","28","","","1","28","training","adjacent","BA","2","1","Q.jpg","N.jpg","0","0","1","",""
"","feedback","","html-keyboard-response","194","299782","0.0-1.0-258.0-0.0","0","0","71639","","null","","","null","28","","","","","","","","","","","","","","","",""
"","ITI","","html-keyboard-response","195","300797","0.0-1.0-261.0","0","0","71639","","null","","","null","28","","","","","","","","","","","","","","","NaN",""
"","S1","","html-keyboard-response","196","300960","0.0-1.0-263.0","0","0","71639","","null","","","null","29","","","","","","","","","","","","","","","",""
"","ISI","","html-keyboard-response","197","302969","0.0-1.0-264.0","0","0","71639","","null","","","null","29","NaN","","","","","","","","","","","","","","",""
"","S2","","html-keyboard-response","198","303134","0.0-1.0-265.0","0","0","71639","","null","","","null","29","","NaN","","","","","","","","","","","","","",""
"","response","","html-keyboard-response","199","304424","0.0-1.0-266.0-0.0","0","0","71639","","1287","","","68","29","","","1","29","training","adjacent","DC","4","3","L.jpg","O.jpg","0","0","1","",""
"","feedback","","html-keyboard-response","200","305437","0.0-1.0-267.0-0.0","0","0","71639","","null","","","null","29","","","","","","","","","","","","","","","",""
"","ITI","","html-keyboard-response","201","306442","0.0-1.0-270.0","0","0","71639","","null","","","null","29","","","","","","","","","","","","","","","NaN",""
"","S1","","html-keyboard-response","202","306604","0.0-1.0-272.0","0","0","71639","","null","","","null","30","","","","","","","","","","","","","","","",""
"","ISI","","html-keyboard-response","203","308614","0.0-1.0-273.0","0","0","71639","","null","","","null","30","NaN","","","","","","","","","","","","","","",""
"","S2","","html-keyboard-response","204","308780","0.0-1.0-274.0","0","0","71639","","null","","","null","30","","NaN","","","","","","","","","","","","","",""
"","response","","html-keyboard-response","205","309308","0.0-1.0-275.0-0.0","0","0","71639","","524","","","68","30","","","1","30","training","adjacent","BA","2","1","Q.jpg","N.jpg","0","0","1","",""
"","feedback","","html-keyboard-response","206","310315","0.0-1.0-276.0-0.0","0","0","71639","","null","","","null","30","","","","","","","","","","","","","","","",""
"","ITI","","html-keyboard-response","207","311331","0.0-1.0-279.0","0","0","71639","","null","","","null","30","","","","","","","","","","","","","","","NaN",""
"","S1","","html-keyboard-response","208","311516","0.0-1.0-281.0","0","0","71639","","null","","","null","31","","","","","","","","","","","","","","","",""
"","ISI","","html-keyboard-response","209","313529","0.0-1.0-282.0","0","0","71639","","null","","","null","31","NaN","","","","","","","","","","","","","","",""
"","S2","","html-keyboard-response","210","313687","0.0-1.0-283.0","0","0","71639","","null","","","null","31","","NaN","","","","","","","","","","","","","",""
"","response","","html-keyboard-response","211","314151","0.0-1.0-284.0-0.0","0","0","71639","","460","","","68","31","","","1","31","training","adjacent","BC","2","3","Q.jpg","O.jpg","0","1","0","",""
"","feedback","","html-keyboard-response","212","315171","0.0-1.0-285.0-0.0","0","0","71639","","null","","","null","31","","","","","","","","","","","","","","","",""
"","time_out","","html-keyboard-response","213","317184","0.0-1.0-287.0-0.0","0","0","71639","","null","","","null","31","","","","","","","","","","","","","","","",""
"","ITI","","html-keyboard-response","214","318191","0.0-1.0-288.0","0","0","71639","","null","","","null","31","","","","","","","","","","","","","","","NaN",""
"","S1","","html-keyboard-response","215","318352","0.0-1.0-290.0","0","0","71639","","null","","","null","32","","","","","","","","","","","","","","","",""
"","ISI","","html-keyboard-response","216","320367","0.0-1.0-291.0","0","0","71639","","null","","","null","32","NaN","","","","","","","","","","","","","","",""
"","S2","","html-keyboard-response","217","320531","0.0-1.0-292.0","0","0","71639","","null","","","null","32","","NaN","","","","","","","","","","","","","",""
"","response","","html-keyboard-response","218","321680","0.0-1.0-293.0-0.0","0","0","71639","","1144","","","68","32","","","1","32","training","adjacent","GF","7","6","M.jpg","P.jpg","0","0","1","",""
"","feedback","","html-keyboard-response","219","322692","0.0-1.0-294.0-0.0","0","0","71639","","null","","","null","32","","","","","","","","","","","","","","","",""
"","ITI","","html-keyboard-response","220","323706","0.0-1.0-297.0","0","0","71639","","null","","","null","32","","","","","","","","","","","","","","","NaN",""
"","S1","","html-keyboard-response","221","323867","0.0-1.0-299.0","0","0","71639","","null","","","null","33","","","","","","","","","","","","","","","",""
"","ISI","","html-keyboard-response","222","325876","0.0-1.0-300.0","0","0","71639","","null","","","null","33","NaN","","","","","","","","","","","","","","",""
"","S2","","html-keyboard-response","223","326033","0.0-1.0-301.0","0","0","71639","","null","","","null","33","","NaN","","","","","","","","","","","","","",""
"","response","","html-keyboard-response","224","326402","0.0-1.0-302.0-0.0","0","0","71639","","366","","","68","33","","","1","33","training","adjacent","GF","7","6","M.jpg","P.jpg","0","0","1","",""
"","feedback","","html-keyboard-response","225","327414","0.0-1.0-303.0-0.0","0","0","71639","","null","","","null","33","","","","","","","","","","","","","","","",""
"","ITI","","html-keyboard-response","226","328422","0.0-1.0-306.0","0","0","71639","","null","","","null","33","","","","","","","","","","","","","","","NaN",""
"","S1","","html-keyboard-response","227","328581","0.0-1.0-308.0","0","0","71639","","null","","","null","34","","","","","","","","","","","","","","","",""
"","ISI","","html-keyboard-response","228","330588","0.0-1.0-309.0","0","0","71639","","null","","","null","34","NaN","","","","","","","","","","","","","","",""
"","S2","","html-keyboard-response","229","330744","0.0-1.0-310.0","0","0","71639","","null","","","null","34","","NaN","","","","","","","","","","","","","",""
"","response","","html-keyboard-response","230","330996","0.0-1.0-311.0-0.0","0","0","71639","","249","","","75","34","","","1","34","training","adjacent","CD","3","4","O.jpg","L.jpg","1","1","1","",""
"","feedback","","html-keyboard-response","231","332010","0.0-1.0-312.0-0.0","0","0","71639","","null","","","null","34","","","","","","","","","","","","","","","",""
"","ITI","","html-keyboard-response","232","333022","0.0-1.0-315.0","0","0","71639","","null","","","null","34","","","","","","","","","","","","","","","NaN",""
"","S1","","html-keyboard-response","233","333176","0.0-1.0-317.0","0","0","71639","","null","","","null","35","","","","","","","","","","","","","","","",""
"","ISI","","html-keyboard-response","234","335185","0.0-1.0-318.0","0","0","71639","","null","","","null","35","NaN","","","","","","","","","","","","","","",""
"","S2","","html-keyboard-response","235","335342","0.0-1.0-319.0","0","0","71639","","null","","","null","35","","NaN","","","","","","","","","","","","","",""
"","response","","html-keyboard-response","236","335599","0.0-1.0-320.0-0.0","0","0","71639","","255","","","75","35","","","1","35","training","adjacent","FG","6","7","P.jpg","M.jpg","1","1","1","",""
"","feedback","","html-keyboard-response","237","336614","0.0-1.0-321.0-0.0","0","0","71639","","null","","","null","35","","","","","","","","","","","","","","","",""
"","ITI","","html-keyboard-response","238","337621","0.0-1.0-324.0","0","0","71639","","null","","","null","35","","","","","","","","","","","","","","","NaN",""
"","S1","","html-keyboard-response","239","337795","0.0-1.0-326.0","0","0","71639","","null","","","null","36","","","","","","","","","","","","","","","",""
"","ISI","","html-keyboard-response","240","339804","0.0-1.0-327.0","0","0","71639","","null","","","null","36","NaN","","","","","","","","","","","","","","",""
"","S2","","html-keyboard-response","241","339967","0.0-1.0-328.0","0","0","71639","","null","","","null","36","","NaN","","","","","","","","","","","","","",""
"","response","","html-keyboard-response","242","341458","0.0-1.0-329.0-0.0","0","0","71639","","1486","","","75","36","","","1","36","training","adjacent","CB","3","2","O.jpg","Q.jpg","1","0","0","",""
"","feedback","","html-keyboard-response","243","342476","0.0-1.0-330.0-0.0","0","0","71639","","null","","","null","36","","","","","","","","","","","","","","","",""
"","time_out","","html-keyboard-response","244","344493","0.0-1.0-332.0-0.0","0","0","71639","","null","","","null","36","","","","","","","","","","","","","","","",""
"","ITI","","html-keyboard-response","245","345508","0.0-1.0-333.0","0","0","71639","","null","","","null","36","","","","","","","","","","","","","","","NaN",""
"","S1","","html-keyboard-response","246","345665","0.0-1.0-335.0","0","0","71639","","null","","","null","37","","","","","","","","","","","","","","","",""
"","ISI","","html-keyboard-response","247","347678","0.0-1.0-336.0","0","0","71639","","null","","","null","37","NaN","","","","","","","","","","","","","","",""
"","S2","","html-keyboard-response","248","347841","0.0-1.0-337.0","0","0","71639","","null","","","null","37","","NaN","","","","","","","","","","","","","",""
"","response","","html-keyboard-response","249","348346","0.0-1.0-338.0-0.0","0","0","71639","","503","","","75","37","","","1","37","training","adjacent","FE","6","5","P.jpg","R.jpg","1","0","0","",""
"","feedback","","html-keyboard-response","250","349363","0.0-1.0-339.0-0.0","0","0","71639","","null","","","null","37","","","","","","","","","","","","","","","",""
"","time_out","","html-keyboard-response","251","351378","0.0-1.0-341.0-0.0","0","0","71639","","null","","","null","37","","","","","","","","","","","","","","","",""
"","ITI","","html-keyboard-response","252","352386","0.0-1.0-342.0","0","0","71639","","null","","","null","37","","","","","","","","","","","","","","","NaN",""
"","S1","","html-keyboard-response","253","352550","0.0-1.0-344.0","0","0","71639","","null","","","null","38","","","","","","","","","","","","","","","",""
"","ISI","","html-keyboard-response","254","354559","0.0-1.0-345.0","0","0","71639","","null","","","null","38","NaN","","","","","","","","","","","","","","",""
"","S2","","html-keyboard-response","255","354713","0.0-1.0-346.0","0","0","71639","","null","","","null","38","","NaN","","","","","","","","","","","","","",""
"","response","","html-keyboard-response","256","354961","0.0-1.0-347.0-0.0","0","0","71639","","244","","","75","38","","","1","38","training","adjacent","FE","6","5","P.jpg","R.jpg","1","0","0","",""
"","feedback","","html-keyboard-response","257","355969","0.0-1.0-348.0-0.0","0","0","71639","","null","","","null","38","","","","","","","","","","","","","","","",""
"","time_out","","html-keyboard-response","258","357989","0.0-1.0-350.0-0.0","0","0","71639","","null","","","null","38","","","","","","","","","","","","","","","",""
"","ITI","","html-keyboard-response","259","358995","0.0-1.0-351.0","0","0","71639","","null","","","null","38","","","","","","","","","","","","","","","NaN",""
"","S1","","html-keyboard-response","260","359154","0.0-1.0-353.0","0","0","71639","","null","","","null","39","","","","","","","","","","","","","","","",""
"","ISI","","html-keyboard-response","261","361161","0.0-1.0-354.0","0","0","71639","","null","","","null","39","NaN","","","","","","","","","","","","","","",""
"","S2","","html-keyboard-response","262","361327","0.0-1.0-355.0","0","0","71639","","null","","","null","39","","NaN","","","","","","","","","","","","","",""
"","response","","html-keyboard-response","263","362387","0.0-1.0-356.0-0.0","0","0","71639","","1055","","","68","39","","","1","39","training","adjacent","EF","5","6","R.jpg","P.jpg","0","1","0","",""
"","feedback","","html-keyboard-response","264","363397","0.0-1.0-357.0-0.0","0","0","71639","","null","","","null","39","","","","","","","","","","","","","","","",""
"","time_out","","html-keyboard-response","265","365412","0.0-1.0-359.0-0.0","0","0","71639","","null","","","null","39","","","","","","","","","","","","","","","",""
"","ITI","","html-keyboard-response","266","366427","0.0-1.0-360.0","0","0","71639","","null","","","null","39","","","","","","","","","","","","","","","NaN",""
"","S1","","html-keyboard-response","267","366584","0.0-1.0-362.0","0","0","71639","","null","","","null","40","","","","","","","","","","","","","","","",""
"","ISI","","html-keyboard-response","268","368587","0.0-1.0-363.0","0","0","71639","","null","","","null","40","NaN","","","","","","","","","","","","","","",""
"","S2","","html-keyboard-response","269","368748","0.0-1.0-364.0","0","0","71639","","null","","","null","40","","NaN","","","","","","","","","","","","","",""
"","response","","html-keyboard-response","270","370216","0.0-1.0-365.0-0.0","0","0","71639","","1464","","","68","40","","","1","40","training","adjacent","DE","4","5","L.jpg","R.jpg","0","1","0","",""
"","feedback","","html-keyboard-response","271","371230","0.0-1.0-366.0-0.0","0","0","71639","","null","","","null","40","","","","","","","","","","","","","","","",""
"","time_out","","html-keyboard-response","272","373236","0.0-1.0-368.0-0.0","0","0","71639","","null","","","null","40","","","","","","","","","","","","","","","",""
"","ITI","","html-keyboard-response","273","374241","0.0-1.0-369.0","0","0","71639","","null","","","null","40","","","","","","","","","","","","","","","NaN",""
"","S1","","html-keyboard-response","274","374395","0.0-1.0-371.0","0","0","71639","","null","","","null","41","","","","","","","","","","","","","","","",""
"","ISI","","html-keyboard-response","275","376402","0.0-1.0-372.0","0","0","71639","","null","","","null","41","NaN","","","","","","","","","","","","","","",""
"","S2","","html-keyboard-response","276","376570","0.0-1.0-373.0","0","0","71639","","null","","","null","41","","NaN","","","","","","","","","","","","","",""
"","response","","html-keyboard-response","277","376749","0.0-1.0-374.0-0.0","0","0","71639","","174","","","75","41","","","1","41","training","adjacent","CB","3","2","O.jpg","Q.jpg","1","0","0","",""
"","feedback","","html-keyboard-response","278","377761","0.0-1.0-375.0-0.0","0","0","71639","","null","","","null","41","","","","","","","","","","","","","","","",""
"","time_out","","html-keyboard-response","279","379774","0.0-1.0-377.0-0.0","0","0","71639","","null","","","null","41","","","","","","","","","","","","","","","",""
"","ITI","","html-keyboard-response","280","380778","0.0-1.0-378.0","0","0","71639","","null","","","null","41","","","","","","","","","","","","","","","NaN",""
"","S1","","html-keyboard-response","281","380942","0.0-1.0-380.0","0","0","71639","","null","","","null","42","","","","","","","","","","","","","","","",""
"","ISI","","html-keyboard-response","282","382946","0.0-1.0-381.0","0","0","71639","","null","","","null","42","NaN","","","","","","","","","","","","","","",""
"","S2","","html-keyboard-response","283","383103","0.0-1.0-382.0","0","0","71639","","null","","","null","42","","NaN","","","","","","","","","","","","","",""
"","response","","html-keyboard-response","284","383532","0.0-1.0-383.0-0.0","0","0","71639","","424","","","75","42","","","1","42","training","adjacent","BA","2","1","Q.jpg","N.jpg","1","0","0","",""
"","feedback","","html-keyboard-response","285","384554","0.0-1.0-384.0-0.0","0","0","71639","","null","","","null","42","","","","","","","","","","","","","","","",""
"","time_out","","html-keyboard-response","286","386570","0.0-1.0-386.0-0.0","0","0","71639","","null","","","null","42","","","","","","","","","","","","","","","",""
"","ITI","","html-keyboard-response","287","387581","0.0-1.0-387.0","0","0","71639","","null","","","null","42","","","","","","","","","","","","","","","NaN",""
"","S1","","html-keyboard-response","288","387746","0.0-1.0-389.0","0","0","71639","","null","","","null","43","","","","","","","","","","","","","","","",""
"","ISI","","html-keyboard-response","289","389761","0.0-1.0-390.0","0","0","71639","","null","","","null","43","NaN","","","","","","","","","","","","","","",""
"","S2","","html-keyboard-response","290","389933","0.0-1.0-391.0","0","0","71639","","null","","","null","43","","NaN","","","","","","","","","","","","","",""
"","response","","html-keyboard-response","291","390221","0.0-1.0-392.0-0.0","0","0","71639","","285","","","75","43","","","1","43","training","adjacent","FE","6","5","P.jpg","R.jpg","1","0","0","",""
"","feedback","","html-keyboard-response","292","391226","0.0-1.0-393.0-0.0","0","0","71639","","null","","","null","43","","","","","","","","","","","","","","","",""
"","time_out","","html-keyboard-response","293","393240","0.0-1.0-395.0-0.0","0","0","71639","","null","","","null","43","","","","","","","","","","","","","","","",""
"","ITI","","html-keyboard-response","294","394250","0.0-1.0-396.0","0","0","71639","","null","","","null","43","","","","","","","","","","","","","","","NaN",""
"","S1","","html-keyboard-response","295","394411","0.0-1.0-398.0","0","0","71639","","null","","","null","44","","","","","","","","","","","","","","","",""
"","ISI","","html-keyboard-response","296","396415","0.0-1.0-399.0","0","0","71639","","null","","","null","44","NaN","","","","","","","","","","","","","","",""
"","S2","","html-keyboard-response","297","396575","0.0-1.0-400.0","0","0","71639","","null","","","null","44","","NaN","","","","","","","","","","","","","",""
"","response","","html-keyboard-response","298","396775","0.0-1.0-401.0-0.0","0","0","71639","","194","","","75","44","","","1","44","training","adjacent","EF","5","6","R.jpg","P.jpg","1","1","1","",""
"","feedback","","html-keyboard-response","299","397791","0.0-1.0-402.0-0.0","0","0","71639","","null","","","null","44","","","","","","","","","","","","","","","",""
"","ITI","","html-keyboard-response","300","398808","0.0-1.0-405.0","0","0","71639","","null","","","null","44","","","","","","","","","","","","","","","NaN",""
"","S1","","html-keyboard-response","301","398971","0.0-1.0-407.0","0","0","71639","","null","","","null","45","","","","","","","","","","","","","","","",""
"","ISI","","html-keyboard-response","302","400983","0.0-1.0-408.0","0","0","71639","","null","","","null","45","NaN","","","","","","","","","","","","","","",""
"","S2","","html-keyboard-response","303","401142","0.0-1.0-409.0","0","0","71639","","null","","","null","45","","NaN","","","","","","","","","","","","","",""
"","response","","html-keyboard-response","304","401584","0.0-1.0-410.0-0.0","0","0","71639","","436","","","68","45","","","1","45","training","adjacent","FE","6","5","P.jpg","R.jpg","0","0","1","",""
"","feedback","","html-keyboard-response","305","402599","0.0-1.0-411.0-0.0","0","0","71639","","null","","","null","45","","","","","","","","","","","","","","","",""
"","ITI","","html-keyboard-response","306","403606","0.0-1.0-414.0","0","0","71639","","null","","","null","45","","","","","","","","","","","","","","","NaN",""
"","S1","","html-keyboard-response","307","403763","0.0-1.0-416.0","0","0","71639","","null","","","null","46","","","","","","","","","","","","","","","",""
"","ISI","","html-keyboard-response","308","405777","0.0-1.0-417.0","0","0","71639","","null","","","null","46","NaN","","","","","","","","","","","","","","",""
"","S2","","html-keyboard-response","309","405933","0.0-1.0-418.0","0","0","71639","","null","","","null","46","","NaN","","","","","","","","","","","","","",""
"","response","","html-keyboard-response","310","406371","0.0-1.0-419.0-0.0","0","0","71639","","434","","","75","46","","","1","46","training","adjacent","ED","5","4","R.jpg","L.jpg","1","0","0","",""
"","feedback","","html-keyboard-response","311","407377","0.0-1.0-420.0-0.0","0","0","71639","","null","","","null","46","","","","","","","","","","","","","","","",""
"","time_out","","html-keyboard-response","312","409400","0.0-1.0-422.0-0.0","0","0","71639","","null","","","null","46","","","","","","","","","","","","","","","",""
"","ITI","","html-keyboard-response","313","410414","0.0-1.0-423.0","0","0","71639","","null","","","null","46","","","","","","","","","","","","","","","NaN",""
"","S1","","html-keyboard-response","314","410569","0.0-1.0-425.0","0","0","71639","","null","","","null","47","","","","","","","","","","","","","","","",""
"","ISI","","html-keyboard-response","315","412585","0.0-1.0-426.0","0","0","71639","","null","","","null","47","NaN","","","","","","","","","","","","","","",""
"","S2","","html-keyboard-response","316","412753","0.0-1.0-427.0","0","0","71639","","null","","","null","47","","NaN","","","","","","","","","","","","","",""
"","response","","html-keyboard-response","317","413425","0.0-1.0-428.0-0.0","0","0","71639","","664","","","75","47","","","1","47","training","adjacent","BC","2","3","Q.jpg","O.jpg","1","1","1","",""
"","feedback","","html-keyboard-response","318","414442","0.0-1.0-429.0-0.0","0","0","71639","","null","","","null","47","","","","","","","","","","","","","","","",""
"","ITI","","html-keyboard-response","319","415454","0.0-1.0-432.0","0","0","71639","","null","","","null","47","","","","","","","","","","","","","","","NaN",""
"","block_over","","html-keyboard-response","320","480328","0.0-1.0-433.0-0.0","0","0","71639","","64868","","","32","47","","","","","","","","","","","","","","","",""
"","S1","","html-keyboard-response","321","480488","0.0-1.0-434.0","0","0","71639","","null","","","null","48","","","","","","","","","","","","","","","",""
"","ISI","","html-keyboard-response","322","482494","0.0-1.0-435.0","0","0","71639","","null","","","null","48","NaN","","","","","","","","","","","","","","",""
"","S2","","html-keyboard-response","323","482655","0.0-1.0-436.0","0","0","71639","","null","","","null","48","","NaN","","","","","","","","","","","","","",""
"","response","","html-keyboard-response","324","483112","0.0-1.0-437.0-0.0","0","0","71639","","451","","","75","48","","","2","48","training","adjacent","CD","3","4","O.jpg","L.jpg","1","1","1","",""
"","feedback","","html-keyboard-response","325","484123","0.0-1.0-438.0-0.0","0","0","71639","","null","","","null","48","","","","","","","","","","","","","","","",""
"","ITI","","html-keyboard-response","326","485133","0.0-1.0-441.0","0","0","71639","","null","","","null","48","","","","","","","","","","","","","","","NaN",""
"","S1","","html-keyboard-response","327","485295","0.0-1.0-443.0","0","0","71639","","null","","","null","49","","","","","","","","","","","","","","","",""
"","ISI","","html-keyboard-response","328","487301","0.0-1.0-444.0","0","0","71639","","null","","","null","49","NaN","","","","","","","","","","","","","","",""
"","S2","","html-keyboard-response","329","487461","0.0-1.0-445.0","0","0","71639","","null","","","null","49","","NaN","","","","","","","","","","","","","",""
"","response","","html-keyboard-response","330","487667","0.0-1.0-446.0-0.0","0","0","71639","","201","","","75","49","","","2","49","training","adjacent","EF","5","6","R.jpg","P.jpg","1","1","1","",""
"","feedback","","html-keyboard-response","331","488673","0.0-1.0-447.0-0.0","0","0","71639","","null","","","null","49","","","","","","","","","","","","","","","",""
"","ITI","","html-keyboard-response","332","489680","0.0-1.0-450.0","0","0","71639","","null","","","null","49","","","","","","","","","","","","","","","NaN",""
"","S1","","html-keyboard-response","333","489853","0.0-1.0-452.0","0","0","71639","","null","","","null","50","","","","","","","","","","","","","","","",""
"","ISI","","html-keyboard-response","334","491862","0.0-1.0-453.0","0","0","71639","","null","","","null","50","NaN","","","","","","","","","","","","","","",""
"","S2","","html-keyboard-response","335","492029","0.0-1.0-454.0","0","0","71639","","null","","","null","50","","NaN","","","","","","","","","","","","","",""
"","response","","html-keyboard-response","336","492355","0.0-1.0-455.0-0.0","0","0","71639","","322","","","75","50","","","2","50","training","adjacent","FG","6","7","P.jpg","M.jpg","1","1","1","",""
"","feedback","","html-keyboard-response","337","493365","0.0-1.0-456.0-0.0","0","0","71639","","null","","","null","50","","","","","","","","","","","","","","","",""
"","ITI","","html-keyboard-response","338","494375","0.0-1.0-459.0","0","0","71639","","null","","","null","50","","","","","","","","","","","","","","","NaN",""
"","S1","","html-keyboard-response","339","494540","0.0-1.0-461.0","0","0","71639","","null","","","null","51","","","","","","","","","","","","","","","",""
"","ISI","","html-keyboard-response","340","496544","0.0-1.0-462.0","0","0","71639","","null","","","null","51","NaN","","","","","","","","","","","","","","",""
"","S2","","html-keyboard-response","341","496705","0.0-1.0-463.0","0","0","71639","","null","","","null","51","","NaN","","","","","","","","","","","","","",""
"","response","","html-keyboard-response","342","497194","0.0-1.0-464.0-0.0","0","0","71639","","483","","","68","51","","","2","51","training","adjacent","BA","2","1","Q.jpg","N.jpg","0","0","1","",""
"","feedback","","html-keyboard-response","343","498203","0.0-1.0-465.0-0.0","0","0","71639","","null","","","null","51","","","","","","","","","","","","","","","",""
"","ITI","","html-keyboard-response","344","499209","0.0-1.0-468.0","0","0","71639","","null","","","null","51","","","","","","","","","","","","","","","NaN",""
"","S1","","html-keyboard-response","345","499373","0.0-1.0-470.0","0","0","71639","","null","","","null","52","","","","","","","","","","","","","","","",""
"","ISI","","html-keyboard-response","346","501397","0.0-1.0-471.0","0","0","71639","","null","","","null","52","NaN","","","","","","","","","","","","","","",""
"","S2","","html-keyboard-response","347","501560","0.0-1.0-472.0","0","0","71639","","null","","","null","52","","NaN","","","","","","","","","","","","","",""
"","response","","html-keyboard-response","348","502382","0.0-1.0-473.0-0.0","0","0","71639","","819","","","68","52","","","2","52","training","adjacent","BA","2","1","Q.jpg","N.jpg","0","0","1","",""
"","feedback","","html-keyboard-response","349","503388","0.0-1.0-474.0-0.0","0","0","71639","","null","","","null","52","","","","","","","","","","","","","","","",""
"","ITI","","html-keyboard-response","350","504405","0.0-1.0-477.0","0","0","71639","","null","","","null","52","","","","","","","","","","","","","","","NaN",""
"","S1","","html-keyboard-response","351","504562","0.0-1.0-479.0","0","0","71639","","null","","","null","53","","","","","","","","","","","","","","","",""
"","ISI","","html-keyboard-response","352","506575","0.0-1.0-480.0","0","0","71639","","null","","","null","53","NaN","","","","","","","","","","","","","","",""
"","S2","","html-keyboard-response","353","506742","0.0-1.0-481.0","0","0","71639","","null","","","null","53","","NaN","","","","","","","","","","","","","",""
"","response","","html-keyboard-response","354","507205","0.0-1.0-482.0-0.0","0","0","71639","","458","","","75","53","","","2","53","training","adjacent","AB","1","2","N.jpg","Q.jpg","1","1","1","",""
"","feedback","","html-keyboard-response","355","508217","0.0-1.0-483.0-0.0","0","0","71639","","null","","","null","53","","","","","","","","","","","","","","","",""
"","ITI","","html-keyboard-response","356","509223","0.0-1.0-486.0","0","0","71639","","null","","","null","53","","","","","","","","","","","","","","","NaN",""
"","S1","","html-keyboard-response","357","509379","0.0-1.0-488.0","0","0","71639","","null","","","null","54","","","","","","","","","","","","","","","",""
"","ISI","","html-keyboard-response","358","511384","0.0-1.0-489.0","0","0","71639","","null","","","null","54","NaN","","","","","","","","","","","","","","",""
"","S2","","html-keyboard-response","359","511551","0.0-1.0-490.0","0","0","71639","","null","","","null","54","","NaN","","","","","","","","","","","","","",""
"","response","","html-keyboard-response","360","512658","0.0-1.0-491.0-0.0","0","0","71639","","1105","","","75","54","","","2","54","training","adjacent","FE","6","5","P.jpg","R.jpg","1","0","0","",""
"","feedback","","html-keyboard-response","361","513672","0.0-1.0-492.0-0.0","0","0","71639","","null","","","null","54","","","","","","","","","","","","","","","",""
"","time_out","","html-keyboard-response","362","515675","0.0-1.0-494.0-0.0","0","0","71639","","null","","","null","54","","","","","","","","","","","","","","","",""
"","ITI","","html-keyboard-response","363","516683","0.0-1.0-495.0","0","0","71639","","null","","","null","54","","","","","","","","","","","","","","","NaN",""
"","S1","","html-keyboard-response","364","516838","0.0-1.0-497.0","0","0","71639","","null","","","null","55","","","","","","","","","","","","","","","",""
"","ISI","","html-keyboard-response","365","518855","0.0-1.0-498.0","0","0","71639","","null","","","null","55","NaN","","","","","","","","","","","","","","",""
"","S2","","html-keyboard-response","366","519023","0.0-1.0-499.0","0","0","71639","","null","","","null","55","","NaN","","","","","","","","","","","","","",""
"","response","","html-keyboard-response","367","519209","0.0-1.0-500.0-0.0","0","0","71639","","182","","","75","55","","","2","55","training","adjacent","EF","5","6","R.jpg","P.jpg","1","1","1","",""
"","feedback","","html-keyboard-response","368","520223","0.0-1.0-501.0-0.0","0","0","71639","","null","","","null","55","","","","","","","","","","","","","","","",""
"","ITI","","html-keyboard-response","369","521231","0.0-1.0-504.0","0","0","71639","","null","","","null","55","","","","","","","","","","","","","","","NaN",""
"","S1","","html-keyboard-response","370","521390","0.0-1.0-506.0","0","0","71639","","null","","","null","56","","","","","","","","","","","","","","","",""
"","ISI","","html-keyboard-response","371","523406","0.0-1.0-507.0","0","0","71639","","null","","","null","56","NaN","","","","","","","","","","","","","","",""
"","S2","","html-keyboard-response","372","523572","0.0-1.0-508.0","0","0","71639","","null","","","null","56","","NaN","","","","","","","","","","","","","",""
"","response","","html-keyboard-response","373","524784","0.0-1.0-509.0-0.0","0","0","71639","","1206","","","68","56","","","2","56","training","adjacent","DE","4","5","L.jpg","R.jpg","0","1","0","",""
"","feedback","","html-keyboard-response","374","525804","0.0-1.0-510.0-0.0","0","0","71639","","null","","","null","56","","","","","","","","","","","","","","","",""
"","time_out","","html-keyboard-response","375","527814","0.0-1.0-512.0-0.0","0","0","71639","","null","","","null","56","","","","","","","","","","","","","","","",""
"","ITI","","html-keyboard-response","376","528829","0.0-1.0-513.0","0","0","71639","","null","","","null","56","","","","","","","","","","","","","","","NaN",""
"","S1","","html-keyboard-response","377","528990","0.0-1.0-515.0","0","0","71639","","null","","","null","57","","","","","","","","","","","","","","","",""
"","ISI","","html-keyboard-response","378","531026","0.0-1.0-516.0","0","0","71639","","null","","","null","57","NaN","","","","","","","","","","","","","","",""
"","S2","","html-keyboard-response","379","531192","0.0-1.0-517.0","0","0","71639","","null","","","null","57","","NaN","","","","","","","","","","","","","",""
"","response","","html-keyboard-response","380","531818","0.0-1.0-518.0-0.0","0","0","71639","","619","","","75","57","","","2","57","training","adjacent","FG","6","7","P.jpg","M.jpg","1","1","1","",""
"","feedback","","html-keyboard-response","381","532830","0.0-1.0-519.0-0.0","0","0","71639","","null","","","null","57","","","","","","","","","","","","","","","",""
"","ITI","","html-keyboard-response","382","533837","0.0-1.0-522.0","0","0","71639","","null","","","null","57","","","","","","","","","","","","","","","NaN",""
"","S1","","html-keyboard-response","383","533991","0.0-1.0-524.0","0","0","71639","","null","","","null","58","","","","","","","","","","","","","","","",""
"","ISI","","html-keyboard-response","384","536000","0.0-1.0-525.0","0","0","71639","","null","","","null","58","NaN","","","","","","","","","","","","","","",""
"","S2","","html-keyboard-response","385","536162","0.0-1.0-526.0","0","0","71639","","null","","","null","58","","NaN","","","","","","","","","","","","","",""
"","response","","html-keyboard-response","386","536732","0.0-1.0-527.0-0.0","0","0","71639","","567","","","75","58","","","2","58","training","adjacent","CD","3","4","O.jpg","L.jpg","1","1","1","",""
"","feedback","","html-keyboard-response","387","537743","0.0-1.0-528.0-0.0","0","0","71639","","null","","","null","58","","","","","","","","","","","","","","","",""
"","ITI","","html-keyboard-response","388","538751","0.0-1.0-531.0","0","0","71639","","null","","","null","58","","","","","","","","","","","","","","","NaN",""
"","S1","","html-keyboard-response","389","538912","0.0-1.0-533.0","0","0","71639","","null","","","null","59","","","","","","","","","","","","","","","",""
"","ISI","","html-keyboard-response","390","540929","0.0-1.0-534.0","0","0","71639","","null","","","null","59","NaN","","","","","","","","","","","","","","",""
"","S2","","html-keyboard-response","391","541089","0.0-1.0-535.0","0","0","71639","","null","","","null","59","","NaN","","","","","","","","","","","","","",""
"","response","","html-keyboard-response","392","541496","0.0-1.0-536.0-0.0","0","0","71639","","401","","","75","59","","","2","59","training","adjacent","CB","3","2","O.jpg","Q.jpg","1","0","0","",""
"","feedback","","html-keyboard-response","393","542515","0.0-1.0-537.0-0.0","0","0","71639","","null","","","null","59","","","","","","","","","","","","","","","",""
"","time_out","","html-keyboard-response","394","544534","0.0-1.0-539.0-0.0","0","0","71639","","null","","","null","59","","","","","","","","","","","","","","","",""
"","ITI","","html-keyboard-response","395","545548","0.0-1.0-540.0","0","0","71639","","null","","","null","59","","","","","","","","","","","","","","","NaN",""
"","S1","","html-keyboard-response","396","545711","0.0-1.0-542.0","0","0","71639","","null","","","null","60","","","","","","","","","","","","","","","",""
"","ISI","","html-keyboard-response","397","547728","0.0-1.0-543.0","0","0","71639","","null","","","null","60","NaN","","","","","","","","","","","","","","",""
"","S2","","html-keyboard-response","398","547886","0.0-1.0-544.0","0","0","71639","","null","","","null","60","","NaN","","","","","","","","","","","","","",""
"","response","","html-keyboard-response","399","548286","0.0-1.0-545.0-0.0","0","0","71639","","397","","","75","60","","","2","60","training","adjacent","AB","1","2","N.jpg","Q.jpg","1","1","1","",""
"","feedback","","html-keyboard-response","400","549304","0.0-1.0-546.0-0.0","0","0","71639","","null","","","null","60","","","","","","","","","","","","","","","",""
"","ITI","","html-keyboard-response","401","550317","0.0-1.0-549.0","0","0","71639","","null","","","null","60","","","","","","","","","","","","","","","NaN",""
"","S1","","html-keyboard-response","402","550479","0.0-1.0-551.0","0","0","71639","","null","","","null","61","","","","","","","","","","","","","","","",""
"","ISI","","html-keyboard-response","403","552484","0.0-1.0-552.0","0","0","71639","","null","","","null","61","NaN","","","","","","","","","","","","","","",""
"","S2","","html-keyboard-response","404","552639","0.0-1.0-553.0","0","0","71639","","null","","","null","61","","NaN","","","","","","","","","","","","","",""
"","response","","html-keyboard-response","405","553273","0.0-1.0-554.0-0.0","0","0","71639","","630","","","75","61","","","2","61","training","adjacent","CD","3","4","O.jpg","L.jpg","1","1","1","",""
"","feedback","","html-keyboard-response","406","554291","0.0-1.0-555.0-0.0","0","0","71639","","null","","","null","61","","","","","","","","","","","","","","","",""
"","ITI","","html-keyboard-response","407","555295","0.0-1.0-558.0","0","0","71639","","null","","","null","61","","","","","","","","","","","","","","","NaN",""
"","S1","","html-keyboard-response","408","555459","0.0-1.0-560.0","0","0","71639","","null","","","null","62","","","","","","","","","","","","","","","",""
"","ISI","","html-keyboard-response","409","557470","0.0-1.0-561.0","0","0","71639","","null","","","null","62","NaN","","","","","","","","","","","","","","",""
"","S2","","html-keyboard-response","410","557626","0.0-1.0-562.0","0","0","71639","","null","","","null","62","","NaN","","","","","","","","","","","","","",""
"","response","","html-keyboard-response","411","558368","0.0-1.0-563.0-0.0","0","0","71639","","739","","","75","62","","","2","62","training","adjacent","AB","1","2","N.jpg","Q.jpg","1","1","1","",""
"","feedback","","html-keyboard-response","412","559387","0.0-1.0-564.0-0.0","0","0","71639","","null","","","null","62","","","","","","","","","","","","","","","",""
"","ITI","","html-keyboard-response","413","560398","0.0-1.0-567.0","0","0","71639","","null","","","null","62","","","","","","","","","","","","","","","NaN",""
"","S1","","html-keyboard-response","414","560558","0.0-1.0-569.0","0","0","71639","","null","","","null","63","","","","","","","","","","","","","","","",""
"","ISI","","html-keyboard-response","415","562571","0.0-1.0-570.0","0","0","71639","","null","","","null","63","NaN","","","","","","","","","","","","","","",""
"","S2","","html-keyboard-response","416","562725","0.0-1.0-571.0","0","0","71639","","null","","","null","63","","NaN","","","","","","","","","","","","","",""
"","response","","html-keyboard-response","417","563353","0.0-1.0-572.0-0.0","0","0","71639","","624","","","68","63","","","2","63","training","adjacent","GF","7","6","M.jpg","P.jpg","0","0","1","",""
"","feedback","","html-keyboard-response","418","564371","0.0-1.0-573.0-0.0","0","0","71639","","null","","","null","63","","","","","","","","","","","","","","","",""
"","ITI","","html-keyboard-response","419","565385","0.0-1.0-576.0","0","0","71639","","null","","","null","63","","","","","","","","","","","","","","","NaN",""
"","S1","","html-keyboard-response","420","565544","0.0-1.0-578.0","0","0","71639","","null","","","null","64","","","","","","","","","","","","","","","",""
"","ISI","","html-keyboard-response","421","567548","0.0-1.0-579.0","0","0","71639","","null","","","null","64","NaN","","","","","","","","","","","","","","",""
"","S2","","html-keyboard-response","422","567713","0.0-1.0-580.0","0","0","71639","","null","","","null","64","","NaN","","","","","","","","","","","","","",""
"","response","","html-keyboard-response","423","568955","0.0-1.0-581.0-0.0","0","0","71639","","1238","","","68","64","","","2","64","training","adjacent","GF","7","6","M.jpg","P.jpg","0","0","1","",""
"","feedback","","html-keyboard-response","424","569971","0.0-1.0-582.0-0.0","0","0","71639","","null","","","null","64","","","","","","","","","","","","","","","",""
"","ITI","","html-keyboard-response","425","570982","0.0-1.0-585.0","0","0","71639","","null","","","null","64","","","","","","","","","","","","","","","NaN",""
"","S1","","html-keyboard-response","426","571145","0.0-1.0-587.0","0","0","71639","","null","","","null","65","","","","","","","","","","","","","","","",""
"","ISI","","html-keyboard-response","427","573156","0.0-1.0-588.0","0","0","71639","","null","","","null","65","NaN","","","","","","","","","","","","","","",""
"","S2","","html-keyboard-response","428","573322","0.0-1.0-589.0","0","0","71639","","null","","","null","65","","NaN","","","","","","","","","","","","","",""
"","response","","html-keyboard-response","429","573831","0.0-1.0-590.0-0.0","0","0","71639","","507","","","68","65","","","2","65","training","adjacent","FG","6","7","P.jpg","M.jpg","0","1","0","",""
"","feedback","","html-keyboard-response","430","574837","0.0-1.0-591.0-0.0","0","0","71639","","null","","","null","65","","","","","","","","","","","","","","","",""
"","time_out","","html-keyboard-response","431","576848","0.0-1.0-593.0-0.0","0","0","71639","","null","","","null","65","","","","","","","","","","","","","","","",""
"","ITI","","html-keyboard-response","432","577854","0.0-1.0-594.0","0","0","71639","","null","","","null","65","","","","","","","","","","","","","","","NaN",""
"","S1","","html-keyboard-response","433","578015","0.0-1.0-596.0","0","0","71639","","null","","","null","66","","","","","","","","","","","","","","","",""
"","ISI","","html-keyboard-response","434","580020","0.0-1.0-597.0","0","0","71639","","null","","","null","66","NaN","","","","","","","","","","","","","","",""
"","S2","","html-keyboard-response","435","580186","0.0-1.0-598.0","0","0","71639","","null","","","null","66","","NaN","","","","","","","","","","","","","",""
"","response","","html-keyboard-response","436","581196","0.0-1.0-599.0-0.0","0","0","71639","","1006","","","68","66","","","2","66","training","adjacent","GF","7","6","M.jpg","P.jpg","0","0","1","",""
"","feedback","","html-keyboard-response","437","582204","0.0-1.0-600.0-0.0","0","0","71639","","null","","","null","66","","","","","","","","","","","","","","","",""
"","ITI","","html-keyboard-response","438","583210","0.0-1.0-603.0","0","0","71639","","null","","","null","66","","","","","","","","","","","","","","","NaN",""
"","S1","","html-keyboard-response","439","583376","0.0-1.0-605.0","0","0","71639","","null","","","null","67","","","","","","","","","","","","","","","",""
"","ISI","","html-keyboard-response","440","585396","0.0-1.0-606.0","0","0","71639","","null","","","null","67","NaN","","","","","","","","","","","","","","",""
"","S2","","html-keyboard-response","441","585553","0.0-1.0-607.0","0","0","71639","","null","","","null","67","","NaN","","","","","","","","","","","","","",""
"","response","","html-keyboard-response","442","586140","0.0-1.0-608.0-0.0","0","0","71639","","584","","","68","67","","","2","67","training","adjacent","FE","6","5","P.jpg","R.jpg","0","0","1","",""
"","feedback","","html-keyboard-response","443","587154","0.0-1.0-609.0-0.0","0","0","71639","","null","","","null","67","","","","","","","","","","","","","","","",""
"","ITI","","html-keyboard-response","444","588164","0.0-1.0-612.0","0","0","71639","","null","","","null","67","","","","","","","","","","","","","","","NaN",""
"","S1","","html-keyboard-response","445","588325","0.0-1.0-614.0","0","0","71639","","null","","","null","68","","","","","","","","","","","","","","","",""
"","ISI","","html-keyboard-response","446","590332","0.0-1.0-615.0","0","0","71639","","null","","","null","68","NaN","","","","","","","","","","","","","","",""
"","S2","","html-keyboard-response","447","590487","0.0-1.0-616.0","0","0","71639","","null","","","null","68","","NaN","","","","","","","","","","","","","",""
"","response","","html-keyboard-response","448","591415","0.0-1.0-617.0-0.0","0","0","71639","","924","","","68","68","","","2","68","training","adjacent","EF","5","6","R.jpg","P.jpg","0","1","0","",""
"","feedback","","html-keyboard-response","449","592434","0.0-1.0-618.0-0.0","0","0","71639","","null","","","null","68","","","","","","","","","","","","","","","",""
"","time_out","","html-keyboard-response","450","594447","0.0-1.0-620.0-0.0","0","0","71639","","null","","","null","68","","","","","","","","","","","","","","","",""
"","ITI","","html-keyboard-response","451","595460","0.0-1.0-621.0","0","0","71639","","null","","","null","68","","","","","","","","","","","","","","","NaN",""
"","S1","","html-keyboard-response","452","595627","0.0-1.0-623.0","0","0","71639","","null","","","null","69","","","","","","","","","","","","","","","",""
"","ISI","","html-keyboard-response","453","597643","0.0-1.0-624.0","0","0","71639","","null","","","null","69","NaN","","","","","","","","","","","","","","",""
"","S2","","html-keyboard-response","454","597806","0.0-1.0-625.0","0","0","71639","","null","","","null","69","","NaN","","","","","","","","","","","","","",""
"","response","","html-keyboard-response","455","598213","0.0-1.0-626.0-0.0","0","0","71639","","404","","","75","69","","","2","69","training","adjacent","FG","6","7","P.jpg","M.jpg","1","1","1","",""
"","feedback","","html-keyboard-response","456","599221","0.0-1.0-627.0-0.0","0","0","71639","","null","","","null","69","","","","","","","","","","","","","","","",""
"","ITI","","html-keyboard-response","457","600225","0.0-1.0-630.0","0","0","71639","","null","","","null","69","","","","","","","","","","","","","","","NaN",""
"","S1","","html-keyboard-response","458","600384","0.0-1.0-632.0","0","0","71639","","null","","","null","70","","","","","","","","","","","","","","","",""
"","ISI","","html-keyboard-response","459","602403","0.0-1.0-633.0","0","0","71639","","null","","","null","70","NaN","","","","","","","","","","","","","","",""
"","S2","","html-keyboard-response","460","602564","0.0-1.0-634.0","0","0","71639","","null","","","null","70","","NaN","","","","","","","","","","","","","",""
"","response","","html-keyboard-response","461","603480","0.0-1.0-635.0-0.0","0","0","71639","","913","","","75","70","","","2","70","training","adjacent","DE","4","5","L.jpg","R.jpg","1","1","1","",""
"","feedback","","html-keyboard-response","462","604495","0.0-1.0-636.0-0.0","0","0","71639","","null","","","null","70","","","","","","","","","","","","","","","",""
"","ITI","","html-keyboard-response","463","605500","0.0-1.0-639.0","0","0","71639","","null","","","null","70","","","","","","","","","","","","","","","NaN",""
"","S1","","html-keyboard-response","464","605666","0.0-1.0-641.0","0","0","71639","","null","","","null","71","","","","","","","","","","","","","","","",""
"","ISI","","html-keyboard-response","465","607687","0.0-1.0-642.0","0","0","71639","","null","","","null","71","NaN","","","","","","","","","","","","","","",""
"","S2","","html-keyboard-response","466","607851","0.0-1.0-643.0","0","0","71639","","null","","","null","71","","NaN","","","","","","","","","","","","","",""
"","response","","html-keyboard-response","467","608400","0.0-1.0-644.0-0.0","0","0","71639","","544","","","68","71","","","2","71","training","adjacent","BA","2","1","Q.jpg","N.jpg","0","0","1","",""
"","feedback","","html-keyboard-response","468","609422","0.0-1.0-645.0-0.0","0","0","71639","","null","","","null","71","","","","","","","","","","","","","","","",""
"","ITI","","html-keyboard-response","469","610442","0.0-1.0-648.0","0","0","71639","","null","","","null","71","","","","","","","","","","","","","","","NaN",""
"","S1","","html-keyboard-response","470","610599","0.0-1.0-650.0","0","0","71639","","null","","","null","72","","","","","","","","","","","","","","","",""
"","ISI","","html-keyboard-response","471","612609","0.0-1.0-651.0","0","0","71639","","null","","","null","72","NaN","","","","","","","","","","","","","","",""
"","S2","","html-keyboard-response","472","612779","0.0-1.0-652.0","0","0","71639","","null","","","null","72","","NaN","","","","","","","","","","","","","",""
"","response","","html-keyboard-response","473","613317","0.0-1.0-653.0-0.0","0","0","71639","","532","","","75","72","","","2","72","training","adjacent","DC","4","3","L.jpg","O.jpg","1","0","0","",""
"","feedback","","html-keyboard-response","474","614332","0.0-1.0-654.0-0.0","0","0","71639","","null","","","null","72","","","","","","","","","","","","","","","",""
"","time_out","","html-keyboard-response","475","616339","0.0-1.0-656.0-0.0","0","0","71639","","null","","","null","72","","","","","","","","","","","","","","","",""
"","ITI","","html-keyboard-response","476","617347","0.0-1.0-657.0","0","0","71639","","null","","","null","72","","","","","","","","","","","","","","","NaN",""
"","S1","","html-keyboard-response","477","617517","0.0-1.0-659.0","0","0","71639","","null","","","null","73","","","","","","","","","","","","","","","",""
"","ISI","","html-keyboard-response","478","619531","0.0-1.0-660.0","0","0","71639","","null","","","null","73","NaN","","","","","","","","","","","","","","",""
"","S2","","html-keyboard-response","479","619686","0.0-1.0-661.0","0","0","71639","","null","","","null","73","","NaN","","","","","","","","","","","","","",""
"","response","","html-keyboard-response","480","620265","0.0-1.0-662.0-0.0","0","0","71639","","574","","","68","73","","","2","73","training","adjacent","BA","2","1","Q.jpg","N.jpg","0","0","1","",""
"","feedback","","html-keyboard-response","481","621283","0.0-1.0-663.0-0.0","0","0","71639","","null","","","null","73","","","","","","","","","","","","","","","",""
"","ITI","","html-keyboard-response","482","622301","0.0-1.0-666.0","0","0","71639","","null","","","null","73","","","","","","","","","","","","","","","NaN",""
"","S1","","html-keyboard-response","483","622457","0.0-1.0-668.0","0","0","71639","","null","","","null","74","","","","","","","","","","","","","","","",""
"","ISI","","html-keyboard-response","484","624464","0.0-1.0-669.0","0","0","71639","","null","","","null","74","NaN","","","","","","","","","","","","","","",""
"","S2","","html-keyboard-response","485","624626","0.0-1.0-670.0","0","0","71639","","null","","","null","74","","NaN","","","","","","","","","","","","","",""
"","response","","html-keyboard-response","486","624952","0.0-1.0-671.0-0.0","0","0","71639","","323","","","68","74","","","2","74","training","adjacent","ED","5","4","R.jpg","L.jpg","0","0","1","",""
"","feedback","","html-keyboard-response","487","625965","0.0-1.0-672.0-0.0","0","0","71639","","null","","","null","74","","","","","","","","","","","","","","","",""
"","ITI","","html-keyboard-response","488","626974","0.0-1.0-675.0","0","0","71639","","null","","","null","74","","","","","","","","","","","","","","","NaN",""
"","S1","","html-keyboard-response","489","627134","0.0-1.0-677.0","0","0","71639","","null","","","null","75","","","","","","","","","","","","","","","",""
"","ISI","","html-keyboard-response","490","629153","0.0-1.0-678.0","0","0","71639","","null","","","null","75","NaN","","","","","","","","","","","","","","",""
"","S2","","html-keyboard-response","491","629321","0.0-1.0-679.0","0","0","71639","","null","","","null","75","","NaN","","","","","","","","","","","","","",""
"","response","","html-keyboard-response","492","630184","0.0-1.0-680.0-0.0","0","0","71639","","859","","","68","75","","","2","75","training","adjacent","BC","2","3","Q.jpg","O.jpg","0","1","0","",""
"","feedback","","html-keyboard-response","493","631190","0.0-1.0-681.0-0.0","0","0","71639","","null","","","null","75","","","","","","","","","","","","","","","",""
"","time_out","","html-keyboard-response","494","633204","0.0-1.0-683.0-0.0","0","0","71639","","null","","","null","75","","","","","","","","","","","","","","","",""
"","ITI","","html-keyboard-response","495","634214","0.0-1.0-684.0","0","0","71639","","null","","","null","75","","","","","","","","","","","","","","","NaN",""
"","S1","","html-keyboard-response","496","634380","0.0-1.0-686.0","0","0","71639","","null","","","null","76","","","","","","","","","","","","","","","",""
"","ISI","","html-keyboard-response","497","636387","0.0-1.0-687.0","0","0","71639","","null","","","null","76","NaN","","","","","","","","","","","","","","",""
"","S2","","html-keyboard-response","498","636543","0.0-1.0-688.0","0","0","71639","","null","","","null","76","","NaN","","","","","","","","","","","","","",""
"","response","","html-keyboard-response","499","637491","0.0-1.0-689.0-0.0","0","0","71639","","944","","","75","76","","","2","76","training","adjacent","FE","6","5","P.jpg","R.jpg","1","0","0","",""
"","feedback","","html-keyboard-response","500","638502","0.0-1.0-690.0-0.0","0","0","71639","","null","","","null","76","","","","","","","","","","","","","","","",""
"","time_out","","html-keyboard-response","501","640512","0.0-1.0-692.0-0.0","0","0","71639","","null","","","null","76","","","","","","","","","","","","","","","",""
"","ITI","","html-keyboard-response","502","641525","0.0-1.0-693.0","0","0","71639","","null","","","null","76","","","","","","","","","","","","","","","NaN",""
"","S1","","html-keyboard-response","503","641688","0.0-1.0-695.0","0","0","71639","","null","","","null","77","","","","","","","","","","","","","","","",""
"","ISI","","html-keyboard-response","504","643693","0.0-1.0-696.0","0","0","71639","","null","","","null","77","NaN","","","","","","","","","","","","","","",""
"","S2","","html-keyboard-response","505","643863","0.0-1.0-697.0","0","0","71639","","null","","","null","77","","NaN","","","","","","","","","","","","","",""
"","response","","html-keyboard-response","506","644264","0.0-1.0-698.0-0.0","0","0","71639","","396","","","68","77","","","2","77","training","adjacent","AB","1","2","N.jpg","Q.jpg","0","1","0","",""
"","feedback","","html-keyboard-response","507","645284","0.0-1.0-699.0-0.0","0","0","71639","","null","","","null","77","","","","","","","","","","","","","","","",""
"","time_out","","html-keyboard-response","508","647296","0.0-1.0-701.0-0.0","0","0","71639","","null","","","null","77","","","","","","","","","","","","","","","",""
"","ITI","","html-keyboard-response","509","648305","0.0-1.0-702.0","0","0","71639","","null","","","null","77","","","","","","","","","","","","","","","NaN",""
"","S1","","html-keyboard-response","510","648465","0.0-1.0-704.0","0","0","71639","","null","","","null","78","","","","","","","","","","","","","","","",""
"","ISI","","html-keyboard-response","511","650478","0.0-1.0-705.0","0","0","71639","","null","","","null","78","NaN","","","","","","","","","","","","","","",""
"","S2","","html-keyboard-response","512","650635","0.0-1.0-706.0","0","0","71639","","null","","","null","78","","NaN","","","","","","","","","","","","","",""
"","response","","html-keyboard-response","513","650938","0.0-1.0-707.0-0.0","0","0","71639","","302","","","75","78","","","2","78","training","adjacent","CD","3","4","O.jpg","L.jpg","1","1","1","",""
"","feedback","","html-keyboard-response","514","651954","0.0-1.0-708.0-0.0","0","0","71639","","null","","","null","78","","","","","","","","","","","","","","","",""
"","ITI","","html-keyboard-response","515","652969","0.0-1.0-711.0","0","0","71639","","null","","","null","78","","","","","","","","","","","","","","","NaN",""
"","S1","","html-keyboard-response","516","653126","0.0-1.0-713.0","0","0","71639","","null","","","null","79","","","","","","","","","","","","","","","",""
"","ISI","","html-keyboard-response","517","655144","0.0-1.0-714.0","0","0","71639","","null","","","null","79","NaN","","","","","","","","","","","","","","",""
"","S2","","html-keyboard-response","518","655308","0.0-1.0-715.0","0","0","71639","","null","","","null","79","","NaN","","","","","","","","","","","","","",""
"","response","","html-keyboard-response","519","655863","0.0-1.0-716.0-0.0","0","0","71639","","550","","","75","79","","","2","79","training","adjacent","CB","3","2","O.jpg","Q.jpg","1","0","0","",""
"","feedback","","html-keyboard-response","520","656873","0.0-1.0-717.0-0.0","0","0","71639","","null","","","null","79","","","","","","","","","","","","","","","",""
"","time_out","","html-keyboard-response","521","658886","0.0-1.0-719.0-0.0","0","0","71639","","null","","","null","79","","","","","","","","","","","","","","","",""
"","ITI","","html-keyboard-response","522","659903","0.0-1.0-720.0","0","0","71639","","null","","","null","79","","","","","","","","","","","","","","","NaN",""
"","S1","","html-keyboard-response","523","660070","0.0-1.0-722.0","0","0","71639","","null","","","null","80","","","","","","","","","","","","","","","",""
"","ISI","","html-keyboard-response","524","662090","0.0-1.0-723.0","0","0","71639","","null","","","null","80","NaN","","","","","","","","","","","","","","",""
"","S2","","html-keyboard-response","525","662248","0.0-1.0-724.0","0","0","71639","","null","","","null","80","","NaN","","","","","","","","","","","","","",""
"","response","","html-keyboard-response","526","662865","0.0-1.0-725.0-0.0","0","0","71639","","613","","","75","80","","","2","80","training","adjacent","DC","4","3","L.jpg","O.jpg","1","0","0","",""
"","feedback","","html-keyboard-response","527","663871","0.0-1.0-726.0-0.0","0","0","71639","","null","","","null","80","","","","","","","","","","","","","","","",""
"","time_out","","html-keyboard-response","528","665887","0.0-1.0-728.0-0.0","0","0","71639","","null","","","null","80","","","","","","","","","","","","","","","",""
"","ITI","","html-keyboard-response","529","666903","0.0-1.0-729.0","0","0","71639","","null","","","null","80","","","","","","","","","","","","","","","NaN",""
"","S1","","html-keyboard-response","530","667063","0.0-1.0-731.0","0","0","71639","","null","","","null","81","","","","","","","","","","","","","","","",""
"","ISI","","html-keyboard-response","531","669075","0.0-1.0-732.0","0","0","71639","","null","","","null","81","NaN","","","","","","","","","","","","","","",""
"","S2","","html-keyboard-response","532","669231","0.0-1.0-733.0","0","0","71639","","null","","","null","81","","NaN","","","","","","","","","","","","","",""
"","response","","html-keyboard-response","533","670450","0.0-1.0-734.0-0.0","0","0","71639","","1214","","","68","81","","","2","81","training","adjacent","DC","4","3","L.jpg","O.jpg","0","0","1","",""
"","feedback","","html-keyboard-response","534","671468","0.0-1.0-735.0-0.0","0","0","71639","","null","","","null","81","","","","","","","","","","","","","","","",""
"","ITI","","html-keyboard-response","535","672480","0.0-1.0-738.0","0","0","71639","","null","","","null","81","","","","","","","","","","","","","","","NaN",""
"","S1","","html-keyboard-response","536","672652","0.0-1.0-740.0","0","0","71639","","null","","","null","82","","","","","","","","","","","","","","","",""
"","ISI","","html-keyboard-response","537","674674","0.0-1.0-741.0","0","0","71639","","null","","","null","82","NaN","","","","","","","","","","","","","","",""
"","S2","","html-keyboard-response","538","674838","0.0-1.0-742.0","0","0","71639","","null","","","null","82","","NaN","","","","","","","","","","","","","",""
"","response","","html-keyboard-response","539","675126","0.0-1.0-743.0-0.0","0","0","71639","","283","","","75","82","","","2","82","training","adjacent","ED","5","4","R.jpg","L.jpg","1","0","0","",""
"","feedback","","html-keyboard-response","540","676140","0.0-1.0-744.0-0.0","0","0","71639","","null","","","null","82","","","","","","","","","","","","","","","",""
"","time_out","","html-keyboard-response","541","678161","0.0-1.0-746.0-0.0","0","0","71639","","null","","","null","82","","","","","","","","","","","","","","","",""
"","ITI","","html-keyboard-response","542","679179","0.0-1.0-747.0","0","0","71639","","null","","","null","82","","","","","","","","","","","","","","","NaN",""
"","S1","","html-keyboard-response","543","679344","0.0-1.0-749.0","0","0","71639","","null","","","null","83","","","","","","","","","","","","","","","",""
"","ISI","","html-keyboard-response","544","681361","0.0-1.0-750.0","0","0","71639","","null","","","null","83","NaN","","","","","","","","","","","","","","",""
"","S2","","html-keyboard-response","545","681518","0.0-1.0-751.0","0","0","71639","","null","","","null","83","","NaN","","","","","","","","","","","","","",""
"","response","","html-keyboard-response","546","682627","0.0-1.0-752.0-0.0","0","0","71639","","1106","","","68","83","","","2","83","training","adjacent","BC","2","3","Q.jpg","O.jpg","0","1","0","",""
"","feedback","","html-keyboard-response","547","683641","0.0-1.0-753.0-0.0","0","0","71639","","null","","","null","83","","","","","","","","","","","","","","","",""
"","time_out","","html-keyboard-response","548","685646","0.0-1.0-755.0-0.0","0","0","71639","","null","","","null","83","","","","","","","","","","","","","","","",""
"","ITI","","html-keyboard-response","549","686658","0.0-1.0-756.0","0","0","71639","","null","","","null","83","","","","","","","","","","","","","","","NaN",""
"","S1","","html-keyboard-response","550","686831","0.0-1.0-758.0","0","0","71639","","null","","","null","84","","","","","","","","","","","","","","","",""
"","ISI","","html-keyboard-response","551","688841","0.0-1.0-759.0","0","0","71639","","null","","","null","84","NaN","","","","","","","","","","","","","","",""
"","S2","","html-keyboard-response","552","689039","0.0-1.0-760.0","0","0","71639","","null","","","null","84","","NaN","","","","","","","","","","","","","",""
"","response","","html-keyboard-response","553","689415","0.0-1.0-761.0-0.0","0","0","71639","","372","","","75","84","","","2","84","training","adjacent","DE","4","5","L.jpg","R.jpg","1","1","1","",""
"","feedback","","html-keyboard-response","554","690426","0.0-1.0-762.0-0.0","0","0","71639","","null","","","null","84","","","","","","","","","","","","","","","",""
"","ITI","","html-keyboard-response","555","691447","0.0-1.0-765.0","0","0","71639","","null","","","null","84","","","","","","","","","","","","","","","NaN",""
"","S1","","html-keyboard-response","556","691610","0.0-1.0-767.0","0","0","71639","","null","","","null","85","","","","","","","","","","","","","","","",""
"","ISI","","html-keyboard-response","557","693627","0.0-1.0-768.0","0","0","71639","","null","","","null","85","NaN","","","","","","","","","","","","","","",""
"","S2","","html-keyboard-response","558","693793","0.0-1.0-769.0","0","0","71639","","null","","","null","85","","NaN","","","","","","","","","","","","","",""
"","response","","html-keyboard-response","559","694035","0.0-1.0-770.0-0.0","0","0","71639","","238","","","75","85","","","2","85","training","adjacent","CB","3","2","O.jpg","Q.jpg","1","0","0","",""
"","feedback","","html-keyboard-response","560","695052","0.0-1.0-771.0-0.0","0","0","71639","","null","","","null","85","","","","","","","","","","","","","","","",""
"","time_out","","html-keyboard-response","561","697062","0.0-1.0-773.0-0.0","0","0","71639","","null","","","null","85","","","","","","","","","","","","","","","",""
"","ITI","","html-keyboard-response","562","698072","0.0-1.0-774.0","0","0","71639","","null","","","null","85","","","","","","","","","","","","","","","NaN",""
"","S1","","html-keyboard-response","563","698230","0.0-1.0-776.0","0","0","71639","","null","","","null","86","","","","","","","","","","","","","","","",""
"","ISI","","html-keyboard-response","564","700244","0.0-1.0-777.0","0","0","71639","","null","","","null","86","NaN","","","","","","","","","","","","","","",""
"","S2","","html-keyboard-response","565","700402","0.0-1.0-778.0","0","0","71639","","null","","","null","86","","NaN","","","","","","","","","","","","","",""
"","response","","html-keyboard-response","566","700792","0.0-1.0-779.0-0.0","0","0","71639","","384","","","75","86","","","2","86","training","adjacent","BC","2","3","Q.jpg","O.jpg","1","1","1","",""
"","feedback","","html-keyboard-response","567","701800","0.0-1.0-780.0-0.0","0","0","71639","","null","","","null","86","","","","","","","","","","","","","","","",""
"","ITI","","html-keyboard-response","568","702810","0.0-1.0-783.0","0","0","71639","","null","","","null","86","","","","","","","","","","","","","","","NaN",""
"","S1","","html-keyboard-response","569","702975","0.0-1.0-785.0","0","0","71639","","null","","","null","87","","","","","","","","","","","","","","","",""
"","ISI","","html-keyboard-response","570","704983","0.0-1.0-786.0","0","0","71639","","null","","","null","87","NaN","","","","","","","","","","","","","","",""
"","S2","","html-keyboard-response","571","705146","0.0-1.0-787.0","0","0","71639","","null","","","null","87","","NaN","","","","","","","","","","","","","",""
"","response","","html-keyboard-response","572","705841","0.0-1.0-788.0-0.0","0","0","71639","","689","","","75","87","","","2","87","training","adjacent","FE","6","5","P.jpg","R.jpg","1","0","0","",""
"","feedback","","html-keyboard-response","573","706853","0.0-1.0-789.0-0.0","0","0","71639","","null","","","null","87","","","","","","","","","","","","","","","",""
"","time_out","","html-keyboard-response","574","708871","0.0-1.0-791.0-0.0","0","0","71639","","null","","","null","87","","","","","","","","","","","","","","","",""
"","ITI","","html-keyboard-response","575","709880","0.0-1.0-792.0","0","0","71639","","null","","","null","87","","","","","","","","","","","","","","","NaN",""
"","S1","","html-keyboard-response","576","710044","0.0-1.0-794.0","0","0","71639","","null","","","null","88","","","","","","","","","","","","","","","",""
"","ISI","","html-keyboard-response","577","712055","0.0-1.0-795.0","0","0","71639","","null","","","null","88","NaN","","","","","","","","","","","","","","",""
"","S2","","html-keyboard-response","578","712214","0.0-1.0-796.0","0","0","71639","","null","","","null","88","","NaN","","","","","","","","","","","","","",""
"","response","","html-keyboard-response","579","712833","0.0-1.0-797.0-0.0","0","0","71639","","613","","","68","88","","","2","88","training","adjacent","CB","3","2","O.jpg","Q.jpg","0","0","1","",""
"","feedback","","html-keyboard-response","580","713841","0.0-1.0-798.0-0.0","0","0","71639","","null","","","null","88","","","","","","","","","","","","","","","",""
