"success","ttype","start_time","trial_type","trial_index","time_elapsed","internal_node_id","warning","missed_checkup","PID","view_history","rt","responses","repeat_instructions","key_press","index","keypress_isi","keypress_S2","block","trial_num","phase","group_type","pair_type","S1_stim","S2_stim","S1_img","S2_img","S1_chosen","S1_higher","accuracy","keypress_iti","total_bonus_tally"
"true","full_screen","d08042022hr2011","fullscreen","0","12311","0.0-0.0","0","0","55871","","","","","","","","","","","","","","","","","","","","","",""
"","instructions","","instructions","1","72743","0.0-1.0-0.0-0.0","0","0","55871","[{""page_index"":0,""viewing_time"":3810},{""page_index"":1,""viewing_time"":8484},{""page_index"":2,""viewing_time"":46578},{""page_index"":3,""viewing_time"":1558}]","60430","","","","","","","","","","","","","","","","","","","",""
"","comprehension_check","","survey-multi-choice","2","99171","0.0-1.0-0.0-1.0","0","0","55871","","26424","{""Q0"":""True"",""Q1"":""K"",""Q2"":""Once the second image appears and while the screen 'MAKE A CHOICE' is shown"",""Q3"":""Green mark"",""Q4"":""either D or K""}","0","","","","","","","","","","","","","","","","","",""
"","start_exp","","html-keyboard-response","3","101221","0.0-1.0-1.0","0","0","55871","","2047","","","32","","","","","","","","","","","","","","","","",""
"","S1","","html-keyboard-response","4","101474","0.0-1.0-2.0","0","0","55871","","null","","","null","0","","","","","","","","","","","","","","","",""
"","ISI","","html-keyboard-response","5","103476","0.0-1.0-3.0","0","0","55871","","null","","","null","0","NaN","","","","","","","","","","","","","","",""
"","S2","","html-keyboard-response","6","103728","0.0-1.0-4.0","0","0","55871","","null","","","null","0","","NaN","","","","","","","","","","","","","",""
"","response","","html-keyboard-response","7","105178","0.0-1.0-5.0-0.0","0","0","55871","","1448","","","75","0","","","1","0","training","adjacent","EF","5","6","Q.jpg","R.jpg","1","1","1","",""
"","feedback","","html-keyboard-response","8","106180","0.0-1.0-6.0-0.0","0","0","55871","","null","","","null","0","","","","","","","","","","","","","","","",""
"","ITI","","html-keyboard-response","9","107183","0.0-1.0-9.0","0","0","55871","","null","","","null","0","","","","","","","","","","","","","","","NaN",""
"","S1","","html-keyboard-response","10","107435","0.0-1.0-11.0","0","0","55871","","null","","","null","1","","","","","","","","","","","","","","","",""
"","ISI","","html-keyboard-response","11","109436","0.0-1.0-12.0","0","0","55871","","null","","","null","1","NaN","","","","","","","","","","","","","","",""
"","S2","","html-keyboard-response","12","109689","0.0-1.0-13.0","0","0","55871","","null","","","null","1","","NaN","","","","","","","","","","","","","",""
"","response","","html-keyboard-response","13","110340","0.0-1.0-14.0-0.0","0","0","55871","","650","","","68","1","","","1","1","training","adjacent","EF","5","6","Q.jpg","R.jpg","0","1","0","",""
"","feedback","","html-keyboard-response","14","111342","0.0-1.0-15.0-0.0","0","0","55871","","null","","","null","1","","","","","","","","","","","","","","","",""
"","time_out","","html-keyboard-response","15","113344","0.0-1.0-17.0-0.0","0","0","55871","","null","","","null","1","","","","","","","","","","","","","","","",""
"","ITI","","html-keyboard-response","16","114347","0.0-1.0-18.0","0","0","55871","","null","","","null","1","","","","","","","","","","","","","","","NaN",""
"","S1","","html-keyboard-response","17","114599","0.0-1.0-20.0","0","0","55871","","null","","","null","2","","","","","","","","","","","","","","","",""
"","ISI","","html-keyboard-response","18","116601","0.0-1.0-21.0","0","0","55871","","null","","","null","2","NaN","","","","","","","","","","","","","","",""
"","S2","","html-keyboard-response","19","116853","0.0-1.0-22.0","0","0","55871","","null","","","null","2","","NaN","","","","","","","","","","","","","",""
"","response","","html-keyboard-response","20","117641","0.0-1.0-23.0-0.0","0","0","55871","","786","","","68","2","","","1","2","training","adjacent","BA","2","1","M.jpg","L.jpg","0","0","1","",""
"","feedback","","html-keyboard-response","21","118643","0.0-1.0-24.0-0.0","0","0","55871","","null","","","null","2","","","","","","","","","","","","","","","",""
"","ITI","","html-keyboard-response","22","119645","0.0-1.0-27.0","0","0","55871","","null","","","null","2","","","","","","","","","","","","","","","NaN",""
"","S1","","html-keyboard-response","23","119898","0.0-1.0-29.0","0","0","55871","","null","","","null","3","","","","","","","","","","","","","","","",""
"","ISI","","html-keyboard-response","24","121900","0.0-1.0-30.0","0","0","55871","","null","","","null","3","NaN","","","","","","","","","","","","","","",""
"","S2","","html-keyboard-response","25","122153","0.0-1.0-31.0","0","0","55871","","null","","","null","3","","NaN","","","","","","","","","","","","","",""
"","response","","html-keyboard-response","26","122653","0.0-1.0-32.0-0.0","0","0","55871","","499","","","75","3","","","1","3","training","adjacent","FE","6","5","R.jpg","Q.jpg","1","0","0","",""
"","feedback","","html-keyboard-response","27","123655","0.0-1.0-33.0-0.0","0","0","55871","","null","","","null","3","","","","","","","","","","","","","","","",""
"","time_out","","html-keyboard-response","28","125658","0.0-1.0-35.0-0.0","0","0","55871","","null","","","null","3","","","","","","","","","","","","","","","",""
"","ITI","","html-keyboard-response","29","126661","0.0-1.0-36.0","0","0","55871","","null","","","null","3","","","","","","","","","","","","","","","NaN",""
"","S1","","html-keyboard-response","30","126913","0.0-1.0-38.0","0","0","55871","","null","","","null","4","","","","","","","","","","","","","","","",""
"","ISI","","html-keyboard-response","31","128915","0.0-1.0-39.0","0","0","55871","","null","","","null","4","NaN","","","","","","","","","","","","","","",""
"","S2","","html-keyboard-response","32","129168","0.0-1.0-40.0","0","0","55871","","null","","","null","4","","NaN","","","","","","","","","","","","","",""
"","response","","html-keyboard-response","33","129730","0.0-1.0-41.0-0.0","0","0","55871","","561","","","68","4","","","1","4","training","adjacent","BC","2","3","M.jpg","P.jpg","0","1","0","",""
"","feedback","","html-keyboard-response","34","130734","0.0-1.0-42.0-0.0","0","0","55871","","null","","","null","4","","","","","","","","","","","","","","","",""
"","time_out","","html-keyboard-response","35","132737","0.0-1.0-44.0-0.0","0","0","55871","","null","","","null","4","","","","","","","","","","","","","","","",""
"","ITI","","html-keyboard-response","36","133740","0.0-1.0-45.0","0","0","55871","","null","","","null","4","","","","","","","","","","","","","","","NaN",""
"","S1","","html-keyboard-response","37","133992","0.0-1.0-47.0","0","0","55871","","null","","","null","5","","","","","","","","","","","","","","","",""
"","ISI","","html-keyboard-response","38","135994","0.0-1.0-48.0","0","0","55871","","null","","","null","5","NaN","","","","","","","","","","","","","","",""
"","S2","","html-keyboard-response","39","136246","0.0-1.0-49.0","0","0","55871","","null","","","null","5","","NaN","","","","","","","","","","","","","",""
"","response","","html-keyboard-response","40","137999","0.0-1.0-50.0-0.0","0","0","55871","","null","","","null","5","","","1","5","training","adjacent","BA","2","1","M.jpg","L.jpg","NaN","0","0","",""
"","too_slow_prompt","","html-keyboard-response","41","139001","0.0-1.0-52.0-0.0","1","0","55871","","null","","","null","","","","","","","","","","","","","","","","",""
"","time_out","","html-keyboard-response","42","141004","0.0-1.0-53.0-0.0","0","0","55871","","null","","","null","5","","","","","","","","","","","","","","","",""
"","ITI","","html-keyboard-response","43","142005","0.0-1.0-54.0","0","0","55871","","null","","","null","5","","","","","","","","","","","","","","","NaN",""
"","S1","","html-keyboard-response","44","142258","0.0-1.0-56.0","0","0","55871","","null","","","null","6","","","","","","","","","","","","","","","",""
"","ISI","","html-keyboard-response","45","144259","0.0-1.0-57.0","0","0","55871","","null","","","null","6","NaN","","","","","","","","","","","","","","",""
"","S2","","html-keyboard-response","46","144512","0.0-1.0-58.0","0","0","55871","","null","","","null","6","","NaN","","","","","","","","","","","","","",""
"","response","","html-keyboard-response","47","144960","0.0-1.0-59.0-0.0","0","0","55871","","446","","","68","6","","","1","6","training","adjacent","FG","6","7","R.jpg","N.jpg","0","1","0","",""
"","feedback","","html-keyboard-response","48","145962","0.0-1.0-60.0-0.0","0","0","55871","","null","","","null","6","","","","","","","","","","","","","","","",""
"","time_out","","html-keyboard-response","49","147965","0.0-1.0-62.0-0.0","0","0","55871","","null","","","null","6","","","","","","","","","","","","","","","",""
"","ITI","","html-keyboard-response","50","148967","0.0-1.0-63.0","0","0","55871","","null","","","null","6","","","","","","","","","","","","","","","NaN",""
"","S1","","html-keyboard-response","51","149220","0.0-1.0-65.0","0","0","55871","","null","","","null","7","","","","","","","","","","","","","","","",""
"","ISI","","html-keyboard-response","52","151223","0.0-1.0-66.0","0","0","55871","","null","","","null","7","NaN","","","","","","","","","","","","","","",""
"","S2","","html-keyboard-response","53","151475","0.0-1.0-67.0","0","0","55871","","null","","","null","7","","NaN","","","","","","","","","","","","","",""
"","response","","html-keyboard-response","54","152226","0.0-1.0-68.0-0.0","0","0","55871","","750","","","75","7","","","1","7","training","adjacent","FE","6","5","R.jpg","Q.jpg","1","0","0","",""
"","feedback","","html-keyboard-response","55","153228","0.0-1.0-69.0-0.0","0","0","55871","","null","","","null","7","","","","","","","","","","","","","","","",""
"","time_out","","html-keyboard-response","56","155230","0.0-1.0-71.0-0.0","0","0","55871","","null","","","null","7","","","","","","","","","","","","","","","",""
"","ITI","","html-keyboard-response","57","156233","0.0-1.0-72.0","0","0","55871","","null","","","null","7","","","","","","","","","","","","","","","NaN",""
"","S1","","html-keyboard-response","58","156485","0.0-1.0-74.0","0","0","55871","","null","","","null","8","","","","","","","","","","","","","","","",""
"","ISI","","html-keyboard-response","59","158487","0.0-1.0-75.0","0","0","55871","","null","","","null","8","NaN","","","","","","","","","","","","","","",""
"","S2","","html-keyboard-response","60","158739","0.0-1.0-76.0","0","0","55871","","null","","","null","8","","NaN","","","","","","","","","","","","","",""
"","response","","html-keyboard-response","61","159387","0.0-1.0-77.0-0.0","0","0","55871","","646","","","68","8","","","1","8","training","adjacent","DE","4","5","O.jpg","Q.jpg","0","1","0","",""
"","feedback","","html-keyboard-response","62","160390","0.0-1.0-78.0-0.0","0","0","55871","","null","","","null","8","","","","","","","","","","","","","","","",""
"","time_out","","html-keyboard-response","63","162393","0.0-1.0-80.0-0.0","0","0","55871","","null","","","null","8","","","","","","","","","","","","","","","",""
"","ITI","","html-keyboard-response","64","163395","0.0-1.0-81.0","0","0","55871","","null","","","null","8","","","","","","","","","","","","","","","NaN",""
"","S1","","html-keyboard-response","65","163647","0.0-1.0-83.0","0","0","55871","","null","","","null","9","","","","","","","","","","","","","","","",""
"","ISI","","html-keyboard-response","66","165649","0.0-1.0-84.0","0","0","55871","","null","","","null","9","NaN","","","","","","","","","","","","","","",""
"","S2","","html-keyboard-response","67","165901","0.0-1.0-85.0","0","0","55871","","null","","","null","9","","NaN","","","","","","","","","","","","","",""
"","response","","html-keyboard-response","68","166346","0.0-1.0-86.0-0.0","0","0","55871","","443","","","75","9","","","1","9","training","adjacent","FG","6","7","R.jpg","N.jpg","1","1","1","",""
"","feedback","","html-keyboard-response","69","167350","0.0-1.0-87.0-0.0","0","0","55871","","null","","","null","9","","","","","","","","","","","","","","","",""
"","ITI","","html-keyboard-response","70","168352","0.0-1.0-90.0","0","0","55871","","null","","","null","9","","","","","","","","","","","","","","","NaN",""
"","S1","","html-keyboard-response","71","168605","0.0-1.0-92.0","0","0","55871","","null","","","null","10","","","","","","","","","","","","","","","",""
"","ISI","","html-keyboard-response","72","170607","0.0-1.0-93.0","0","0","55871","","null","","","null","10","NaN","","","","","","","","","","","","","","",""
"","S2","","html-keyboard-response","73","170860","0.0-1.0-94.0","0","0","55871","","null","","","null","10","","NaN","","","","","","","","","","","","","",""
"","response","","html-keyboard-response","74","171453","0.0-1.0-95.0-0.0","0","0","55871","","592","","","75","10","","","1","10","training","adjacent","GF","7","6","N.jpg","R.jpg","1","0","0","",""
"","feedback","","html-keyboard-response","75","172455","0.0-1.0-96.0-0.0","0","0","55871","","null","","","null","10","","","","","","","","","","","","","","","",""
"","time_out","","html-keyboard-response","76","174457","0.0-1.0-98.0-0.0","0","0","55871","","null","","","null","10","","","","","","","","","","","","","","","",""
"","ITI","","html-keyboard-response","77","175460","0.0-1.0-99.0","0","0","55871","","null","","","null","10","","","","","","","","","","","","","","","NaN",""
"","S1","","html-keyboard-response","78","175711","0.0-1.0-101.0","0","0","55871","","null","","","null","11","","","","","","","","","","","","","","","",""
"","ISI","","html-keyboard-response","79","177713","0.0-1.0-102.0","0","0","55871","","null","","","null","11","NaN","","","","","","","","","","","","","","",""
"","S2","","html-keyboard-response","80","177965","0.0-1.0-103.0","0","0","55871","","null","","","null","11","","NaN","","","","","","","","","","","","","",""
"","response","","html-keyboard-response","81","178461","0.0-1.0-104.0-0.0","0","0","55871","","493","","","68","11","","","1","11","training","adjacent","CD","3","4","P.jpg","O.jpg","0","1","0","",""
"","feedback","","html-keyboard-response","82","179463","0.0-1.0-105.0-0.0","0","0","55871","","null","","","null","11","","","","","","","","","","","","","","","",""
"","time_out","","html-keyboard-response","83","181465","0.0-1.0-107.0-0.0","0","0","55871","","null","","","null","11","","","","","","","","","","","","","","","",""
"","ITI","","html-keyboard-response","84","182467","0.0-1.0-108.0","0","0","55871","","null","","","null","11","","","","","","","","","","","","","","","NaN",""
"","S1","","html-keyboard-response","85","182719","0.0-1.0-110.0","0","0","55871","","null","","","null","12","","","","","","","","","","","","","","","",""
"","ISI","","html-keyboard-response","86","184722","0.0-1.0-111.0","0","0","55871","","null","","","null","12","NaN","","","","","","","","","","","","","","",""
"","S2","","html-keyboard-response","87","184974","0.0-1.0-112.0","0","0","55871","","null","","","null","12","","NaN","","","","","","","","","","","","","",""
"","response","","html-keyboard-response","88","185155","0.0-1.0-113.0-0.0","0","0","55871","","180","","","75","12","","","1","12","training","adjacent","AB","1","2","L.jpg","M.jpg","1","1","1","",""
"","feedback","","html-keyboard-response","89","186158","0.0-1.0-114.0-0.0","0","0","55871","","null","","","null","12","","","","","","","","","","","","","","","",""
"","ITI","","html-keyboard-response","90","187160","0.0-1.0-117.0","0","0","55871","","null","","","null","12","","","","","","","","","","","","","","","NaN",""
"","S1","","html-keyboard-response","91","187413","0.0-1.0-119.0","0","0","55871","","null","","","null","13","","","","","","","","","","","","","","","",""
"","ISI","","html-keyboard-response","92","189415","0.0-1.0-120.0","0","0","55871","","null","","","null","13","NaN","","","","","","","","","","","","","","",""
"","S2","","html-keyboard-response","93","189667","0.0-1.0-121.0","0","0","55871","","null","","","null","13","","NaN","","","","","","","","","","","","","",""
"","response","","html-keyboard-response","94","190005","0.0-1.0-122.0-0.0","0","0","55871","","336","","","75","13","","","1","13","training","adjacent","DE","4","5","O.jpg","Q.jpg","1","1","1","",""
"","feedback","","html-keyboard-response","95","191007","0.0-1.0-123.0-0.0","0","0","55871","","null","","","null","13","","","","","","","","","","","","","","","",""
"","ITI","","html-keyboard-response","96","192009","0.0-1.0-126.0","0","0","55871","","null","","","null","13","","","","","","","","","","","","","","","NaN",""
"","S1","","html-keyboard-response","97","192261","0.0-1.0-128.0","0","0","55871","","null","","","null","14","","","","","","","","","","","","","","","",""
"","ISI","","html-keyboard-response","98","194263","0.0-1.0-129.0","0","0","55871","","null","","","null","14","NaN","","","","","","","","","","","","","","",""
"","S2","","html-keyboard-response","99","194516","0.0-1.0-130.0","0","0","55871","","null","","","null","14","","NaN","","","","","","","","","","","","","",""
"","response","","html-keyboard-response","100","194801","0.0-1.0-131.0-0.0","0","0","55871","","284","","","75","14","","","1","14","training","adjacent","AB","1","2","L.jpg","M.jpg","1","1","1","",""
"","feedback","","html-keyboard-response","101","195803","0.0-1.0-132.0-0.0","0","0","55871","","null","","","null","14","","","","","","","","","","","","","","","",""
"","ITI","","html-keyboard-response","102","196805","0.0-1.0-135.0","0","0","55871","","null","","","null","14","","","","","","","","","","","","","","","NaN",""
"","S1","","html-keyboard-response","103","197058","0.0-1.0-137.0","0","0","55871","","null","","","null","15","","","","","","","","","","","","","","","",""
"","ISI","","html-keyboard-response","104","199060","0.0-1.0-138.0","0","0","55871","","null","","","null","15","NaN","","","","","","","","","","","","","","",""
"","S2","","html-keyboard-response","105","199313","0.0-1.0-139.0","0","0","55871","","null","","","null","15","","NaN","","","","","","","","","","","","","",""
"","response","","html-keyboard-response","106","200443","0.0-1.0-140.0-0.0","0","0","55871","","1129","","","75","15","","","1","15","training","adjacent","CB","3","2","P.jpg","M.jpg","1","0","0","",""
"","feedback","","html-keyboard-response","107","201445","0.0-1.0-141.0-0.0","0","0","55871","","null","","","null","15","","","","","","","","","","","","","","","",""
"","time_out","","html-keyboard-response","108","203447","0.0-1.0-143.0-0.0","0","0","55871","","null","","","null","15","","","","","","","","","","","","","","","",""
"","ITI","","html-keyboard-response","109","204448","0.0-1.0-144.0","0","0","55871","","null","","","null","15","","","","","","","","","","","","","","","NaN",""
"","S1","","html-keyboard-response","110","204701","0.0-1.0-146.0","0","0","55871","","null","","","null","16","","","","","","","","","","","","","","","",""
"","ISI","","html-keyboard-response","111","206703","0.0-1.0-147.0","0","0","55871","","null","","","null","16","NaN","","","","","","","","","","","","","","",""
"","S2","","html-keyboard-response","112","206955","0.0-1.0-148.0","0","0","55871","","null","","","null","16","","NaN","","","","","","","","","","","","","",""
"","response","","html-keyboard-response","113","207784","0.0-1.0-149.0-0.0","0","0","55871","","828","","","68","16","","","1","16","training","adjacent","GF","7","6","N.jpg","R.jpg","0","0","1","",""
"","feedback","","html-keyboard-response","114","208786","0.0-1.0-150.0-0.0","0","0","55871","","null","","","null","16","","","","","","","","","","","","","","","",""
"","ITI","","html-keyboard-response","115","209788","0.0-1.0-153.0","0","0","55871","","null","","","null","16","","","","","","","","","","","","","","","NaN",""
"","S1","","html-keyboard-response","116","210041","0.0-1.0-155.0","0","0","55871","","null","","","null","17","","","","","","","","","","","","","","","",""
"","ISI","","html-keyboard-response","117","212042","0.0-1.0-156.0","0","0","55871","","null","","","null","17","NaN","","","","","","","","","","","","","","",""
"","S2","","html-keyboard-response","118","212295","0.0-1.0-157.0","0","0","55871","","null","","","null","17","","NaN","","","","","","","","","","","","","",""
"","response","","html-keyboard-response","119","212638","0.0-1.0-158.0-0.0","0","0","55871","","341","","","75","17","","","1","17","training","adjacent","AB","1","2","L.jpg","M.jpg","1","1","1","",""
"","feedback","","html-keyboard-response","120","213640","0.0-1.0-159.0-0.0","0","0","55871","","null","","","null","17","","","","","","","","","","","","","","","",""
"","ITI","","html-keyboard-response","121","214642","0.0-1.0-162.0","0","0","55871","","null","","","null","17","","","","","","","","","","","","","","","NaN",""
"","S1","","html-keyboard-response","122","214896","0.0-1.0-164.0","0","0","55871","","null","","","null","18","","","","","","","","","","","","","","","",""
"","ISI","","html-keyboard-response","123","216899","0.0-1.0-165.0","0","0","55871","","null","","","null","18","NaN","","","","","","","","","","","","","","",""
"","S2","","html-keyboard-response","124","217151","0.0-1.0-166.0","0","0","55871","","null","","","null","18","","NaN","","","","","","","","","","","","","",""
"","response","","html-keyboard-response","125","217875","0.0-1.0-167.0-0.0","0","0","55871","","723","","","75","18","","","1","18","training","adjacent","AB","1","2","L.jpg","M.jpg","1","1","1","",""
"","feedback","","html-keyboard-response","126","218878","0.0-1.0-168.0-0.0","0","0","55871","","null","","","null","18","","","","","","","","","","","","","","","",""
"","ITI","","html-keyboard-response","127","219881","0.0-1.0-171.0","0","0","55871","","null","","","null","18","","","","","","","","","","","","","","","NaN",""
"","S1","","html-keyboard-response","128","220133","0.0-1.0-173.0","0","0","55871","","null","","","null","19","","","","","","","","","","","","","","","",""
"","ISI","","html-keyboard-response","129","222135","0.0-1.0-174.0","0","0","55871","","null","","","null","19","NaN","","","","","","","","","","","","","","",""
"","S2","","html-keyboard-response","130","222387","0.0-1.0-175.0","0","0","55871","","null","","","null","19","","NaN","","","","","","","","","","","","","",""
"","response","","html-keyboard-response","131","223077","0.0-1.0-176.0-0.0","0","0","55871","","688","","","68","19","","","1","19","training","adjacent","FE","6","5","R.jpg","Q.jpg","0","0","1","",""
"","feedback","","html-keyboard-response","132","224079","0.0-1.0-177.0-0.0","0","0","55871","","null","","","null","19","","","","","","","","","","","","","","","",""
"","ITI","","html-keyboard-response","133","225082","0.0-1.0-180.0","0","0","55871","","null","","","null","19","","","","","","","","","","","","","","","NaN",""
"","S1","","html-keyboard-response","134","225335","0.0-1.0-182.0","0","0","55871","","null","","","null","20","","","","","","","","","","","","","","","",""
"","ISI","","html-keyboard-response","135","227337","0.0-1.0-183.0","0","0","55871","","null","","","null","20","NaN","","","","","","","","","","","","","","",""
"","S2","","html-keyboard-response","136","227589","0.0-1.0-184.0","0","0","55871","","null","","","null","20","","NaN","","","","","","","","","","","","","",""
"","response","","html-keyboard-response","137","228076","0.0-1.0-185.0-0.0","0","0","55871","","485","","","68","20","","","1","20","training","adjacent","ED","5","4","Q.jpg","O.jpg","0","0","1","",""
"","feedback","","html-keyboard-response","138","229079","0.0-1.0-186.0-0.0","0","0","55871","","null","","","null","20","","","","","","","","","","","","","","","",""
"","ITI","","html-keyboard-response","139","230080","0.0-1.0-189.0","0","0","55871","","null","","","null","20","","","","","","","","","","","","","","","NaN",""
"","S1","","html-keyboard-response","140","230333","0.0-1.0-191.0","0","0","55871","","null","","","null","21","","","","","","","","","","","","","","","",""
"","ISI","","html-keyboard-response","141","232335","0.0-1.0-192.0","0","0","55871","","null","","","null","21","NaN","","","","","","","","","","","","","","",""
"","S2","","html-keyboard-response","142","232587","0.0-1.0-193.0","0","0","55871","","null","","","null","21","","NaN","","","","","","","","","","","","","",""
"","response","","html-keyboard-response","143","233372","0.0-1.0-194.0-0.0","0","0","55871","","784","","","68","21","","","1","21","training","adjacent","CD","3","4","P.jpg","O.jpg","0","1","0","",""
"","feedback","","html-keyboard-response","144","234375","0.0-1.0-195.0-0.0","0","0","55871","","null","","","null","21","","","","","","","","","","","","","","","",""
"","time_out","","html-keyboard-response","145","236378","0.0-1.0-197.0-0.0","0","0","55871","","null","","","null","21","","","","","","","","","","","","","","","",""
"","ITI","","html-keyboard-response","146","237380","0.0-1.0-198.0","0","0","55871","","null","","","null","21","","","","","","","","","","","","","","","NaN",""
"","S1","","html-keyboard-response","147","237633","0.0-1.0-200.0","0","0","55871","","null","","","null","22","","","","","","","","","","","","","","","",""
"","ISI","","html-keyboard-response","148","239636","0.0-1.0-201.0","0","0","55871","","null","","","null","22","NaN","","","","","","","","","","","","","","",""
"","S2","","html-keyboard-response","149","239888","0.0-1.0-202.0","0","0","55871","","null","","","null","22","","NaN","","","","","","","","","","","","","",""
"","response","","html-keyboard-response","150","240430","0.0-1.0-203.0-0.0","0","0","55871","","541","","","75","22","","","1","22","training","adjacent","DC","4","3","O.jpg","P.jpg","1","0","0","",""
"","feedback","","html-keyboard-response","151","241432","0.0-1.0-204.0-0.0","0","0","55871","","null","","","null","22","","","","","","","","","","","","","","","",""
"","time_out","","html-keyboard-response","152","243435","0.0-1.0-206.0-0.0","0","0","55871","","null","","","null","22","","","","","","","","","","","","","","","",""
"","ITI","","html-keyboard-response","153","244437","0.0-1.0-207.0","0","0","55871","","null","","","null","22","","","","","","","","","","","","","","","NaN",""
"","S1","","html-keyboard-response","154","244689","0.0-1.0-209.0","0","0","55871","","null","","","null","23","","","","","","","","","","","","","","","",""
"","ISI","","html-keyboard-response","155","246691","0.0-1.0-210.0","0","0","55871","","null","","","null","23","NaN","","","","","","","","","","","","","","",""
"","S2","","html-keyboard-response","156","246944","0.0-1.0-211.0","0","0","55871","","null","","","null","23","","NaN","","","","","","","","","","","","","",""
"","response","","html-keyboard-response","157","247334","0.0-1.0-212.0-0.0","0","0","55871","","389","","","75","23","","","1","23","training","adjacent","BA","2","1","M.jpg","L.jpg","1","0","0","",""
"","feedback","","html-keyboard-response","158","248337","0.0-1.0-213.0-0.0","0","0","55871","","null","","","null","23","","","","","","","","","","","","","","","",""
"","time_out","","html-keyboard-response","159","250339","0.0-1.0-215.0-0.0","0","0","55871","","null","","","null","23","","","","","","","","","","","","","","","",""
"","ITI","","html-keyboard-response","160","251341","0.0-1.0-216.0","0","0","55871","","null","","","null","23","","","","","","","","","","","","","","","NaN",""
"","S1","","html-keyboard-response","161","251594","0.0-1.0-218.0","0","0","55871","","null","","","null","24","","","","","","","","","","","","","","","",""
"","ISI","","html-keyboard-response","162","253597","0.0-1.0-219.0","0","0","55871","","null","","","null","24","NaN","","","","","","","","","","","","","","",""
"","S2","","html-keyboard-response","163","253849","0.0-1.0-220.0","0","0","55871","","null","","","null","24","","NaN","","","","","","","","","","","","","",""
"","response","","html-keyboard-response","164","254503","0.0-1.0-221.0-0.0","0","0","55871","","652","","","68","24","","","1","24","training","adjacent","CB","3","2","P.jpg","M.jpg","0","0","1","",""
"","feedback","","html-keyboard-response","165","255505","0.0-1.0-222.0-0.0","0","0","55871","","null","","","null","24","","","","","","","","","","","","","","","",""
"","ITI","","html-keyboard-response","166","256507","0.0-1.0-225.0","0","0","55871","","null","","","null","24","","","","","","","","","","","","","","","NaN",""
"","S1","","html-keyboard-response","167","256759","0.0-1.0-227.0","0","0","55871","","null","","","null","25","","","","","","","","","","","","","","","",""
"","ISI","","html-keyboard-response","168","258761","0.0-1.0-228.0","0","0","55871","","null","","","null","25","NaN","","","","","","","","","","","","","","",""
"","S2","","html-keyboard-response","169","259014","0.0-1.0-229.0","0","0","55871","","null","","","null","25","","NaN","","","","","","","","","","","","","",""
"","response","","html-keyboard-response","170","259647","0.0-1.0-230.0-0.0","0","0","55871","","632","","","75","25","","","1","25","training","adjacent","CB","3","2","P.jpg","M.jpg","1","0","0","",""
"","feedback","","html-keyboard-response","171","260650","0.0-1.0-231.0-0.0","0","0","55871","","null","","","null","25","","","","","","","","","","","","","","","",""
"","time_out","","html-keyboard-response","172","262652","0.0-1.0-233.0-0.0","0","0","55871","","null","","","null","25","","","","","","","","","","","","","","","",""
"","ITI","","html-keyboard-response","173","263654","0.0-1.0-234.0","0","0","55871","","null","","","null","25","","","","","","","","","","","","","","","NaN",""
"","S1","","html-keyboard-response","174","263906","0.0-1.0-236.0","0","0","55871","","null","","","null","26","","","","","","","","","","","","","","","",""
"","ISI","","html-keyboard-response","175","265907","0.0-1.0-237.0","0","0","55871","","null","","","null","26","NaN","","","","","","","","","","","","","","",""
"","S2","","html-keyboard-response","176","266159","0.0-1.0-238.0","0","0","55871","","null","","","null","26","","NaN","","","","","","","","","","","","","",""
"","response","","html-keyboard-response","177","266459","0.0-1.0-239.0-0.0","0","0","55871","","299","","","75","26","","","1","26","training","adjacent","EF","5","6","Q.jpg","R.jpg","1","1","1","",""
"","feedback","","html-keyboard-response","178","267462","0.0-1.0-240.0-0.0","0","0","55871","","null","","","null","26","","","","","","","","","","","","","","","",""
"","ITI","","html-keyboard-response","179","268464","0.0-1.0-243.0","0","0","55871","","null","","","null","26","","","","","","","","","","","","","","","NaN",""
"","S1","","html-keyboard-response","180","268716","0.0-1.0-245.0","0","0","55871","","null","","","null","27","","","","","","","","","","","","","","","",""
"","ISI","","html-keyboard-response","181","270718","0.0-1.0-246.0","0","0","55871","","null","","","null","27","NaN","","","","","","","","","","","","","","",""
"","S2","","html-keyboard-response","182","270970","0.0-1.0-247.0","0","0","55871","","null","","","null","27","","NaN","","","","","","","","","","","","","",""
"","response","","html-keyboard-response","183","271445","0.0-1.0-248.0-0.0","0","0","55871","","473","","","75","27","","","1","27","training","adjacent","ED","5","4","Q.jpg","O.jpg","1","0","0","",""
"","feedback","","html-keyboard-response","184","272447","0.0-1.0-249.0-0.0","0","0","55871","","null","","","null","27","","","","","","","","","","","","","","","",""
"","time_out","","html-keyboard-response","185","274449","0.0-1.0-251.0-0.0","0","0","55871","","null","","","null","27","","","","","","","","","","","","","","","",""
"","ITI","","html-keyboard-response","186","275451","0.0-1.0-252.0","0","0","55871","","null","","","null","27","","","","","","","","","","","","","","","NaN",""
"","S1","","html-keyboard-response","187","275704","0.0-1.0-254.0","0","0","55871","","null","","","null","28","","","","","","","","","","","","","","","",""
"","ISI","","html-keyboard-response","188","277706","0.0-1.0-255.0","0","0","55871","","null","","","null","28","NaN","","","","","","","","","","","","","","",""
"","S2","","html-keyboard-response","189","277959","0.0-1.0-256.0","0","0","55871","","null","","","null","28","","NaN","","","","","","","","","","","","","",""
"","response","","html-keyboard-response","190","278886","0.0-1.0-257.0-0.0","0","0","55871","","926","","","68","28","","","1","28","training","adjacent","DE","4","5","O.jpg","Q.jpg","0","1","0","",""
"","feedback","","html-keyboard-response","191","279888","0.0-1.0-258.0-0.0","0","0","55871","","null","","","null","28","","","","","","","","","","","","","","","",""
"","time_out","","html-keyboard-response","192","281890","0.0-1.0-260.0-0.0","0","0","55871","","null","","","null","28","","","","","","","","","","","","","","","",""
"","ITI","","html-keyboard-response","193","282893","0.0-1.0-261.0","0","0","55871","","null","","","null","28","","","","","","","","","","","","","","","NaN",""
"","S1","","html-keyboard-response","194","283146","0.0-1.0-263.0","0","0","55871","","null","","","null","29","","","","","","","","","","","","","","","",""
"","ISI","","html-keyboard-response","195","285148","0.0-1.0-264.0","0","0","55871","","null","","","null","29","NaN","","","","","","","","","","","","","","",""
"","S2","","html-keyboard-response","196","285400","0.0-1.0-265.0","0","0","55871","","null","","","null","29","","NaN","","","","","","","","","","","","","",""
"","response","","html-keyboard-response","197","286095","0.0-1.0-266.0-0.0","0","0","55871","","693","","","68","29","","","1","29","training","adjacent","GF","7","6","N.jpg","R.jpg","0","0","1","",""
"","feedback","","html-keyboard-response","198","287097","0.0-1.0-267.0-0.0","0","0","55871","","null","","","null","29","","","","","","","","","","","","","","","",""
"","ITI","","html-keyboard-response","199","288100","0.0-1.0-270.0","0","0","55871","","null","","","null","29","","","","","","","","","","","","","","","NaN",""
"","S1","","html-keyboard-response","200","288352","0.0-1.0-272.0","0","0","55871","","null","","","null","30","","","","","","","","","","","","","","","",""
"","ISI","","html-keyboard-response","201","290353","0.0-1.0-273.0","0","0","55871","","null","","","null","30","NaN","","","","","","","","","","","","","","",""
"","S2","","html-keyboard-response","202","290606","0.0-1.0-274.0","0","0","55871","","null","","","null","30","","NaN","","","","","","","","","","","","","",""
"","response","","html-keyboard-response","203","291430","0.0-1.0-275.0-0.0","0","0","55871","","823","","","68","30","","","1","30","training","adjacent","GF","7","6","N.jpg","R.jpg","0","0","1","",""
"","feedback","","html-keyboard-response","204","292432","0.0-1.0-276.0-0.0","0","0","55871","","null","","","null","30","","","","","","","","","","","","","","","",""
"","ITI","","html-keyboard-response","205","293435","0.0-1.0-279.0","0","0","55871","","null","","","null","30","","","","","","","","","","","","","","","NaN",""
"","S1","","html-keyboard-response","206","293687","0.0-1.0-281.0","0","0","55871","","null","","","null","31","","","","","","","","","","","","","","","",""
"","ISI","","html-keyboard-response","207","295688","0.0-1.0-282.0","0","0","55871","","null","","","null","31","NaN","","","","","","","","","","","","","","",""
"","S2","","html-keyboard-response","208","295941","0.0-1.0-283.0","0","0","55871","","null","","","null","31","","NaN","","","","","","","","","","","","","",""
"","response","","html-keyboard-response","209","296456","0.0-1.0-284.0-0.0","0","0","55871","","514","","","68","31","","","1","31","training","adjacent","ED","5","4","Q.jpg","O.jpg","0","0","1","",""
"","feedback","","html-keyboard-response","210","297459","0.0-1.0-285.0-0.0","0","0","55871","","null","","","null","31","","","","","","","","","","","","","","","",""
"","ITI","","html-keyboard-response","211","298462","0.0-1.0-288.0","0","0","55871","","null","","","null","31","","","","","","","","","","","","","","","NaN",""
"","S1","","html-keyboard-response","212","298714","0.0-1.0-290.0","0","0","55871","","null","","","null","32","","","","","","","","","","","","","","","",""
"","ISI","","html-keyboard-response","213","300716","0.0-1.0-291.0","0","0","55871","","null","","","null","32","NaN","","","","","","","","","","","","","","",""
"","S2","","html-keyboard-response","214","300969","0.0-1.0-292.0","0","0","55871","","null","","","null","32","","NaN","","","","","","","","","","","","","",""
"","response","","html-keyboard-response","215","301269","0.0-1.0-293.0-0.0","0","0","55871","","299","","","75","32","","","1","32","training","adjacent","DC","4","3","O.jpg","P.jpg","1","0","0","",""
"","feedback","","html-keyboard-response","216","302271","0.0-1.0-294.0-0.0","0","0","55871","","null","","","null","32","","","","","","","","","","","","","","","",""
"","time_out","","html-keyboard-response","217","304274","0.0-1.0-296.0-0.0","0","0","55871","","null","","","null","32","","","","","","","","","","","","","","","",""
"","ITI","","html-keyboard-response","218","305275","0.0-1.0-297.0","0","0","55871","","null","","","null","32","","","","","","","","","","","","","","","NaN",""
"","S1","","html-keyboard-response","219","305528","0.0-1.0-299.0","0","0","55871","","null","","","null","33","","","","","","","","","","","","","","","",""
"","ISI","","html-keyboard-response","220","307529","0.0-1.0-300.0","0","0","55871","","null","","","null","33","NaN","","","","","","","","","","","","","","",""
"","S2","","html-keyboard-response","221","307781","0.0-1.0-301.0","0","0","55871","","null","","","null","33","","NaN","","","","","","","","","","","","","",""
"","response","","html-keyboard-response","222","308315","0.0-1.0-302.0-0.0","0","0","55871","","533","","","68","33","","","1","33","training","adjacent","FG","6","7","R.jpg","N.jpg","0","1","0","",""
"","feedback","","html-keyboard-response","223","309318","0.0-1.0-303.0-0.0","0","0","55871","","null","","","null","33","","","","","","","","","","","","","","","",""
"","time_out","","html-keyboard-response","224","311321","0.0-1.0-305.0-0.0","0","0","55871","","null","","","null","33","","","","","","","","","","","","","","","",""
"","ITI","","html-keyboard-response","225","312323","0.0-1.0-306.0","0","0","55871","","null","","","null","33","","","","","","","","","","","","","","","NaN",""
"","S1","","html-keyboard-response","226","312575","0.0-1.0-308.0","0","0","55871","","null","","","null","34","","","","","","","","","","","","","","","",""
"","ISI","","html-keyboard-response","227","314577","0.0-1.0-309.0","0","0","55871","","null","","","null","34","NaN","","","","","","","","","","","","","","",""
"","S2","","html-keyboard-response","228","314830","0.0-1.0-310.0","0","0","55871","","null","","","null","34","","NaN","","","","","","","","","","","","","",""
"","response","","html-keyboard-response","229","315080","0.0-1.0-311.0-0.0","0","0","55871","","249","","","68","34","","","1","34","training","adjacent","BC","2","3","M.jpg","P.jpg","0","1","0","",""
"","feedback","","html-keyboard-response","230","316083","0.0-1.0-312.0-0.0","0","0","55871","","null","","","null","34","","","","","","","","","","","","","","","",""
"","time_out","","html-keyboard-response","231","318086","0.0-1.0-314.0-0.0","0","0","55871","","null","","","null","34","","","","","","","","","","","","","","","",""
"","ITI","","html-keyboard-response","232","319088","0.0-1.0-315.0","0","0","55871","","null","","","null","34","","","","","","","","","","","","","","","NaN",""
"","S1","","html-keyboard-response","233","319341","0.0-1.0-317.0","0","0","55871","","null","","","null","35","","","","","","","","","","","","","","","",""
"","ISI","","html-keyboard-response","234","321343","0.0-1.0-318.0","0","0","55871","","null","","","null","35","NaN","","","","","","","","","","","","","","",""
"","S2","","html-keyboard-response","235","321595","0.0-1.0-319.0","0","0","55871","","null","","","null","35","","NaN","","","","","","","","","","","","","",""
"","response","","html-keyboard-response","236","321706","0.0-1.0-320.0-0.0","0","0","55871","","110","","","75","35","","","1","35","training","adjacent","FG","6","7","R.jpg","N.jpg","1","1","1","",""
"","feedback","","html-keyboard-response","237","322708","0.0-1.0-321.0-0.0","0","0","55871","","null","","","null","35","","","","","","","","","","","","","","","",""
"","ITI","","html-keyboard-response","238","323711","0.0-1.0-324.0","0","0","55871","","null","","","null","35","","","","","","","","","","","","","","","NaN",""
"","S1","","html-keyboard-response","239","323963","0.0-1.0-326.0","0","0","55871","","null","","","null","36","","","","","","","","","","","","","","","",""
"","ISI","","html-keyboard-response","240","325966","0.0-1.0-327.0","0","0","55871","","null","","","null","36","NaN","","","","","","","","","","","","","","",""
"","S2","","html-keyboard-response","241","326218","0.0-1.0-328.0","0","0","55871","","null","","","null","36","","NaN","","","","","","","","","","","","","",""
"","response","","html-keyboard-response","242","326887","0.0-1.0-329.0-0.0","0","0","55871","","666","","","68","36","","","1","36","training","adjacent","BC","2","3","M.jpg","P.jpg","0","1","0","",""
"","feedback","","html-keyboard-response","243","327890","0.0-1.0-330.0-0.0","0","0","55871","","null","","","null","36","","","","","","","","","","","","","","","",""
"","time_out","","html-keyboard-response","244","329892","0.0-1.0-332.0-0.0","0","0","55871","","null","","","null","36","","","","","","","","","","","","","","","",""
"","ITI","","html-keyboard-response","245","330894","0.0-1.0-333.0","0","0","55871","","null","","","null","36","","","","","","","","","","","","","","","NaN",""
"","S1","","html-keyboard-response","246","331146","0.0-1.0-335.0","0","0","55871","","null","","","null","37","","","","","","","","","","","","","","","",""
"","ISI","","html-keyboard-response","247","333148","0.0-1.0-336.0","0","0","55871","","null","","","null","37","NaN","","","","","","","","","","","","","","",""
"","S2","","html-keyboard-response","248","333400","0.0-1.0-337.0","0","0","55871","","null","","","null","37","","NaN","","","","","","","","","","","","","",""
"","response","","html-keyboard-response","249","334205","0.0-1.0-338.0-0.0","0","0","55871","","803","","","68","37","","","1","37","training","adjacent","FE","6","5","R.jpg","Q.jpg","0","0","1","",""
"","feedback","","html-keyboard-response","250","335208","0.0-1.0-339.0-0.0","0","0","55871","","null","","","null","37","","","","","","","","","","","","","","","",""
"","ITI","","html-keyboard-response","251","336211","0.0-1.0-342.0","0","0","55871","","null","","","null","37","","","","","","","","","","","","","","","NaN",""
"","S1","","html-keyboard-response","252","336463","0.0-1.0-344.0","0","0","55871","","null","","","null","38","","","","","","","","","","","","","","","",""
"","ISI","","html-keyboard-response","253","338465","0.0-1.0-345.0","0","0","55871","","null","","","null","38","NaN","","","","","","","","","","","","","","",""
"","S2","","html-keyboard-response","254","338718","0.0-1.0-346.0","0","0","55871","","null","","","null","38","","NaN","","","","","","","","","","","","","",""
"","response","","html-keyboard-response","255","339084","0.0-1.0-347.0-0.0","0","0","55871","","365","","","75","38","","","1","38","training","adjacent","DC","4","3","O.jpg","P.jpg","1","0","0","",""
"","feedback","","html-keyboard-response","256","340086","0.0-1.0-348.0-0.0","0","0","55871","","null","","","null","38","","","","","","","","","","","","","","","",""
"","time_out","","html-keyboard-response","257","342088","0.0-1.0-350.0-0.0","0","0","55871","","null","","","null","38","","","","","","","","","","","","","","","",""
"","ITI","","html-keyboard-response","258","343091","0.0-1.0-351.0","0","0","55871","","null","","","null","38","","","","","","","","","","","","","","","NaN",""
"","S1","","html-keyboard-response","259","343343","0.0-1.0-353.0","0","0","55871","","null","","","null","39","","","","","","","","","","","","","","","",""
"","ISI","","html-keyboard-response","260","345345","0.0-1.0-354.0","0","0","55871","","null","","","null","39","NaN","","","","","","","","","","","","","","",""
"","S2","","html-keyboard-response","261","345597","0.0-1.0-355.0","0","0","55871","","null","","","null","39","","NaN","","","","","","","","","","","","","",""
"","response","","html-keyboard-response","262","346190","0.0-1.0-356.0-0.0","0","0","55871","","591","","","68","39","","","1","39","training","adjacent","BA","2","1","M.jpg","L.jpg","0","0","1","",""
"","feedback","","html-keyboard-response","263","347192","0.0-1.0-357.0-0.0","0","0","55871","","null","","","null","39","","","","","","","","","","","","","","","",""
"","ITI","","html-keyboard-response","264","348195","0.0-1.0-360.0","0","0","55871","","null","","","null","39","","","","","","","","","","","","","","","NaN",""
"","S1","","html-keyboard-response","265","348448","0.0-1.0-362.0","0","0","55871","","null","","","null","40","","","","","","","","","","","","","","","",""
"","ISI","","html-keyboard-response","266","350450","0.0-1.0-363.0","0","0","55871","","null","","","null","40","NaN","","","","","","","","","","","","","","",""
"","S2","","html-keyboard-response","267","350702","0.0-1.0-364.0","0","0","55871","","null","","","null","40","","NaN","","","","","","","","","","","","","",""
"","response","","html-keyboard-response","268","351696","0.0-1.0-365.0-0.0","0","0","55871","","993","","","68","40","","","1","40","training","adjacent","BC","2","3","M.jpg","P.jpg","0","1","0","",""
"","feedback","","html-keyboard-response","269","352699","0.0-1.0-366.0-0.0","0","0","55871","","null","","","null","40","","","","","","","","","","","","","","","",""
"","time_out","","html-keyboard-response","270","354701","0.0-1.0-368.0-0.0","0","0","55871","","null","","","null","40","","","","","","","","","","","","","","","",""
"","ITI","","html-keyboard-response","271","355703","0.0-1.0-369.0","0","0","55871","","null","","","null","40","","","","","","","","","","","","","","","NaN",""
"","S1","","html-keyboard-response","272","355955","0.0-1.0-371.0","0","0","55871","","null","","","null","41","","","","","","","","","","","","","","","",""
"","ISI","","html-keyboard-response","273","357956","0.0-1.0-372.0","0","0","55871","","null","","","null","41","NaN","","","","","","","","","","","","","","",""
"","S2","","html-keyboard-response","274","358209","0.0-1.0-373.0","0","0","55871","","null","","","null","41","","NaN","","","","","","","","","","","","","",""
"","response","","html-keyboard-response","275","358599","0.0-1.0-374.0-0.0","0","0","55871","","389","","","68","41","","","1","41","training","adjacent","ED","5","4","Q.jpg","O.jpg","0","0","1","",""
"","feedback","","html-keyboard-response","276","359602","0.0-1.0-375.0-0.0","0","0","55871","","null","","","null","41","","","","","","","","","","","","","","","",""
"","ITI","","html-keyboard-response","277","360603","0.0-1.0-378.0","0","0","55871","","null","","","null","41","","","","","","","","","","","","","","","NaN",""
"","S1","","html-keyboard-response","278","360856","0.0-1.0-380.0","0","0","55871","","null","","","null","42","","","","","","","","","","","","","","","",""
"","ISI","","html-keyboard-response","279","362858","0.0-1.0-381.0","0","0","55871","","null","","","null","42","NaN","","","","","","","","","","","","","","",""
"","S2","","html-keyboard-response","280","363110","0.0-1.0-382.0","0","0","55871","","null","","","null","42","","NaN","","","","","","","","","","","","","",""
"","response","","html-keyboard-response","281","363529","0.0-1.0-383.0-0.0","0","0","55871","","417","","","75","42","","","1","42","training","adjacent","CD","3","4","P.jpg","O.jpg","1","1","1","",""
"","feedback","","html-keyboard-response","282","364531","0.0-1.0-384.0-0.0","0","0","55871","","null","","","null","42","","","","","","","","","","","","","","","",""
"","ITI","","html-keyboard-response","283","365533","0.0-1.0-387.0","0","0","55871","","null","","","null","42","","","","","","","","","","","","","","","NaN",""
"","S1","","html-keyboard-response","284","365785","0.0-1.0-389.0","0","0","55871","","null","","","null","43","","","","","","","","","","","","","","","",""
"","ISI","","html-keyboard-response","285","367788","0.0-1.0-390.0","0","0","55871","","null","","","null","43","NaN","","","","","","","","","","","","","","",""
"","S2","","html-keyboard-response","286","368040","0.0-1.0-391.0","0","0","55871","","null","","","null","43","","NaN","","","","","","","","","","","","","",""
"","response","","html-keyboard-response","287","368649","0.0-1.0-392.0-0.0","0","0","55871","","608","","","75","43","","","1","43","training","adjacent","DC","4","3","O.jpg","P.jpg","1","0","0","",""
"","feedback","","html-keyboard-response","288","369651","0.0-1.0-393.0-0.0","0","0","55871","","null","","","null","43","","","","","","","","","","","","","","","",""
"","time_out","","html-keyboard-response","289","371654","0.0-1.0-395.0-0.0","0","0","55871","","null","","","null","43","","","","","","","","","","","","","","","",""
"","ITI","","html-keyboard-response","290","372656","0.0-1.0-396.0","0","0","55871","","null","","","null","43","","","","","","","","","","","","","","","NaN",""
"","S1","","html-keyboard-response","291","372908","0.0-1.0-398.0","0","0","55871","","null","","","null","44","","","","","","","","","","","","","","","",""
"","ISI","","html-keyboard-response","292","374911","0.0-1.0-399.0","0","0","55871","","null","","","null","44","NaN","","","","","","","","","","","","","","",""
"","S2","","html-keyboard-response","293","375163","0.0-1.0-400.0","0","0","55871","","null","","","null","44","","NaN","","","","","","","","","","","","","",""
"","response","","html-keyboard-response","294","376457","0.0-1.0-401.0-0.0","0","0","55871","","1292","","","75","44","","","1","44","training","adjacent","DE","4","5","O.jpg","Q.jpg","1","1","1","",""
"","feedback","","html-keyboard-response","295","377460","0.0-1.0-402.0-0.0","0","0","55871","","null","","","null","44","","","","","","","","","","","","","","","",""
"","ITI","","html-keyboard-response","296","378461","0.0-1.0-405.0","0","0","55871","","null","","","null","44","","","","","","","","","","","","","","","NaN",""
"","S1","","html-keyboard-response","297","378714","0.0-1.0-407.0","0","0","55871","","null","","","null","45","","","","","","","","","","","","","","","",""
"","ISI","","html-keyboard-response","298","380715","0.0-1.0-408.0","0","0","55871","","null","","","null","45","NaN","","","","","","","","","","","","","","",""
"","S2","","html-keyboard-response","299","380968","0.0-1.0-409.0","0","0","55871","","null","","","null","45","","NaN","","","","","","","","","","","","","",""
"","response","","html-keyboard-response","300","381742","0.0-1.0-410.0-0.0","0","0","55871","","772","","","68","45","","","1","45","training","adjacent","CD","3","4","P.jpg","O.jpg","0","1","0","",""
"","feedback","","html-keyboard-response","301","382744","0.0-1.0-411.0-0.0","0","0","55871","","null","","","null","45","","","","","","","","","","","","","","","",""
"","time_out","","html-keyboard-response","302","384747","0.0-1.0-413.0-0.0","0","0","55871","","null","","","null","45","","","","","","","","","","","","","","","",""
"","ITI","","html-keyboard-response","303","385749","0.0-1.0-414.0","0","0","55871","","null","","","null","45","","","","","","","","","","","","","","","NaN",""
"","S1","","html-keyboard-response","304","386001","0.0-1.0-416.0","0","0","55871","","null","","","null","46","","","","","","","","","","","","","","","",""
"","ISI","","html-keyboard-response","305","388004","0.0-1.0-417.0","0","0","55871","","null","","","null","46","NaN","","","","","","","","","","","","","","",""
"","S2","","html-keyboard-response","306","388256","0.0-1.0-418.0","0","0","55871","","null","","","null","46","","NaN","","","","","","","","","","","","","",""
"","response","","html-keyboard-response","307","388496","0.0-1.0-419.0-0.0","0","0","55871","","239","","","75","46","","","1","46","training","adjacent","CB","3","2","P.jpg","M.jpg","1","0","0","",""
"","feedback","","html-keyboard-response","308","389499","0.0-1.0-420.0-0.0","0","0","55871","","null","","","null","46","","","","","","","","","","","","","","","",""
"","time_out","","html-keyboard-response","309","391501","0.0-1.0-422.0-0.0","0","0","55871","","null","","","null","46","","","","","","","","","","","","","","","",""
"","ITI","","html-keyboard-response","310","392504","0.0-1.0-423.0","0","0","55871","","null","","","null","46","","","","","","","","","","","","","","","NaN",""
"","S1","","html-keyboard-response","311","392757","0.0-1.0-425.0","0","0","55871","","null","","","null","47","","","","","","","","","","","","","","","",""
"","ISI","","html-keyboard-response","312","394759","0.0-1.0-426.0","0","0","55871","","null","","","null","47","NaN","","","","","","","","","","","","","","",""
"","S2","","html-keyboard-response","313","395011","0.0-1.0-427.0","0","0","55871","","null","","","null","47","","NaN","","","","","","","","","","","","","",""
"","response","","html-keyboard-response","314","396445","0.0-1.0-428.0-0.0","0","0","55871","","1433","","","75","47","","","1","47","training","adjacent","EF","5","6","Q.jpg","R.jpg","1","1","1","",""
"","feedback","","html-keyboard-response","315","397447","0.0-1.0-429.0-0.0","0","0","55871","","null","","","null","47","","","","","","","","","","","","","","","",""
"","ITI","","html-keyboard-response","316","398450","0.0-1.0-432.0","0","0","55871","","null","","","null","47","","","","","","","","","","","","","","","NaN",""
"","block_over","","html-keyboard-response","317","407932","0.0-1.0-433.0-0.0","0","0","55871","","9480","","","32","47","","","","","","","","","","","","","","","",""
"","S1","","html-keyboard-response","318","408184","0.0-1.0-434.0","0","0","55871","","null","","","null","48","","","","","","","","","","","","","","","",""
"","ISI","","html-keyboard-response","319","410186","0.0-1.0-435.0","0","0","55871","","null","","","null","48","NaN","","","","","","","","","","","","","","",""
"","S2","","html-keyboard-response","320","410438","0.0-1.0-436.0","0","0","55871","","null","","","null","48","","NaN","","","","","","","","","","","","","",""
"","response","","html-keyboard-response","321","411353","0.0-1.0-437.0-0.0","0","0","55871","","912","","","68","48","","","2","48","training","adjacent","BC","2","3","M.jpg","P.jpg","0","1","0","",""
"","feedback","","html-keyboard-response","322","412354","0.0-1.0-438.0-0.0","0","0","55871","","null","","","null","48","","","","","","","","","","","","","","","",""
"","time_out","","html-keyboard-response","323","414357","0.0-1.0-440.0-0.0","0","0","55871","","null","","","null","48","","","","","","","","","","","","","","","",""
"","ITI","","html-keyboard-response","324","415359","0.0-1.0-441.0","0","0","55871","","null","","","null","48","","","","","","","","","","","","","","","NaN",""
"","S1","","html-keyboard-response","325","415611","0.0-1.0-443.0","0","0","55871","","null","","","null","49","","","","","","","","","","","","","","","",""
"","ISI","","html-keyboard-response","326","417614","0.0-1.0-444.0","0","0","55871","","null","","","null","49","NaN","","","","","","","","","","","","","","",""
"","S2","","html-keyboard-response","327","417866","0.0-1.0-445.0","0","0","55871","","null","","","null","49","","NaN","","","","","","","","","","","","","",""
"","response","","html-keyboard-response","328","418382","0.0-1.0-446.0-0.0","0","0","55871","","515","","","75","49","","","2","49","training","adjacent","FE","6","5","R.jpg","Q.jpg","1","0","0","",""
"","feedback","","html-keyboard-response","329","419385","0.0-1.0-447.0-0.0","0","0","55871","","null","","","null","49","","","","","","","","","","","","","","","",""
"","time_out","","html-keyboard-response","330","421386","0.0-1.0-449.0-0.0","0","0","55871","","null","","","null","49","","","","","","","","","","","","","","","",""
"","ITI","","html-keyboard-response","331","422388","0.0-1.0-450.0","0","0","55871","","null","","","null","49","","","","","","","","","","","","","","","NaN",""
"","S1","","html-keyboard-response","332","422641","0.0-1.0-452.0","0","0","55871","","null","","","null","50","","","","","","","","","","","","","","","",""
"","ISI","","html-keyboard-response","333","424644","0.0-1.0-453.0","0","0","55871","","null","","","null","50","NaN","","","","","","","","","","","","","","",""
"","S2","","html-keyboard-response","334","424896","0.0-1.0-454.0","0","0","55871","","null","","","null","50","","NaN","","","","","","","","","","","","","",""
"","response","","html-keyboard-response","335","425378","0.0-1.0-455.0-0.0","0","0","55871","","482","","","75","50","","","2","50","training","adjacent","CB","3","2","P.jpg","M.jpg","1","0","0","",""
"","feedback","","html-keyboard-response","336","426381","0.0-1.0-456.0-0.0","0","0","55871","","null","","","null","50","","","","","","","","","","","","","","","",""
"","time_out","","html-keyboard-response","337","428383","0.0-1.0-458.0-0.0","0","0","55871","","null","","","null","50","","","","","","","","","","","","","","","",""
"","ITI","","html-keyboard-response","338","429385","0.0-1.0-459.0","0","0","55871","","null","","","null","50","","","","","","","","","","","","","","","NaN",""
"","S1","","html-keyboard-response","339","429638","0.0-1.0-461.0","0","0","55871","","null","","","null","51","","","","","","","","","","","","","","","",""
"","ISI","","html-keyboard-response","340","431641","0.0-1.0-462.0","0","0","55871","","null","","","null","51","NaN","","","","","","","","","","","","","","",""
"","S2","","html-keyboard-response","341","431894","0.0-1.0-463.0","0","0","55871","","null","","","null","51","","NaN","","","","","","","","","","","","","",""
"","response","","html-keyboard-response","342","432269","0.0-1.0-464.0-0.0","0","0","55871","","374","","","68","51","","","2","51","training","adjacent","EF","5","6","Q.jpg","R.jpg","0","1","0","",""
"","feedback","","html-keyboard-response","343","433272","0.0-1.0-465.0-0.0","0","0","55871","","null","","","null","51","","","","","","","","","","","","","","","",""
"","time_out","","html-keyboard-response","344","435274","0.0-1.0-467.0-0.0","0","0","55871","","null","","","null","51","","","","","","","","","","","","","","","",""
"","ITI","","html-keyboard-response","345","436277","0.0-1.0-468.0","0","0","55871","","null","","","null","51","","","","","","","","","","","","","","","NaN",""
"","S1","","html-keyboard-response","346","436529","0.0-1.0-470.0","0","0","55871","","null","","","null","52","","","","","","","","","","","","","","","",""
"","ISI","","html-keyboard-response","347","438531","0.0-1.0-471.0","0","0","55871","","null","","","null","52","NaN","","","","","","","","","","","","","","",""
"","S2","","html-keyboard-response","348","438783","0.0-1.0-472.0","0","0","55871","","null","","","null","52","","NaN","","","","","","","","","","","","","",""
"","response","","html-keyboard-response","349","439173","0.0-1.0-473.0-0.0","0","0","55871","","387","","","75","52","","","2","52","training","adjacent","AB","1","2","L.jpg","M.jpg","1","1","1","",""
"","feedback","","html-keyboard-response","350","440175","0.0-1.0-474.0-0.0","0","0","55871","","null","","","null","52","","","","","","","","","","","","","","","",""
"","ITI","","html-keyboard-response","351","441177","0.0-1.0-477.0","0","0","55871","","null","","","null","52","","","","","","","","","","","","","","","NaN",""
"","S1","","html-keyboard-response","352","441429","0.0-1.0-479.0","0","0","55871","","null","","","null","53","","","","","","","","","","","","","","","",""
"","ISI","","html-keyboard-response","353","443431","0.0-1.0-480.0","0","0","55871","","null","","","null","53","NaN","","","","","","","","","","","","","","",""
"","S2","","html-keyboard-response","354","443684","0.0-1.0-481.0","0","0","55871","","null","","","null","53","","NaN","","","","","","","","","","","","","",""
"","response","","html-keyboard-response","355","444309","0.0-1.0-482.0-0.0","0","0","55871","","624","","","68","53","","","2","53","training","adjacent","GF","7","6","N.jpg","R.jpg","0","0","1","",""
"","feedback","","html-keyboard-response","356","445311","0.0-1.0-483.0-0.0","0","0","55871","","null","","","null","53","","","","","","","","","","","","","","","",""
"","ITI","","html-keyboard-response","357","446314","0.0-1.0-486.0","0","0","55871","","null","","","null","53","","","","","","","","","","","","","","","NaN",""
"","S1","","html-keyboard-response","358","446566","0.0-1.0-488.0","0","0","55871","","null","","","null","54","","","","","","","","","","","","","","","",""
"","ISI","","html-keyboard-response","359","448568","0.0-1.0-489.0","0","0","55871","","null","","","null","54","NaN","","","","","","","","","","","","","","",""
"","S2","","html-keyboard-response","360","448820","0.0-1.0-490.0","0","0","55871","","null","","","null","54","","NaN","","","","","","","","","","","","","",""
"","response","","html-keyboard-response","361","449254","0.0-1.0-491.0-0.0","0","0","55871","","433","","","68","54","","","2","54","training","adjacent","FG","6","7","R.jpg","N.jpg","0","1","0","",""
"","feedback","","html-keyboard-response","362","450257","0.0-1.0-492.0-0.0","0","0","55871","","null","","","null","54","","","","","","","","","","","","","","","",""
"","time_out","","html-keyboard-response","363","452260","0.0-1.0-494.0-0.0","0","0","55871","","null","","","null","54","","","","","","","","","","","","","","","",""
"","ITI","","html-keyboard-response","364","453262","0.0-1.0-495.0","0","0","55871","","null","","","null","54","","","","","","","","","","","","","","","NaN",""
"","S1","","html-keyboard-response","365","453514","0.0-1.0-497.0","0","0","55871","","null","","","null","55","","","","","","","","","","","","","","","",""
"","ISI","","html-keyboard-response","366","455516","0.0-1.0-498.0","0","0","55871","","null","","","null","55","NaN","","","","","","","","","","","","","","",""
"","S2","","html-keyboard-response","367","455768","0.0-1.0-499.0","0","0","55871","","null","","","null","55","","NaN","","","","","","","","","","","","","",""
"","response","","html-keyboard-response","368","456175","0.0-1.0-500.0-0.0","0","0","55871","","406","","","75","55","","","2","55","training","adjacent","EF","5","6","Q.jpg","R.jpg","1","1","1","",""
"","feedback","","html-keyboard-response","369","457179","0.0-1.0-501.0-0.0","0","0","55871","","null","","","null","55","","","","","","","","","","","","","","","",""
"","ITI","","html-keyboard-response","370","458181","0.0-1.0-504.0","0","0","55871","","null","","","null","55","","","","","","","","","","","","","","","NaN",""
"","S1","","html-keyboard-response","371","458433","0.0-1.0-506.0","0","0","55871","","null","","","null","56","","","","","","","","","","","","","","","",""
"","ISI","","html-keyboard-response","372","460436","0.0-1.0-507.0","0","0","55871","","null","","","null","56","NaN","","","","","","","","","","","","","","",""
"","S2","","html-keyboard-response","373","460689","0.0-1.0-508.0","0","0","55871","","null","","","null","56","","NaN","","","","","","","","","","","","","",""
"","response","","html-keyboard-response","374","461471","0.0-1.0-509.0-0.0","0","0","55871","","780","","","68","56","","","2","56","training","adjacent","FE","6","5","R.jpg","Q.jpg","0","0","1","",""
"","feedback","","html-keyboard-response","375","462473","0.0-1.0-510.0-0.0","0","0","55871","","null","","","null","56","","","","","","","","","","","","","","","",""
"","ITI","","html-keyboard-response","376","463476","0.0-1.0-513.0","0","0","55871","","null","","","null","56","","","","","","","","","","","","","","","NaN",""
"","S1","","html-keyboard-response","377","463728","0.0-1.0-515.0","0","0","55871","","null","","","null","57","","","","","","","","","","","","","","","",""
"","ISI","","html-keyboard-response","378","465729","0.0-1.0-516.0","0","0","55871","","null","","","null","57","NaN","","","","","","","","","","","","","","",""
"","S2","","html-keyboard-response","379","465982","0.0-1.0-517.0","0","0","55871","","null","","","null","57","","NaN","","","","","","","","","","","","","",""
"","response","","html-keyboard-response","380","466688","0.0-1.0-518.0-0.0","0","0","55871","","704","","","75","57","","","2","57","training","adjacent","CB","3","2","P.jpg","M.jpg","1","0","0","",""
"","feedback","","html-keyboard-response","381","467690","0.0-1.0-519.0-0.0","0","0","55871","","null","","","null","57","","","","","","","","","","","","","","","",""
"","time_out","","html-keyboard-response","382","469693","0.0-1.0-521.0-0.0","0","0","55871","","null","","","null","57","","","","","","","","","","","","","","","",""
"","ITI","","html-keyboard-response","383","470695","0.0-1.0-522.0","0","0","55871","","null","","","null","57","","","","","","","","","","","","","","","NaN",""
"","S1","","html-keyboard-response","384","470947","0.0-1.0-524.0","0","0","55871","","null","","","null","58","","","","","","","","","","","","","","","",""
"","ISI","","html-keyboard-response","385","472949","0.0-1.0-525.0","0","0","55871","","null","","","null","58","NaN","","","","","","","","","","","","","","",""
"","S2","","html-keyboard-response","386","473202","0.0-1.0-526.0","0","0","55871","","null","","","null","58","","NaN","","","","","","","","","","","","","",""
"","response","","html-keyboard-response","387","473967","0.0-1.0-527.0-0.0","0","0","55871","","764","","","68","58","","","2","58","training","adjacent","BC","2","3","M.jpg","P.jpg","0","1","0","",""
"","feedback","","html-keyboard-response","388","474971","0.0-1.0-528.0-0.0","0","0","55871","","null","","","null","58","","","","","","","","","","","","","","","",""
"","time_out","","html-keyboard-response","389","476973","0.0-1.0-530.0-0.0","0","0","55871","","null","","","null","58","","","","","","","","","","","","","","","",""
"","ITI","","html-keyboard-response","390","477976","0.0-1.0-531.0","0","0","55871","","null","","","null","58","","","","","","","","","","","","","","","NaN",""
"","S1","","html-keyboard-response","391","478228","0.0-1.0-533.0","0","0","55871","","null","","","null","59","","","","","","","","","","","","","","","",""
"","ISI","","html-keyboard-response","392","480230","0.0-1.0-534.0","0","0","55871","","null","","","null","59","NaN","","","","","","","","","","","","","","",""
"","S2","","html-keyboard-response","393","480482","0.0-1.0-535.0","0","0","55871","","null","","","null","59","","NaN","","","","","","","","","","","","","",""
"","response","","html-keyboard-response","394","481107","0.0-1.0-536.0-0.0","0","0","55871","","624","","","68","59","","","2","59","training","adjacent","FE","6","5","R.jpg","Q.jpg","0","0","1","",""
"","feedback","","html-keyboard-response","395","482109","0.0-1.0-537.0-0.0","0","0","55871","","null","","","null","59","","","","","","","","","","","","","","","",""
"","ITI","","html-keyboard-response","396","483111","0.0-1.0-540.0","0","0","55871","","null","","","null","59","","","","","","","","","","","","","","","NaN",""
"","S1","","html-keyboard-response","397","483363","0.0-1.0-542.0","0","0","55871","","null","","","null","60","","","","","","","","","","","","","","","",""
"","ISI","","html-keyboard-response","398","485367","0.0-1.0-543.0","0","0","55871","","null","","","null","60","NaN","","","","","","","","","","","","","","",""
"","S2","","html-keyboard-response","399","485619","0.0-1.0-544.0","0","0","55871","","null","","","null","60","","NaN","","","","","","","","","","","","","",""
"","response","","html-keyboard-response","400","486130","0.0-1.0-545.0-0.0","0","0","55871","","510","","","68","60","","","2","60","training","adjacent","BC","2","3","M.jpg","P.jpg","0","1","0","",""
"","feedback","","html-keyboard-response","401","487133","0.0-1.0-546.0-0.0","0","0","55871","","null","","","null","60","","","","","","","","","","","","","","","",""
"","time_out","","html-keyboard-response","402","489135","0.0-1.0-548.0-0.0","0","0","55871","","null","","","null","60","","","","","","","","","","","","","","","",""
"","ITI","","html-keyboard-response","403","490137","0.0-1.0-549.0","0","0","55871","","null","","","null","60","","","","","","","","","","","","","","","NaN",""
"","S1","","html-keyboard-response","404","490389","0.0-1.0-551.0","0","0","55871","","null","","","null","61","","","","","","","","","","","","","","","",""
"","ISI","","html-keyboard-response","405","492391","0.0-1.0-552.0","0","0","55871","","null","","","null","61","NaN","","","","","","","","","","","","","","",""
"","S2","","html-keyboard-response","406","492644","0.0-1.0-553.0","0","0","55871","","null","","","null","61","","NaN","","","","","","","","","","","","","",""
"","response","","html-keyboard-response","407","493435","0.0-1.0-554.0-0.0","0","0","55871","","790","","","75","61","","","2","61","training","adjacent","FG","6","7","R.jpg","N.jpg","1","1","1","",""
"","feedback","","html-keyboard-response","408","494439","0.0-1.0-555.0-0.0","0","0","55871","","null","","","null","61","","","","","","","","","","","","","","","",""
"","ITI","","html-keyboard-response","409","495442","0.0-1.0-558.0","0","0","55871","","null","","","null","61","","","","","","","","","","","","","","","NaN",""
"","S1","","html-keyboard-response","410","495694","0.0-1.0-560.0","0","0","55871","","null","","","null","62","","","","","","","","","","","","","","","",""
"","ISI","","html-keyboard-response","411","497695","0.0-1.0-561.0","0","0","55871","","null","","","null","62","NaN","","","","","","","","","","","","","","",""
"","S2","","html-keyboard-response","412","497947","0.0-1.0-562.0","0","0","55871","","null","","","null","62","","NaN","","","","","","","","","","","","","",""
"","response","","html-keyboard-response","413","498537","0.0-1.0-563.0-0.0","0","0","55871","","588","","","75","62","","","2","62","training","adjacent","DE","4","5","O.jpg","Q.jpg","1","1","1","",""
"","feedback","","html-keyboard-response","414","499539","0.0-1.0-564.0-0.0","0","0","55871","","null","","","null","62","","","","","","","","","","","","","","","",""
"","ITI","","html-keyboard-response","415","500541","0.0-1.0-567.0","0","0","55871","","null","","","null","62","","","","","","","","","","","","","","","NaN",""
"","S1","","html-keyboard-response","416","500793","0.0-1.0-569.0","0","0","55871","","null","","","null","63","","","","","","","","","","","","","","","",""
"","ISI","","html-keyboard-response","417","502796","0.0-1.0-570.0","0","0","55871","","null","","","null","63","NaN","","","","","","","","","","","","","","",""
"","S2","","html-keyboard-response","418","503048","0.0-1.0-571.0","0","0","55871","","null","","","null","63","","NaN","","","","","","","","","","","","","",""
"","response","","html-keyboard-response","419","503459","0.0-1.0-572.0-0.0","0","0","55871","","409","","","75","63","","","2","63","training","adjacent","FG","6","7","R.jpg","N.jpg","1","1","1","",""
"","feedback","","html-keyboard-response","420","504462","0.0-1.0-573.0-0.0","0","0","55871","","null","","","null","63","","","","","","","","","","","","","","","",""
"","ITI","","html-keyboard-response","421","505464","0.0-1.0-576.0","0","0","55871","","null","","","null","63","","","","","","","","","","","","","","","NaN",""
"","S1","","html-keyboard-response","422","505717","0.0-1.0-578.0","0","0","55871","","null","","","null","64","","","","","","","","","","","","","","","",""
"","ISI","","html-keyboard-response","423","507719","0.0-1.0-579.0","0","0","55871","","null","","","null","64","NaN","","","","","","","","","","","","","","",""
"","S2","","html-keyboard-response","424","507972","0.0-1.0-580.0","0","0","55871","","null","","","null","64","","NaN","","","","","","","","","","","","","",""
"","response","","html-keyboard-response","425","509074","0.0-1.0-581.0-0.0","0","0","55871","","1101","","","75","64","","","2","64","training","adjacent","DC","4","3","O.jpg","P.jpg","1","0","0","",""
"","feedback","","html-keyboard-response","426","510077","0.0-1.0-582.0-0.0","0","0","55871","","null","","","null","64","","","","","","","","","","","","","","","",""
"","time_out","","html-keyboard-response","427","512080","0.0-1.0-584.0-0.0","0","0","55871","","null","","","null","64","","","","","","","","","","","","","","","",""
"","ITI","","html-keyboard-response","428","513082","0.0-1.0-585.0","0","0","55871","","null","","","null","64","","","","","","","","","","","","","","","NaN",""
"","S1","","html-keyboard-response","429","513334","0.0-1.0-587.0","0","0","55871","","null","","","null","65","","","","","","","","","","","","","","","",""
"","ISI","","html-keyboard-response","430","515336","0.0-1.0-588.0","0","0","55871","","null","","","null","65","NaN","","","","","","","","","","","","","","",""
"","S2","","html-keyboard-response","431","515588","0.0-1.0-589.0","0","0","55871","","null","","","null","65","","NaN","","","","","","","","","","","","","",""
"","response","","html-keyboard-response","432","516662","0.0-1.0-590.0-0.0","0","0","55871","","1073","","","75","65","","","2","65","training","adjacent","EF","5","6","Q.jpg","R.jpg","1","1","1","",""
"","feedback","","html-keyboard-response","433","517664","0.0-1.0-591.0-0.0","0","0","55871","","null","","","null","65","","","","","","","","","","","","","","","",""
"","ITI","","html-keyboard-response","434","518667","0.0-1.0-594.0","0","0","55871","","null","","","null","65","","","","","","","","","","","","","","","NaN",""
"","S1","","html-keyboard-response","435","518919","0.0-1.0-596.0","0","0","55871","","null","","","null","66","","","","","","","","","","","","","","","",""
"","ISI","","html-keyboard-response","436","520920","0.0-1.0-597.0","0","0","55871","","null","","","null","66","NaN","","","","","","","","","","","","","","",""
"","S2","","html-keyboard-response","437","521173","0.0-1.0-598.0","0","0","55871","","null","","","null","66","","NaN","","","","","","","","","","","","","",""
"","response","","html-keyboard-response","438","521837","0.0-1.0-599.0-0.0","0","0","55871","","663","","","68","66","","","2","66","training","adjacent","BA","2","1","M.jpg","L.jpg","0","0","1","",""
"","feedback","","html-keyboard-response","439","522840","0.0-1.0-600.0-0.0","0","0","55871","","null","","","null","66","","","","","","","","","","","","","","","",""
"","ITI","","html-keyboard-response","440","523842","0.0-1.0-603.0","0","0","55871","","null","","","null","66","","","","","","","","","","","","","","","NaN",""
"","S1","","html-keyboard-response","441","524095","0.0-1.0-605.0","0","0","55871","","null","","","null","67","","","","","","","","","","","","","","","",""
"","ISI","","html-keyboard-response","442","526098","0.0-1.0-606.0","0","0","55871","","null","","","null","67","NaN","","","","","","","","","","","","","","",""
"","S2","","html-keyboard-response","443","526351","0.0-1.0-607.0","0","0","55871","","null","","","null","67","","NaN","","","","","","","","","","","","","",""
"","response","","html-keyboard-response","444","526692","0.0-1.0-608.0-0.0","0","0","55871","","340","","","75","67","","","2","67","training","adjacent","ED","5","4","Q.jpg","O.jpg","1","0","0","",""
"","feedback","","html-keyboard-response","445","527694","0.0-1.0-609.0-0.0","0","0","55871","","null","","","null","67","","","","","","","","","","","","","","","",""
"","time_out","","html-keyboard-response","446","529697","0.0-1.0-611.0-0.0","0","0","55871","","null","","","null","67","","","","","","","","","","","","","","","",""
"","ITI","","html-keyboard-response","447","530699","0.0-1.0-612.0","0","0","55871","","null","","","null","67","","","","","","","","","","","","","","","NaN",""
"","S1","","html-keyboard-response","448","530951","0.0-1.0-614.0","0","0","55871","","null","","","null","68","","","","","","","","","","","","","","","",""
"","ISI","","html-keyboard-response","449","532953","0.0-1.0-615.0","0","0","55871","","null","","","null","68","NaN","","","","","","","","","","","","","","",""
"","S2","","html-keyboard-response","450","533205","0.0-1.0-616.0","0","0","55871","","null","","","null","68","","NaN","","","","","","","","","","","","","",""
"","response","","html-keyboard-response","451","533900","0.0-1.0-617.0-0.0","0","0","55871","","693","","","68","68","","","2","68","training","adjacent","CD","3","4","P.jpg","O.jpg","0","1","0","",""
"","feedback","","html-keyboard-response","452","534902","0.0-1.0-618.0-0.0","0","0","55871","","null","","","null","68","","","","","","","","","","","","","","","",""
"","time_out","","html-keyboard-response","453","536905","0.0-1.0-620.0-0.0","0","0","55871","","null","","","null","68","","","","","","","","","","","","","","","",""
"","ITI","","html-keyboard-response","454","537908","0.0-1.0-621.0","0","0","55871","","null","","","null","68","","","","","","","","","","","","","","","NaN",""
"","S1","","html-keyboard-response","455","538160","0.0-1.0-623.0","0","0","55871","","null","","","null","69","","","","","","","","","","","","","","","",""
"","ISI","","html-keyboard-response","456","540162","0.0-1.0-624.0","0","0","55871","","null","","","null","69","NaN","","","","","","","","","","","","","","",""
"","S2","","html-keyboard-response","457","540413","0.0-1.0-625.0","0","0","55871","","null","","","null","69","","NaN","","","","","","","","","","","","","",""
"","response","","html-keyboard-response","458","541714","0.0-1.0-626.0-0.0","0","0","55871","","1300","","","75","69","","","2","69","training","adjacent","CD","3","4","P.jpg","O.jpg","1","1","1","",""
"","feedback","","html-keyboard-response","459","542717","0.0-1.0-627.0-0.0","0","0","55871","","null","","","null","69","","","","","","","","","","","","","","","",""
"","ITI","","html-keyboard-response","460","543719","0.0-1.0-630.0","0","0","55871","","null","","","null","69","","","","","","","","","","","","","","","NaN",""
"","S1","","html-keyboard-response","461","543971","0.0-1.0-632.0","0","0","55871","","null","","","null","70","","","","","","","","","","","","","","","",""
"","ISI","","html-keyboard-response","462","545973","0.0-1.0-633.0","0","0","55871","","null","","","null","70","NaN","","","","","","","","","","","","","","",""
"","S2","","html-keyboard-response","463","546226","0.0-1.0-634.0","0","0","55871","","null","","","null","70","","NaN","","","","","","","","","","","","","",""
"","response","","html-keyboard-response","464","547813","0.0-1.0-635.0-0.0","0","0","55871","","1585","","","68","70","","","2","70","training","adjacent","DE","4","5","O.jpg","Q.jpg","0","1","0","",""
"","feedback","","html-keyboard-response","465","548815","0.0-1.0-636.0-0.0","0","0","55871","","null","","","null","70","","","","","","","","","","","","","","","",""
"","time_out","","html-keyboard-response","466","550817","0.0-1.0-638.0-0.0","0","0","55871","","null","","","null","70","","","","","","","","","","","","","","","",""
"","ITI","","html-keyboard-response","467","551819","0.0-1.0-639.0","0","0","55871","","null","","","null","70","","","","","","","","","","","","","","","NaN",""
"","S1","","html-keyboard-response","468","552071","0.0-1.0-641.0","0","0","55871","","null","","","null","71","","","","","","","","","","","","","","","",""
"","ISI","","html-keyboard-response","469","554074","0.0-1.0-642.0","0","0","55871","","null","","","null","71","NaN","","","","","","","","","","","","","","",""
"","S2","","html-keyboard-response","470","554326","0.0-1.0-643.0","0","0","55871","","null","","","null","71","","NaN","","","","","","","","","","","","","",""
"","response","","html-keyboard-response","471","554887","0.0-1.0-644.0-0.0","0","0","55871","","560","","","68","71","","","2","71","training","adjacent","ED","5","4","Q.jpg","O.jpg","0","0","1","",""
"","feedback","","html-keyboard-response","472","555890","0.0-1.0-645.0-0.0","0","0","55871","","null","","","null","71","","","","","","","","","","","","","","","",""
"","ITI","","html-keyboard-response","473","556893","0.0-1.0-648.0","0","0","55871","","null","","","null","71","","","","","","","","","","","","","","","NaN",""
"","S1","","html-keyboard-response","474","557145","0.0-1.0-650.0","0","0","55871","","null","","","null","72","","","","","","","","","","","","","","","",""
"","ISI","","html-keyboard-response","475","559146","0.0-1.0-651.0","0","0","55871","","null","","","null","72","NaN","","","","","","","","","","","","","","",""
"","S2","","html-keyboard-response","476","559400","0.0-1.0-652.0","0","0","55871","","null","","","null","72","","NaN","","","","","","","","","","","","","",""
"","response","","html-keyboard-response","477","560598","0.0-1.0-653.0-0.0","0","0","55871","","1197","","","75","72","","","2","72","training","adjacent","AB","1","2","L.jpg","M.jpg","1","1","1","",""
"","feedback","","html-keyboard-response","478","561601","0.0-1.0-654.0-0.0","0","0","55871","","null","","","null","72","","","","","","","","","","","","","","","",""
"","ITI","","html-keyboard-response","479","562605","0.0-1.0-657.0","0","0","55871","","null","","","null","72","","","","","","","","","","","","","","","NaN",""
"","S1","","html-keyboard-response","480","562858","0.0-1.0-659.0","0","0","55871","","null","","","null","73","","","","","","","","","","","","","","","",""
"","ISI","","html-keyboard-response","481","564860","0.0-1.0-660.0","0","0","55871","","null","","","null","73","NaN","","","","","","","","","","","","","","",""
"","S2","","html-keyboard-response","482","565113","0.0-1.0-661.0","0","0","55871","","null","","","null","73","","NaN","","","","","","","","","","","","","",""
"","response","","html-keyboard-response","483","566617","0.0-1.0-662.0-0.0","0","0","55871","","1502","","","68","73","","","2","73","training","adjacent","GF","7","6","N.jpg","R.jpg","0","0","1","",""
"","feedback","","html-keyboard-response","484","567620","0.0-1.0-663.0-0.0","0","0","55871","","null","","","null","73","","","","","","","","","","","","","","","",""
"","ITI","","html-keyboard-response","485","568623","0.0-1.0-666.0","0","0","55871","","null","","","null","73","","","","","","","","","","","","","","","NaN",""
"","S1","","html-keyboard-response","486","568876","0.0-1.0-668.0","0","0","55871","","null","","","null","74","","","","","","","","","","","","","","","",""
"","ISI","","html-keyboard-response","487","570879","0.0-1.0-669.0","0","0","55871","","null","","","null","74","NaN","","","","","","","","","","","","","","",""
"","S2","","html-keyboard-response","488","571131","0.0-1.0-670.0","0","0","55871","","null","","","null","74","","NaN","","","","","","","","","","","","","",""
"","response","","html-keyboard-response","489","571687","0.0-1.0-671.0-0.0","0","0","55871","","554","","","75","74","","","2","74","training","adjacent","DC","4","3","O.jpg","P.jpg","1","0","0","",""
"","feedback","","html-keyboard-response","490","572689","0.0-1.0-672.0-0.0","0","0","55871","","null","","","null","74","","","","","","","","","","","","","","","",""
"","time_out","","html-keyboard-response","491","574692","0.0-1.0-674.0-0.0","0","0","55871","","null","","","null","74","","","","","","","","","","","","","","","",""
"","ITI","","html-keyboard-response","492","575694","0.0-1.0-675.0","0","0","55871","","null","","","null","74","","","","","","","","","","","","","","","NaN",""
"","S1","","html-keyboard-response","493","575947","0.0-1.0-677.0","0","0","55871","","null","","","null","75","","","","","","","","","","","","","","","",""
"","ISI","","html-keyboard-response","494","577949","0.0-1.0-678.0","0","0","55871","","null","","","null","75","NaN","","","","","","","","","","","","","","",""
"","S2","","html-keyboard-response","495","578201","0.0-1.0-679.0","0","0","55871","","null","","","null","75","","NaN","","","","","","","","","","","","","",""
"","response","","html-keyboard-response","496","578606","0.0-1.0-680.0-0.0","0","0","55871","","403","","","75","75","","","2","75","training","adjacent","DC","4","3","O.jpg","P.jpg","1","0","0","",""
"","feedback","","html-keyboard-response","497","579608","0.0-1.0-681.0-0.0","0","0","55871","","null","","","null","75","","","","","","","","","","","","","","","",""
"","time_out","","html-keyboard-response","498","581610","0.0-1.0-683.0-0.0","0","0","55871","","null","","","null","75","","","","","","","","","","","","","","","",""
"","ITI","","html-keyboard-response","499","582613","0.0-1.0-684.0","0","0","55871","","null","","","null","75","","","","","","","","","","","","","","","NaN",""
"","S1","","html-keyboard-response","500","582865","0.0-1.0-686.0","0","0","55871","","null","","","null","76","","","","","","","","","","","","","","","",""
"","ISI","","html-keyboard-response","501","584867","0.0-1.0-687.0","0","0","55871","","null","","","null","76","NaN","","","","","","","","","","","","","","",""
"","S2","","html-keyboard-response","502","585119","0.0-1.0-688.0","0","0","55871","","null","","","null","76","","NaN","","","","","","","","","","","","","",""
"","response","","html-keyboard-response","503","585340","0.0-1.0-689.0-0.0","0","0","55871","","220","","","68","76","","","2","76","training","adjacent","AB","1","2","L.jpg","M.jpg","0","1","0","",""
"","feedback","","html-keyboard-response","504","586343","0.0-1.0-690.0-0.0","0","0","55871","","null","","","null","76","","","","","","","","","","","","","","","",""
"","time_out","","html-keyboard-response","505","588345","0.0-1.0-692.0-0.0","0","0","55871","","null","","","null","76","","","","","","","","","","","","","","","",""
"","ITI","","html-keyboard-response","506","589348","0.0-1.0-693.0","0","0","55871","","null","","","null","76","","","","","","","","","","","","","","","NaN",""
"","S1","","html-keyboard-response","507","589601","0.0-1.0-695.0","0","0","55871","","null","","","null","77","","","","","","","","","","","","","","","",""
"","ISI","","html-keyboard-response","508","591603","0.0-1.0-696.0","0","0","55871","","165","","","75","77","k","","","","","","","","","","","","","","",""
"","S2","","html-keyboard-response","509","591855","0.0-1.0-697.0","0","0","55871","","null","","","null","77","","NaN","","","","","","","","","","","","","",""
"","response","","html-keyboard-response","510","592293","0.0-1.0-698.0-0.0","0","0","55871","","436","","","75","77","","","2","77","training","adjacent","DC","4","3","O.jpg","P.jpg","1","0","0","",""
"","feedback","","html-keyboard-response","511","593295","0.0-1.0-699.0-0.0","0","0","55871","","null","","","null","77","","","","","","","","","","","","","","","",""
"","time_out","","html-keyboard-response","512","595298","0.0-1.0-701.0-0.0","0","0","55871","","null","","","null","77","","","","","","","","","","","","","","","",""
"","ITI","","html-keyboard-response","513","596300","0.0-1.0-702.0","0","0","55871","","null","","","null","77","","","","","","","","","","","","","","","NaN",""
"","S1","","html-keyboard-response","514","596552","0.0-1.0-704.0","0","0","55871","","null","","","null","78","","","","","","","","","","","","","","","",""
"","ISI","","html-keyboard-response","515","598554","0.0-1.0-705.0","0","0","55871","","null","","","null","78","NaN","","","","","","","","","","","","","","",""
"","S2","","html-keyboard-response","516","598806","0.0-1.0-706.0","0","0","55871","","null","","","null","78","","NaN","","","","","","","","","","","","","",""
"","response","","html-keyboard-response","517","599334","0.0-1.0-707.0-0.0","0","0","55871","","526","","","68","78","","","2","78","training","adjacent","AB","1","2","L.jpg","M.jpg","0","1","0","",""
"","feedback","","html-keyboard-response","518","600335","0.0-1.0-708.0-0.0","0","0","55871","","null","","","null","78","","","","","","","","","","","","","","","",""
"","time_out","","html-keyboard-response","519","602338","0.0-1.0-710.0-0.0","0","0","55871","","null","","","null","78","","","","","","","","","","","","","","","",""
"","ITI","","html-keyboard-response","520","603340","0.0-1.0-711.0","0","0","55871","","null","","","null","78","","","","","","","","","","","","","","","NaN",""
"","S1","","html-keyboard-response","521","603593","0.0-1.0-713.0","0","0","55871","","null","","","null","79","","","","","","","","","","","","","","","",""
"","ISI","","html-keyboard-response","522","605595","0.0-1.0-714.0","0","0","55871","","null","","","null","79","NaN","","","","","","","","","","","","","","",""
"","S2","","html-keyboard-response","523","605848","0.0-1.0-715.0","0","0","55871","","null","","","null","79","","NaN","","","","","","","","","","","","","",""
"","response","","html-keyboard-response","524","606279","0.0-1.0-716.0-0.0","0","0","55871","","430","","","75","79","","","2","79","training","adjacent","FG","6","7","R.jpg","N.jpg","1","1","1","",""
"","feedback","","html-keyboard-response","525","607282","0.0-1.0-717.0-0.0","0","0","55871","","null","","","null","79","","","","","","","","","","","","","","","",""
"","ITI","","html-keyboard-response","526","608284","0.0-1.0-720.0","0","0","55871","","null","","","null","79","","","","","","","","","","","","","","","NaN",""
"","S1","","html-keyboard-response","527","608537","0.0-1.0-722.0","0","0","55871","","null","","","null","80","","","","","","","","","","","","","","","",""
"","ISI","","html-keyboard-response","528","610539","0.0-1.0-723.0","0","0","55871","","null","","","null","80","NaN","","","","","","","","","","","","","","",""
"","S2","","html-keyboard-response","529","610792","0.0-1.0-724.0","0","0","55871","","null","","","null","80","","NaN","","","","","","","","","","","","","",""
"","response","","html-keyboard-response","530","611482","0.0-1.0-725.0-0.0","0","0","55871","","689","","","75","80","","","2","80","training","adjacent","CD","3","4","P.jpg","O.jpg","1","1","1","",""
"","feedback","","html-keyboard-response","531","612485","0.0-1.0-726.0-0.0","0","0","55871","","null","","","null","80","","","","","","","","","","","","","","","",""
"","ITI","","html-keyboard-response","532","613487","0.0-1.0-729.0","0","0","55871","","null","","","null","80","","","","","","","","","","","","","","","NaN",""
"","S1","","html-keyboard-response","533","613739","0.0-1.0-731.0","0","0","55871","","null","","","null","81","","","","","","","","","","","","","","","",""
"","ISI","","html-keyboard-response","534","615741","0.0-1.0-732.0","0","0","55871","","null","","","null","81","NaN","","","","","","","","","","","","","","",""
"","S2","","html-keyboard-response","535","615994","0.0-1.0-733.0","0","0","55871","","null","","","null","81","","NaN","","","","","","","","","","","","","",""
"","response","","html-keyboard-response","536","616134","0.0-1.0-734.0-0.0","0","0","55871","","139","","","68","81","","","2","81","training","adjacent","BC","2","3","M.jpg","P.jpg","0","1","0","",""
"","feedback","","html-keyboard-response","537","617136","0.0-1.0-735.0-0.0","0","0","55871","","null","","","null","81","","","","","","","","","","","","","","","",""
"","time_out","","html-keyboard-response","538","619138","0.0-1.0-737.0-0.0","0","0","55871","","null","","","null","81","","","","","","","","","","","","","","","",""
"","ITI","","html-keyboard-response","539","620141","0.0-1.0-738.0","0","0","55871","","null","","","null","81","","","","","","","","","","","","","","","NaN",""
"","S1","","html-keyboard-response","540","620394","0.0-1.0-740.0","0","0","55871","","null","","","null","82","","","","","","","","","","","","","","","",""
"","ISI","","html-keyboard-response","541","622396","0.0-1.0-741.0","0","0","55871","","null","","","null","82","NaN","","","","","","","","","","","","","","",""
"","S2","","html-keyboard-response","542","622649","0.0-1.0-742.0","0","0","55871","","null","","","null","82","","NaN","","","","","","","","","","","","","",""
"","response","","html-keyboard-response","543","623528","0.0-1.0-743.0-0.0","0","0","55871","","877","","","68","82","","","2","82","training","adjacent","BA","2","1","M.jpg","L.jpg","0","0","1","",""
"","feedback","","html-keyboard-response","544","624531","0.0-1.0-744.0-0.0","0","0","55871","","null","","","null","82","","","","","","","","","","","","","","","",""
"","ITI","","html-keyboard-response","545","625534","0.0-1.0-747.0","0","0","55871","","null","","","null","82","","","","","","","","","","","","","","","NaN",""
"","S1","","html-keyboard-response","546","625786","0.0-1.0-749.0","0","0","55871","","null","","","null","83","","","","","","","","","","","","","","","",""
"","ISI","","html-keyboard-response","547","627788","0.0-1.0-750.0","0","0","55871","","null","","","null","83","NaN","","","","","","","","","","","","","","",""
"","S2","","html-keyboard-response","548","628040","0.0-1.0-751.0","0","0","55871","","null","","","null","83","","NaN","","","","","","","","","","","","","",""
"","response","","html-keyboard-response","549","628616","0.0-1.0-752.0-0.0","0","0","55871","","574","","","68","83","","","2","83","training","adjacent","CB","3","2","P.jpg","M.jpg","0","0","1","",""
"","feedback","","html-keyboard-response","550","629619","0.0-1.0-753.0-0.0","0","0","55871","","null","","","null","83","","","","","","","","","","","","","","","",""
"","ITI","","html-keyboard-response","551","630622","0.0-1.0-756.0","0","0","55871","","null","","","null","83","","","","","","","","","","","","","","","NaN",""
"","S1","","html-keyboard-response","552","630875","0.0-1.0-758.0","0","0","55871","","null","","","null","84","","","","","","","","","","","","","","","",""
"","ISI","","html-keyboard-response","553","632878","0.0-1.0-759.0","0","0","55871","","null","","","null","84","NaN","","","","","","","","","","","","","","",""
"","S2","","html-keyboard-response","554","633130","0.0-1.0-760.0","0","0","55871","","null","","","null","84","","NaN","","","","","","","","","","","","","",""
"","response","","html-keyboard-response","555","633551","0.0-1.0-761.0-0.0","0","0","55871","","420","","","75","84","","","2","84","training","adjacent","EF","5","6","Q.jpg","R.jpg","1","1","1","",""
"","feedback","","html-keyboard-response","556","634553","0.0-1.0-762.0-0.0","0","0","55871","","null","","","null","84","","","","","","","","","","","","","","","",""
"","ITI","","html-keyboard-response","557","635556","0.0-1.0-765.0","0","0","55871","","null","","","null","84","","","","","","","","","","","","","","","NaN",""
"","S1","","html-keyboard-response","558","635809","0.0-1.0-767.0","0","0","55871","","null","","","null","85","","","","","","","","","","","","","","","",""
"","ISI","","html-keyboard-response","559","637811","0.0-1.0-768.0","0","0","55871","","null","","","null","85","NaN","","","","","","","","","","","","","","",""
"","S2","","html-keyboard-response","560","638062","0.0-1.0-769.0","0","0","55871","","null","","","null","85","","NaN","","","","","","","","","","","","","",""
"","response","","html-keyboard-response","561","638464","0.0-1.0-770.0-0.0","0","0","55871","","400","","","68","85","","","2","85","training","adjacent","GF","7","6","N.jpg","R.jpg","0","0","1","",""
"","feedback","","html-keyboard-response","562","639466","0.0-1.0-771.0-0.0","0","0","55871","","null","","","null","85","","","","","","","","","","","","","","","",""
"","ITI","","html-keyboard-response","563","640468","0.0-1.0-774.0","0","0","55871","","null","","","null","85","","","","","","","","","","","","","","","NaN",""
"","S1","","html-keyboard-response","564","640721","0.0-1.0-776.0","0","0","55871","","null","","","null","86","","","","","","","","","","","","","","","",""
"","ISI","","html-keyboard-response","565","642723","0.0-1.0-777.0","0","0","55871","","null","","","null","86","NaN","","","","","","","","","","","","","","",""
"","S2","","html-keyboard-response","566","642975","0.0-1.0-778.0","0","0","55871","","null","","","null","86","","NaN","","","","","","","","","","","","","",""
"","response","","html-keyboard-response","567","643638","0.0-1.0-779.0-0.0","0","0","55871","","661","","","68","86","","","2","86","training","adjacent","ED","5","4","Q.jpg","O.jpg","0","0","1","",""
"","feedback","","html-keyboard-response","568","644640","0.0-1.0-780.0-0.0","0","0","55871","","null","","","null","86","","","","","","","","","","","","","","","",""
"","ITI","","html-keyboard-response","569","645643","0.0-1.0-783.0","0","0","55871","","null","","","null","86","","","","","","","","","","","","","","","NaN",""
"","S1","","html-keyboard-response","570","645895","0.0-1.0-785.0","0","0","55871","","null","","","null","87","","","","","","","","","","","","","","","",""
"","ISI","","html-keyboard-response","571","647897","0.0-1.0-786.0","0","0","55871","","null","","","null","87","NaN","","","","","","","","","","","","","","",""
"","S2","","html-keyboard-response","572","648150","0.0-1.0-787.0","0","0","55871","","null","","","null","87","","NaN","","","","","","","","","","","","","",""
"","response","","html-keyboard-response","573","649316","0.0-1.0-788.0-0.0","0","0","55871","","1166","","","75","87","","","2","87","training","adjacent","CB","3","2","P.jpg","M.jpg","1","0","0","",""
"","feedback","","html-keyboard-response","574","650319","0.0-1.0-789.0-0.0","0","0","55871","","null","","","null","87","","","","","","","","","","","","","","","",""
"","time_out","","html-keyboard-response","575","652321","0.0-1.0-791.0-0.0","0","0","55871","","null","","","null","87","","","","","","","","","","","","","","","",""
"","ITI","","html-keyboard-response","576","653323","0.0-1.0-792.0","0","0","55871","","null","","","null","87","","","","","","","","","","","","","","","NaN",""
"","S1","","html-keyboard-response","577","653576","0.0-1.0-794.0","0","0","55871","","null","","","null","88","","","","","","","","","","","","","","","",""
"","ISI","","html-keyboard-response","578","655578","0.0-1.0-795.0","0","0","55871","","null","","","null","88","NaN","","","","","","","","","","","","","","",""
"","S2","","html-keyboard-response","579","655831","0.0-1.0-796.0","0","0","55871","","null","","","null","88","","NaN","","","","","","","","","","","","","",""
"","response","","html-keyboard-response","580","656534","0.0-1.0-797.0-0.0","0","0","55871","","701","","","75","88","","","2","88","training","adjacent","DE","4","5","O.jpg","Q.jpg","1","1","1","",""
"","feedback","","html-keyboard-response","581","657537","0.0-1.0-798.0-0.0","0","0","55871","","null","","","null","88","","","","","","","","","","","","","","","",""
"","ITI","","html-keyboard-response","582","658541","0.0-1.0-801.0","0","0","55871","","null","","","null","88","","","","","","","","","","","","","","","NaN",""
