"success","ttype","start_time","trial_type","trial_index","time_elapsed","internal_node_id","warning","missed_checkup","PID","view_history","rt","responses","repeat_instructions","key_press","index","keypress_isi","keypress_S2","block","trial_num","phase","group_type","pair_type","S1_stim","S2_stim","S1_img","S2_img","S1_chosen","S1_higher","accuracy","keypress_iti","total_bonus_tally"
"true","full_screen","d08012022hr1548","fullscreen","0","2511","0.0-0.0","0","0","75665","","","","","","","","","","","","","","","","","","","","","",""
"","instructions","","instructions","1","24645","0.0-1.0-0.0-0.0","0","0","75665","[{""page_index"":0,""viewing_time"":16960},{""page_index"":1,""viewing_time"":1960},{""page_index"":2,""viewing_time"":1497},{""page_index"":3,""viewing_time"":1712}]","22130","","","","","","","","","","","","","","","","","","","",""
"","comprehension_check","","survey-multi-choice","2","40195","0.0-1.0-0.0-1.0","0","0","75665","","15541","{""Q0"":""True"",""Q1"":""D"",""Q2"":""When you see the prompt 'MAKE A CHOICE' after the second image was presented"",""Q3"":""Green mark"",""Q4"":""either D or K""}","1","","","","","","","","","","","","","","","","","",""
"","missed_instruction_checkup","","html-keyboard-response","3","50030","0.0-1.0-0.0-2.0-0.0","0","1","75665","","9826","","","32","","","","","","","","","","","","","","","","",""
"","instructions","","instructions","4","58088","0.0-1.0-0.1-0.1","0","0","75665","[{""page_index"":0,""viewing_time"":3021},{""page_index"":1,""viewing_time"":1561},{""page_index"":2,""viewing_time"":1381},{""page_index"":3,""viewing_time"":2089}]","8053","","","","","","","","","","","","","","","","","","","",""
"","comprehension_check","","survey-multi-choice","5","70192","0.0-1.0-0.1-1.1","0","0","75665","","12093","{""Q0"":""True"",""Q1"":""D"",""Q2"":""When you see the prompt 'MAKE A CHOICE' after the second image was presented"",""Q3"":""Red cross"",""Q4"":""either D or K""}","1","","","","","","","","","","","","","","","","","",""
"","missed_instruction_checkup","","html-keyboard-response","6","72882","0.0-1.0-0.1-2.1-0.1","0","1","75665","","2682","","","32","","","","","","","","","","","","","","","","",""
"","instructions","","instructions","7","90158","0.0-1.0-0.2-0.2","0","0","75665","[{""page_index"":0,""viewing_time"":2577},{""page_index"":1,""viewing_time"":10229},{""page_index"":2,""viewing_time"":2059},{""page_index"":3,""viewing_time"":2409}]","17275","","","","","","","","","","","","","","","","","","","",""
"","comprehension_check","","survey-multi-choice","8","107282","0.0-1.0-0.2-1.2","0","0","75665","","17113","{""Q0"":""True"",""Q1"":""D"",""Q2"":""When you see the prompt 'MAKE A CHOICE' after the second image was presented"",""Q3"":""Green mark"",""Q4"":""either D or K""}","1","","","","","","","","","","","","","","","","","",""
"","missed_instruction_checkup","","html-keyboard-response","9","112210","0.0-1.0-0.2-2.2-0.2","0","1","75665","","4923","","","32","","","","","","","","","","","","","","","","",""
"","instructions","","instructions","10","131348","0.0-1.0-0.3-0.3","0","0","75665","[{""page_index"":0,""viewing_time"":8684},{""page_index"":1,""viewing_time"":4192},{""page_index"":2,""viewing_time"":2145},{""page_index"":3,""viewing_time"":4112}]","19134","","","","","","","","","","","","","","","","","","","",""
"","comprehension_check","","survey-multi-choice","11","366019","0.0-1.0-0.3-1.3","0","0","75665","","234661","{""Q0"":""True"",""Q1"":""D"",""Q2"":""While the images are shown"",""Q3"":""Green mark"",""Q4"":""either D or K""}","1","","","","","","","","","","","","","","","","","",""
"","missed_instruction_checkup","","html-keyboard-response","12","369572","0.0-1.0-0.3-2.3-0.3","0","1","75665","","3547","","","32","","","","","","","","","","","","","","","","",""
"","instructions","","instructions","13","391799","0.0-1.0-0.4-0.4","0","0","75665","[{""page_index"":0,""viewing_time"":2650},{""page_index"":1,""viewing_time"":1627},{""page_index"":2,""viewing_time"":1647},{""page_index"":1,""viewing_time"":11900},{""page_index"":2,""viewing_time"":2470},{""page_index"":3,""viewing_time"":1930}]","22225","","","","","","","","","","","","","","","","","","","",""
"","comprehension_check","","survey-multi-choice","14","403747","0.0-1.0-0.4-1.4","0","0","75665","","11939","{""Q0"":""True"",""Q1"":""K"",""Q2"":""When you see the prompt 'MAKE A CHOICE' after the second image was presented"",""Q3"":""Green mark"",""Q4"":""either D or K""}","0","","","","","","","","","","","","","","","","","",""
"","start_exp","","html-keyboard-response","15","413660","0.0-1.0-1.0","0","0","75665","","9910","","","32","","","","","","","","","","","","","","","","",""
"","S1","","html-keyboard-response","16","413915","0.0-1.0-2.0","0","0","75665","","null","","","null","0","","","","","","","","","","","","","","","",""
"","ISI","","html-keyboard-response","17","415919","0.0-1.0-3.0","0","0","75665","","1685","","","68","0","d","","","","","","","","","","","","","","",""
"","S2","","html-keyboard-response","18","416173","0.0-1.0-4.0","0","0","75665","","113","","","68","0","","d","","","","","","","","","","","","","",""
"","response","","html-keyboard-response","19","416277","0.0-1.0-5.0","0","0","75665","","100","","","75","0","","","1","0","training","adjacent","BA","2","1","N.jpg","L.jpg","1","0","0","",""
"","feedback","","html-keyboard-response","20","417281","0.0-1.0-6.0-0.0","0","0","75665","","null","","","null","0","","","","","","","","","","","","","","","",""
"","time_out","","html-keyboard-response","21","419284","0.0-1.0-8.0-0.0","0","0","75665","","null","","","null","0","","","","","","","","","","","","","","","",""
"","ITI","","html-keyboard-response","22","420287","0.0-1.0-9.0","0","0","75665","","13","","","68","0","","","","","","","","","","","","","","","d",""
"","S1","","html-keyboard-response","23","420540","0.0-1.0-11.0","0","0","75665","","null","","","null","1","","","","","","","","","","","","","","","",""
"","ISI","","html-keyboard-response","24","422543","0.0-1.0-12.0","0","0","75665","","null","","","null","1","NaN","","","","","","","","","","","","","","",""
"","S2","","html-keyboard-response","25","422801","0.0-1.0-13.0","0","0","75665","","null","","","null","1","","NaN","","","","","","","","","","","","","",""
"","response","","html-keyboard-response","26","423322","0.0-1.0-14.0","0","0","75665","","519","","","75","1","","","1","1","training","adjacent","BC","2","3","N.jpg","M.jpg","1","1","1","",""
"","feedback","","html-keyboard-response","27","424326","0.0-1.0-15.0-0.0","0","0","75665","","null","","","null","1","","","","","","","","","","","","","","","",""
"","ITI","","html-keyboard-response","28","425336","0.0-1.0-18.0","0","0","75665","","58","","","68","1","","","","","","","","","","","","","","","d",""
"","S1","","html-keyboard-response","29","425588","0.0-1.0-20.0","0","0","75665","","null","","","null","2","","","","","","","","","","","","","","","",""
"","ISI","","html-keyboard-response","30","427591","0.0-1.0-21.0","0","0","75665","","148","","","75","2","k","","","","","","","","","","","","","","",""
"","S2","","html-keyboard-response","31","427843","0.0-1.0-22.0","0","0","75665","","82","","","68","2","","d","","","","","","","","","","","","","",""
"","response","","html-keyboard-response","32","427867","0.0-1.0-23.0","0","0","75665","","21","","","68","2","","","1","2","training","adjacent","CB","3","2","M.jpg","N.jpg","0","0","1","",""
"","feedback","","html-keyboard-response","33","428870","0.0-1.0-24.0-0.0","0","0","75665","","null","","","null","2","","","","","","","","","","","","","","","",""
"","ITI","","html-keyboard-response","34","429871","0.0-1.0-27.0","0","0","75665","","35","","","75","2","","","","","","","","","","","","","","","k",""
"","S1","","html-keyboard-response","35","430125","0.0-1.0-29.0","0","0","75665","","null","","","null","3","","","","","","","","","","","","","","","",""
"","ISI","","html-keyboard-response","36","432156","0.0-1.0-30.0","0","0","75665","","109","","","68","3","d","","","","","","","","","","","","","","",""
"","S2","","html-keyboard-response","37","432426","0.0-1.0-31.0","0","0","75665","","22","","","68","3","","d","","","","","","","","","","","","","",""
"","response","","html-keyboard-response","38","432541","0.0-1.0-32.0","0","0","75665","","112","","","68","3","","","1","3","training","adjacent","ED","5","4","O.jpg","Q.jpg","0","0","1","",""
"","feedback","","html-keyboard-response","39","433544","0.0-1.0-33.0-0.0","0","0","75665","","null","","","null","3","","","","","","","","","","","","","","","",""
"","ITI","","html-keyboard-response","40","434546","0.0-1.0-36.0","0","0","75665","","13","","","68","3","","","","","","","","","","","","","","","d",""
"","S1","","html-keyboard-response","41","434805","0.0-1.0-38.0","0","0","75665","","null","","","null","4","","","","","","","","","","","","","","","",""
"","ISI","","html-keyboard-response","42","436807","0.0-1.0-39.0","0","0","75665","","9","","","68","4","d","","","","","","","","","","","","","","",""
"","S2","","html-keyboard-response","43","437118","0.0-1.0-40.0","0","0","75665","","90","","","68","4","","d","","","","","","","","","","","","","",""
"","response","","html-keyboard-response","44","439128","0.0-1.0-41.0","0","0","75665","","null","","","null","4","","","1","4","training","adjacent","DC","4","3","Q.jpg","M.jpg","NaN","0","0","",""
"","too_slow_prompt","","html-keyboard-response","45","440135","0.0-1.0-43.0-0.0","1","0","75665","","null","","","null","","","","","","","","","","","","","","","","",""
"","time_out","","html-keyboard-response","46","442139","0.0-1.0-44.0-0.0","0","0","75665","","null","","","null","4","","","","","","","","","","","","","","","",""
"","ITI","","html-keyboard-response","47","443143","0.0-1.0-45.0","0","0","75665","","221","","","68","4","","","","","","","","","","","","","","","d",""
"","S1","","html-keyboard-response","48","443397","0.0-1.0-47.0","0","0","75665","","null","","","null","5","","","","","","","","","","","","","","","",""
"","ISI","","html-keyboard-response","49","445401","0.0-1.0-48.0","0","0","75665","","303","","","37","5","leftarrow","","","","","","","","","","","","","","",""
"","S2","","html-keyboard-response","50","445668","0.0-1.0-49.0","0","0","75665","","15","","","75","5","","k","","","","","","","","","","","","","",""
"","response","","html-keyboard-response","51","445771","0.0-1.0-50.0","0","0","75665","","100","","","68","5","","","1","5","training","adjacent","CD","3","4","M.jpg","Q.jpg","0","1","0","",""
"","feedback","","html-keyboard-response","52","446794","0.0-1.0-51.0-0.0","0","0","75665","","null","","","null","5","","","","","","","","","","","","","","","",""
"","time_out","","html-keyboard-response","53","448798","0.0-1.0-53.0-0.0","0","0","75665","","null","","","null","5","","","","","","","","","","","","","","","",""
"","ITI","","html-keyboard-response","54","449807","0.0-1.0-54.0","0","0","75665","","82","","","75","5","","","","","","","","","","","","","","","k",""
"","S1","","html-keyboard-response","55","450061","0.0-1.0-56.0","0","0","75665","","null","","","null","6","","","","","","","","","","","","","","","",""
"","ISI","","html-keyboard-response","56","452121","0.0-1.0-57.0","0","0","75665","","84","","","68","6","d","","","","","","","","","","","","","","",""
"","S2","","html-keyboard-response","57","452374","0.0-1.0-58.0","0","0","75665","","24","","","75","6","","k","","","","","","","","","","","","","",""
"","response","","html-keyboard-response","58","452392","0.0-1.0-59.0","0","0","75665","","14","","","68","6","","","1","6","training","adjacent","BC","2","3","N.jpg","M.jpg","0","1","0","",""
"","feedback","","html-keyboard-response","59","453395","0.0-1.0-60.0-0.0","0","0","75665","","null","","","null","6","","","","","","","","","","","","","","","",""
"","time_out","","html-keyboard-response","60","455396","0.0-1.0-62.0-0.0","0","0","75665","","null","","","null","6","","","","","","","","","","","","","","","",""
"","ITI","","html-keyboard-response","61","456400","0.0-1.0-63.0","0","0","75665","","36","","","75","6","","","","","","","","","","","","","","","k",""
"","S1","","html-keyboard-response","62","456652","0.0-1.0-65.0","0","0","75665","","null","","","null","7","","","","","","","","","","","","","","","",""
"","ISI","","html-keyboard-response","63","458655","0.0-1.0-66.0","0","0","75665","","37","","","75","7","k","","","","","","","","","","","","","","",""
"","S2","","html-keyboard-response","64","458908","0.0-1.0-67.0","0","0","75665","","74","","","68","7","","d","","","","","","","","","","","","","",""
"","response","","html-keyboard-response","65","458950","0.0-1.0-68.0","0","0","75665","","37","","","68","7","","","1","7","training","adjacent","CD","3","4","M.jpg","Q.jpg","0","1","0","",""
"","feedback","","html-keyboard-response","66","459954","0.0-1.0-69.0-0.0","0","0","75665","","null","","","null","7","","","","","","","","","","","","","","","",""
"","time_out","","html-keyboard-response","67","461991","0.0-1.0-71.0-0.0","0","0","75665","","null","","","null","7","","","","","","","","","","","","","","","",""
"","ITI","","html-keyboard-response","68","462995","0.0-1.0-72.0","0","0","75665","","60","","","75","7","","","","","","","","","","","","","","","k",""
"","S1","","html-keyboard-response","69","463249","0.0-1.0-74.0","0","0","75665","","null","","","null","8","","","","","","","","","","","","","","","",""
"","ISI","","html-keyboard-response","70","465251","0.0-1.0-75.0","0","0","75665","","192","","","75","8","k","","","","","","","","","","","","","","",""
"","S2","","html-keyboard-response","71","465518","0.0-1.0-76.0","0","0","75665","","78","","","75","8","","k","","","","","","","","","","","","","",""
"","response","","html-keyboard-response","72","465579","0.0-1.0-77.0","0","0","75665","","59","","","75","8","","","1","8","training","adjacent","FE","6","5","P.jpg","O.jpg","1","0","0","",""
"","feedback","","html-keyboard-response","73","466583","0.0-1.0-78.0-0.0","0","0","75665","","null","","","null","8","","","","","","","","","","","","","","","",""
"","time_out","","html-keyboard-response","74","468587","0.0-1.0-80.0-0.0","0","0","75665","","null","","","null","8","","","","","","","","","","","","","","","",""
"","ITI","","html-keyboard-response","75","469589","0.0-1.0-81.0","0","0","75665","","145","","","68","8","","","","","","","","","","","","","","","d",""
"","S1","","html-keyboard-response","76","469846","0.0-1.0-83.0","0","0","75665","","null","","","null","9","","","","","","","","","","","","","","","",""
"","ISI","","html-keyboard-response","77","471848","0.0-1.0-84.0","0","0","75665","","75","","","68","9","d","","","","","","","","","","","","","","",""
"","S2","","html-keyboard-response","78","472102","0.0-1.0-85.0","0","0","75665","","52","","","75","9","","k","","","","","","","","","","","","","",""
"","response","","html-keyboard-response","79","472174","0.0-1.0-86.0","0","0","75665","","68","","","75","9","","","1","9","training","adjacent","BA","2","1","N.jpg","L.jpg","1","0","0","",""
"","feedback","","html-keyboard-response","80","473178","0.0-1.0-87.0-0.0","0","0","75665","","null","","","null","9","","","","","","","","","","","","","","","",""
"","time_out","","html-keyboard-response","81","475182","0.0-1.0-89.0-0.0","0","0","75665","","null","","","null","9","","","","","","","","","","","","","","","",""
"","ITI","","html-keyboard-response","82","476186","0.0-1.0-90.0","0","0","75665","","68","","","75","9","","","","","","","","","","","","","","","k",""
"","S1","","html-keyboard-response","83","476442","0.0-1.0-92.0","0","0","75665","","null","","","null","10","","","","","","","","","","","","","","","",""
"","ISI","","html-keyboard-response","84","478444","0.0-1.0-93.0","0","0","75665","","64","","","75","10","k","","","","","","","","","","","","","","",""
"","S2","","html-keyboard-response","85","478699","0.0-1.0-94.0","0","0","75665","","102","","","68","10","","d","","","","","","","","","","","","","",""
"","response","","html-keyboard-response","86","478804","0.0-1.0-95.0","0","0","75665","","102","","","68","10","","","1","10","training","adjacent","DC","4","3","Q.jpg","M.jpg","0","0","1","",""
"","feedback","","html-keyboard-response","87","479808","0.0-1.0-96.0-0.0","0","0","75665","","null","","","null","10","","","","","","","","","","","","","","","",""
"","ITI","","html-keyboard-response","88","480810","0.0-1.0-99.0","0","0","75665","","19","","","75","10","","","","","","","","","","","","","","","k",""
"","S1","","html-keyboard-response","89","481064","0.0-1.0-101.0","0","0","75665","","null","","","null","11","","","","","","","","","","","","","","","",""
"","ISI","","html-keyboard-response","90","483067","0.0-1.0-102.0","0","0","75665","","83","","","68","11","d","","","","","","","","","","","","","","",""
"","S2","","html-keyboard-response","91","483322","0.0-1.0-103.0","0","0","75665","","0","","","68","11","","d","","","","","","","","","","","","","",""
"","response","","html-keyboard-response","92","483333","0.0-1.0-104.0","0","0","75665","","9","","","68","11","","","1","11","training","adjacent","FE","6","5","P.jpg","O.jpg","0","0","1","",""
"","feedback","","html-keyboard-response","93","484339","0.0-1.0-105.0-0.0","0","0","75665","","null","","","null","11","","","","","","","","","","","","","","","",""
"","ITI","","html-keyboard-response","94","485340","0.0-1.0-108.0","0","0","75665","","104","","","68","11","","","","","","","","","","","","","","","d",""
"","S1","","html-keyboard-response","95","485592","0.0-1.0-110.0","0","0","75665","","null","","","null","12","","","","","","","","","","","","","","","",""
"","ISI","","html-keyboard-response","96","487596","0.0-1.0-111.0","0","0","75665","","9","","","75","12","k","","","","","","","","","","","","","","",""
"","S2","","html-keyboard-response","97","487852","0.0-1.0-112.0","0","0","75665","","null","","","null","12","","NaN","","","","","","","","","","","","","",""
"","response","","html-keyboard-response","98","488184","0.0-1.0-113.0","0","0","75665","","329","","","68","12","","","1","12","training","adjacent","DE","4","5","Q.jpg","O.jpg","0","1","0","",""
"","feedback","","html-keyboard-response","99","489188","0.0-1.0-114.0-0.0","0","0","75665","","null","","","null","12","","","","","","","","","","","","","","","",""
"","time_out","","html-keyboard-response","100","491192","0.0-1.0-116.0-0.0","0","0","75665","","null","","","null","12","","","","","","","","","","","","","","","",""
"","ITI","","html-keyboard-response","101","492194","0.0-1.0-117.0","0","0","75665","","6","","","75","12","","","","","","","","","","","","","","","k",""
"","S1","","html-keyboard-response","102","492446","0.0-1.0-119.0","0","0","75665","","null","","","null","13","","","","","","","","","","","","","","","",""
"","ISI","","html-keyboard-response","103","494449","0.0-1.0-120.0","0","0","75665","","58","","","75","13","k","","","","","","","","","","","","","","",""
"","S2","","html-keyboard-response","104","494702","0.0-1.0-121.0","0","0","75665","","100","","","75","13","","k","","","","","","","","","","","","","",""
"","response","","html-keyboard-response","105","494752","0.0-1.0-122.0","0","0","75665","","10","","","75","13","","","1","13","training","adjacent","EF","5","6","O.jpg","P.jpg","1","1","1","",""
"","feedback","","html-keyboard-response","106","495762","0.0-1.0-123.0-0.0","0","0","75665","","null","","","null","13","","","","","","","","","","","","","","","",""
"","ITI","","html-keyboard-response","107","496768","0.0-1.0-126.0","0","0","75665","","22","","","68","13","","","","","","","","","","","","","","","d",""
"","S1","","html-keyboard-response","108","497022","0.0-1.0-128.0","0","0","75665","","null","","","null","14","","","","","","","","","","","","","","","",""
"","ISI","","html-keyboard-response","109","499026","0.0-1.0-129.0","0","0","75665","","102","","","75","14","k","","","","","","","","","","","","","","",""
"","S2","","html-keyboard-response","110","499278","0.0-1.0-130.0","0","0","75665","","18","","","68","14","","d","","","","","","","","","","","","","",""
"","response","","html-keyboard-response","111","499438","0.0-1.0-131.0","0","0","75665","","157","","","75","14","","","1","14","training","adjacent","DE","4","5","Q.jpg","O.jpg","1","1","1","",""
"","feedback","","html-keyboard-response","112","500441","0.0-1.0-132.0-0.0","0","0","75665","","null","","","null","14","","","","","","","","","","","","","","","",""
"","ITI","","html-keyboard-response","113","501447","0.0-1.0-135.0","0","0","75665","","33","","","68","14","","","","","","","","","","","","","","","d",""
"","S1","","html-keyboard-response","114","501713","0.0-1.0-137.0","0","0","75665","","null","","","null","15","","","","","","","","","","","","","","","",""
"","ISI","","html-keyboard-response","115","503715","0.0-1.0-138.0","0","0","75665","","114","","","68","15","d","","","","","","","","","","","","","","",""
"","S2","","html-keyboard-response","116","503972","0.0-1.0-139.0","0","0","75665","","39","","","75","15","","k","","","","","","","","","","","","","",""
"","response","","html-keyboard-response","117","503984","0.0-1.0-140.0","0","0","75665","","8","","","75","15","","","1","15","training","adjacent","AB","1","2","L.jpg","N.jpg","1","1","1","",""
"","feedback","","html-keyboard-response","118","504989","0.0-1.0-141.0-0.0","0","0","75665","","null","","","null","15","","","","","","","","","","","","","","","",""
"","ITI","","html-keyboard-response","119","505999","0.0-1.0-144.0","0","0","75665","","125","","","68","15","","","","","","","","","","","","","","","d",""
"","S1","","html-keyboard-response","120","506254","0.0-1.0-146.0","0","0","75665","","null","","","null","16","","","","","","","","","","","","","","","",""
"","ISI","","html-keyboard-response","121","508256","0.0-1.0-147.0","0","0","75665","","65","","","68","16","d","","","","","","","","","","","","","","",""
"","S2","","html-keyboard-response","122","508510","0.0-1.0-148.0","0","0","75665","","116","","","75","16","","k","","","","","","","","","","","","","",""
"","response","","html-keyboard-response","123","508590","0.0-1.0-149.0","0","0","75665","","77","","","75","16","","","1","16","training","adjacent","BC","2","3","N.jpg","M.jpg","1","1","1","",""
"","feedback","","html-keyboard-response","124","509592","0.0-1.0-150.0-0.0","0","0","75665","","null","","","null","16","","","","","","","","","","","","","","","",""
"","ITI","","html-keyboard-response","125","510595","0.0-1.0-153.0","0","0","75665","","182","","","68","16","","","","","","","","","","","","","","","d",""
"","S1","","html-keyboard-response","126","510863","0.0-1.0-155.0","0","0","75665","","null","","","null","17","","","","","","","","","","","","","","","",""
"","ISI","","html-keyboard-response","127","512866","0.0-1.0-156.0","0","0","75665","","44","","","75","17","k","","","","","","","","","","","","","","",""
"","S2","","html-keyboard-response","128","513120","0.0-1.0-157.0","0","0","75665","","82","","","68","17","","d","","","","","","","","","","","","","",""
"","response","","html-keyboard-response","129","513230","0.0-1.0-158.0","0","0","75665","","108","","","68","17","","","1","17","training","adjacent","GF","7","6","R.jpg","P.jpg","0","0","1","",""
"","feedback","","html-keyboard-response","130","514235","0.0-1.0-159.0-0.0","0","0","75665","","null","","","null","17","","","","","","","","","","","","","","","",""
"","ITI","","html-keyboard-response","131","515238","0.0-1.0-162.0","0","0","75665","","131","","","75","17","","","","","","","","","","","","","","","k",""
"","S1","","html-keyboard-response","132","515492","0.0-1.0-164.0","0","0","75665","","null","","","null","18","","","","","","","","","","","","","","","",""
"","ISI","","html-keyboard-response","133","517495","0.0-1.0-165.0","0","0","75665","","186","","","68","18","d","","","","","","","","","","","","","","",""
"","S2","","html-keyboard-response","134","517751","0.0-1.0-166.0","0","0","75665","","204","","","68","18","","d","","","","","","","","","","","","","",""
"","response","","html-keyboard-response","135","517959","0.0-1.0-167.0","0","0","75665","","203","","","75","18","","","1","18","training","adjacent","GF","7","6","R.jpg","P.jpg","1","0","0","",""
"","feedback","","html-keyboard-response","136","518961","0.0-1.0-168.0-0.0","0","0","75665","","null","","","null","18","","","","","","","","","","","","","","","",""
"","time_out","","html-keyboard-response","137","520964","0.0-1.0-170.0-0.0","0","0","75665","","null","","","null","18","","","","","","","","","","","","","","","",""
"","ITI","","html-keyboard-response","138","521967","0.0-1.0-171.0","0","0","75665","","8","","","68","18","","","","","","","","","","","","","","","d",""
"","S1","","html-keyboard-response","139","522221","0.0-1.0-173.0","0","0","75665","","null","","","null","19","","","","","","","","","","","","","","","",""
"","ISI","","html-keyboard-response","140","524225","0.0-1.0-174.0","0","0","75665","","23","","","68","19","d","","","","","","","","","","","","","","",""
"","S2","","html-keyboard-response","141","524483","0.0-1.0-175.0","0","0","75665","","100","","","68","19","","d","","","","","","","","","","","","","",""
"","response","","html-keyboard-response","142","524507","0.0-1.0-176.0","0","0","75665","","18","","","75","19","","","1","19","training","adjacent","CD","3","4","M.jpg","Q.jpg","1","1","1","",""
"","feedback","","html-keyboard-response","143","525510","0.0-1.0-177.0-0.0","0","0","75665","","null","","","null","19","","","","","","","","","","","","","","","",""
"","ITI","","html-keyboard-response","144","526513","0.0-1.0-180.0","0","0","75665","","14","","","75","19","","","","","","","","","","","","","","","k",""
"","S1","","html-keyboard-response","145","526765","0.0-1.0-182.0","0","0","75665","","null","","","null","20","","","","","","","","","","","","","","","",""
"","ISI","","html-keyboard-response","146","528768","0.0-1.0-183.0","0","0","75665","","192","","","68","20","d","","","","","","","","","","","","","","",""
"","S2","","html-keyboard-response","147","529024","0.0-1.0-184.0","0","0","75665","","100","","","75","20","","k","","","","","","","","","","","","","",""
"","response","","html-keyboard-response","148","529209","0.0-1.0-185.0","0","0","75665","","182","","","75","20","","","1","20","training","adjacent","FE","6","5","P.jpg","O.jpg","1","0","0","",""
"","feedback","","html-keyboard-response","149","530212","0.0-1.0-186.0-0.0","0","0","75665","","null","","","null","20","","","","","","","","","","","","","","","",""
"","time_out","","html-keyboard-response","150","532216","0.0-1.0-188.0-0.0","0","0","75665","","null","","","null","20","","","","","","","","","","","","","","","",""
"","ITI","","html-keyboard-response","151","533218","0.0-1.0-189.0","0","0","75665","","133","","","68","20","","","","","","","","","","","","","","","d",""
"","S1","","html-keyboard-response","152","533471","0.0-1.0-191.0","0","0","75665","","null","","","null","21","","","","","","","","","","","","","","","",""
"","ISI","","html-keyboard-response","153","535474","0.0-1.0-192.0","0","0","75665","","231","","","75","21","k","","","","","","","","","","","","","","",""
"","S2","","html-keyboard-response","154","535727","0.0-1.0-193.0","0","0","75665","","42","","","75","21","","k","","","","","","","","","","","","","",""
"","response","","html-keyboard-response","155","535781","0.0-1.0-194.0","0","0","75665","","52","","","75","21","","","1","21","training","adjacent","FG","6","7","P.jpg","R.jpg","1","1","1","",""
"","feedback","","html-keyboard-response","156","536786","0.0-1.0-195.0-0.0","0","0","75665","","null","","","null","21","","","","","","","","","","","","","","","",""
"","ITI","","html-keyboard-response","157","537789","0.0-1.0-198.0","0","0","75665","","10","","","68","21","","","","","","","","","","","","","","","d",""
"","S1","","html-keyboard-response","158","538042","0.0-1.0-200.0","0","0","75665","","null","","","null","22","","","","","","","","","","","","","","","",""
"","ISI","","html-keyboard-response","159","540118","0.0-1.0-201.0","0","0","75665","","147","","","68","22","d","","","","","","","","","","","","","","",""
"","S2","","html-keyboard-response","160","540370","0.0-1.0-202.0","0","0","75665","","25","","","68","22","","d","","","","","","","","","","","","","",""
"","response","","html-keyboard-response","161","540544","0.0-1.0-203.0","0","0","75665","","169","","","68","22","","","1","22","training","adjacent","DC","4","3","Q.jpg","M.jpg","0","0","1","",""
"","feedback","","html-keyboard-response","162","541548","0.0-1.0-204.0-0.0","0","0","75665","","null","","","null","22","","","","","","","","","","","","","","","",""
"","ITI","","html-keyboard-response","163","542552","0.0-1.0-207.0","0","0","75665","","null","","","null","22","","","","","","","","","","","","","","","NaN",""
"","S1","","html-keyboard-response","164","542807","0.0-1.0-209.0","0","0","75665","","null","","","null","23","","","","","","","","","","","","","","","",""
"","ISI","","html-keyboard-response","165","544810","0.0-1.0-210.0","0","0","75665","","624","","","68","23","d","","","","","","","","","","","","","","",""
"","S2","","html-keyboard-response","166","545062","0.0-1.0-211.0","0","0","75665","","34","","","75","23","","k","","","","","","","","","","","","","",""
"","response","","html-keyboard-response","167","545232","0.0-1.0-212.0","0","0","75665","","168","","","68","23","","","1","23","training","adjacent","CD","3","4","M.jpg","Q.jpg","0","1","0","",""
"","feedback","","html-keyboard-response","168","546236","0.0-1.0-213.0-0.0","0","0","75665","","null","","","null","23","","","","","","","","","","","","","","","",""
"","time_out","","html-keyboard-response","169","548238","0.0-1.0-215.0-0.0","0","0","75665","","null","","","null","23","","","","","","","","","","","","","","","",""
"","ITI","","html-keyboard-response","170","549243","0.0-1.0-216.0","0","0","75665","","39","","","68","23","","","","","","","","","","","","","","","d",""
"","S1","","html-keyboard-response","171","549496","0.0-1.0-218.0","0","0","75665","","null","","","null","24","","","","","","","","","","","","","","","",""
"","ISI","","html-keyboard-response","172","551499","0.0-1.0-219.0","0","0","75665","","29","","","68","24","d","","","","","","","","","","","","","","",""
"","S2","","html-keyboard-response","173","551841","0.0-1.0-220.0","0","0","75665","","40","","","75","24","","k","","","","","","","","","","","","","",""
"","response","","html-keyboard-response","174","551843","0.0-1.0-221.0","0","0","75665","","1","","","75","24","","","1","24","training","adjacent","FG","6","7","P.jpg","R.jpg","1","1","1","",""
"","feedback","","html-keyboard-response","175","552846","0.0-1.0-222.0-0.0","0","0","75665","","null","","","null","24","","","","","","","","","","","","","","","",""
"","ITI","","html-keyboard-response","176","553853","0.0-1.0-225.0","0","0","75665","","7","","","68","24","","","","","","","","","","","","","","","d",""
"","S1","","html-keyboard-response","177","554109","0.0-1.0-227.0","0","0","75665","","null","","","null","25","","","","","","","","","","","","","","","",""
"","ISI","","html-keyboard-response","178","556113","0.0-1.0-228.0","0","0","75665","","16","","","68","25","d","","","","","","","","","","","","","","",""
"","S2","","html-keyboard-response","179","556365","0.0-1.0-229.0","0","0","75665","","149","","","75","25","","k","","","","","","","","","","","","","",""
"","response","","html-keyboard-response","180","556415","0.0-1.0-230.0","0","0","75665","","45","","","68","25","","","1","25","training","adjacent","DC","4","3","Q.jpg","M.jpg","0","0","1","",""
"","feedback","","html-keyboard-response","181","557419","0.0-1.0-231.0-0.0","0","0","75665","","null","","","null","25","","","","","","","","","","","","","","","",""
"","ITI","","html-keyboard-response","182","558422","0.0-1.0-234.0","0","0","75665","","81","","","68","25","","","","","","","","","","","","","","","d",""
"","S1","","html-keyboard-response","183","558677","0.0-1.0-236.0","0","0","75665","","null","","","null","26","","","","","","","","","","","","","","","",""
"","ISI","","html-keyboard-response","184","560680","0.0-1.0-237.0","0","0","75665","","83","","","75","26","k","","","","","","","","","","","","","","",""
"","S2","","html-keyboard-response","185","560933","0.0-1.0-238.0","0","0","75665","","116","","","75","26","","k","","","","","","","","","","","","","",""
"","response","","html-keyboard-response","186","561001","0.0-1.0-239.0","0","0","75665","","66","","","68","26","","","1","26","training","adjacent","BA","2","1","N.jpg","L.jpg","0","0","1","",""
"","feedback","","html-keyboard-response","187","562006","0.0-1.0-240.0-0.0","0","0","75665","","null","","","null","26","","","","","","","","","","","","","","","",""
"","ITI","","html-keyboard-response","188","563010","0.0-1.0-243.0","0","0","75665","","23","","","75","26","","","","","","","","","","","","","","","k",""
"","S1","","html-keyboard-response","189","563263","0.0-1.0-245.0","0","0","75665","","null","","","null","27","","","","","","","","","","","","","","","",""
"","ISI","","html-keyboard-response","190","565265","0.0-1.0-246.0","0","0","75665","","126","","","75","27","k","","","","","","","","","","","","","","",""
"","S2","","html-keyboard-response","191","565517","0.0-1.0-247.0","0","0","75665","","116","","","68","27","","d","","","","","","","","","","","","","",""
"","response","","html-keyboard-response","192","565521","0.0-1.0-248.0","0","0","75665","","3","","","75","27","","","1","27","training","adjacent","GF","7","6","R.jpg","P.jpg","1","0","0","",""
"","feedback","","html-keyboard-response","193","566525","0.0-1.0-249.0-0.0","0","0","75665","","null","","","null","27","","","","","","","","","","","","","","","",""
"","time_out","","html-keyboard-response","194","568529","0.0-1.0-251.0-0.0","0","0","75665","","null","","","null","27","","","","","","","","","","","","","","","",""
"","ITI","","html-keyboard-response","195","569617","0.0-1.0-252.0","0","0","75665","","40","","","75","27","","","","","","","","","","","","","","","k",""
"","S1","","html-keyboard-response","196","569901","0.0-1.0-254.0","0","0","75665","","null","","","null","28","","","","","","","","","","","","","","","",""
"","ISI","","html-keyboard-response","197","571905","0.0-1.0-255.0","0","0","75665","","38","","","75","28","k","","","","","","","","","","","","","","",""
"","S2","","html-keyboard-response","198","572158","0.0-1.0-256.0","0","0","75665","","147","","","75","28","","k","","","","","","","","","","","","","",""
"","response","","html-keyboard-response","199","572354","0.0-1.0-257.0","0","0","75665","","193","","","75","28","","","1","28","training","adjacent","GF","7","6","R.jpg","P.jpg","1","0","0","",""
"","feedback","","html-keyboard-response","200","573359","0.0-1.0-258.0-0.0","0","0","75665","","null","","","null","28","","","","","","","","","","","","","","","",""
"","time_out","","html-keyboard-response","201","575362","0.0-1.0-260.0-0.0","0","0","75665","","null","","","null","28","","","","","","","","","","","","","","","",""
"","ITI","","html-keyboard-response","202","576364","0.0-1.0-261.0","0","0","75665","","130","","","68","28","","","","","","","","","","","","","","","d",""
"","S1","","html-keyboard-response","203","576617","0.0-1.0-263.0","0","0","75665","","null","","","null","29","","","","","","","","","","","","","","","",""
"","ISI","","html-keyboard-response","204","578619","0.0-1.0-264.0","0","0","75665","","60","","","75","29","k","","","","","","","","","","","","","","",""
"","S2","","html-keyboard-response","205","578874","0.0-1.0-265.0","0","0","75665","","48","","","75","29","","k","","","","","","","","","","","","","",""
"","response","","html-keyboard-response","206","578884","0.0-1.0-266.0","0","0","75665","","8","","","68","29","","","1","29","training","adjacent","ED","5","4","O.jpg","Q.jpg","0","0","1","",""
"","feedback","","html-keyboard-response","207","579889","0.0-1.0-267.0-0.0","0","0","75665","","null","","","null","29","","","","","","","","","","","","","","","",""
"","ITI","","html-keyboard-response","208","580893","0.0-1.0-270.0","0","0","75665","","171","","","68","29","","","","","","","","","","","","","","","d",""
"","S1","","html-keyboard-response","209","581149","0.0-1.0-272.0","0","0","75665","","null","","","null","30","","","","","","","","","","","","","","","",""
"","ISI","","html-keyboard-response","210","583151","0.0-1.0-273.0","0","0","75665","","177","","","75","30","k","","","","","","","","","","","","","","",""
"","S2","","html-keyboard-response","211","583405","0.0-1.0-274.0","0","0","75665","","13","","","68","30","","d","","","","","","","","","","","","","",""
"","response","","html-keyboard-response","212","583475","0.0-1.0-275.0","0","0","75665","","67","","","68","30","","","1","30","training","adjacent","BA","2","1","N.jpg","L.jpg","0","0","1","",""
"","feedback","","html-keyboard-response","213","584479","0.0-1.0-276.0-0.0","0","0","75665","","null","","","null","30","","","","","","","","","","","","","","","",""
"","ITI","","html-keyboard-response","214","585482","0.0-1.0-279.0","0","0","75665","","79","","","75","30","","","","","","","","","","","","","","","k",""
"","S1","","html-keyboard-response","215","585741","0.0-1.0-281.0","0","0","75665","","null","","","null","31","","","","","","","","","","","","","","","",""
"","ISI","","html-keyboard-response","216","587750","0.0-1.0-282.0","0","0","75665","","1482","","","75","31","k","","","","","","","","","","","","","","",""
"","S2","","html-keyboard-response","217","588006","0.0-1.0-283.0","0","0","75665","","107","","","75","31","","k","","","","","","","","","","","","","",""
"","response","","html-keyboard-response","218","588056","0.0-1.0-284.0","0","0","75665","","48","","","75","31","","","1","31","training","adjacent","ED","5","4","O.jpg","Q.jpg","1","0","0","",""
"","feedback","","html-keyboard-response","219","589059","0.0-1.0-285.0-0.0","0","0","75665","","null","","","null","31","","","","","","","","","","","","","","","",""
"","time_out","","html-keyboard-response","220","591059","0.0-1.0-287.0-0.0","0","0","75665","","null","","","null","31","","","","","","","","","","","","","","","",""
"","ITI","","html-keyboard-response","221","592063","0.0-1.0-288.0","0","0","75665","","null","","","null","31","","","","","","","","","","","","","","","NaN",""
"","S1","","html-keyboard-response","222","592315","0.0-1.0-290.0","0","0","75665","","null","","","null","32","","","","","","","","","","","","","","","",""
"","ISI","","html-keyboard-response","223","594318","0.0-1.0-291.0","0","0","75665","","91","","","75","32","k","","","","","","","","","","","","","","",""
"","S2","","html-keyboard-response","224","594572","0.0-1.0-292.0","0","0","75665","","31","","","75","32","","k","","","","","","","","","","","","","",""
"","response","","html-keyboard-response","225","594591","0.0-1.0-293.0","0","0","75665","","17","","","75","32","","","1","32","training","adjacent","CB","3","2","M.jpg","N.jpg","1","0","0","",""
"","feedback","","html-keyboard-response","226","595594","0.0-1.0-294.0-0.0","0","0","75665","","null","","","null","32","","","","","","","","","","","","","","","",""
"","time_out","","html-keyboard-response","227","597598","0.0-1.0-296.0-0.0","0","0","75665","","null","","","null","32","","","","","","","","","","","","","","","",""
"","ITI","","html-keyboard-response","228","598606","0.0-1.0-297.0","0","0","75665","","72","","","68","32","","","","","","","","","","","","","","","d",""
"","S1","","html-keyboard-response","229","598861","0.0-1.0-299.0","0","0","75665","","null","","","null","33","","","","","","","","","","","","","","","",""
"","ISI","","html-keyboard-response","230","600864","0.0-1.0-300.0","0","0","75665","","112","","","68","33","d","","","","","","","","","","","","","","",""
"","S2","","html-keyboard-response","231","601118","0.0-1.0-301.0","0","0","75665","","93","","","68","33","","d","","","","","","","","","","","","","",""
"","response","","html-keyboard-response","232","601136","0.0-1.0-302.0","0","0","75665","","15","","","68","33","","","1","33","training","adjacent","AB","1","2","L.jpg","N.jpg","0","1","0","",""
"","feedback","","html-keyboard-response","233","602140","0.0-1.0-303.0-0.0","0","0","75665","","null","","","null","33","","","","","","","","","","","","","","","",""
"","time_out","","html-keyboard-response","234","604144","0.0-1.0-305.0-0.0","0","0","75665","","null","","","null","33","","","","","","","","","","","","","","","",""
"","ITI","","html-keyboard-response","235","605147","0.0-1.0-306.0","0","0","75665","","69","","","68","33","","","","","","","","","","","","","","","d",""
"","S1","","html-keyboard-response","236","605401","0.0-1.0-308.0","0","0","75665","","null","","","null","34","","","","","","","","","","","","","","","",""
"","ISI","","html-keyboard-response","237","607406","0.0-1.0-309.0","0","0","75665","","70","","","68","34","d","","","","","","","","","","","","","","",""
"","S2","","html-keyboard-response","238","607660","0.0-1.0-310.0","0","0","75665","","48","","","68","34","","d","","","","","","","","","","","","","",""
"","response","","html-keyboard-response","239","607692","0.0-1.0-311.0","0","0","75665","","28","","","68","34","","","1","34","training","adjacent","EF","5","6","O.jpg","P.jpg","0","1","0","",""
"","feedback","","html-keyboard-response","240","608698","0.0-1.0-312.0-0.0","0","0","75665","","null","","","null","34","","","","","","","","","","","","","","","",""
"","time_out","","html-keyboard-response","241","610701","0.0-1.0-314.0-0.0","0","0","75665","","null","","","null","34","","","","","","","","","","","","","","","",""
"","ITI","","html-keyboard-response","242","611704","0.0-1.0-315.0","0","0","75665","","81","","","68","34","","","","","","","","","","","","","","","d",""
"","S1","","html-keyboard-response","243","611957","0.0-1.0-317.0","0","0","75665","","null","","","null","35","","","","","","","","","","","","","","","",""
"","ISI","","html-keyboard-response","244","613968","0.0-1.0-318.0","0","0","75665","","57","","","75","35","k","","","","","","","","","","","","","","",""
"","S2","","html-keyboard-response","245","614224","0.0-1.0-319.0","0","0","75665","","0","","","68","35","","d","","","","","","","","","","","","","",""
"","response","","html-keyboard-response","246","614236","0.0-1.0-320.0","0","0","75665","","7","","","68","35","","","1","35","training","adjacent","ED","5","4","O.jpg","Q.jpg","0","0","1","",""
"","feedback","","html-keyboard-response","247","615239","0.0-1.0-321.0-0.0","0","0","75665","","null","","","null","35","","","","","","","","","","","","","","","",""
"","ITI","","html-keyboard-response","248","616243","0.0-1.0-324.0","0","0","75665","","128","","","68","35","","","","","","","","","","","","","","","d",""
"","S1","","html-keyboard-response","249","616497","0.0-1.0-326.0","0","0","75665","","null","","","null","36","","","","","","","","","","","","","","","",""
"","ISI","","html-keyboard-response","250","618501","0.0-1.0-327.0","0","0","75665","","104","","","68","36","d","","","","","","","","","","","","","","",""
"","S2","","html-keyboard-response","251","618756","0.0-1.0-328.0","0","0","75665","","75","","","75","36","","k","","","","","","","","","","","","","",""
"","response","","html-keyboard-response","252","618775","0.0-1.0-329.0","0","0","75665","","16","","","75","36","","","1","36","training","adjacent","EF","5","6","O.jpg","P.jpg","1","1","1","",""
"","feedback","","html-keyboard-response","253","619777","0.0-1.0-330.0-0.0","0","0","75665","","null","","","null","36","","","","","","","","","","","","","","","",""
"","ITI","","html-keyboard-response","254","620780","0.0-1.0-333.0","0","0","75665","","128","","","75","36","","","","","","","","","","","","","","","k",""
"","S1","","html-keyboard-response","255","621032","0.0-1.0-335.0","0","0","75665","","null","","","null","37","","","","","","","","","","","","","","","",""
"","ISI","","html-keyboard-response","256","623035","0.0-1.0-336.0","0","0","75665","","210","","","75","37","k","","","","","","","","","","","","","","",""
"","S2","","html-keyboard-response","257","623289","0.0-1.0-337.0","0","0","75665","","188","","","75","37","","k","","","","","","","","","","","","","",""
"","response","","html-keyboard-response","258","623458","0.0-1.0-338.0","0","0","75665","","167","","","68","37","","","1","37","training","adjacent","CB","3","2","M.jpg","N.jpg","0","0","1","",""
"","feedback","","html-keyboard-response","259","624463","0.0-1.0-339.0-0.0","0","0","75665","","null","","","null","37","","","","","","","","","","","","","","","",""
"","ITI","","html-keyboard-response","260","625464","0.0-1.0-342.0","0","0","75665","","null","","","null","37","","","","","","","","","","","","","","","NaN",""
"","S1","","html-keyboard-response","261","625748","0.0-1.0-344.0","0","0","75665","","null","","","null","38","","","","","","","","","","","","","","","",""
"","ISI","","html-keyboard-response","262","627753","0.0-1.0-345.0","0","0","75665","","43","","","75","38","k","","","","","","","","","","","","","","",""
"","S2","","html-keyboard-response","263","628007","0.0-1.0-346.0","0","0","75665","","123","","","75","38","","k","","","","","","","","","","","","","",""
"","response","","html-keyboard-response","264","628235","0.0-1.0-347.0","0","0","75665","","226","","","75","38","","","1","38","training","adjacent","FG","6","7","P.jpg","R.jpg","1","1","1","",""
"","feedback","","html-keyboard-response","265","629239","0.0-1.0-348.0-0.0","0","0","75665","","null","","","null","38","","","","","","","","","","","","","","","",""
"","ITI","","html-keyboard-response","266","630245","0.0-1.0-351.0","0","0","75665","","64","","","68","38","","","","","","","","","","","","","","","d",""
"","S1","","html-keyboard-response","267","630499","0.0-1.0-353.0","0","0","75665","","null","","","null","39","","","","","","","","","","","","","","","",""
"","ISI","","html-keyboard-response","268","632501","0.0-1.0-354.0","0","0","75665","","222","","","75","39","k","","","","","","","","","","","","","","",""
"","S2","","html-keyboard-response","269","632753","0.0-1.0-355.0","0","0","75665","","50","","","68","39","","d","","","","","","","","","","","","","",""
"","response","","html-keyboard-response","270","632811","0.0-1.0-356.0","0","0","75665","","55","","","68","39","","","1","39","training","adjacent","FE","6","5","P.jpg","O.jpg","0","0","1","",""
"","feedback","","html-keyboard-response","271","633816","0.0-1.0-357.0-0.0","0","0","75665","","null","","","null","39","","","","","","","","","","","","","","","",""
"","ITI","","html-keyboard-response","272","634820","0.0-1.0-360.0","0","0","75665","","64","","","75","39","","","","","","","","","","","","","","","k",""
"","S1","","html-keyboard-response","273","635074","0.0-1.0-362.0","0","0","75665","","null","","","null","40","","","","","","","","","","","","","","","",""
"","ISI","","html-keyboard-response","274","637078","0.0-1.0-363.0","0","0","75665","","133","","","68","40","d","","","","","","","","","","","","","","",""
"","S2","","html-keyboard-response","275","637332","0.0-1.0-364.0","0","0","75665","","33","","","75","40","","k","","","","","","","","","","","","","",""
"","response","","html-keyboard-response","276","637397","0.0-1.0-365.0","0","0","75665","","60","","","75","40","","","1","40","training","adjacent","FG","6","7","P.jpg","R.jpg","1","1","1","",""
"","feedback","","html-keyboard-response","277","638402","0.0-1.0-366.0-0.0","0","0","75665","","null","","","null","40","","","","","","","","","","","","","","","",""
"","ITI","","html-keyboard-response","278","639404","0.0-1.0-369.0","0","0","75665","","214","","","75","40","","","","","","","","","","","","","","","k",""
"","S1","","html-keyboard-response","279","639659","0.0-1.0-371.0","0","0","75665","","null","","","null","41","","","","","","","","","","","","","","","",""
"","ISI","","html-keyboard-response","280","641664","0.0-1.0-372.0","0","0","75665","","21","","","75","41","k","","","","","","","","","","","","","","",""
"","S2","","html-keyboard-response","281","641943","0.0-1.0-373.0","0","0","75665","","null","","","null","41","","NaN","","","","","","","","","","","","","",""
"","response","","html-keyboard-response","282","641980","0.0-1.0-374.0","0","0","75665","","35","","","68","41","","","1","41","training","adjacent","BC","2","3","N.jpg","M.jpg","0","1","0","",""
"","feedback","","html-keyboard-response","283","642983","0.0-1.0-375.0-0.0","0","0","75665","","null","","","null","41","","","","","","","","","","","","","","","",""
"","time_out","","html-keyboard-response","284","644987","0.0-1.0-377.0-0.0","0","0","75665","","null","","","null","41","","","","","","","","","","","","","","","",""
"","ITI","","html-keyboard-response","285","645993","0.0-1.0-378.0","0","0","75665","","37","","","68","41","","","","","","","","","","","","","","","d",""
"","S1","","html-keyboard-response","286","646252","0.0-1.0-380.0","0","0","75665","","null","","","null","42","","","","","","","","","","","","","","","",""
"","ISI","","html-keyboard-response","287","648255","0.0-1.0-381.0","0","0","75665","","44","","","75","42","k","","","","","","","","","","","","","","",""
"","S2","","html-keyboard-response","288","648508","0.0-1.0-382.0","0","0","75665","","57","","","68","42","","d","","","","","","","","","","","","","",""
"","response","","html-keyboard-response","289","648547","0.0-1.0-383.0","0","0","75665","","35","","","68","42","","","1","42","training","adjacent","DE","4","5","Q.jpg","O.jpg","0","1","0","",""
"","feedback","","html-keyboard-response","290","649550","0.0-1.0-384.0-0.0","0","0","75665","","null","","","null","42","","","","","","","","","","","","","","","",""
"","time_out","","html-keyboard-response","291","651552","0.0-1.0-386.0-0.0","0","0","75665","","null","","","null","42","","","","","","","","","","","","","","","",""
"","ITI","","html-keyboard-response","292","652554","0.0-1.0-387.0","0","0","75665","","49","","","75","42","","","","","","","","","","","","","","","k",""
"","S1","","html-keyboard-response","293","652807","0.0-1.0-389.0","0","0","75665","","null","","","null","43","","","","","","","","","","","","","","","",""
"","ISI","","html-keyboard-response","294","654809","0.0-1.0-390.0","0","0","75665","","148","","","75","43","k","","","","","","","","","","","","","","",""
"","S2","","html-keyboard-response","295","655062","0.0-1.0-391.0","0","0","75665","","null","","","null","43","","NaN","","","","","","","","","","","","","",""
"","response","","html-keyboard-response","296","655090","0.0-1.0-392.0","0","0","75665","","26","","","68","43","","","1","43","training","adjacent","AB","1","2","L.jpg","N.jpg","0","1","0","",""
"","feedback","","html-keyboard-response","297","656093","0.0-1.0-393.0-0.0","0","0","75665","","null","","","null","43","","","","","","","","","","","","","","","",""
"","time_out","","html-keyboard-response","298","658096","0.0-1.0-395.0-0.0","0","0","75665","","null","","","null","43","","","","","","","","","","","","","","","",""
"","ITI","","html-keyboard-response","299","659099","0.0-1.0-396.0","0","0","75665","","41","","","75","43","","","","","","","","","","","","","","","k",""
"","S1","","html-keyboard-response","300","659354","0.0-1.0-398.0","0","0","75665","","null","","","null","44","","","","","","","","","","","","","","","",""
"","ISI","","html-keyboard-response","301","661360","0.0-1.0-399.0","0","0","75665","","1440","","","75","44","k","","","","","","","","","","","","","","",""
"","S2","","html-keyboard-response","302","661614","0.0-1.0-400.0","0","0","75665","","138","","","75","44","","k","","","","","","","","","","","","","",""
"","response","","html-keyboard-response","303","661684","0.0-1.0-401.0","0","0","75665","","68","","","68","44","","","1","44","training","adjacent","CB","3","2","M.jpg","N.jpg","0","0","1","",""
"","feedback","","html-keyboard-response","304","662689","0.0-1.0-402.0-0.0","0","0","75665","","null","","","null","44","","","","","","","","","","","","","","","",""
"","ITI","","html-keyboard-response","305","663693","0.0-1.0-405.0","0","0","75665","","41","","","75","44","","","","","","","","","","","","","","","k",""
"","S1","","html-keyboard-response","306","663949","0.0-1.0-407.0","0","0","75665","","null","","","null","45","","","","","","","","","","","","","","","",""
"","ISI","","html-keyboard-response","307","665951","0.0-1.0-408.0","0","0","75665","","37","","","68","45","d","","","","","","","","","","","","","","",""
"","S2","","html-keyboard-response","308","666208","0.0-1.0-409.0","0","0","75665","","40","","","75","45","","k","","","","","","","","","","","","","",""
"","response","","html-keyboard-response","309","666245","0.0-1.0-410.0","0","0","75665","","34","","","75","45","","","1","45","training","adjacent","EF","5","6","O.jpg","P.jpg","1","1","1","",""
"","feedback","","html-keyboard-response","310","667248","0.0-1.0-411.0-0.0","0","0","75665","","null","","","null","45","","","","","","","","","","","","","","","",""
"","ITI","","html-keyboard-response","311","668251","0.0-1.0-414.0","0","0","75665","","229","","","68","45","","","","","","","","","","","","","","","d",""
"","S1","","html-keyboard-response","312","668507","0.0-1.0-416.0","0","0","75665","","null","","","null","46","","","","","","","","","","","","","","","",""
"","ISI","","html-keyboard-response","313","670513","0.0-1.0-417.0","0","0","75665","","183","","","68","46","d","","","","","","","","","","","","","","",""
"","S2","","html-keyboard-response","314","670768","0.0-1.0-418.0","0","0","75665","","33","","","75","46","","k","","","","","","","","","","","","","",""
"","response","","html-keyboard-response","315","670797","0.0-1.0-419.0","0","0","75665","","26","","","75","46","","","1","46","training","adjacent","AB","1","2","L.jpg","N.jpg","1","1","1","",""
"","feedback","","html-keyboard-response","316","671801","0.0-1.0-420.0-0.0","0","0","75665","","null","","","null","46","","","","","","","","","","","","","","","",""
"","ITI","","html-keyboard-response","317","672803","0.0-1.0-423.0","0","0","75665","","191","","","68","46","","","","","","","","","","","","","","","d",""
"","S1","","html-keyboard-response","318","673055","0.0-1.0-425.0","0","0","75665","","null","","","null","47","","","","","","","","","","","","","","","",""
"","ISI","","html-keyboard-response","319","675058","0.0-1.0-426.0","0","0","75665","","73","","","75","47","k","","","","","","","","","","","","","","",""
"","S2","","html-keyboard-response","320","675313","0.0-1.0-427.0","0","0","75665","","150","","","75","47","","k","","","","","","","","","","","","","",""
"","response","","html-keyboard-response","321","675450","0.0-1.0-428.0","0","0","75665","","132","","","75","47","","","1","47","training","adjacent","DE","4","5","Q.jpg","O.jpg","1","1","1","",""
"","feedback","","html-keyboard-response","322","676455","0.0-1.0-429.0-0.0","0","0","75665","","null","","","null","47","","","","","","","","","","","","","","","",""
"","ITI","","html-keyboard-response","323","677461","0.0-1.0-432.0","0","0","75665","","309","","","75","47","","","","","","","","","","","","","","","k",""
"","block_over","","html-keyboard-response","324","708279","0.0-1.0-433.0-0.0","0","0","75665","","30809","","","32","47","","","","","","","","","","","","","","","",""
"","S1","","html-keyboard-response","325","708531","0.0-1.0-434.0","0","0","75665","","null","","","null","48","","","","","","","","","","","","","","","",""
"","ISI","","html-keyboard-response","326","710533","0.0-1.0-435.0","0","0","75665","","1074","","","83","48","s","","","","","","","","","","","","","","",""
"","S2","","html-keyboard-response","327","710787","0.0-1.0-436.0","0","0","75665","","52","","","68","48","","d","","","","","","","","","","","","","",""
"","response","","html-keyboard-response","328","710888","0.0-1.0-437.0","0","0","75665","","97","","","68","48","","","2","48","training","adjacent","FE","6","5","P.jpg","O.jpg","0","0","1","",""
"","feedback","","html-keyboard-response","329","711891","0.0-1.0-438.0-0.0","0","0","75665","","null","","","null","48","","","","","","","","","","","","","","","",""
"","ITI","","html-keyboard-response","330","712901","0.0-1.0-441.0","0","0","75665","","117","","","68","48","","","","","","","","","","","","","","","d",""
"","S1","","html-keyboard-response","331","713158","0.0-1.0-443.0","0","0","75665","","null","","","null","49","","","","","","","","","","","","","","","",""
"","ISI","","html-keyboard-response","332","715160","0.0-1.0-444.0","0","0","75665","","148","","","68","49","d","","","","","","","","","","","","","","",""
"","S2","","html-keyboard-response","333","715414","0.0-1.0-445.0","0","0","75665","","63","","","68","49","","d","","","","","","","","","","","","","",""
"","response","","html-keyboard-response","334","715606","0.0-1.0-446.0","0","0","75665","","188","","","68","49","","","2","49","training","adjacent","GF","7","6","R.jpg","P.jpg","0","0","1","",""
"","feedback","","html-keyboard-response","335","716618","0.0-1.0-447.0-0.0","0","0","75665","","null","","","null","49","","","","","","","","","","","","","","","",""
"","ITI","","html-keyboard-response","336","717620","0.0-1.0-450.0","0","0","75665","","1","","","68","49","","","","","","","","","","","","","","","d",""
"","S1","","html-keyboard-response","337","717879","0.0-1.0-452.0","0","0","75665","","null","","","null","50","","","","","","","","","","","","","","","",""
"","ISI","","html-keyboard-response","338","719883","0.0-1.0-453.0","0","0","75665","","34","","","68","50","d","","","","","","","","","","","","","","",""
"","S2","","html-keyboard-response","339","720152","0.0-1.0-454.0","0","0","75665","","46","","","75","50","","k","","","","","","","","","","","","","",""
"","response","","html-keyboard-response","340","720373","0.0-1.0-455.0","0","0","75665","","218","","","68","50","","","2","50","training","adjacent","BA","2","1","N.jpg","L.jpg","0","0","1","",""
"","feedback","","html-keyboard-response","341","721429","0.0-1.0-456.0-0.0","0","0","75665","","null","","","null","50","","","","","","","","","","","","","","","",""
"","ITI","","html-keyboard-response","342","722432","0.0-1.0-459.0","0","0","75665","","108","","","75","50","","","","","","","","","","","","","","","k",""
"","S1","","html-keyboard-response","343","722703","0.0-1.0-461.0","0","0","75665","","null","","","null","51","","","","","","","","","","","","","","","",""
"","ISI","","html-keyboard-response","344","724707","0.0-1.0-462.0","0","0","75665","","19","","","75","51","k","","","","","","","","","","","","","","",""
"","S2","","html-keyboard-response","345","724962","0.0-1.0-463.0","0","0","75665","","134","","","75","51","","k","","","","","","","","","","","","","",""
"","response","","html-keyboard-response","346","724981","0.0-1.0-464.0","0","0","75665","","16","","","68","51","","","2","51","training","adjacent","CB","3","2","M.jpg","N.jpg","0","0","1","",""
"","feedback","","html-keyboard-response","347","725986","0.0-1.0-465.0-0.0","0","0","75665","","null","","","null","51","","","","","","","","","","","","","","","",""
"","ITI","","html-keyboard-response","348","726989","0.0-1.0-468.0","0","0","75665","","113","","","75","51","","","","","","","","","","","","","","","k",""
"","S1","","html-keyboard-response","349","727245","0.0-1.0-470.0","0","0","75665","","null","","","null","52","","","","","","","","","","","","","","","",""
"","ISI","","html-keyboard-response","350","729249","0.0-1.0-471.0","0","0","75665","","38","","","68","52","d","","","","","","","","","","","","","","",""
"","S2","","html-keyboard-response","351","729509","0.0-1.0-472.0","0","0","75665","","54","","","68","52","","d","","","","","","","","","","","","","",""
"","response","","html-keyboard-response","352","729678","0.0-1.0-473.0","0","0","75665","","165","","","68","52","","","2","52","training","adjacent","CB","3","2","M.jpg","N.jpg","0","0","1","",""
"","feedback","","html-keyboard-response","353","730681","0.0-1.0-474.0-0.0","0","0","75665","","null","","","null","52","","","","","","","","","","","","","","","",""
"","ITI","","html-keyboard-response","354","731729","0.0-1.0-477.0","0","0","75665","","32","","","75","52","","","","","","","","","","","","","","","k",""
"","S1","","html-keyboard-response","355","731985","0.0-1.0-479.0","0","0","75665","","null","","","null","53","","","","","","","","","","","","","","","",""
"","ISI","","html-keyboard-response","356","734054","0.0-1.0-480.0","0","0","75665","","8","","","75","53","k","","","","","","","","","","","","","","",""
"","S2","","html-keyboard-response","357","734339","0.0-1.0-481.0","0","0","75665","","null","","","null","53","","NaN","","","","","","","","","","","","","",""
"","response","","html-keyboard-response","358","734582","0.0-1.0-482.0","0","0","75665","","239","","","75","53","","","2","53","training","adjacent","GF","7","6","R.jpg","P.jpg","1","0","0","",""
"","feedback","","html-keyboard-response","359","735589","0.0-1.0-483.0-0.0","0","0","75665","","null","","","null","53","","","","","","","","","","","","","","","",""
"","time_out","","html-keyboard-response","360","737592","0.0-1.0-485.0-0.0","0","0","75665","","null","","","null","53","","","","","","","","","","","","","","","",""
"","ITI","","html-keyboard-response","361","738595","0.0-1.0-486.0","0","0","75665","","83","","","68","53","","","","","","","","","","","","","","","d",""
"","S1","","html-keyboard-response","362","738847","0.0-1.0-488.0","0","0","75665","","null","","","null","54","","","","","","","","","","","","","","","",""
"","ISI","","html-keyboard-response","363","740852","0.0-1.0-489.0","0","0","75665","","66","","","75","54","k","","","","","","","","","","","","","","",""
"","S2","","html-keyboard-response","364","741109","0.0-1.0-490.0","0","0","75665","","39","","","68","54","","d","","","","","","","","","","","","","",""
"","response","","html-keyboard-response","365","741174","0.0-1.0-491.0","0","0","75665","","61","","","75","54","","","2","54","training","adjacent","BC","2","3","N.jpg","M.jpg","1","1","1","",""
"","feedback","","html-keyboard-response","366","742178","0.0-1.0-492.0-0.0","0","0","75665","","null","","","null","54","","","","","","","","","","","","","","","",""
"","ITI","","html-keyboard-response","367","743223","0.0-1.0-495.0","0","0","75665","","95","","","75","54","","","","","","","","","","","","","","","k",""
"","S1","","html-keyboard-response","368","743492","0.0-1.0-497.0","0","0","75665","","null","","","null","55","","","","","","","","","","","","","","","",""
"","ISI","","html-keyboard-response","369","745495","0.0-1.0-498.0","0","0","75665","","3","","","68","55","d","","","","","","","","","","","","","","",""
"","S2","","html-keyboard-response","370","745751","0.0-1.0-499.0","0","0","75665","","122","","","68","55","","d","","","","","","","","","","","","","",""
"","response","","html-keyboard-response","371","745803","0.0-1.0-500.0","0","0","75665","","50","","","68","55","","","2","55","training","adjacent","ED","5","4","O.jpg","Q.jpg","0","0","1","",""
"","feedback","","html-keyboard-response","372","746806","0.0-1.0-501.0-0.0","0","0","75665","","null","","","null","55","","","","","","","","","","","","","","","",""
"","ITI","","html-keyboard-response","373","747835","0.0-1.0-504.0","0","0","75665","","188","","","68","55","","","","","","","","","","","","","","","d",""
"","S1","","html-keyboard-response","374","748088","0.0-1.0-506.0","0","0","75665","","null","","","null","56","","","","","","","","","","","","","","","",""
"","ISI","","html-keyboard-response","375","750092","0.0-1.0-507.0","0","0","75665","","100","","","68","56","d","","","","","","","","","","","","","","",""
"","S2","","html-keyboard-response","376","750354","0.0-1.0-508.0","0","0","75665","","63","","","75","56","","k","","","","","","","","","","","","","",""
"","response","","html-keyboard-response","377","750359","0.0-1.0-509.0","0","0","75665","","0","","","68","56","","","2","56","training","adjacent","BC","2","3","N.jpg","M.jpg","0","1","0","",""
"","feedback","","html-keyboard-response","378","751364","0.0-1.0-510.0-0.0","0","0","75665","","null","","","null","56","","","","","","","","","","","","","","","",""
"","time_out","","html-keyboard-response","379","753366","0.0-1.0-512.0-0.0","0","0","75665","","null","","","null","56","","","","","","","","","","","","","","","",""
"","ITI","","html-keyboard-response","380","754367","0.0-1.0-513.0","0","0","75665","","146","","","68","56","","","","","","","","","","","","","","","d",""
"","S1","","html-keyboard-response","381","754620","0.0-1.0-515.0","0","0","75665","","null","","","null","57","","","","","","","","","","","","","","","",""
"","ISI","","html-keyboard-response","382","756626","0.0-1.0-516.0","0","0","75665","","78","","","68","57","d","","","","","","","","","","","","","","",""
"","S2","","html-keyboard-response","383","756880","0.0-1.0-517.0","0","0","75665","","16","","","75","57","","k","","","","","","","","","","","","","",""
"","response","","html-keyboard-response","384","756905","0.0-1.0-518.0","0","0","75665","","22","","","75","57","","","2","57","training","adjacent","EF","5","6","O.jpg","P.jpg","1","1","1","",""
"","feedback","","html-keyboard-response","385","757929","0.0-1.0-519.0-0.0","0","0","75665","","null","","","null","57","","","","","","","","","","","","","","","",""
"","ITI","","html-keyboard-response","386","758944","0.0-1.0-522.0","0","0","75665","","97","","","75","57","","","","","","","","","","","","","","","k",""
"","S1","","html-keyboard-response","387","759196","0.0-1.0-524.0","0","0","75665","","null","","","null","58","","","","","","","","","","","","","","","",""
"","ISI","","html-keyboard-response","388","761200","0.0-1.0-525.0","0","0","75665","","49","","","68","58","d","","","","","","","","","","","","","","",""
"","S2","","html-keyboard-response","389","761492","0.0-1.0-526.0","0","0","75665","","91","","","68","58","","d","","","","","","","","","","","","","",""
"","response","","html-keyboard-response","390","761580","0.0-1.0-527.0","0","0","75665","","87","","","68","58","","","2","58","training","adjacent","ED","5","4","O.jpg","Q.jpg","0","0","1","",""
"","feedback","","html-keyboard-response","391","762584","0.0-1.0-528.0-0.0","0","0","75665","","null","","","null","58","","","","","","","","","","","","","","","",""
"","ITI","","html-keyboard-response","392","763587","0.0-1.0-531.0","0","0","75665","","67","","","68","58","","","","","","","","","","","","","","","d",""
"","S1","","html-keyboard-response","393","763841","0.0-1.0-533.0","0","0","75665","","null","","","null","59","","","","","","","","","","","","","","","",""
"","ISI","","html-keyboard-response","394","765846","0.0-1.0-534.0","0","0","75665","","58","","","75","59","k","","","","","","","","","","","","","","",""
"","S2","","html-keyboard-response","395","766101","0.0-1.0-535.0","0","0","75665","","102","","","75","59","","k","","","","","","","","","","","","","",""
"","response","","html-keyboard-response","396","766141","0.0-1.0-536.0","0","0","75665","","37","","","75","59","","","2","59","training","adjacent","BA","2","1","N.jpg","L.jpg","1","0","0","",""
"","feedback","","html-keyboard-response","397","767145","0.0-1.0-537.0-0.0","0","0","75665","","null","","","null","59","","","","","","","","","","","","","","","",""
"","time_out","","html-keyboard-response","398","769147","0.0-1.0-539.0-0.0","0","0","75665","","null","","","null","59","","","","","","","","","","","","","","","",""
"","ITI","","html-keyboard-response","399","770153","0.0-1.0-540.0","0","0","75665","","113","","","75","59","","","","","","","","","","","","","","","k",""
"","S1","","html-keyboard-response","400","770407","0.0-1.0-542.0","0","0","75665","","null","","","null","60","","","","","","","","","","","","","","","",""
"","ISI","","html-keyboard-response","401","772413","0.0-1.0-543.0","0","0","75665","","68","","","68","60","d","","","","","","","","","","","","","","",""
"","S2","","html-keyboard-response","402","772666","0.0-1.0-544.0","0","0","75665","","55","","","68","60","","d","","","","","","","","","","","","","",""
"","response","","html-keyboard-response","403","772676","0.0-1.0-545.0","0","0","75665","","8","","","68","60","","","2","60","training","adjacent","FE","6","5","P.jpg","O.jpg","0","0","1","",""
"","feedback","","html-keyboard-response","404","773679","0.0-1.0-546.0-0.0","0","0","75665","","null","","","null","60","","","","","","","","","","","","","","","",""
"","ITI","","html-keyboard-response","405","774684","0.0-1.0-549.0","0","0","75665","","81","","","75","60","","","","","","","","","","","","","","","k",""
"","S1","","html-keyboard-response","406","774942","0.0-1.0-551.0","0","0","75665","","null","","","null","61","","","","","","","","","","","","","","","",""
"","ISI","","html-keyboard-response","407","776945","0.0-1.0-552.0","0","0","75665","","40","","","75","61","k","","","","","","","","","","","","","","",""
"","S2","","html-keyboard-response","408","777198","0.0-1.0-553.0","0","0","75665","","49","","","68","61","","d","","","","","","","","","","","","","",""
"","response","","html-keyboard-response","409","777290","0.0-1.0-554.0","0","0","75665","","83","","","68","61","","","2","61","training","adjacent","CB","3","2","M.jpg","N.jpg","0","0","1","",""
"","feedback","","html-keyboard-response","410","778294","0.0-1.0-555.0-0.0","0","0","75665","","null","","","null","61","","","","","","","","","","","","","","","",""
"","ITI","","html-keyboard-response","411","779299","0.0-1.0-558.0","0","0","75665","","118","","","75","61","","","","","","","","","","","","","","","k",""
"","S1","","html-keyboard-response","412","779552","0.0-1.0-560.0","0","0","75665","","null","","","null","62","","","","","","","","","","","","","","","",""
"","ISI","","html-keyboard-response","413","781566","0.0-1.0-561.0","0","0","75665","","148","","","68","62","d","","","","","","","","","","","","","","",""
"","S2","","html-keyboard-response","414","781821","0.0-1.0-562.0","0","0","75665","","0","","","75","62","","k","","","","","","","","","","","","","",""
"","response","","html-keyboard-response","415","781830","0.0-1.0-563.0","0","0","75665","","6","","","75","62","","","2","62","training","adjacent","AB","1","2","L.jpg","N.jpg","1","1","1","",""
"","feedback","","html-keyboard-response","416","782835","0.0-1.0-564.0-0.0","0","0","75665","","null","","","null","62","","","","","","","","","","","","","","","",""
"","ITI","","html-keyboard-response","417","783846","0.0-1.0-567.0","0","0","75665","","81","","","75","62","","","","","","","","","","","","","","","k",""
"","S1","","html-keyboard-response","418","784107","0.0-1.0-569.0","0","0","75665","","null","","","null","63","","","","","","","","","","","","","","","",""
"","ISI","","html-keyboard-response","419","786113","0.0-1.0-570.0","0","0","75665","","1","","","75","63","k","","","","","","","","","","","","","","",""
"","S2","","html-keyboard-response","420","786366","0.0-1.0-571.0","0","0","75665","","171","","","68","63","","d","","","","","","","","","","","","","",""
"","response","","html-keyboard-response","421","786600","0.0-1.0-572.0","0","0","75665","","230","","","75","63","","","2","63","training","adjacent","GF","7","6","R.jpg","P.jpg","1","0","0","",""
"","feedback","","html-keyboard-response","422","787608","0.0-1.0-573.0-0.0","0","0","75665","","null","","","null","63","","","","","","","","","","","","","","","",""
"","time_out","","html-keyboard-response","423","789610","0.0-1.0-575.0-0.0","0","0","75665","","null","","","null","63","","","","","","","","","","","","","","","",""
"","ITI","","html-keyboard-response","424","790615","0.0-1.0-576.0","0","0","75665","","57","","","75","63","","","","","","","","","","","","","","","k",""
"","S1","","html-keyboard-response","425","790870","0.0-1.0-578.0","0","0","75665","","null","","","null","64","","","","","","","","","","","","","","","",""
"","ISI","","html-keyboard-response","426","792873","0.0-1.0-579.0","0","0","75665","","143","","","68","64","d","","","","","","","","","","","","","","",""
"","S2","","html-keyboard-response","427","793126","0.0-1.0-580.0","0","0","75665","","103","","","68","64","","d","","","","","","","","","","","","","",""
"","response","","html-keyboard-response","428","793240","0.0-1.0-581.0","0","0","75665","","110","","","68","64","","","2","64","training","adjacent","AB","1","2","L.jpg","N.jpg","0","1","0","",""
"","feedback","","html-keyboard-response","429","794242","0.0-1.0-582.0-0.0","0","0","75665","","null","","","null","64","","","","","","","","","","","","","","","",""
"","time_out","","html-keyboard-response","430","796245","0.0-1.0-584.0-0.0","0","0","75665","","null","","","null","64","","","","","","","","","","","","","","","",""
"","ITI","","html-keyboard-response","431","797249","0.0-1.0-585.0","0","0","75665","","63","","","75","64","","","","","","","","","","","","","","","k",""
"","S1","","html-keyboard-response","432","797503","0.0-1.0-587.0","0","0","75665","","null","","","null","65","","","","","","","","","","","","","","","",""
"","ISI","","html-keyboard-response","433","799515","0.0-1.0-588.0","0","0","75665","","146","","","75","65","k","","","","","","","","","","","","","","",""
"","S2","","html-keyboard-response","434","799799","0.0-1.0-589.0","0","0","75665","","179","","","75","65","","k","","","","","","","","","","","","","",""
"","response","","html-keyboard-response","435","799893","0.0-1.0-590.0","0","0","75665","","82","","","68","65","","","2","65","training","adjacent","FE","6","5","P.jpg","O.jpg","0","0","1","",""
"","feedback","","html-keyboard-response","436","800898","0.0-1.0-591.0-0.0","0","0","75665","","null","","","null","65","","","","","","","","","","","","","","","",""
"","ITI","","html-keyboard-response","437","802118","0.0-1.0-594.0","0","0","75665","","39","","","75","65","","","","","","","","","","","","","","","k",""
"","S1","","html-keyboard-response","438","802376","0.0-1.0-596.0","0","0","75665","","null","","","null","66","","","","","","","","","","","","","","","",""
"","ISI","","html-keyboard-response","439","804379","0.0-1.0-597.0","0","0","75665","","20","","","75","66","k","","","","","","","","","","","","","","",""
"","S2","","html-keyboard-response","440","804635","0.0-1.0-598.0","0","0","75665","","89","","","75","66","","k","","","","","","","","","","","","","",""
"","response","","html-keyboard-response","441","804759","0.0-1.0-599.0","0","0","75665","","121","","","75","66","","","2","66","training","adjacent","CD","3","4","M.jpg","Q.jpg","1","1","1","",""
"","feedback","","html-keyboard-response","442","805784","0.0-1.0-600.0-0.0","0","0","75665","","null","","","null","66","","","","","","","","","","","","","","","",""
"","ITI","","html-keyboard-response","443","806790","0.0-1.0-603.0","0","0","75665","","9","","","68","66","","","","","","","","","","","","","","","d",""
"","S1","","html-keyboard-response","444","807044","0.0-1.0-605.0","0","0","75665","","null","","","null","67","","","","","","","","","","","","","","","",""
"","ISI","","html-keyboard-response","445","809046","0.0-1.0-606.0","0","0","75665","","35","","","68","67","d","","","","","","","","","","","","","","",""
"","S2","","html-keyboard-response","446","809303","0.0-1.0-607.0","0","0","75665","","14","","","68","67","","d","","","","","","","","","","","","","",""
"","response","","html-keyboard-response","447","809462","0.0-1.0-608.0","0","0","75665","","156","","","75","67","","","2","67","training","adjacent","BC","2","3","N.jpg","M.jpg","1","1","1","",""
"","feedback","","html-keyboard-response","448","810495","0.0-1.0-609.0-0.0","0","0","75665","","null","","","null","67","","","","","","","","","","","","","","","",""
"","ITI","","html-keyboard-response","449","811499","0.0-1.0-612.0","0","0","75665","","19","","","75","67","","","","","","","","","","","","","","","k",""
"","S1","","html-keyboard-response","450","811756","0.0-1.0-614.0","0","0","75665","","null","","","null","68","","","","","","","","","","","","","","","",""
"","ISI","","html-keyboard-response","451","813764","0.0-1.0-615.0","0","0","75665","","176","","","68","68","d","","","","","","","","","","","","","","",""
"","S2","","html-keyboard-response","452","814018","0.0-1.0-616.0","0","0","75665","","123","","","75","68","","k","","","","","","","","","","","","","",""
"","response","","html-keyboard-response","453","814103","0.0-1.0-617.0","0","0","75665","","81","","","75","68","","","2","68","training","adjacent","EF","5","6","O.jpg","P.jpg","1","1","1","",""
"","feedback","","html-keyboard-response","454","815105","0.0-1.0-618.0-0.0","0","0","75665","","null","","","null","68","","","","","","","","","","","","","","","",""
"","ITI","","html-keyboard-response","455","816108","0.0-1.0-621.0","0","0","75665","","43","","","68","68","","","","","","","","","","","","","","","d",""
"","S1","","html-keyboard-response","456","816363","0.0-1.0-623.0","0","0","75665","","null","","","null","69","","","","","","","","","","","","","","","",""
"","ISI","","html-keyboard-response","457","818365","0.0-1.0-624.0","0","0","75665","","178","","","75","69","k","","","","","","","","","","","","","","",""
"","S2","","html-keyboard-response","458","818617","0.0-1.0-625.0","0","0","75665","","96","","","68","69","","d","","","","","","","","","","","","","",""
"","response","","html-keyboard-response","459","818727","0.0-1.0-626.0","0","0","75665","","107","","","68","69","","","2","69","training","adjacent","BA","2","1","N.jpg","L.jpg","0","0","1","",""
"","feedback","","html-keyboard-response","460","819736","0.0-1.0-627.0-0.0","0","0","75665","","null","","","null","69","","","","","","","","","","","","","","","",""
"","ITI","","html-keyboard-response","461","820740","0.0-1.0-630.0","0","0","75665","","53","","","75","69","","","","","","","","","","","","","","","k",""
"","S1","","html-keyboard-response","462","820994","0.0-1.0-632.0","0","0","75665","","null","","","null","70","","","","","","","","","","","","","","","",""
"","ISI","","html-keyboard-response","463","822998","0.0-1.0-633.0","0","0","75665","","27","","","68","70","d","","","","","","","","","","","","","","",""
"","S2","","html-keyboard-response","464","823252","0.0-1.0-634.0","0","0","75665","","79","","","68","70","","d","","","","","","","","","","","","","",""
"","response","","html-keyboard-response","465","823376","0.0-1.0-635.0","0","0","75665","","121","","","68","70","","","2","70","training","adjacent","DC","4","3","Q.jpg","M.jpg","0","0","1","",""
"","feedback","","html-keyboard-response","466","824381","0.0-1.0-636.0-0.0","0","0","75665","","null","","","null","70","","","","","","","","","","","","","","","",""
"","ITI","","html-keyboard-response","467","825389","0.0-1.0-639.0","0","0","75665","","31","","","75","70","","","","","","","","","","","","","","","k",""
"","S1","","html-keyboard-response","468","825643","0.0-1.0-641.0","0","0","75665","","null","","","null","71","","","","","","","","","","","","","","","",""
"","ISI","","html-keyboard-response","469","827645","0.0-1.0-642.0","0","0","75665","","82","","","75","71","k","","","","","","","","","","","","","","",""
"","S2","","html-keyboard-response","470","827932","0.0-1.0-643.0","0","0","75665","","157","","","68","71","","d","","","","","","","","","","","","","",""
"","response","","html-keyboard-response","471","828080","0.0-1.0-644.0","0","0","75665","","143","","","68","71","","","2","71","training","adjacent","FG","6","7","P.jpg","R.jpg","0","1","0","",""
"","feedback","","html-keyboard-response","472","829083","0.0-1.0-645.0-0.0","0","0","75665","","null","","","null","71","","","","","","","","","","","","","","","",""
"","time_out","","html-keyboard-response","473","831104","0.0-1.0-647.0-0.0","0","0","75665","","null","","","null","71","","","","","","","","","","","","","","","",""
"","ITI","","html-keyboard-response","474","832108","0.0-1.0-648.0","0","0","75665","","8","","","68","71","","","","","","","","","","","","","","","d",""
"","S1","","html-keyboard-response","475","832362","0.0-1.0-650.0","0","0","75665","","null","","","null","72","","","","","","","","","","","","","","","",""
"","ISI","","html-keyboard-response","476","834366","0.0-1.0-651.0","0","0","75665","","75","","","75","72","k","","","","","","","","","","","","","","",""
"","S2","","html-keyboard-response","477","834627","0.0-1.0-652.0","0","0","75665","","96","","","75","72","","k","","","","","","","","","","","","","",""
"","response","","html-keyboard-response","478","834775","0.0-1.0-653.0","0","0","75665","","146","","","75","72","","","2","72","training","adjacent","FE","6","5","P.jpg","O.jpg","1","0","0","",""
"","feedback","","html-keyboard-response","479","835777","0.0-1.0-654.0-0.0","0","0","75665","","null","","","null","72","","","","","","","","","","","","","","","",""
"","time_out","","html-keyboard-response","480","837792","0.0-1.0-656.0-0.0","0","0","75665","","null","","","null","72","","","","","","","","","","","","","","","",""
"","ITI","","html-keyboard-response","481","838796","0.0-1.0-657.0","0","0","75665","","238","","","75","72","","","","","","","","","","","","","","","k",""
"","S1","","html-keyboard-response","482","839053","0.0-1.0-659.0","0","0","75665","","null","","","null","73","","","","","","","","","","","","","","","",""
"","ISI","","html-keyboard-response","483","841058","0.0-1.0-660.0","0","0","75665","","24","","","75","73","k","","","","","","","","","","","","","","",""
"","S2","","html-keyboard-response","484","841312","0.0-1.0-661.0","0","0","75665","","35","","","75","73","","k","","","","","","","","","","","","","",""
"","response","","html-keyboard-response","485","841391","0.0-1.0-662.0","0","0","75665","","75","","","75","73","","","2","73","training","adjacent","DE","4","5","Q.jpg","O.jpg","1","1","1","",""
"","feedback","","html-keyboard-response","486","842395","0.0-1.0-663.0-0.0","0","0","75665","","null","","","null","73","","","","","","","","","","","","","","","",""
"","ITI","","html-keyboard-response","487","843399","0.0-1.0-666.0","0","0","75665","","10","","","75","73","","","","","","","","","","","","","","","k",""
"","S1","","html-keyboard-response","488","843653","0.0-1.0-668.0","0","0","75665","","null","","","null","74","","","","","","","","","","","","","","","",""
"","ISI","","html-keyboard-response","489","845657","0.0-1.0-669.0","0","0","75665","","112","","","68","74","d","","","","","","","","","","","","","","",""
"","S2","","html-keyboard-response","490","845912","0.0-1.0-670.0","0","0","75665","","63","","","75","74","","k","","","","","","","","","","","","","",""
"","response","","html-keyboard-response","491","845951","0.0-1.0-671.0","0","0","75665","","36","","","75","74","","","2","74","training","adjacent","FG","6","7","P.jpg","R.jpg","1","1","1","",""
"","feedback","","html-keyboard-response","492","846955","0.0-1.0-672.0-0.0","0","0","75665","","null","","","null","74","","","","","","","","","","","","","","","",""
"","ITI","","html-keyboard-response","493","847960","0.0-1.0-675.0","0","0","75665","","10","","","75","74","","","","","","","","","","","","","","","k",""
"","S1","","html-keyboard-response","494","848218","0.0-1.0-677.0","0","0","75665","","null","","","null","75","","","","","","","","","","","","","","","",""
"","ISI","","html-keyboard-response","495","850222","0.0-1.0-678.0","0","0","75665","","83","","","68","75","d","","","","","","","","","","","","","","",""
"","S2","","html-keyboard-response","496","850481","0.0-1.0-679.0","0","0","75665","","51","","","75","75","","k","","","","","","","","","","","","","",""
"","response","","html-keyboard-response","497","850492","0.0-1.0-680.0","0","0","75665","","7","","","75","75","","","2","75","training","adjacent","AB","1","2","L.jpg","N.jpg","1","1","1","",""
"","feedback","","html-keyboard-response","498","851496","0.0-1.0-681.0-0.0","0","0","75665","","null","","","null","75","","","","","","","","","","","","","","","",""
"","ITI","","html-keyboard-response","499","852501","0.0-1.0-684.0","0","0","75665","","660","","","75","75","","","","","","","","","","","","","","","k",""
"","S1","","html-keyboard-response","500","852754","0.0-1.0-686.0","0","0","75665","","null","","","null","76","","","","","","","","","","","","","","","",""
"","ISI","","html-keyboard-response","501","854758","0.0-1.0-687.0","0","0","75665","","44","","","68","76","d","","","","","","","","","","","","","","",""
"","S2","","html-keyboard-response","502","855010","0.0-1.0-688.0","0","0","75665","","87","","","75","76","","k","","","","","","","","","","","","","",""
"","response","","html-keyboard-response","503","855115","0.0-1.0-689.0","0","0","75665","","101","","","75","76","","","2","76","training","adjacent","AB","1","2","L.jpg","N.jpg","1","1","1","",""
"","feedback","","html-keyboard-response","504","856119","0.0-1.0-690.0-0.0","0","0","75665","","null","","","null","76","","","","","","","","","","","","","","","",""
"","ITI","","html-keyboard-response","505","857122","0.0-1.0-693.0","0","0","75665","","216","","","75","76","","","","","","","","","","","","","","","k",""
"","S1","","html-keyboard-response","506","857375","0.0-1.0-695.0","0","0","75665","","null","","","null","77","","","","","","","","","","","","","","","",""
"","ISI","","html-keyboard-response","507","859380","0.0-1.0-696.0","0","0","75665","","186","","","68","77","d","","","","","","","","","","","","","","",""
"","S2","","html-keyboard-response","508","859633","0.0-1.0-697.0","0","0","75665","","40","","","75","77","","k","","","","","","","","","","","","","",""
"","response","","html-keyboard-response","509","859672","0.0-1.0-698.0","0","0","75665","","36","","","75","77","","","2","77","training","adjacent","DC","4","3","Q.jpg","M.jpg","1","0","0","",""
"","feedback","","html-keyboard-response","510","860693","0.0-1.0-699.0-0.0","0","0","75665","","null","","","null","77","","","","","","","","","","","","","","","",""
"","time_out","","html-keyboard-response","511","862698","0.0-1.0-701.0-0.0","0","0","75665","","null","","","null","77","","","","","","","","","","","","","","","",""
"","ITI","","html-keyboard-response","512","863705","0.0-1.0-702.0","0","0","75665","","171","","","68","77","","","","","","","","","","","","","","","d",""
"","S1","","html-keyboard-response","513","863961","0.0-1.0-704.0","0","0","75665","","null","","","null","78","","","","","","","","","","","","","","","",""
"","ISI","","html-keyboard-response","514","865965","0.0-1.0-705.0","0","0","75665","","37","","","75","78","k","","","","","","","","","","","","","","",""
"","S2","","html-keyboard-response","515","866220","0.0-1.0-706.0","0","0","75665","","130","","","68","78","","d","","","","","","","","","","","","","",""
"","response","","html-keyboard-response","516","866323","0.0-1.0-707.0","0","0","75665","","100","","","75","78","","","2","78","training","adjacent","FG","6","7","P.jpg","R.jpg","1","1","1","",""
"","feedback","","html-keyboard-response","517","867327","0.0-1.0-708.0-0.0","0","0","75665","","null","","","null","78","","","","","","","","","","","","","","","",""
"","ITI","","html-keyboard-response","518","868331","0.0-1.0-711.0","0","0","75665","","215","","","75","78","","","","","","","","","","","","","","","k",""
"","S1","","html-keyboard-response","519","868585","0.0-1.0-713.0","0","0","75665","","null","","","null","79","","","","","","","","","","","","","","","",""
"","ISI","","html-keyboard-response","520","870590","0.0-1.0-714.0","0","0","75665","","1173","","","75","79","k","","","","","","","","","","","","","","",""
"","S2","","html-keyboard-response","521","870845","0.0-1.0-715.0","0","0","75665","","167","","","75","79","","k","","","","","","","","","","","","","",""
"","response","","html-keyboard-response","522","871018","0.0-1.0-716.0","0","0","75665","","170","","","75","79","","","2","79","training","adjacent","CD","3","4","M.jpg","Q.jpg","1","1","1","",""
"","feedback","","html-keyboard-response","523","872025","0.0-1.0-717.0-0.0","0","0","75665","","null","","","null","79","","","","","","","","","","","","","","","",""
"","ITI","","html-keyboard-response","524","873028","0.0-1.0-720.0","0","0","75665","","10","","","68","79","","","","","","","","","","","","","","","d",""
"","S1","","html-keyboard-response","525","873283","0.0-1.0-722.0","0","0","75665","","null","","","null","80","","","","","","","","","","","","","","","",""
"","ISI","","html-keyboard-response","526","875296","0.0-1.0-723.0","0","0","75665","","19","","","68","80","d","","","","","","","","","","","","","","",""
"","S2","","html-keyboard-response","527","875548","0.0-1.0-724.0","0","0","75665","","43","","","75","80","","k","","","","","","","","","","","","","",""
"","response","","html-keyboard-response","528","875634","0.0-1.0-725.0","0","0","75665","","81","","","75","80","","","2","80","training","adjacent","ED","5","4","O.jpg","Q.jpg","1","0","0","",""
"","feedback","","html-keyboard-response","529","876636","0.0-1.0-726.0-0.0","0","0","75665","","null","","","null","80","","","","","","","","","","","","","","","",""
"","time_out","","html-keyboard-response","530","878637","0.0-1.0-728.0-0.0","0","0","75665","","null","","","null","80","","","","","","","","","","","","","","","",""
"","ITI","","html-keyboard-response","531","879639","0.0-1.0-729.0","0","0","75665","","120","","","75","80","","","","","","","","","","","","","","","k",""
"","S1","","html-keyboard-response","532","879893","0.0-1.0-731.0","0","0","75665","","null","","","null","81","","","","","","","","","","","","","","","",""
"","ISI","","html-keyboard-response","533","881902","0.0-1.0-732.0","0","0","75665","","93","","","75","81","k","","","","","","","","","","","","","","",""
"","S2","","html-keyboard-response","534","882156","0.0-1.0-733.0","0","0","75665","","40","","","68","81","","d","","","","","","","","","","","","","",""
"","response","","html-keyboard-response","535","882250","0.0-1.0-734.0","0","0","75665","","87","","","68","81","","","2","81","training","adjacent","CD","3","4","M.jpg","Q.jpg","0","1","0","",""
"","feedback","","html-keyboard-response","536","883256","0.0-1.0-735.0-0.0","0","0","75665","","null","","","null","81","","","","","","","","","","","","","","","",""
"","time_out","","html-keyboard-response","537","885267","0.0-1.0-737.0-0.0","0","0","75665","","null","","","null","81","","","","","","","","","","","","","","","",""
"","ITI","","html-keyboard-response","538","886270","0.0-1.0-738.0","0","0","75665","","100","","","68","81","","","","","","","","","","","","","","","d",""
"","S1","","html-keyboard-response","539","886525","0.0-1.0-740.0","0","0","75665","","null","","","null","82","","","","","","","","","","","","","","","",""
"","ISI","","html-keyboard-response","540","888529","0.0-1.0-741.0","0","0","75665","","123","","","75","82","k","","","","","","","","","","","","","","",""
"","S2","","html-keyboard-response","541","888811","0.0-1.0-742.0","0","0","75665","","163","","","68","82","","d","","","","","","","","","","","","","",""
"","response","","html-keyboard-response","542","889011","0.0-1.0-743.0","0","0","75665","","196","","","68","82","","","2","82","training","adjacent","GF","7","6","R.jpg","P.jpg","0","0","1","",""
"","feedback","","html-keyboard-response","543","890016","0.0-1.0-744.0-0.0","0","0","75665","","null","","","null","82","","","","","","","","","","","","","","","",""
"","ITI","","html-keyboard-response","544","891018","0.0-1.0-747.0","0","0","75665","","27","","","68","82","","","","","","","","","","","","","","","d",""
"","S1","","html-keyboard-response","545","891281","0.0-1.0-749.0","0","0","75665","","null","","","null","83","","","","","","","","","","","","","","","",""
"","ISI","","html-keyboard-response","546","893284","0.0-1.0-750.0","0","0","75665","","54","","","75","83","k","","","","","","","","","","","","","","",""
"","S2","","html-keyboard-response","547","893563","0.0-1.0-751.0","0","0","75665","","59","","","68","83","","d","","","","","","","","","","","","","",""
"","response","","html-keyboard-response","548","893658","0.0-1.0-752.0","0","0","75665","","92","","","68","83","","","2","83","training","adjacent","DE","4","5","Q.jpg","O.jpg","0","1","0","",""
"","feedback","","html-keyboard-response","549","894663","0.0-1.0-753.0-0.0","0","0","75665","","null","","","null","83","","","","","","","","","","","","","","","",""
"","time_out","","html-keyboard-response","550","896667","0.0-1.0-755.0-0.0","0","0","75665","","null","","","null","83","","","","","","","","","","","","","","","",""
"","ITI","","html-keyboard-response","551","897670","0.0-1.0-756.0","0","0","75665","","216","","","75","83","","","","","","","","","","","","","","","k",""
"","S1","","html-keyboard-response","552","897923","0.0-1.0-758.0","0","0","75665","","null","","","null","84","","","","","","","","","","","","","","","",""
"","ISI","","html-keyboard-response","553","899926","0.0-1.0-759.0","0","0","75665","","108","","","75","84","k","","","","","","","","","","","","","","",""
"","S2","","html-keyboard-response","554","900179","0.0-1.0-760.0","0","0","75665","","81","","","68","84","","d","","","","","","","","","","","","","",""
"","response","","html-keyboard-response","555","900301","0.0-1.0-761.0","0","0","75665","","119","","","68","84","","","2","84","training","adjacent","EF","5","6","O.jpg","P.jpg","0","1","0","",""
"","feedback","","html-keyboard-response","556","901306","0.0-1.0-762.0-0.0","0","0","75665","","null","","","null","84","","","","","","","","","","","","","","","",""
"","time_out","","html-keyboard-response","557","903311","0.0-1.0-764.0-0.0","0","0","75665","","null","","","null","84","","","","","","","","","","","","","","","",""
"","ITI","","html-keyboard-response","558","904317","0.0-1.0-765.0","0","0","75665","","40","","","68","84","","","","","","","","","","","","","","","d",""
"","S1","","html-keyboard-response","559","904573","0.0-1.0-767.0","0","0","75665","","null","","","null","85","","","","","","","","","","","","","","","",""
"","ISI","","html-keyboard-response","560","906576","0.0-1.0-768.0","0","0","75665","","34","","","68","85","d","","","","","","","","","","","","","","",""
"","S2","","html-keyboard-response","561","906830","0.0-1.0-769.0","0","0","75665","","74","","","75","85","","k","","","","","","","","","","","","","",""
"","response","","html-keyboard-response","562","906941","0.0-1.0-770.0","0","0","75665","","106","","","75","85","","","2","85","training","adjacent","DE","4","5","Q.jpg","O.jpg","1","1","1","",""
"","feedback","","html-keyboard-response","563","907945","0.0-1.0-771.0-0.0","0","0","75665","","null","","","null","85","","","","","","","","","","","","","","","",""
"","ITI","","html-keyboard-response","564","908947","0.0-1.0-774.0","0","0","75665","","153","","","68","85","","","","","","","","","","","","","","","d",""
"","S1","","html-keyboard-response","565","909202","0.0-1.0-776.0","0","0","75665","","null","","","null","86","","","","","","","","","","","","","","","",""
"","ISI","","html-keyboard-response","566","911206","0.0-1.0-777.0","0","0","75665","","62","","","68","86","d","","","","","","","","","","","","","","",""
"","S2","","html-keyboard-response","567","911462","0.0-1.0-778.0","0","0","75665","","188","","","75","86","","k","","","","","","","","","","","","","",""
"","response","","html-keyboard-response","568","911618","0.0-1.0-779.0","0","0","75665","","153","","","68","86","","","2","86","training","adjacent","DC","4","3","Q.jpg","M.jpg","0","0","1","",""
"","feedback","","html-keyboard-response","569","912621","0.0-1.0-780.0-0.0","0","0","75665","","null","","","null","86","","","","","","","","","","","","","","","",""
"","ITI","","html-keyboard-response","570","913625","0.0-1.0-783.0","0","0","75665","","74","","","68","86","","","","","","","","","","","","","","","d",""
"","S1","","html-keyboard-response","571","913879","0.0-1.0-785.0","0","0","75665","","null","","","null","87","","","","","","","","","","","","","","","",""
"","ISI","","html-keyboard-response","572","915883","0.0-1.0-786.0","0","0","75665","","930","","","75","87","k","","","","","","","","","","","","","","",""
"","S2","","html-keyboard-response","573","916136","0.0-1.0-787.0","0","0","75665","","237","","","68","87","","d","","","","","","","","","","","","","",""
"","response","","html-keyboard-response","574","916393","0.0-1.0-788.0","0","0","75665","","255","","","75","87","","","2","87","training","adjacent","ED","5","4","O.jpg","Q.jpg","1","0","0","",""
"","feedback","","html-keyboard-response","575","917399","0.0-1.0-789.0-0.0","0","0","75665","","null","","","null","87","","","","","","","","","","","","","","","",""
"","time_out","","html-keyboard-response","576","919404","0.0-1.0-791.0-0.0","0","0","75665","","null","","","null","87","","","","","","","","","","","","","","","",""
"","ITI","","html-keyboard-response","577","920408","0.0-1.0-792.0","0","0","75665","","94","","","75","87","","","","","","","","","","","","","","","k",""
"","S1","","html-keyboard-response","578","920669","0.0-1.0-794.0","0","0","75665","","null","","","null","88","","","","","","","","","","","","","","","",""
"","ISI","","html-keyboard-response","579","922671","0.0-1.0-795.0","0","0","75665","","157","","","75","88","k","","","","","","","","","","","","","","",""
"","S2","","html-keyboard-response","580","922926","0.0-1.0-796.0","0","0","75665","","153","","","75","88","","k","","","","","","","","","","","","","",""
"","response","","html-keyboard-response","581","923055","0.0-1.0-797.0","0","0","75665","","123","","","75","88","","","2","88","training","adjacent","FG","6","7","P.jpg","R.jpg","1","1","1","",""
"","feedback","","html-keyboard-response","582","924061","0.0-1.0-798.0-0.0","0","0","75665","","null","","","null","88","","","","","","","","","","","","","","","",""
"","ITI","","html-keyboard-response","583","925069","0.0-1.0-801.0","0","0","75665","","897","","","75","88","","","","","","","","","","","","","","","k",""
"","S1","","html-keyboard-response","584","925323","0.0-1.0-803.0","0","0","75665","","null","","","null","89","","","","","","","","","","","","","","","",""
"","ISI","","html-keyboard-response","585","927327","0.0-1.0-804.0","0","0","75665","","7","","","68","89","d","","","","","","","","","","","","","","",""
