"success","ttype","start_time","trial_type","trial_index","time_elapsed","internal_node_id","warning","missed_checkup","PID","view_history","rt","responses","repeat_instructions","key_press","index","keypress_isi","keypress_S2","block","trial_num","phase","group_type","pair_type","S1_stim","S2_stim","S1_img","S2_img","S1_chosen","S1_higher","accuracy","keypress_iti","total_bonus_tally"
"true","full_screen","d03072023hr1750","fullscreen","0","18541","0.0-0.0","0","0","82049","","","","","","","","","","","","","","","","","","","","","",""
"","instructions","","instructions","1","88171","0.0-1.0-0.0-0.0","0","0","82049","[{""page_index"":0,""viewing_time"":13443},{""page_index"":1,""viewing_time"":33783},{""page_index"":2,""viewing_time"":19172},{""page_index"":3,""viewing_time"":3228}]","69627","","","","","","","","","","","","","","","","","","","",""
"","comprehension_check","","survey-multi-choice","2","173700","0.0-1.0-0.0-1.0","0","0","82049","","85515","{""Q0"":""True"",""Q1"":""K"",""Q2"":""Only when the screen 'MAKE A CHOICE' is shown"",""Q3"":""Green mark"",""Q4"":""either D or K""}","1","","","","","","","","","","","","","","","","","",""
"","missed_instruction_checkup","","html-keyboard-response","3","176538","0.0-1.0-0.0-2.0-0.0","0","1","82049","","2831","","","32","","","","","","","","","","","","","","","","",""
"","instructions","","instructions","4","227933","0.0-1.0-0.1-0.1","0","0","82049","[{""page_index"":0,""viewing_time"":27372},{""page_index"":1,""viewing_time"":15783},{""page_index"":2,""viewing_time"":6650},{""page_index"":3,""viewing_time"":1586}]","51392","","","","","","","","","","","","","","","","","","","",""
"","comprehension_check","","survey-multi-choice","5","334389","0.0-1.0-0.1-1.1","0","0","82049","","106437","{""Q0"":""True"",""Q1"":""K"",""Q2"":""Once the second image appears and while the screen 'MAKE A CHOICE' is shown"",""Q3"":""Green mark"",""Q4"":""either D or K""}","0","","","","","","","","","","","","","","","","","",""
"","start_exp","","html-keyboard-response","6","337530","0.0-1.0-1.0","0","0","82049","","3138","","","32","","","","","","","","","","","","","","","","",""
"","S1","","html-keyboard-response","7","337788","0.0-1.0-2.0","0","0","82049","","null","","","null","0","","","","","","","","","","","","","","","",""
"","ISI","","html-keyboard-response","8","338796","0.0-1.0-3.0","0","0","82049","","null","","","null","0","NaN","","","","","","","","","","","","","","",""
"","S2","","html-keyboard-response","9","339052","0.0-1.0-4.0","0","0","82049","","null","","","null","0","","NaN","","","","","","","","","","","","","",""
"","response","","html-keyboard-response","10","340812","0.0-1.0-5.0-0.0","0","0","82049","","null","","","null","0","","","1","0","training","adjacent","FE","6","5","O.jpg","P.jpg","NaN","0","0","",""
"","too_slow_prompt","","html-keyboard-response","11","341820","0.0-1.0-7.0-0.0","1","0","82049","","null","","","null","","","","","","","","","","","","","","","","",""
"","time_out","","html-keyboard-response","12","343829","0.0-1.0-8.0-0.0","0","0","82049","","null","","","null","0","","","","","","","","","","","","","","","",""
"","ITI","","html-keyboard-response","13","344837","0.0-1.0-9.0","0","0","82049","","null","","","null","0","","","","","","","","","","","","","","","NaN",""
"","S1","","html-keyboard-response","14","345092","0.0-1.0-11.0","0","0","82049","","null","","","null","1","","","","","","","","","","","","","","","",""
"","ISI","","html-keyboard-response","15","346100","0.0-1.0-12.0","0","0","82049","","927","","","75","1","k","","","","","","","","","","","","","","",""
"","S2","","html-keyboard-response","16","346356","0.0-1.0-13.0","0","0","82049","","null","","","null","1","","NaN","","","","","","","","","","","","","",""
"","response","","html-keyboard-response","17","346902","0.0-1.0-14.0-0.0","0","0","82049","","543","","","68","1","","","1","1","training","adjacent","EF","5","6","P.jpg","O.jpg","0","1","0","",""
"","feedback","","html-keyboard-response","18","347911","0.0-1.0-15.0-0.0","0","0","82049","","null","","","null","1","","","","","","","","","","","","","","","",""
"","time_out","","html-keyboard-response","19","349925","0.0-1.0-17.0-0.0","0","0","82049","","null","","","null","1","","","","","","","","","","","","","","","",""
"","ITI","","html-keyboard-response","20","350932","0.0-1.0-18.0","0","0","82049","","null","","","null","1","","","","","","","","","","","","","","","NaN",""
"","S1","","html-keyboard-response","21","351190","0.0-1.0-20.0","0","0","82049","","null","","","null","2","","","","","","","","","","","","","","","",""
"","ISI","","html-keyboard-response","22","352197","0.0-1.0-21.0","0","0","82049","","null","","","null","2","NaN","","","","","","","","","","","","","","",""
"","S2","","html-keyboard-response","23","352207","0.0-1.0-22.0","0","0","82049","","7","","","68","2","","d","1","2","training","adjacent","CD","3","4","R.jpg","N.jpg","0","1","0","",""
"","feedback","","html-keyboard-response","24","353212","0.0-1.0-24.0-0.0","0","0","82049","","null","","","null","2","","","","","","","","","","","","","","","",""
"","time_out","","html-keyboard-response","25","355220","0.0-1.0-26.0-0.0","0","0","82049","","null","","","null","2","","","","","","","","","","","","","","","",""
"","ITI","","html-keyboard-response","26","356228","0.0-1.0-27.0","0","0","82049","","null","","","null","2","","","","","","","","","","","","","","","NaN",""
"","S1","","html-keyboard-response","27","356485","0.0-1.0-29.0","0","0","82049","","null","","","null","3","","","","","","","","","","","","","","","",""
"","ISI","","html-keyboard-response","28","357496","0.0-1.0-30.0","0","0","82049","","null","","","null","3","NaN","","","","","","","","","","","","","","",""
"","S2","","html-keyboard-response","29","357507","0.0-1.0-31.0","0","0","82049","","4","","","75","3","","k","1","3","training","adjacent","EF","5","6","P.jpg","O.jpg","1","1","1","",""
"","feedback","","html-keyboard-response","30","358516","0.0-1.0-33.0-0.0","0","0","82049","","null","","","null","3","","","","","","","","","","","","","","","",""
"","ITI","","html-keyboard-response","31","359523","0.0-1.0-36.0","0","0","82049","","null","","","null","3","","","","","","","","","","","","","","","NaN",""
"","S1","","html-keyboard-response","32","359781","0.0-1.0-38.0","0","0","82049","","null","","","null","4","","","","","","","","","","","","","","","",""
"","ISI","","html-keyboard-response","33","360789","0.0-1.0-39.0","0","0","82049","","783","","","68","4","d","","","","","","","","","","","","","","",""
"","S2","","html-keyboard-response","34","361045","0.0-1.0-40.0","0","0","82049","","null","","","null","4","","NaN","","","","","","","","","","","","","",""
"","response","","html-keyboard-response","35","361807","0.0-1.0-41.0-0.0","0","0","82049","","758","","","75","4","","","1","4","training","adjacent","ED","5","4","P.jpg","N.jpg","1","0","0","",""
"","feedback","","html-keyboard-response","36","362813","0.0-1.0-42.0-0.0","0","0","82049","","null","","","null","4","","","","","","","","","","","","","","","",""
"","time_out","","html-keyboard-response","37","364820","0.0-1.0-44.0-0.0","0","0","82049","","null","","","null","4","","","","","","","","","","","","","","","",""
"","ITI","","html-keyboard-response","38","365829","0.0-1.0-45.0","0","0","82049","","null","","","null","4","","","","","","","","","","","","","","","NaN",""
"","S1","","html-keyboard-response","39","366084","0.0-1.0-47.0","0","0","82049","","null","","","null","5","","","","","","","","","","","","","","","",""
"","ISI","","html-keyboard-response","40","367091","0.0-1.0-48.0","0","0","82049","","null","","","null","5","NaN","","","","","","","","","","","","","","",""
"","S2","","html-keyboard-response","41","367348","0.0-1.0-49.0","0","0","82049","","null","","","null","5","","NaN","","","","","","","","","","","","","",""
"","response","","html-keyboard-response","42","368649","0.0-1.0-50.0-0.0","0","0","82049","","1299","","","68","5","","","1","5","training","adjacent","GF","7","6","Q.jpg","O.jpg","0","0","1","",""
"","feedback","","html-keyboard-response","43","369662","0.0-1.0-51.0-0.0","0","0","82049","","null","","","null","5","","","","","","","","","","","","","","","",""
"","ITI","","html-keyboard-response","44","370668","0.0-1.0-54.0","0","0","82049","","null","","","null","5","","","","","","","","","","","","","","","NaN",""
"","S1","","html-keyboard-response","45","370925","0.0-1.0-56.0","0","0","82049","","null","","","null","6","","","","","","","","","","","","","","","",""
"","ISI","","html-keyboard-response","46","371932","0.0-1.0-57.0","0","0","82049","","null","","","null","6","NaN","","","","","","","","","","","","","","",""
"","S2","","html-keyboard-response","47","372187","0.0-1.0-58.0","0","0","82049","","null","","","null","6","","NaN","","","","","","","","","","","","","",""
"","response","","html-keyboard-response","48","372653","0.0-1.0-59.0-0.0","0","0","82049","","463","","","75","6","","","1","6","training","adjacent","DC","4","3","N.jpg","R.jpg","1","0","0","",""
"","feedback","","html-keyboard-response","49","373661","0.0-1.0-60.0-0.0","0","0","82049","","null","","","null","6","","","","","","","","","","","","","","","",""
"","time_out","","html-keyboard-response","50","375668","0.0-1.0-62.0-0.0","0","0","82049","","null","","","null","6","","","","","","","","","","","","","","","",""
"","ITI","","html-keyboard-response","51","376677","0.0-1.0-63.0","0","0","82049","","null","","","null","6","","","","","","","","","","","","","","","NaN",""
"","S1","","html-keyboard-response","52","376932","0.0-1.0-65.0","0","0","82049","","null","","","null","7","","","","","","","","","","","","","","","",""
"","ISI","","html-keyboard-response","53","377940","0.0-1.0-66.0","0","0","82049","","null","","","null","7","NaN","","","","","","","","","","","","","","",""
"","S2","","html-keyboard-response","54","378196","0.0-1.0-67.0","0","0","82049","","null","","","null","7","","NaN","","","","","","","","","","","","","",""
"","response","","html-keyboard-response","55","379956","0.0-1.0-68.0-0.0","0","0","82049","","null","","","null","7","","","1","7","training","adjacent","FG","6","7","O.jpg","Q.jpg","NaN","1","0","",""
"","too_slow_prompt","","html-keyboard-response","56","380964","0.0-1.0-70.0-0.0","1","0","82049","","null","","","null","","","","","","","","","","","","","","","","",""
"","time_out","","html-keyboard-response","57","382972","0.0-1.0-71.0-0.0","0","0","82049","","null","","","null","7","","","","","","","","","","","","","","","",""
"","ITI","","html-keyboard-response","58","383981","0.0-1.0-72.0","0","0","82049","","null","","","null","7","","","","","","","","","","","","","","","NaN",""
"","S1","","html-keyboard-response","59","384235","0.0-1.0-74.0","0","0","82049","","null","","","null","8","","","","","","","","","","","","","","","",""
"","ISI","","html-keyboard-response","60","385248","0.0-1.0-75.0","0","0","82049","","null","","","null","8","NaN","","","","","","","","","","","","","","",""
"","S2","","html-keyboard-response","61","385507","0.0-1.0-76.0","0","0","82049","","null","","","null","8","","NaN","","","","","","","","","","","","","",""
"","response","","html-keyboard-response","62","387268","0.0-1.0-77.0-0.0","0","0","82049","","null","","","null","8","","","1","8","training","adjacent","BA","2","1","M.jpg","L.jpg","NaN","0","0","",""
"","too_slow_prompt","","html-keyboard-response","63","388276","0.0-1.0-79.0-0.0","1","0","82049","","null","","","null","","","","","","","","","","","","","","","","",""
"","time_out","","html-keyboard-response","64","390285","0.0-1.0-80.0-0.0","0","0","82049","","null","","","null","8","","","","","","","","","","","","","","","",""
"","ITI","","html-keyboard-response","65","391292","0.0-1.0-81.0","0","0","82049","","null","","","null","8","","","","","","","","","","","","","","","NaN",""
"","S1","","html-keyboard-response","66","391549","0.0-1.0-83.0","0","0","82049","","null","","","null","9","","","","","","","","","","","","","","","",""
"","ISI","","html-keyboard-response","67","392556","0.0-1.0-84.0","0","0","82049","","null","","","null","9","NaN","","","","","","","","","","","","","","",""
"","S2","","html-keyboard-response","68","392814","0.0-1.0-85.0","0","0","82049","","null","","","null","9","","NaN","","","","","","","","","","","","","",""
"","response","","html-keyboard-response","69","394390","0.0-1.0-86.0-0.0","0","0","82049","","1570","","","68","9","","","1","9","training","adjacent","CD","3","4","R.jpg","N.jpg","0","1","0","",""
"","feedback","","html-keyboard-response","70","395397","0.0-1.0-87.0-0.0","0","0","82049","","null","","","null","9","","","","","","","","","","","","","","","",""
"","time_out","","html-keyboard-response","71","397405","0.0-1.0-89.0-0.0","0","0","82049","","null","","","null","9","","","","","","","","","","","","","","","",""
"","ITI","","html-keyboard-response","72","398413","0.0-1.0-90.0","0","0","82049","","null","","","null","9","","","","","","","","","","","","","","","NaN",""
"","S1","","html-keyboard-response","73","398669","0.0-1.0-92.0","0","0","82049","","null","","","null","10","","","","","","","","","","","","","","","",""
"","ISI","","html-keyboard-response","74","399676","0.0-1.0-93.0","0","0","82049","","null","","","null","10","NaN","","","","","","","","","","","","","","",""
"","S2","","html-keyboard-response","75","399932","0.0-1.0-94.0","0","0","82049","","null","","","null","10","","NaN","","","","","","","","","","","","","",""
"","response","","html-keyboard-response","76","400709","0.0-1.0-95.0-0.0","0","0","82049","","774","","","75","10","","","1","10","training","adjacent","BA","2","1","M.jpg","L.jpg","1","0","0","",""
"","feedback","","html-keyboard-response","77","401716","0.0-1.0-96.0-0.0","0","0","82049","","null","","","null","10","","","","","","","","","","","","","","","",""
"","time_out","","html-keyboard-response","78","403724","0.0-1.0-98.0-0.0","0","0","82049","","null","","","null","10","","","","","","","","","","","","","","","",""
"","ITI","","html-keyboard-response","79","404738","0.0-1.0-99.0","0","0","82049","","null","","","null","10","","","","","","","","","","","","","","","NaN",""
"","S1","","html-keyboard-response","80","404997","0.0-1.0-101.0","0","0","82049","","null","","","null","11","","","","","","","","","","","","","","","",""
"","ISI","","html-keyboard-response","81","406004","0.0-1.0-102.0","0","0","82049","","456","","","68","11","d","","","","","","","","","","","","","","",""
"","S2","","html-keyboard-response","82","406260","0.0-1.0-103.0","0","0","82049","","null","","","null","11","","NaN","","","","","","","","","","","","","",""
"","response","","html-keyboard-response","83","407457","0.0-1.0-104.0-0.0","0","0","82049","","1193","","","75","11","","","1","11","training","adjacent","CB","3","2","R.jpg","M.jpg","1","0","0","",""
"","feedback","","html-keyboard-response","84","408469","0.0-1.0-105.0-0.0","0","0","82049","","null","","","null","11","","","","","","","","","","","","","","","",""
"","time_out","","html-keyboard-response","85","410477","0.0-1.0-107.0-0.0","0","0","82049","","null","","","null","11","","","","","","","","","","","","","","","",""
"","ITI","","html-keyboard-response","86","411485","0.0-1.0-108.0","0","0","82049","","599","","","68","11","","","","","","","","","","","","","","","d",""
"","S1","","html-keyboard-response","87","411740","0.0-1.0-110.0","0","0","82049","","null","","","null","12","","","","","","","","","","","","","","","",""
"","ISI","","html-keyboard-response","88","412748","0.0-1.0-111.0","0","0","82049","","480","","","68","12","d","","","","","","","","","","","","","","",""
"","S2","","html-keyboard-response","89","413004","0.0-1.0-112.0","0","0","82049","","null","","","null","12","","NaN","","","","","","","","","","","","","",""
"","response","","html-keyboard-response","90","414764","0.0-1.0-113.0-0.0","0","0","82049","","null","","","null","12","","","1","12","training","adjacent","BC","2","3","M.jpg","R.jpg","NaN","1","0","",""
"","too_slow_prompt","","html-keyboard-response","91","415773","0.0-1.0-115.0-0.0","1","0","82049","","null","","","null","","","","","","","","","","","","","","","","",""
"","time_out","","html-keyboard-response","92","417781","0.0-1.0-116.0-0.0","0","0","82049","","null","","","null","12","","","","","","","","","","","","","","","",""
"","ITI","","html-keyboard-response","93","418789","0.0-1.0-117.0","0","0","82049","","null","","","null","12","","","","","","","","","","","","","","","NaN",""
"","S1","","html-keyboard-response","94","419045","0.0-1.0-119.0","0","0","82049","","null","","","null","13","","","","","","","","","","","","","","","",""
"","ISI","","html-keyboard-response","95","420052","0.0-1.0-120.0","0","0","82049","","486","","","75","13","k","","","","","","","","","","","","","","",""
"","S2","","html-keyboard-response","96","420309","0.0-1.0-121.0","0","0","82049","","null","","","null","13","","NaN","","","","","","","","","","","","","",""
"","response","","html-keyboard-response","97","420758","0.0-1.0-122.0-0.0","0","0","82049","","447","","","68","13","","","1","13","training","adjacent","GF","7","6","Q.jpg","O.jpg","0","0","1","",""
"","feedback","","html-keyboard-response","98","421766","0.0-1.0-123.0-0.0","0","0","82049","","null","","","null","13","","","","","","","","","","","","","","","",""
"","ITI","","html-keyboard-response","99","422775","0.0-1.0-126.0","0","0","82049","","null","","","null","13","","","","","","","","","","","","","","","NaN",""
"","S1","","html-keyboard-response","100","423037","0.0-1.0-128.0","0","0","82049","","null","","","null","14","","","","","","","","","","","","","","","",""
"","ISI","","html-keyboard-response","101","424045","0.0-1.0-129.0","0","0","82049","","null","","","null","14","NaN","","","","","","","","","","","","","","",""
"","S2","","html-keyboard-response","102","424304","0.0-1.0-130.0","0","0","82049","","null","","","null","14","","NaN","","","","","","","","","","","","","",""
"","response","","html-keyboard-response","103","424646","0.0-1.0-131.0-0.0","0","0","82049","","339","","","75","14","","","1","14","training","adjacent","BA","2","1","M.jpg","L.jpg","1","0","0","",""
"","feedback","","html-keyboard-response","104","425653","0.0-1.0-132.0-0.0","0","0","82049","","null","","","null","14","","","","","","","","","","","","","","","",""
"","time_out","","html-keyboard-response","105","427660","0.0-1.0-134.0-0.0","0","0","82049","","null","","","null","14","","","","","","","","","","","","","","","",""
"","ITI","","html-keyboard-response","106","428668","0.0-1.0-135.0","0","0","82049","","null","","","null","14","","","","","","","","","","","","","","","NaN",""
"","S1","","html-keyboard-response","107","428924","0.0-1.0-137.0","0","0","82049","","null","","","null","15","","","","","","","","","","","","","","","",""
"","ISI","","html-keyboard-response","108","429933","0.0-1.0-138.0","0","0","82049","","null","","","null","15","NaN","","","","","","","","","","","","","","",""
"","S2","","html-keyboard-response","109","430188","0.0-1.0-139.0","0","0","82049","","null","","","null","15","","NaN","","","","","","","","","","","","","",""
"","response","","html-keyboard-response","110","430531","0.0-1.0-140.0-0.0","0","0","82049","","339","","","68","15","","","1","15","training","adjacent","FG","6","7","O.jpg","Q.jpg","0","1","0","",""
"","feedback","","html-keyboard-response","111","431540","0.0-1.0-141.0-0.0","0","0","82049","","null","","","null","15","","","","","","","","","","","","","","","",""
"","time_out","","html-keyboard-response","112","433550","0.0-1.0-143.0-0.0","0","0","82049","","null","","","null","15","","","","","","","","","","","","","","","",""
"","ITI","","html-keyboard-response","113","434556","0.0-1.0-144.0","0","0","82049","","null","","","null","15","","","","","","","","","","","","","","","NaN",""
"","S1","","html-keyboard-response","114","434812","0.0-1.0-146.0","0","0","82049","","null","","","null","16","","","","","","","","","","","","","","","",""
"","ISI","","html-keyboard-response","115","435821","0.0-1.0-147.0","0","0","82049","","null","","","null","16","NaN","","","","","","","","","","","","","","",""
"","S2","","html-keyboard-response","116","436077","0.0-1.0-148.0","0","0","82049","","null","","","null","16","","NaN","","","","","","","","","","","","","",""
"","response","","html-keyboard-response","117","436614","0.0-1.0-149.0-0.0","0","0","82049","","532","","","75","16","","","1","16","training","adjacent","GF","7","6","Q.jpg","O.jpg","1","0","0","",""
"","feedback","","html-keyboard-response","118","437620","0.0-1.0-150.0-0.0","0","0","82049","","null","","","null","16","","","","","","","","","","","","","","","",""
"","time_out","","html-keyboard-response","119","439629","0.0-1.0-152.0-0.0","0","0","82049","","null","","","null","16","","","","","","","","","","","","","","","",""
"","ITI","","html-keyboard-response","120","440637","0.0-1.0-153.0","0","0","82049","","null","","","null","16","","","","","","","","","","","","","","","NaN",""
"","S1","","html-keyboard-response","121","440892","0.0-1.0-155.0","0","0","82049","","null","","","null","17","","","","","","","","","","","","","","","",""
"","ISI","","html-keyboard-response","122","441900","0.0-1.0-156.0","0","0","82049","","null","","","null","17","NaN","","","","","","","","","","","","","","",""
"","S2","","html-keyboard-response","123","442156","0.0-1.0-157.0","0","0","82049","","null","","","null","17","","NaN","","","","","","","","","","","","","",""
"","response","","html-keyboard-response","124","442562","0.0-1.0-158.0-0.0","0","0","82049","","401","","","75","17","","","1","17","training","adjacent","ED","5","4","P.jpg","N.jpg","1","0","0","",""
"","feedback","","html-keyboard-response","125","443580","0.0-1.0-159.0-0.0","0","0","82049","","null","","","null","17","","","","","","","","","","","","","","","",""
"","time_out","","html-keyboard-response","126","445590","0.0-1.0-161.0-0.0","0","0","82049","","null","","","null","17","","","","","","","","","","","","","","","",""
"","ITI","","html-keyboard-response","127","446597","0.0-1.0-162.0","0","0","82049","","null","","","null","17","","","","","","","","","","","","","","","NaN",""
"","S1","","html-keyboard-response","128","446853","0.0-1.0-164.0","0","0","82049","","null","","","null","18","","","","","","","","","","","","","","","",""
"","ISI","","html-keyboard-response","129","447861","0.0-1.0-165.0","0","0","82049","","null","","","null","18","NaN","","","","","","","","","","","","","","",""
"","S2","","html-keyboard-response","130","448116","0.0-1.0-166.0","0","0","82049","","null","","","null","18","","NaN","","","","","","","","","","","","","",""
"","response","","html-keyboard-response","131","448493","0.0-1.0-167.0-0.0","0","0","82049","","374","","","75","18","","","1","18","training","adjacent","FG","6","7","O.jpg","Q.jpg","1","1","1","",""
"","feedback","","html-keyboard-response","132","449502","0.0-1.0-168.0-0.0","0","0","82049","","null","","","null","18","","","","","","","","","","","","","","","",""
"","ITI","","html-keyboard-response","133","450509","0.0-1.0-171.0","0","0","82049","","null","","","null","18","","","","","","","","","","","","","","","NaN",""
"","S1","","html-keyboard-response","134","450764","0.0-1.0-173.0","0","0","82049","","null","","","null","19","","","","","","","","","","","","","","","",""
"","ISI","","html-keyboard-response","135","451772","0.0-1.0-174.0","0","0","82049","","null","","","null","19","NaN","","","","","","","","","","","","","","",""
"","S2","","html-keyboard-response","136","452029","0.0-1.0-175.0","0","0","82049","","null","","","null","19","","NaN","","","","","","","","","","","","","",""
"","response","","html-keyboard-response","137","452501","0.0-1.0-176.0-0.0","0","0","82049","","469","","","75","19","","","1","19","training","adjacent","CD","3","4","R.jpg","N.jpg","1","1","1","",""
"","feedback","","html-keyboard-response","138","453508","0.0-1.0-177.0-0.0","0","0","82049","","null","","","null","19","","","","","","","","","","","","","","","",""
"","ITI","","html-keyboard-response","139","454517","0.0-1.0-180.0","0","0","82049","","null","","","null","19","","","","","","","","","","","","","","","NaN",""
"","S1","","html-keyboard-response","140","454772","0.0-1.0-182.0","0","0","82049","","null","","","null","20","","","","","","","","","","","","","","","",""
"","ISI","","html-keyboard-response","141","455781","0.0-1.0-183.0","0","0","82049","","null","","","null","20","NaN","","","","","","","","","","","","","","",""
"","S2","","html-keyboard-response","142","456035","0.0-1.0-184.0","0","0","82049","","null","","","null","20","","NaN","","","","","","","","","","","","","",""
"","response","","html-keyboard-response","143","456501","0.0-1.0-185.0-0.0","0","0","82049","","464","","","68","20","","","1","20","training","adjacent","AB","1","2","L.jpg","M.jpg","0","1","0","",""
"","feedback","","html-keyboard-response","144","457508","0.0-1.0-186.0-0.0","0","0","82049","","null","","","null","20","","","","","","","","","","","","","","","",""
"","time_out","","html-keyboard-response","145","459517","0.0-1.0-188.0-0.0","0","0","82049","","null","","","null","20","","","","","","","","","","","","","","","",""
"","ITI","","html-keyboard-response","146","460526","0.0-1.0-189.0","0","0","82049","","null","","","null","20","","","","","","","","","","","","","","","NaN",""
"","S1","","html-keyboard-response","147","460780","0.0-1.0-191.0","0","0","82049","","null","","","null","21","","","","","","","","","","","","","","","",""
"","ISI","","html-keyboard-response","148","461788","0.0-1.0-192.0","0","0","82049","","396","","","75","21","k","","","","","","","","","","","","","","",""
"","S2","","html-keyboard-response","149","461990","0.0-1.0-193.0","0","0","82049","","198","","","75","21","","k","1","21","training","adjacent","DC","4","3","N.jpg","R.jpg","1","0","0","",""
"","feedback","","html-keyboard-response","150","462996","0.0-1.0-195.0-0.0","0","0","82049","","null","","","null","21","","","","","","","","","","","","","","","",""
"","time_out","","html-keyboard-response","151","465005","0.0-1.0-197.0-0.0","0","0","82049","","null","","","null","21","","","","","","","","","","","","","","","",""
"","ITI","","html-keyboard-response","152","466013","0.0-1.0-198.0","0","0","82049","","null","","","null","21","","","","","","","","","","","","","","","NaN",""
"","S1","","html-keyboard-response","153","466269","0.0-1.0-200.0","0","0","82049","","null","","","null","22","","","","","","","","","","","","","","","",""
"","ISI","","html-keyboard-response","154","467277","0.0-1.0-201.0","0","0","82049","","null","","","null","22","NaN","","","","","","","","","","","","","","",""
"","S2","","html-keyboard-response","155","467534","0.0-1.0-202.0","0","0","82049","","null","","","null","22","","NaN","","","","","","","","","","","","","",""
"","response","","html-keyboard-response","156","468341","0.0-1.0-203.0-0.0","0","0","82049","","805","","","75","22","","","1","22","training","adjacent","BA","2","1","M.jpg","L.jpg","1","0","0","",""
"","feedback","","html-keyboard-response","157","469350","0.0-1.0-204.0-0.0","0","0","82049","","null","","","null","22","","","","","","","","","","","","","","","",""
"","time_out","","html-keyboard-response","158","471359","0.0-1.0-206.0-0.0","0","0","82049","","null","","","null","22","","","","","","","","","","","","","","","",""
"","ITI","","html-keyboard-response","159","472366","0.0-1.0-207.0","0","0","82049","","null","","","null","22","","","","","","","","","","","","","","","NaN",""
"","S1","","html-keyboard-response","160","472620","0.0-1.0-209.0","0","0","82049","","null","","","null","23","","","","","","","","","","","","","","","",""
"","ISI","","html-keyboard-response","161","473629","0.0-1.0-210.0","0","0","82049","","782","","","68","23","d","","","","","","","","","","","","","","",""
"","S2","","html-keyboard-response","162","473884","0.0-1.0-211.0","0","0","82049","","null","","","null","23","","NaN","","","","","","","","","","","","","",""
"","response","","html-keyboard-response","163","474120","0.0-1.0-212.0-0.0","0","0","82049","","231","","","68","23","","","1","23","training","adjacent","AB","1","2","L.jpg","M.jpg","0","1","0","",""
"","feedback","","html-keyboard-response","164","475132","0.0-1.0-213.0-0.0","0","0","82049","","null","","","null","23","","","","","","","","","","","","","","","",""
"","time_out","","html-keyboard-response","165","477140","0.0-1.0-215.0-0.0","0","0","82049","","null","","","null","23","","","","","","","","","","","","","","","",""
"","ITI","","html-keyboard-response","166","478148","0.0-1.0-216.0","0","0","82049","","null","","","null","23","","","","","","","","","","","","","","","NaN",""
"","S1","","html-keyboard-response","167","478404","0.0-1.0-218.0","0","0","82049","","null","","","null","24","","","","","","","","","","","","","","","",""
"","ISI","","html-keyboard-response","168","479411","0.0-1.0-219.0","0","0","82049","","511","","","75","24","k","","","","","","","","","","","","","","",""
"","S2","","html-keyboard-response","169","479668","0.0-1.0-220.0","0","0","82049","","null","","","null","24","","NaN","","","","","","","","","","","","","",""
"","response","","html-keyboard-response","170","480424","0.0-1.0-221.0-0.0","0","0","82049","","752","","","68","24","","","1","24","training","adjacent","ED","5","4","P.jpg","N.jpg","0","0","1","",""
"","feedback","","html-keyboard-response","171","481436","0.0-1.0-222.0-0.0","0","0","82049","","null","","","null","24","","","","","","","","","","","","","","","",""
"","ITI","","html-keyboard-response","172","482445","0.0-1.0-225.0","0","0","82049","","null","","","null","24","","","","","","","","","","","","","","","NaN",""
"","S1","","html-keyboard-response","173","482700","0.0-1.0-227.0","0","0","82049","","null","","","null","25","","","","","","","","","","","","","","","",""
"","ISI","","html-keyboard-response","174","483711","0.0-1.0-228.0","0","0","82049","","758","","","68","25","d","","","","","","","","","","","","","","",""
"","S2","","html-keyboard-response","175","483973","0.0-1.0-229.0","0","0","82049","","null","","","null","25","","NaN","","","","","","","","","","","","","",""
"","response","","html-keyboard-response","176","484622","0.0-1.0-230.0-0.0","0","0","82049","","646","","","68","25","","","1","25","training","adjacent","CB","3","2","R.jpg","M.jpg","0","0","1","",""
"","feedback","","html-keyboard-response","177","485630","0.0-1.0-231.0-0.0","0","0","82049","","null","","","null","25","","","","","","","","","","","","","","","",""
"","ITI","","html-keyboard-response","178","486635","0.0-1.0-234.0","0","0","82049","","null","","","null","25","","","","","","","","","","","","","","","NaN",""
"","S1","","html-keyboard-response","179","486893","0.0-1.0-236.0","0","0","82049","","null","","","null","26","","","","","","","","","","","","","","","",""
"","ISI","","html-keyboard-response","180","487901","0.0-1.0-237.0","0","0","82049","","null","","","null","26","NaN","","","","","","","","","","","","","","",""
"","S2","","html-keyboard-response","181","488157","0.0-1.0-238.0","0","0","82049","","null","","","null","26","","NaN","","","","","","","","","","","","","",""
"","response","","html-keyboard-response","182","488174","0.0-1.0-239.0-0.0","0","0","82049","","14","","","75","26","","","1","26","training","adjacent","DE","4","5","N.jpg","P.jpg","1","1","1","",""
"","feedback","","html-keyboard-response","183","489180","0.0-1.0-240.0-0.0","0","0","82049","","null","","","null","26","","","","","","","","","","","","","","","",""
"","ITI","","html-keyboard-response","184","490188","0.0-1.0-243.0","0","0","82049","","null","","","null","26","","","","","","","","","","","","","","","NaN",""
"","S1","","html-keyboard-response","185","490445","0.0-1.0-245.0","0","0","82049","","null","","","null","27","","","","","","","","","","","","","","","",""
"","ISI","","html-keyboard-response","186","491453","0.0-1.0-246.0","0","0","82049","","null","","","null","27","NaN","","","","","","","","","","","","","","",""
"","S2","","html-keyboard-response","187","491708","0.0-1.0-247.0","0","0","82049","","null","","","null","27","","NaN","","","","","","","","","","","","","",""
"","response","","html-keyboard-response","188","492097","0.0-1.0-248.0-0.0","0","0","82049","","384","","","68","27","","","1","27","training","adjacent","FE","6","5","O.jpg","P.jpg","0","0","1","",""
"","feedback","","html-keyboard-response","189","493108","0.0-1.0-249.0-0.0","0","0","82049","","null","","","null","27","","","","","","","","","","","","","","","",""
"","ITI","","html-keyboard-response","190","494117","0.0-1.0-252.0","0","0","82049","","null","","","null","27","","","","","","","","","","","","","","","NaN",""
"","S1","","html-keyboard-response","191","494372","0.0-1.0-254.0","0","0","82049","","null","","","null","28","","","","","","","","","","","","","","","",""
"","ISI","","html-keyboard-response","192","495381","0.0-1.0-255.0","0","0","82049","","null","","","null","28","NaN","","","","","","","","","","","","","","",""
"","S2","","html-keyboard-response","193","495645","0.0-1.0-256.0","0","0","82049","","null","","","null","28","","NaN","","","","","","","","","","","","","",""
"","response","","html-keyboard-response","194","496014","0.0-1.0-257.0-0.0","0","0","82049","","365","","","68","28","","","1","28","training","adjacent","DC","4","3","N.jpg","R.jpg","0","0","1","",""
"","feedback","","html-keyboard-response","195","497020","0.0-1.0-258.0-0.0","0","0","82049","","null","","","null","28","","","","","","","","","","","","","","","",""
"","ITI","","html-keyboard-response","196","498029","0.0-1.0-261.0","0","0","82049","","null","","","null","28","","","","","","","","","","","","","","","NaN",""
"","S1","","html-keyboard-response","197","498284","0.0-1.0-263.0","0","0","82049","","null","","","null","29","","","","","","","","","","","","","","","",""
"","ISI","","html-keyboard-response","198","499293","0.0-1.0-264.0","0","0","82049","","null","","","null","29","NaN","","","","","","","","","","","","","","",""
"","S2","","html-keyboard-response","199","499420","0.0-1.0-265.0","0","0","82049","","124","","","75","29","","k","1","29","training","adjacent","BC","2","3","M.jpg","R.jpg","1","1","1","",""
"","feedback","","html-keyboard-response","200","500429","0.0-1.0-267.0-0.0","0","0","82049","","null","","","null","29","","","","","","","","","","","","","","","",""
"","ITI","","html-keyboard-response","201","501439","0.0-1.0-270.0","0","0","82049","","null","","","null","29","","","","","","","","","","","","","","","NaN",""
"","S1","","html-keyboard-response","202","501703","0.0-1.0-272.0","0","0","82049","","null","","","null","30","","","","","","","","","","","","","","","",""
"","ISI","","html-keyboard-response","203","502711","0.0-1.0-273.0","0","0","82049","","996","","","68","30","d","","","","","","","","","","","","","","",""
"","S2","","html-keyboard-response","204","502973","0.0-1.0-274.0","0","0","82049","","null","","","null","30","","NaN","","","","","","","","","","","","","",""
"","response","","html-keyboard-response","205","504733","0.0-1.0-275.0-0.0","0","0","82049","","null","","","null","30","","","1","30","training","adjacent","DE","4","5","N.jpg","P.jpg","NaN","1","0","",""
"","too_slow_prompt","","html-keyboard-response","206","505740","0.0-1.0-277.0-0.0","1","0","82049","","null","","","null","","","","","","","","","","","","","","","","",""
"","time_out","","html-keyboard-response","207","507748","0.0-1.0-278.0-0.0","0","0","82049","","null","","","null","30","","","","","","","","","","","","","","","",""
"","ITI","","html-keyboard-response","208","508757","0.0-1.0-279.0","0","0","82049","","null","","","null","30","","","","","","","","","","","","","","","NaN",""
"","S1","","html-keyboard-response","209","509013","0.0-1.0-281.0","0","0","82049","","null","","","null","31","","","","","","","","","","","","","","","",""
"","ISI","","html-keyboard-response","210","510020","0.0-1.0-282.0","0","0","82049","","486","","","75","31","k","","","","","","","","","","","","","","",""
"","S2","","html-keyboard-response","211","510275","0.0-1.0-283.0","0","0","82049","","null","","","null","31","","NaN","","","","","","","","","","","","","",""
"","response","","html-keyboard-response","212","510732","0.0-1.0-284.0-0.0","0","0","82049","","454","","","75","31","","","1","31","training","adjacent","DC","4","3","N.jpg","R.jpg","1","0","0","",""
"","feedback","","html-keyboard-response","213","511742","0.0-1.0-285.0-0.0","0","0","82049","","null","","","null","31","","","","","","","","","","","","","","","",""
"","time_out","","html-keyboard-response","214","513749","0.0-1.0-287.0-0.0","0","0","82049","","null","","","null","31","","","","","","","","","","","","","","","",""
"","ITI","","html-keyboard-response","215","514755","0.0-1.0-288.0","0","0","82049","","null","","","null","31","","","","","","","","","","","","","","","NaN",""
"","S1","","html-keyboard-response","216","515012","0.0-1.0-290.0","0","0","82049","","null","","","null","32","","","","","","","","","","","","","","","",""
"","ISI","","html-keyboard-response","217","516020","0.0-1.0-291.0","0","0","82049","","400","","","68","32","d","","","","","","","","","","","","","","",""
"","S2","","html-keyboard-response","218","516275","0.0-1.0-292.0","0","0","82049","","null","","","null","32","","NaN","","","","","","","","","","","","","",""
"","response","","html-keyboard-response","219","516797","0.0-1.0-293.0-0.0","0","0","82049","","519","","","68","32","","","1","32","training","adjacent","ED","5","4","P.jpg","N.jpg","0","0","1","",""
"","feedback","","html-keyboard-response","220","517805","0.0-1.0-294.0-0.0","0","0","82049","","null","","","null","32","","","","","","","","","","","","","","","",""
"","ITI","","html-keyboard-response","221","518812","0.0-1.0-297.0","0","0","82049","","null","","","null","32","","","","","","","","","","","","","","","NaN",""
"","S1","","html-keyboard-response","222","519068","0.0-1.0-299.0","0","0","82049","","null","","","null","33","","","","","","","","","","","","","","","",""
"","ISI","","html-keyboard-response","223","520076","0.0-1.0-300.0","0","0","82049","","null","","","null","33","NaN","","","","","","","","","","","","","","",""
"","S2","","html-keyboard-response","224","520332","0.0-1.0-301.0","0","0","82049","","null","","","null","33","","NaN","","","","","","","","","","","","","",""
"","response","","html-keyboard-response","225","520660","0.0-1.0-302.0-0.0","0","0","82049","","325","","","75","33","","","1","33","training","adjacent","EF","5","6","P.jpg","O.jpg","1","1","1","",""
"","feedback","","html-keyboard-response","226","521668","0.0-1.0-303.0-0.0","0","0","82049","","null","","","null","33","","","","","","","","","","","","","","","",""
"","ITI","","html-keyboard-response","227","522677","0.0-1.0-306.0","0","0","82049","","null","","","null","33","","","","","","","","","","","","","","","NaN",""
"","S1","","html-keyboard-response","228","522934","0.0-1.0-308.0","0","0","82049","","null","","","null","34","","","","","","","","","","","","","","","",""
"","ISI","","html-keyboard-response","229","523941","0.0-1.0-309.0","0","0","82049","","438","","","68","34","d","","","","","","","","","","","","","","",""
"","S2","","html-keyboard-response","230","524167","0.0-1.0-310.0","0","0","82049","","222","","","68","34","","d","1","34","training","adjacent","FG","6","7","O.jpg","Q.jpg","0","1","0","",""
"","feedback","","html-keyboard-response","231","525172","0.0-1.0-312.0-0.0","0","0","82049","","null","","","null","34","","","","","","","","","","","","","","","",""
"","time_out","","html-keyboard-response","232","527181","0.0-1.0-314.0-0.0","0","0","82049","","null","","","null","34","","","","","","","","","","","","","","","",""
"","ITI","","html-keyboard-response","233","528188","0.0-1.0-315.0","0","0","82049","","null","","","null","34","","","","","","","","","","","","","","","NaN",""
"","S1","","html-keyboard-response","234","528444","0.0-1.0-317.0","0","0","82049","","null","","","null","35","","","","","","","","","","","","","","","",""
"","ISI","","html-keyboard-response","235","529452","0.0-1.0-318.0","0","0","82049","","372","","","75","35","k","","","","","","","","","","","","","","",""
"","S2","","html-keyboard-response","236","529657","0.0-1.0-319.0","0","0","82049","","201","","","75","35","","k","1","35","training","adjacent","FE","6","5","O.jpg","P.jpg","1","0","0","",""
"","feedback","","html-keyboard-response","237","530669","0.0-1.0-321.0-0.0","0","0","82049","","null","","","null","35","","","","","","","","","","","","","","","",""
"","time_out","","html-keyboard-response","238","532676","0.0-1.0-323.0-0.0","0","0","82049","","null","","","null","35","","","","","","","","","","","","","","","",""
"","ITI","","html-keyboard-response","239","533685","0.0-1.0-324.0","0","0","82049","","null","","","null","35","","","","","","","","","","","","","","","NaN",""
"","S1","","html-keyboard-response","240","533939","0.0-1.0-326.0","0","0","82049","","null","","","null","36","","","","","","","","","","","","","","","",""
"","ISI","","html-keyboard-response","241","534952","0.0-1.0-327.0","0","0","82049","","null","","","null","36","NaN","","","","","","","","","","","","","","",""
"","S2","","html-keyboard-response","242","535160","0.0-1.0-328.0","0","0","82049","","204","","","68","36","","d","1","36","training","adjacent","EF","5","6","P.jpg","O.jpg","0","1","0","",""
"","feedback","","html-keyboard-response","243","536165","0.0-1.0-330.0-0.0","0","0","82049","","null","","","null","36","","","","","","","","","","","","","","","",""
"","time_out","","html-keyboard-response","244","538173","0.0-1.0-332.0-0.0","0","0","82049","","null","","","null","36","","","","","","","","","","","","","","","",""
"","ITI","","html-keyboard-response","245","539183","0.0-1.0-333.0","0","0","82049","","null","","","null","36","","","","","","","","","","","","","","","NaN",""
"","S1","","html-keyboard-response","246","539443","0.0-1.0-335.0","0","0","82049","","null","","","null","37","","","","","","","","","","","","","","","",""
"","ISI","","html-keyboard-response","247","540452","0.0-1.0-336.0","0","0","82049","","null","","","null","37","NaN","","","","","","","","","","","","","","",""
"","S2","","html-keyboard-response","248","540708","0.0-1.0-337.0","0","0","82049","","null","","","null","37","","NaN","","","","","","","","","","","","","",""
"","response","","html-keyboard-response","249","541039","0.0-1.0-338.0-0.0","0","0","82049","","328","","","68","37","","","1","37","training","adjacent","BC","2","3","M.jpg","R.jpg","0","1","0","",""
"","feedback","","html-keyboard-response","250","542045","0.0-1.0-339.0-0.0","0","0","82049","","null","","","null","37","","","","","","","","","","","","","","","",""
"","time_out","","html-keyboard-response","251","544055","0.0-1.0-341.0-0.0","0","0","82049","","null","","","null","37","","","","","","","","","","","","","","","",""
"","ITI","","html-keyboard-response","252","545064","0.0-1.0-342.0","0","0","82049","","null","","","null","37","","","","","","","","","","","","","","","NaN",""
"","S1","","html-keyboard-response","253","545324","0.0-1.0-344.0","0","0","82049","","null","","","null","38","","","","","","","","","","","","","","","",""
"","ISI","","html-keyboard-response","254","546333","0.0-1.0-345.0","0","0","82049","","null","","","null","38","NaN","","","","","","","","","","","","","","",""
"","S2","","html-keyboard-response","255","546588","0.0-1.0-346.0","0","0","82049","","null","","","null","38","","NaN","","","","","","","","","","","","","",""
"","response","","html-keyboard-response","256","546942","0.0-1.0-347.0-0.0","0","0","82049","","351","","","75","38","","","1","38","training","adjacent","DE","4","5","N.jpg","P.jpg","1","1","1","",""
"","feedback","","html-keyboard-response","257","547950","0.0-1.0-348.0-0.0","0","0","82049","","null","","","null","38","","","","","","","","","","","","","","","",""
"","ITI","","html-keyboard-response","258","548956","0.0-1.0-351.0","0","0","82049","","null","","","null","38","","","","","","","","","","","","","","","NaN",""
"","S1","","html-keyboard-response","259","549213","0.0-1.0-353.0","0","0","82049","","null","","","null","39","","","","","","","","","","","","","","","",""
"","ISI","","html-keyboard-response","260","550220","0.0-1.0-354.0","0","0","82049","","null","","","null","39","NaN","","","","","","","","","","","","","","",""
"","S2","","html-keyboard-response","261","550476","0.0-1.0-355.0","0","0","82049","","null","","","null","39","","NaN","","","","","","","","","","","","","",""
"","response","","html-keyboard-response","262","550958","0.0-1.0-356.0-0.0","0","0","82049","","479","","","68","39","","","1","39","training","adjacent","BC","2","3","M.jpg","R.jpg","0","1","0","",""
"","feedback","","html-keyboard-response","263","551963","0.0-1.0-357.0-0.0","0","0","82049","","null","","","null","39","","","","","","","","","","","","","","","",""
"","time_out","","html-keyboard-response","264","553972","0.0-1.0-359.0-0.0","0","0","82049","","null","","","null","39","","","","","","","","","","","","","","","",""
"","ITI","","html-keyboard-response","265","554980","0.0-1.0-360.0","0","0","82049","","null","","","null","39","","","","","","","","","","","","","","","NaN",""
"","S1","","html-keyboard-response","266","555236","0.0-1.0-362.0","0","0","82049","","null","","","null","40","","","","","","","","","","","","","","","",""
"","ISI","","html-keyboard-response","267","556244","0.0-1.0-363.0","0","0","82049","","null","","","null","40","NaN","","","","","","","","","","","","","","",""
"","S2","","html-keyboard-response","268","556500","0.0-1.0-364.0","0","0","82049","","null","","","null","40","","NaN","","","","","","","","","","","","","",""
"","response","","html-keyboard-response","269","556828","0.0-1.0-365.0-0.0","0","0","82049","","325","","","75","40","","","1","40","training","adjacent","AB","1","2","L.jpg","M.jpg","1","1","1","",""
"","feedback","","html-keyboard-response","270","557837","0.0-1.0-366.0-0.0","0","0","82049","","null","","","null","40","","","","","","","","","","","","","","","",""
"","ITI","","html-keyboard-response","271","558845","0.0-1.0-369.0","0","0","82049","","null","","","null","40","","","","","","","","","","","","","","","NaN",""
"","S1","","html-keyboard-response","272","559101","0.0-1.0-371.0","0","0","82049","","null","","","null","41","","","","","","","","","","","","","","","",""
"","ISI","","html-keyboard-response","273","560110","0.0-1.0-372.0","0","0","82049","","539","","","75","41","k","","","","","","","","","","","","","","",""
"","S2","","html-keyboard-response","274","560372","0.0-1.0-373.0","0","0","82049","","null","","","null","41","","NaN","","","","","","","","","","","","","",""
"","response","","html-keyboard-response","275","560484","0.0-1.0-374.0-0.0","0","0","82049","","108","","","75","41","","","1","41","training","adjacent","FE","6","5","O.jpg","P.jpg","1","0","0","",""
"","feedback","","html-keyboard-response","276","561493","0.0-1.0-375.0-0.0","0","0","82049","","null","","","null","41","","","","","","","","","","","","","","","",""
"","time_out","","html-keyboard-response","277","563500","0.0-1.0-377.0-0.0","0","0","82049","","null","","","null","41","","","","","","","","","","","","","","","",""
"","ITI","","html-keyboard-response","278","564509","0.0-1.0-378.0","0","0","82049","","637","","","75","41","","","","","","","","","","","","","","","k",""
"","S1","","html-keyboard-response","279","564764","0.0-1.0-380.0","0","0","82049","","null","","","null","42","","","","","","","","","","","","","","","",""
"","ISI","","html-keyboard-response","280","565774","0.0-1.0-381.0","0","0","82049","","287","","","68","42","d","","","","","","","","","","","","","","",""
"","S2","","html-keyboard-response","281","565908","0.0-1.0-382.0","0","0","82049","","129","","","75","42","","k","1","42","training","adjacent","AB","1","2","L.jpg","M.jpg","1","1","1","",""
"","feedback","","html-keyboard-response","282","566916","0.0-1.0-384.0-0.0","0","0","82049","","null","","","null","42","","","","","","","","","","","","","","","",""
"","ITI","","html-keyboard-response","283","567936","0.0-1.0-387.0","0","0","82049","","77","","","75","42","","","","","","","","","","","","","","","k",""
"","S1","","html-keyboard-response","284","568195","0.0-1.0-389.0","0","0","82049","","null","","","null","43","","","","","","","","","","","","","","","",""
"","ISI","","html-keyboard-response","285","569204","0.0-1.0-390.0","0","0","82049","","38","","","75","43","k","","","","","","","","","","","","","","",""
"","S2","","html-keyboard-response","286","569292","0.0-1.0-391.0","0","0","82049","","85","","","75","43","","k","1","43","training","adjacent","CD","3","4","R.jpg","N.jpg","1","1","1","",""
"","feedback","","html-keyboard-response","287","570299","0.0-1.0-393.0-0.0","0","0","82049","","null","","","null","43","","","","","","","","","","","","","","","",""
"","ITI","","html-keyboard-response","288","571309","0.0-1.0-396.0","0","0","82049","","13","","","68","43","","","","","","","","","","","","","","","d",""
"","S1","","html-keyboard-response","289","571566","0.0-1.0-398.0","0","0","82049","","null","","","null","44","","","","","","","","","","","","","","","",""
"","ISI","","html-keyboard-response","290","572573","0.0-1.0-399.0","0","0","82049","","19","","","75","44","k","","","","","","","","","","","","","","",""
"","S2","","html-keyboard-response","291","572668","0.0-1.0-400.0","0","0","82049","","91","","","75","44","","k","1","44","training","adjacent","DE","4","5","N.jpg","P.jpg","1","1","1","",""
"","feedback","","html-keyboard-response","292","573676","0.0-1.0-402.0-0.0","0","0","82049","","null","","","null","44","","","","","","","","","","","","","","","",""
"","ITI","","html-keyboard-response","293","574682","0.0-1.0-405.0","0","0","82049","","62","","","75","44","","","","","","","","","","","","","","","k",""
"","S1","","html-keyboard-response","294","574939","0.0-1.0-407.0","0","0","82049","","null","","","null","45","","","","","","","","","","","","","","","",""
"","ISI","","html-keyboard-response","295","575948","0.0-1.0-408.0","0","0","82049","","117","","","75","45","k","","","","","","","","","","","","","","",""
"","S2","","html-keyboard-response","296","576045","0.0-1.0-409.0","0","0","82049","","91","","","68","45","","d","1","45","training","adjacent","CB","3","2","R.jpg","M.jpg","0","0","1","",""
"","feedback","","html-keyboard-response","297","577055","0.0-1.0-411.0-0.0","0","0","82049","","null","","","null","45","","","","","","","","","","","","","","","",""
"","ITI","","html-keyboard-response","298","578061","0.0-1.0-414.0","0","0","82049","","98","","","68","45","","","","","","","","","","","","","","","d",""
"","S1","","html-keyboard-response","299","578316","0.0-1.0-416.0","0","0","82049","","null","","","null","46","","","","","","","","","","","","","","","",""
"","ISI","","html-keyboard-response","300","579323","0.0-1.0-417.0","0","0","82049","","37","","","68","46","d","","","","","","","","","","","","","","",""
"","S2","","html-keyboard-response","301","579483","0.0-1.0-418.0","0","0","82049","","158","","","75","46","","k","1","46","training","adjacent","GF","7","6","Q.jpg","O.jpg","1","0","0","",""
"","feedback","","html-keyboard-response","302","580497","0.0-1.0-420.0-0.0","0","0","82049","","null","","","null","46","","","","","","","","","","","","","","","",""
"","time_out","","html-keyboard-response","303","582509","0.0-1.0-422.0-0.0","0","0","82049","","null","","","null","46","","","","","","","","","","","","","","","",""
"","ITI","","html-keyboard-response","304","583515","0.0-1.0-423.0","0","0","82049","","null","","","null","46","","","","","","","","","","","","","","","NaN",""
"","S1","","html-keyboard-response","305","583772","0.0-1.0-425.0","0","0","82049","","null","","","null","47","","","","","","","","","","","","","","","",""
"","ISI","","html-keyboard-response","306","584779","0.0-1.0-426.0","0","0","82049","","981","","","75","47","k","","","","","","","","","","","","","","",""
"","S2","","html-keyboard-response","307","584917","0.0-1.0-427.0","0","0","82049","","134","","","68","47","","d","1","47","training","adjacent","CB","3","2","R.jpg","M.jpg","0","0","1","",""
"","feedback","","html-keyboard-response","308","585924","0.0-1.0-429.0-0.0","0","0","82049","","null","","","null","47","","","","","","","","","","","","","","","",""
"","ITI","","html-keyboard-response","309","586932","0.0-1.0-432.0","0","0","82049","","1","","","68","47","","","","","","","","","","","","","","","d",""
"","block_over","","html-keyboard-response","310","621150","0.0-1.0-433.0-0.0","0","0","82049","","34213","","","32","47","","","","","","","","","","","","","","","",""
"","S1","","html-keyboard-response","311","621412","0.0-1.0-434.0","0","0","82049","","null","","","null","48","","","","","","","","","","","","","","","",""
"","ISI","","html-keyboard-response","312","622421","0.0-1.0-435.0","0","0","82049","","null","","","null","48","NaN","","","","","","","","","","","","","","",""
"","S2","","html-keyboard-response","313","622677","0.0-1.0-436.0","0","0","82049","","null","","","null","48","","NaN","","","","","","","","","","","","","",""
"","response","","html-keyboard-response","314","623827","0.0-1.0-437.0-0.0","0","0","82049","","1147","","","68","48","","","2","48","training","adjacent","EF","5","6","P.jpg","O.jpg","0","1","0","",""
"","feedback","","html-keyboard-response","315","624837","0.0-1.0-438.0-0.0","0","0","82049","","null","","","null","48","","","","","","","","","","","","","","","",""
"","time_out","","html-keyboard-response","316","626845","0.0-1.0-440.0-0.0","0","0","82049","","null","","","null","48","","","","","","","","","","","","","","","",""
"","ITI","","html-keyboard-response","317","627852","0.0-1.0-441.0","0","0","82049","","null","","","null","48","","","","","","","","","","","","","","","NaN",""
"","S1","","html-keyboard-response","318","628109","0.0-1.0-443.0","0","0","82049","","null","","","null","49","","","","","","","","","","","","","","","",""
"","ISI","","html-keyboard-response","319","629116","0.0-1.0-444.0","0","0","82049","","null","","","null","49","NaN","","","","","","","","","","","","","","",""
"","S2","","html-keyboard-response","320","629372","0.0-1.0-445.0","0","0","82049","","null","","","null","49","","NaN","","","","","","","","","","","","","",""
"","response","","html-keyboard-response","321","629454","0.0-1.0-446.0-0.0","0","0","82049","","77","","","68","49","","","2","49","training","adjacent","ED","5","4","P.jpg","N.jpg","0","0","1","",""
"","feedback","","html-keyboard-response","322","630465","0.0-1.0-447.0-0.0","0","0","82049","","null","","","null","49","","","","","","","","","","","","","","","",""
"","ITI","","html-keyboard-response","323","631478","0.0-1.0-450.0","0","0","82049","","null","","","null","49","","","","","","","","","","","","","","","NaN",""
"","S1","","html-keyboard-response","324","631732","0.0-1.0-452.0","0","0","82049","","null","","","null","50","","","","","","","","","","","","","","","",""
"","ISI","","html-keyboard-response","325","632740","0.0-1.0-453.0","0","0","82049","","null","","","null","50","NaN","","","","","","","","","","","","","","",""
"","S2","","html-keyboard-response","326","632998","0.0-1.0-454.0","0","0","82049","","null","","","null","50","","NaN","","","","","","","","","","","","","",""
"","response","","html-keyboard-response","327","633123","0.0-1.0-455.0-0.0","0","0","82049","","122","","","75","50","","","2","50","training","adjacent","ED","5","4","P.jpg","N.jpg","1","0","0","",""
"","feedback","","html-keyboard-response","328","634133","0.0-1.0-456.0-0.0","0","0","82049","","null","","","null","50","","","","","","","","","","","","","","","",""
"","time_out","","html-keyboard-response","329","636140","0.0-1.0-458.0-0.0","0","0","82049","","null","","","null","50","","","","","","","","","","","","","","","",""
"","ITI","","html-keyboard-response","330","637152","0.0-1.0-459.0","0","0","82049","","null","","","null","50","","","","","","","","","","","","","","","NaN",""
"","S1","","html-keyboard-response","331","637415","0.0-1.0-461.0","0","0","82049","","null","","","null","51","","","","","","","","","","","","","","","",""
"","ISI","","html-keyboard-response","332","638420","0.0-1.0-462.0","0","0","82049","","496","","","68","51","d","","","","","","","","","","","","","","",""
"","S2","","html-keyboard-response","333","638677","0.0-1.0-463.0","0","0","82049","","null","","","null","51","","NaN","","","","","","","","","","","","","",""
"","response","","html-keyboard-response","334","638794","0.0-1.0-464.0-0.0","0","0","82049","","113","","","68","51","","","2","51","training","adjacent","EF","5","6","P.jpg","O.jpg","0","1","0","",""
"","feedback","","html-keyboard-response","335","639805","0.0-1.0-465.0-0.0","0","0","82049","","null","","","null","51","","","","","","","","","","","","","","","",""
"","time_out","","html-keyboard-response","336","641811","0.0-1.0-467.0-0.0","0","0","82049","","null","","","null","51","","","","","","","","","","","","","","","",""
"","ITI","","html-keyboard-response","337","642820","0.0-1.0-468.0","0","0","82049","","783","","","75","51","","","","","","","","","","","","","","","k",""
"","S1","","html-keyboard-response","338","643077","0.0-1.0-470.0","0","0","82049","","null","","","null","52","","","","","","","","","","","","","","","",""
"","ISI","","html-keyboard-response","339","644085","0.0-1.0-471.0","0","0","82049","","435","","","75","52","k","","","","","","","","","","","","","","",""
"","S2","","html-keyboard-response","340","644353","0.0-1.0-472.0","0","0","82049","","null","","","null","52","","NaN","","","","","","","","","","","","","",""
"","response","","html-keyboard-response","341","644820","0.0-1.0-473.0-0.0","0","0","82049","","464","","","68","52","","","2","52","training","adjacent","CB","3","2","R.jpg","M.jpg","0","0","1","",""
"","feedback","","html-keyboard-response","342","645827","0.0-1.0-474.0-0.0","0","0","82049","","null","","","null","52","","","","","","","","","","","","","","","",""
"","ITI","","html-keyboard-response","343","646837","0.0-1.0-477.0","0","0","82049","","null","","","null","52","","","","","","","","","","","","","","","NaN",""
"","S1","","html-keyboard-response","344","647091","0.0-1.0-479.0","0","0","82049","","null","","","null","53","","","","","","","","","","","","","","","",""
"","ISI","","html-keyboard-response","345","648100","0.0-1.0-480.0","0","0","82049","","676","","","75","53","k","","","","","","","","","","","","","","",""
"","S2","","html-keyboard-response","346","648357","0.0-1.0-481.0","0","0","82049","","null","","","null","53","","NaN","","","","","","","","","","","","","",""
"","response","","html-keyboard-response","347","648826","0.0-1.0-482.0-0.0","0","0","82049","","466","","","75","53","","","2","53","training","adjacent","BA","2","1","M.jpg","L.jpg","1","0","0","",""
"","feedback","","html-keyboard-response","348","649837","0.0-1.0-483.0-0.0","0","0","82049","","null","","","null","53","","","","","","","","","","","","","","","",""
"","time_out","","html-keyboard-response","349","651848","0.0-1.0-485.0-0.0","0","0","82049","","null","","","null","53","","","","","","","","","","","","","","","",""
"","ITI","","html-keyboard-response","350","652852","0.0-1.0-486.0","0","0","82049","","null","","","null","53","","","","","","","","","","","","","","","NaN",""
"","S1","","html-keyboard-response","351","653117","0.0-1.0-488.0","0","0","82049","","null","","","null","54","","","","","","","","","","","","","","","",""
"","ISI","","html-keyboard-response","352","654125","0.0-1.0-489.0","0","0","82049","","523","","","68","54","d","","","","","","","","","","","","","","",""
"","S2","","html-keyboard-response","353","654381","0.0-1.0-490.0","0","0","82049","","null","","","null","54","","NaN","","","","","","","","","","","","","",""
"","response","","html-keyboard-response","354","654781","0.0-1.0-491.0-0.0","0","0","82049","","397","","","68","54","","","2","54","training","adjacent","AB","1","2","L.jpg","M.jpg","0","1","0","",""
"","feedback","","html-keyboard-response","355","655789","0.0-1.0-492.0-0.0","0","0","82049","","null","","","null","54","","","","","","","","","","","","","","","",""
"","time_out","","html-keyboard-response","356","657796","0.0-1.0-494.0-0.0","0","0","82049","","null","","","null","54","","","","","","","","","","","","","","","",""
"","ITI","","html-keyboard-response","357","658805","0.0-1.0-495.0","0","0","82049","","566","","","75","54","","","","","","","","","","","","","","","k",""
"","S1","","html-keyboard-response","358","659061","0.0-1.0-497.0","0","0","82049","","null","","","null","55","","","","","","","","","","","","","","","",""
"","ISI","","html-keyboard-response","359","660069","0.0-1.0-498.0","0","0","82049","","76","","","75","55","k","","","","","","","","","","","","","","",""
"","S2","","html-keyboard-response","360","660074","0.0-1.0-499.0","0","0","82049","","2","","","75","55","","k","2","55","training","adjacent","BC","2","3","M.jpg","R.jpg","1","1","1","",""
"","feedback","","html-keyboard-response","361","661087","0.0-1.0-501.0-0.0","0","0","82049","","null","","","null","55","","","","","","","","","","","","","","","",""
"","ITI","","html-keyboard-response","362","662092","0.0-1.0-504.0","0","0","82049","","null","","","null","55","","","","","","","","","","","","","","","NaN",""
"","S1","","html-keyboard-response","363","662348","0.0-1.0-506.0","0","0","82049","","null","","","null","56","","","","","","","","","","","","","","","",""
"","ISI","","html-keyboard-response","364","663357","0.0-1.0-507.0","0","0","82049","","619","","","75","56","k","","","","","","","","","","","","","","",""
"","S2","","html-keyboard-response","365","663379","0.0-1.0-508.0","0","0","82049","","18","","","75","56","","k","2","56","training","adjacent","FG","6","7","O.jpg","Q.jpg","1","1","1","",""
"","feedback","","html-keyboard-response","366","664389","0.0-1.0-510.0-0.0","0","0","82049","","null","","","null","56","","","","","","","","","","","","","","","",""
"","ITI","","html-keyboard-response","367","665396","0.0-1.0-513.0","0","0","82049","","null","","","null","56","","","","","","","","","","","","","","","NaN",""
"","S1","","html-keyboard-response","368","665652","0.0-1.0-515.0","0","0","82049","","null","","","null","57","","","","","","","","","","","","","","","",""
"","ISI","","html-keyboard-response","369","666661","0.0-1.0-516.0","0","0","82049","","981","","","68","57","d","","","","","","","","","","","","","","",""
"","S2","","html-keyboard-response","370","666917","0.0-1.0-517.0","0","0","82049","","null","","","null","57","","NaN","","","","","","","","","","","","","",""
"","response","","html-keyboard-response","371","667043","0.0-1.0-518.0-0.0","0","0","82049","","123","","","68","57","","","2","57","training","adjacent","DE","4","5","N.jpg","P.jpg","0","1","0","",""
"","feedback","","html-keyboard-response","372","668053","0.0-1.0-519.0-0.0","0","0","82049","","null","","","null","57","","","","","","","","","","","","","","","",""
"","time_out","","html-keyboard-response","373","670062","0.0-1.0-521.0-0.0","0","0","82049","","null","","","null","57","","","","","","","","","","","","","","","",""
"","ITI","","html-keyboard-response","374","671069","0.0-1.0-522.0","0","0","82049","","169","","","68","57","","","","","","","","","","","","","","","d",""
"","S1","","html-keyboard-response","375","671324","0.0-1.0-524.0","0","0","82049","","null","","","null","58","","","","","","","","","","","","","","","",""
"","ISI","","html-keyboard-response","376","672335","0.0-1.0-525.0","0","0","82049","","171","","","75","58","k","","","","","","","","","","","","","","",""
"","S2","","html-keyboard-response","377","672372","0.0-1.0-526.0","0","0","82049","","34","","","68","58","","d","2","58","training","adjacent","CD","3","4","R.jpg","N.jpg","0","1","0","",""
"","feedback","","html-keyboard-response","378","673380","0.0-1.0-528.0-0.0","0","0","82049","","null","","","null","58","","","","","","","","","","","","","","","",""
"","time_out","","html-keyboard-response","379","675388","0.0-1.0-530.0-0.0","0","0","82049","","null","","","null","58","","","","","","","","","","","","","","","",""
"","ITI","","html-keyboard-response","380","676398","0.0-1.0-531.0","0","0","82049","","100","","","75","58","","","","","","","","","","","","","","","k",""
"","S1","","html-keyboard-response","381","676653","0.0-1.0-533.0","0","0","82049","","null","","","null","59","","","","","","","","","","","","","","","",""
"","ISI","","html-keyboard-response","382","677658","0.0-1.0-534.0","0","0","82049","","123","","","75","59","k","","","","","","","","","","","","","","",""
"","S2","","html-keyboard-response","383","677899","0.0-1.0-535.0","0","0","82049","","237","","","75","59","","k","2","59","training","adjacent","AB","1","2","L.jpg","M.jpg","1","1","1","",""
"","feedback","","html-keyboard-response","384","678909","0.0-1.0-537.0-0.0","0","0","82049","","null","","","null","59","","","","","","","","","","","","","","","",""
"","ITI","","html-keyboard-response","385","679918","0.0-1.0-540.0","0","0","82049","","146","","","75","59","","","","","","","","","","","","","","","k",""
"","S1","","html-keyboard-response","386","680172","0.0-1.0-542.0","0","0","82049","","null","","","null","60","","","","","","","","","","","","","","","",""
"","ISI","","html-keyboard-response","387","681180","0.0-1.0-543.0","0","0","82049","","261","","","75","60","k","","","","","","","","","","","","","","",""
"","S2","","html-keyboard-response","388","681354","0.0-1.0-544.0","0","0","82049","","171","","","75","60","","k","2","60","training","adjacent","DE","4","5","N.jpg","P.jpg","1","1","1","",""
"","feedback","","html-keyboard-response","389","682364","0.0-1.0-546.0-0.0","0","0","82049","","null","","","null","60","","","","","","","","","","","","","","","",""
"","ITI","","html-keyboard-response","390","683372","0.0-1.0-549.0","0","0","82049","","59","","","75","60","","","","","","","","","","","","","","","k",""
"","S1","","html-keyboard-response","391","683628","0.0-1.0-551.0","0","0","82049","","null","","","null","61","","","","","","","","","","","","","","","",""
"","ISI","","html-keyboard-response","392","684638","0.0-1.0-552.0","0","0","82049","","179","","","75","61","k","","","","","","","","","","","","","","",""
"","S2","","html-keyboard-response","393","684866","0.0-1.0-553.0","0","0","82049","","225","","","75","61","","k","2","61","training","adjacent","GF","7","6","Q.jpg","O.jpg","1","0","0","",""
"","feedback","","html-keyboard-response","394","685879","0.0-1.0-555.0-0.0","0","0","82049","","null","","","null","61","","","","","","","","","","","","","","","",""
"","time_out","","html-keyboard-response","395","687892","0.0-1.0-557.0-0.0","0","0","82049","","null","","","null","61","","","","","","","","","","","","","","","",""
"","ITI","","html-keyboard-response","396","688902","0.0-1.0-558.0","0","0","82049","","67","","","75","61","","","","","","","","","","","","","","","k",""
"","S1","","html-keyboard-response","397","689165","0.0-1.0-560.0","0","0","82049","","null","","","null","62","","","","","","","","","","","","","","","",""
"","ISI","","html-keyboard-response","398","690172","0.0-1.0-561.0","0","0","82049","","122","","","75","62","k","","","","","","","","","","","","","","",""
"","S2","","html-keyboard-response","399","690419","0.0-1.0-562.0","0","0","82049","","243","","","75","62","","k","2","62","training","adjacent","BA","2","1","M.jpg","L.jpg","1","0","0","",""
"","feedback","","html-keyboard-response","400","691427","0.0-1.0-564.0-0.0","0","0","82049","","null","","","null","62","","","","","","","","","","","","","","","",""
"","time_out","","html-keyboard-response","401","693437","0.0-1.0-566.0-0.0","0","0","82049","","null","","","null","62","","","","","","","","","","","","","","","",""
"","ITI","","html-keyboard-response","402","694443","0.0-1.0-567.0","0","0","82049","","59","","","75","62","","","","","","","","","","","","","","","k",""
"","S1","","html-keyboard-response","403","694702","0.0-1.0-569.0","0","0","82049","","null","","","null","63","","","","","","","","","","","","","","","",""
"","ISI","","html-keyboard-response","404","695708","0.0-1.0-570.0","0","0","82049","","89","","","68","63","d","","","","","","","","","","","","","","",""
"","S2","","html-keyboard-response","405","695859","0.0-1.0-571.0","0","0","82049","","147","","","68","63","","d","2","63","training","adjacent","GF","7","6","Q.jpg","O.jpg","0","0","1","",""
"","feedback","","html-keyboard-response","406","696869","0.0-1.0-573.0-0.0","0","0","82049","","null","","","null","63","","","","","","","","","","","","","","","",""
"","ITI","","html-keyboard-response","407","697877","0.0-1.0-576.0","0","0","82049","","null","","","null","63","","","","","","","","","","","","","","","NaN",""
"","S1","","html-keyboard-response","408","698136","0.0-1.0-578.0","0","0","82049","","null","","","null","64","","","","","","","","","","","","","","","",""
"","ISI","","html-keyboard-response","409","699140","0.0-1.0-579.0","0","0","82049","","351","","","75","64","k","","","","","","","","","","","","","","",""
"","S2","","html-keyboard-response","410","699244","0.0-1.0-580.0","0","0","82049","","99","","","75","64","","k","2","64","training","adjacent","CD","3","4","R.jpg","N.jpg","1","1","1","",""
"","feedback","","html-keyboard-response","411","700256","0.0-1.0-582.0-0.0","0","0","82049","","null","","","null","64","","","","","","","","","","","","","","","",""
"","ITI","","html-keyboard-response","412","701269","0.0-1.0-585.0","0","0","82049","","61","","","75","64","","","","","","","","","","","","","","","k",""
"","S1","","html-keyboard-response","413","701524","0.0-1.0-587.0","0","0","82049","","null","","","null","65","","","","","","","","","","","","","","","",""
"","ISI","","html-keyboard-response","414","702532","0.0-1.0-588.0","0","0","82049","","43","","","75","65","k","","","","","","","","","","","","","","",""
"","S2","","html-keyboard-response","415","702625","0.0-1.0-589.0","0","0","82049","","90","","","75","65","","k","2","65","training","adjacent","ED","5","4","P.jpg","N.jpg","1","0","0","",""
"","feedback","","html-keyboard-response","416","703637","0.0-1.0-591.0-0.0","0","0","82049","","null","","","null","65","","","","","","","","","","","","","","","",""
"","time_out","","html-keyboard-response","417","705645","0.0-1.0-593.0-0.0","0","0","82049","","null","","","null","65","","","","","","","","","","","","","","","",""
"","ITI","","html-keyboard-response","418","706652","0.0-1.0-594.0","0","0","82049","","42","","","75","65","","","","","","","","","","","","","","","k",""
"","S1","","html-keyboard-response","419","706908","0.0-1.0-596.0","0","0","82049","","null","","","null","66","","","","","","","","","","","","","","","",""
"","ISI","","html-keyboard-response","420","707916","0.0-1.0-597.0","0","0","82049","","131","","","75","66","k","","","","","","","","","","","","","","",""
"","S2","","html-keyboard-response","421","707985","0.0-1.0-598.0","0","0","82049","","67","","","75","66","","k","2","66","training","adjacent","BA","2","1","M.jpg","L.jpg","1","0","0","",""
"","feedback","","html-keyboard-response","422","708997","0.0-1.0-600.0-0.0","0","0","82049","","null","","","null","66","","","","","","","","","","","","","","","",""
"","time_out","","html-keyboard-response","423","711005","0.0-1.0-602.0-0.0","0","0","82049","","null","","","null","66","","","","","","","","","","","","","","","",""
"","ITI","","html-keyboard-response","424","712017","0.0-1.0-603.0","0","0","82049","","42","","","75","66","","","","","","","","","","","","","","","k",""
"","S1","","html-keyboard-response","425","712276","0.0-1.0-605.0","0","0","82049","","null","","","null","67","","","","","","","","","","","","","","","",""
"","ISI","","html-keyboard-response","426","713283","0.0-1.0-606.0","0","0","82049","","115","","","68","67","d","","","","","","","","","","","","","","",""
"","S2","","html-keyboard-response","427","713369","0.0-1.0-607.0","0","0","82049","","84","","","68","67","","d","2","67","training","adjacent","FE","6","5","O.jpg","P.jpg","0","0","1","",""
"","feedback","","html-keyboard-response","428","714381","0.0-1.0-609.0-0.0","0","0","82049","","null","","","null","67","","","","","","","","","","","","","","","",""
"","ITI","","html-keyboard-response","429","715389","0.0-1.0-612.0","0","0","82049","","90","","","75","67","","","","","","","","","","","","","","","k",""
"","S1","","html-keyboard-response","430","715645","0.0-1.0-614.0","0","0","82049","","null","","","null","68","","","","","","","","","","","","","","","",""
"","ISI","","html-keyboard-response","431","716652","0.0-1.0-615.0","0","0","82049","","243","","","75","68","k","","","","","","","","","","","","","","",""
"","S2","","html-keyboard-response","432","716729","0.0-1.0-616.0","0","0","82049","","74","","","75","68","","k","2","68","training","adjacent","EF","5","6","P.jpg","O.jpg","1","1","1","",""
"","feedback","","html-keyboard-response","433","717740","0.0-1.0-618.0-0.0","0","0","82049","","null","","","null","68","","","","","","","","","","","","","","","",""
"","ITI","","html-keyboard-response","434","718749","0.0-1.0-621.0","0","0","82049","","139","","","75","68","","","","","","","","","","","","","","","k",""
"","S1","","html-keyboard-response","435","719004","0.0-1.0-623.0","0","0","82049","","null","","","null","69","","","","","","","","","","","","","","","",""
"","ISI","","html-keyboard-response","436","720013","0.0-1.0-624.0","0","0","82049","","87","","","75","69","k","","","","","","","","","","","","","","",""
"","S2","","html-keyboard-response","437","720067","0.0-1.0-625.0","0","0","82049","","51","","","75","69","","k","2","69","training","adjacent","ED","5","4","P.jpg","N.jpg","1","0","0","",""
"","feedback","","html-keyboard-response","438","721077","0.0-1.0-627.0-0.0","0","0","82049","","null","","","null","69","","","","","","","","","","","","","","","",""
"","time_out","","html-keyboard-response","439","723087","0.0-1.0-629.0-0.0","0","0","82049","","null","","","null","69","","","","","","","","","","","","","","","",""
"","ITI","","html-keyboard-response","440","724094","0.0-1.0-630.0","0","0","82049","","264","","","75","69","","","","","","","","","","","","","","","k",""
"","S1","","html-keyboard-response","441","724348","0.0-1.0-632.0","0","0","82049","","null","","","null","70","","","","","","","","","","","","","","","",""
"","ISI","","html-keyboard-response","442","725356","0.0-1.0-633.0","0","0","82049","","596","","","75","70","k","","","","","","","","","","","","","","",""
"","S2","","html-keyboard-response","443","725473","0.0-1.0-634.0","0","0","82049","","115","","","75","70","","k","2","70","training","adjacent","DE","4","5","N.jpg","P.jpg","1","1","1","",""
"","feedback","","html-keyboard-response","444","726484","0.0-1.0-636.0-0.0","0","0","82049","","null","","","null","70","","","","","","","","","","","","","","","",""
"","ITI","","html-keyboard-response","445","727492","0.0-1.0-639.0","0","0","82049","","98","","","68","70","","","","","","","","","","","","","","","d",""
"","S1","","html-keyboard-response","446","727749","0.0-1.0-641.0","0","0","82049","","null","","","null","71","","","","","","","","","","","","","","","",""
"","ISI","","html-keyboard-response","447","728755","0.0-1.0-642.0","0","0","82049","","114","","","68","71","d","","","","","","","","","","","","","","",""
"","S2","","html-keyboard-response","448","728874","0.0-1.0-643.0","0","0","82049","","115","","","68","71","","d","2","71","training","adjacent","CB","3","2","R.jpg","M.jpg","0","0","1","",""
"","feedback","","html-keyboard-response","449","729881","0.0-1.0-645.0-0.0","0","0","82049","","null","","","null","71","","","","","","","","","","","","","","","",""
"","ITI","","html-keyboard-response","450","730886","0.0-1.0-648.0","0","0","82049","","133","","","68","71","","","","","","","","","","","","","","","d",""
"","S1","","html-keyboard-response","451","731149","0.0-1.0-650.0","0","0","82049","","null","","","null","72","","","","","","","","","","","","","","","",""
"","ISI","","html-keyboard-response","452","732162","0.0-1.0-651.0","0","0","82049","","210","","","68","72","d","","","","","","","","","","","","","","",""
"","S2","","html-keyboard-response","453","732291","0.0-1.0-652.0","0","0","82049","","123","","","75","72","","k","2","72","training","adjacent","DE","4","5","N.jpg","P.jpg","1","1","1","",""
"","feedback","","html-keyboard-response","454","733297","0.0-1.0-654.0-0.0","0","0","82049","","null","","","null","72","","","","","","","","","","","","","","","",""
"","ITI","","html-keyboard-response","455","734301","0.0-1.0-657.0","0","0","82049","","22","","","75","72","","","","","","","","","","","","","","","k",""
"","S1","","html-keyboard-response","456","734556","0.0-1.0-659.0","0","0","82049","","null","","","null","73","","","","","","","","","","","","","","","",""
"","ISI","","html-keyboard-response","457","735564","0.0-1.0-660.0","0","0","82049","","115","","","75","73","k","","","","","","","","","","","","","","",""
"","S2","","html-keyboard-response","458","735688","0.0-1.0-661.0","0","0","82049","","122","","","75","73","","k","2","73","training","adjacent","BA","2","1","M.jpg","L.jpg","1","0","0","",""
"","feedback","","html-keyboard-response","459","736700","0.0-1.0-663.0-0.0","0","0","82049","","null","","","null","73","","","","","","","","","","","","","","","",""
"","time_out","","html-keyboard-response","460","738708","0.0-1.0-665.0-0.0","0","0","82049","","null","","","null","73","","","","","","","","","","","","","","","",""
"","ITI","","html-keyboard-response","461","739717","0.0-1.0-666.0","0","0","82049","","51","","","68","73","","","","","","","","","","","","","","","d",""
"","S1","","html-keyboard-response","462","739973","0.0-1.0-668.0","0","0","82049","","null","","","null","74","","","","","","","","","","","","","","","",""
"","ISI","","html-keyboard-response","463","740981","0.0-1.0-669.0","0","0","82049","","122","","","75","74","k","","","","","","","","","","","","","","",""
"","S2","","html-keyboard-response","464","741121","0.0-1.0-670.0","0","0","82049","","136","","","75","74","","k","2","74","training","adjacent","FG","6","7","O.jpg","Q.jpg","1","1","1","",""
"","feedback","","html-keyboard-response","465","742133","0.0-1.0-672.0-0.0","0","0","82049","","null","","","null","74","","","","","","","","","","","","","","","",""
"","ITI","","html-keyboard-response","466","743142","0.0-1.0-675.0","0","0","82049","","50","","","75","74","","","","","","","","","","","","","","","k",""
"","S1","","html-keyboard-response","467","743405","0.0-1.0-677.0","0","0","82049","","null","","","null","75","","","","","","","","","","","","","","","",""
"","ISI","","html-keyboard-response","468","744413","0.0-1.0-678.0","0","0","82049","","153","","","68","75","d","","","","","","","","","","","","","","",""
"","S2","","html-keyboard-response","469","744465","0.0-1.0-679.0","0","0","82049","","45","","","75","75","","k","2","75","training","adjacent","GF","7","6","Q.jpg","O.jpg","1","0","0","",""
"","feedback","","html-keyboard-response","470","745477","0.0-1.0-681.0-0.0","0","0","82049","","null","","","null","75","","","","","","","","","","","","","","","",""
"","time_out","","html-keyboard-response","471","747485","0.0-1.0-683.0-0.0","0","0","82049","","null","","","null","75","","","","","","","","","","","","","","","",""
"","ITI","","html-keyboard-response","472","748493","0.0-1.0-684.0","0","0","82049","","122","","","75","75","","","","","","","","","","","","","","","k",""
"","S1","","html-keyboard-response","473","748747","0.0-1.0-686.0","0","0","82049","","null","","","null","76","","","","","","","","","","","","","","","",""
"","ISI","","html-keyboard-response","474","749755","0.0-1.0-687.0","0","0","82049","","92","","","75","76","k","","","","","","","","","","","","","","",""
"","S2","","html-keyboard-response","475","749787","0.0-1.0-688.0","0","0","82049","","29","","","68","76","","d","2","76","training","adjacent","FE","6","5","O.jpg","P.jpg","0","0","1","",""
"","feedback","","html-keyboard-response","476","750798","0.0-1.0-690.0-0.0","0","0","82049","","null","","","null","76","","","","","","","","","","","","","","","",""
"","ITI","","html-keyboard-response","477","751806","0.0-1.0-693.0","0","0","82049","","255","","","75","76","","","","","","","","","","","","","","","k",""
"","S1","","html-keyboard-response","478","752069","0.0-1.0-695.0","0","0","82049","","null","","","null","77","","","","","","","","","","","","","","","",""
"","ISI","","html-keyboard-response","479","753075","0.0-1.0-696.0","0","0","82049","","0","","","68","77","d","","","","","","","","","","","","","","",""
"","S2","","html-keyboard-response","480","753227","0.0-1.0-697.0","0","0","82049","","145","","","75","77","","k","2","77","training","adjacent","DC","4","3","N.jpg","R.jpg","1","0","0","",""
"","feedback","","html-keyboard-response","481","754235","0.0-1.0-699.0-0.0","0","0","82049","","null","","","null","77","","","","","","","","","","","","","","","",""
"","time_out","","html-keyboard-response","482","756245","0.0-1.0-701.0-0.0","0","0","82049","","null","","","null","77","","","","","","","","","","","","","","","",""
"","ITI","","html-keyboard-response","483","757252","0.0-1.0-702.0","0","0","82049","","25","","","75","77","","","","","","","","","","","","","","","k",""
"","S1","","html-keyboard-response","484","757510","0.0-1.0-704.0","0","0","82049","","null","","","null","78","","","","","","","","","","","","","","","",""
"","ISI","","html-keyboard-response","485","758513","0.0-1.0-705.0","0","0","82049","","82","","","68","78","d","","","","","","","","","","","","","","",""
"","S2","","html-keyboard-response","486","758673","0.0-1.0-706.0","0","0","82049","","157","","","75","78","","k","2","78","training","adjacent","BC","2","3","M.jpg","R.jpg","1","1","1","",""
"","feedback","","html-keyboard-response","487","759677","0.0-1.0-708.0-0.0","0","0","82049","","null","","","null","78","","","","","","","","","","","","","","","",""
"","ITI","","html-keyboard-response","488","760684","0.0-1.0-711.0","0","0","82049","","33","","","75","78","","","","","","","","","","","","","","","k",""
"","S1","","html-keyboard-response","489","760941","0.0-1.0-713.0","0","0","82049","","null","","","null","79","","","","","","","","","","","","","","","",""
"","ISI","","html-keyboard-response","490","761948","0.0-1.0-714.0","0","0","82049","","58","","","68","79","d","","","","","","","","","","","","","","",""
"","S2","","html-keyboard-response","491","762058","0.0-1.0-715.0","0","0","82049","","107","","","68","79","","d","2","79","training","adjacent","AB","1","2","L.jpg","M.jpg","0","1","0","",""
"","feedback","","html-keyboard-response","492","763068","0.0-1.0-717.0-0.0","0","0","82049","","null","","","null","79","","","","","","","","","","","","","","","",""
"","time_out","","html-keyboard-response","493","765073","0.0-1.0-719.0-0.0","0","0","82049","","null","","","null","79","","","","","","","","","","","","","","","",""
"","ITI","","html-keyboard-response","494","766085","0.0-1.0-720.0","0","0","82049","","205","","","68","79","","","","","","","","","","","","","","","d",""
"","S1","","html-keyboard-response","495","766341","0.0-1.0-722.0","0","0","82049","","null","","","null","80","","","","","","","","","","","","","","","",""
"","ISI","","html-keyboard-response","496","767349","0.0-1.0-723.0","0","0","82049","","86","","","68","80","d","","","","","","","","","","","","","","",""
"","S2","","html-keyboard-response","497","767365","0.0-1.0-724.0","0","0","82049","","13","","","75","80","","k","2","80","training","adjacent","FE","6","5","O.jpg","P.jpg","1","0","0","",""
"","feedback","","html-keyboard-response","498","768373","0.0-1.0-726.0-0.0","0","0","82049","","null","","","null","80","","","","","","","","","","","","","","","",""
"","time_out","","html-keyboard-response","499","770381","0.0-1.0-728.0-0.0","0","0","82049","","null","","","null","80","","","","","","","","","","","","","","","",""
"","ITI","","html-keyboard-response","500","771388","0.0-1.0-729.0","0","0","82049","","169","","","75","80","","","","","","","","","","","","","","","k",""
"","S1","","html-keyboard-response","501","771646","0.0-1.0-731.0","0","0","82049","","null","","","null","81","","","","","","","","","","","","","","","",""
"","ISI","","html-keyboard-response","502","772653","0.0-1.0-732.0","0","0","82049","","496","","","75","81","k","","","","","","","","","","","","","","",""
"","S2","","html-keyboard-response","503","772867","0.0-1.0-733.0","0","0","82049","","211","","","68","81","","d","2","81","training","adjacent","CB","3","2","R.jpg","M.jpg","0","0","1","",""
"","feedback","","html-keyboard-response","504","773880","0.0-1.0-735.0-0.0","0","0","82049","","null","","","null","81","","","","","","","","","","","","","","","",""
"","ITI","","html-keyboard-response","505","774894","0.0-1.0-738.0","0","0","82049","","293","","","75","81","","","","","","","","","","","","","","","k",""
"","S1","","html-keyboard-response","506","775149","0.0-1.0-740.0","0","0","82049","","null","","","null","82","","","","","","","","","","","","","","","",""
"","ISI","","html-keyboard-response","507","776156","0.0-1.0-741.0","0","0","82049","","null","","","null","82","NaN","","","","","","","","","","","","","","",""
"","S2","","html-keyboard-response","508","776413","0.0-1.0-742.0","0","0","82049","","null","","","null","82","","NaN","","","","","","","","","","","","","",""
"","response","","html-keyboard-response","509","776857","0.0-1.0-743.0-0.0","0","0","82049","","441","","","75","82","","","2","82","training","adjacent","DC","4","3","N.jpg","R.jpg","1","0","0","",""
"","feedback","","html-keyboard-response","510","777868","0.0-1.0-744.0-0.0","0","0","82049","","null","","","null","82","","","","","","","","","","","","","","","",""
"","time_out","","html-keyboard-response","511","779877","0.0-1.0-746.0-0.0","0","0","82049","","null","","","null","82","","","","","","","","","","","","","","","",""
"","ITI","","html-keyboard-response","512","780885","0.0-1.0-747.0","0","0","82049","","null","","","null","82","","","","","","","","","","","","","","","NaN",""
"","S1","","html-keyboard-response","513","781148","0.0-1.0-749.0","0","0","82049","","null","","","null","83","","","","","","","","","","","","","","","",""
"","ISI","","html-keyboard-response","514","782156","0.0-1.0-750.0","0","0","82049","","null","","","null","83","NaN","","","","","","","","","","","","","","",""
"","S2","","html-keyboard-response","515","782415","0.0-1.0-751.0","0","0","82049","","null","","","null","83","","NaN","","","","","","","","","","","","","",""
"","response","","html-keyboard-response","516","783032","0.0-1.0-752.0-0.0","0","0","82049","","612","","","75","83","","","2","83","training","adjacent","FE","6","5","O.jpg","P.jpg","1","0","0","",""
"","feedback","","html-keyboard-response","517","784045","0.0-1.0-753.0-0.0","0","0","82049","","null","","","null","83","","","","","","","","","","","","","","","",""
"","time_out","","html-keyboard-response","518","786052","0.0-1.0-755.0-0.0","0","0","82049","","null","","","null","83","","","","","","","","","","","","","","","",""
"","ITI","","html-keyboard-response","519","787060","0.0-1.0-756.0","0","0","82049","","null","","","null","83","","","","","","","","","","","","","","","NaN",""
"","S1","","html-keyboard-response","520","787316","0.0-1.0-758.0","0","0","82049","","null","","","null","84","","","","","","","","","","","","","","","",""
"","ISI","","html-keyboard-response","521","788324","0.0-1.0-759.0","0","0","82049","","null","","","null","84","NaN","","","","","","","","","","","","","","",""
"","S2","","html-keyboard-response","522","788580","0.0-1.0-760.0","0","0","82049","","null","","","null","84","","NaN","","","","","","","","","","","","","",""
"","response","","html-keyboard-response","523","788776","0.0-1.0-761.0-0.0","0","0","82049","","193","","","68","84","","","2","84","training","adjacent","CD","3","4","R.jpg","N.jpg","0","1","0","",""
"","feedback","","html-keyboard-response","524","789789","0.0-1.0-762.0-0.0","0","0","82049","","null","","","null","84","","","","","","","","","","","","","","","",""
"","time_out","","html-keyboard-response","525","791801","0.0-1.0-764.0-0.0","0","0","82049","","null","","","null","84","","","","","","","","","","","","","","","",""
"","ITI","","html-keyboard-response","526","792811","0.0-1.0-765.0","0","0","82049","","null","","","null","84","","","","","","","","","","","","","","","NaN",""
"","S1","","html-keyboard-response","527","793068","0.0-1.0-767.0","0","0","82049","","null","","","null","85","","","","","","","","","","","","","","","",""
"","ISI","","html-keyboard-response","528","794076","0.0-1.0-768.0","0","0","82049","","null","","","null","85","NaN","","","","","","","","","","","","","","",""
"","S2","","html-keyboard-response","529","794332","0.0-1.0-769.0","0","0","82049","","null","","","null","85","","NaN","","","","","","","","","","","","","",""
"","response","","html-keyboard-response","530","794537","0.0-1.0-770.0-0.0","0","0","82049","","202","","","68","85","","","2","85","training","adjacent","FG","6","7","O.jpg","Q.jpg","0","1","0","",""
"","feedback","","html-keyboard-response","531","795549","0.0-1.0-771.0-0.0","0","0","82049","","null","","","null","85","","","","","","","","","","","","","","","",""
"","time_out","","html-keyboard-response","532","797556","0.0-1.0-773.0-0.0","0","0","82049","","null","","","null","85","","","","","","","","","","","","","","","",""
"","ITI","","html-keyboard-response","533","798564","0.0-1.0-774.0","0","0","82049","","null","","","null","85","","","","","","","","","","","","","","","NaN",""
"","S1","","html-keyboard-response","534","798820","0.0-1.0-776.0","0","0","82049","","null","","","null","86","","","","","","","","","","","","","","","",""
"","ISI","","html-keyboard-response","535","799829","0.0-1.0-777.0","0","0","82049","","null","","","null","86","NaN","","","","","","","","","","","","","","",""
"","S2","","html-keyboard-response","536","800084","0.0-1.0-778.0","0","0","82049","","null","","","null","86","","NaN","","","","","","","","","","","","","",""
"","response","","html-keyboard-response","537","800128","0.0-1.0-779.0-0.0","0","0","82049","","40","","","75","86","","","2","86","training","adjacent","CD","3","4","R.jpg","N.jpg","1","1","1","",""
"","feedback","","html-keyboard-response","538","801132","0.0-1.0-780.0-0.0","0","0","82049","","null","","","null","86","","","","","","","","","","","","","","","",""
"","ITI","","html-keyboard-response","539","802141","0.0-1.0-783.0","0","0","82049","","null","","","null","86","","","","","","","","","","","","","","","NaN",""
"","S1","","html-keyboard-response","540","802396","0.0-1.0-785.0","0","0","82049","","null","","","null","87","","","","","","","","","","","","","","","",""
"","ISI","","html-keyboard-response","541","803404","0.0-1.0-786.0","0","0","82049","","null","","","null","87","NaN","","","","","","","","","","","","","","",""
"","S2","","html-keyboard-response","542","803660","0.0-1.0-787.0","0","0","82049","","null","","","null","87","","NaN","","","","","","","","","","","","","",""
"","response","","html-keyboard-response","543","803843","0.0-1.0-788.0-0.0","0","0","82049","","180","","","75","87","","","2","87","training","adjacent","DC","4","3","N.jpg","R.jpg","1","0","0","",""
"","feedback","","html-keyboard-response","544","804853","0.0-1.0-789.0-0.0","0","0","82049","","null","","","null","87","","","","","","","","","","","","","","","",""
"","time_out","","html-keyboard-response","545","806860","0.0-1.0-791.0-0.0","0","0","82049","","null","","","null","87","","","","","","","","","","","","","","","",""
"","ITI","","html-keyboard-response","546","807868","0.0-1.0-792.0","0","0","82049","","null","","","null","87","","","","","","","","","","","","","","","NaN",""
"","S1","","html-keyboard-response","547","808124","0.0-1.0-794.0","0","0","82049","","null","","","null","88","","","","","","","","","","","","","","","",""
"","ISI","","html-keyboard-response","548","809132","0.0-1.0-795.0","0","0","82049","","null","","","null","88","NaN","","","","","","","","","","","","","","",""
"","S2","","html-keyboard-response","549","809390","0.0-1.0-796.0","0","0","82049","","null","","","null","88","","NaN","","","","","","","","","","","","","",""
"","response","","html-keyboard-response","550","810159","0.0-1.0-797.0-0.0","0","0","82049","","765","","","75","88","","","2","88","training","adjacent","AB","1","2","L.jpg","M.jpg","1","1","1","",""
"","feedback","","html-keyboard-response","551","811171","0.0-1.0-798.0-0.0","0","0","82049","","null","","","null","88","","","","","","","","","","","","","","","",""
"","ITI","","html-keyboard-response","552","812179","0.0-1.0-801.0","0","0","82049","","null","","","null","88","","","","","","","","","","","","","","","NaN",""
"","S1","","html-keyboard-response","553","812436","0.0-1.0-803.0","0","0","82049","","null","","","null","89","","","","","","","","","","","","","","","",""
"","ISI","","html-keyboard-response","554","813444","0.0-1.0-804.0","0","0","82049","","null","","","null","89","NaN","","","","","","","","","","","","","","",""
"","S2","","html-keyboard-response","555","813700","0.0-1.0-805.0","0","0","82049","","null","","","null","89","","NaN","","","","","","","","","","","","","",""
"","response","","html-keyboard-response","556","814454","0.0-1.0-806.0-0.0","0","0","82049","","749","","","68","89","","","2","89","training","adjacent","FG","6","7","O.jpg","Q.jpg","0","1","0","",""
"","feedback","","html-keyboard-response","557","815460","0.0-1.0-807.0-0.0","0","0","82049","","null","","","null","89","","","","","","","","","","","","","","","",""
"","time_out","","html-keyboard-response","558","817468","0.0-1.0-809.0-0.0","0","0","82049","","null","","","null","89","","","","","","","","","","","","","","","",""
"","ITI","","html-keyboard-response","559","818475","0.0-1.0-810.0","0","0","82049","","null","","","null","89","","","","","","","","","","","","","","","NaN",""
"","S1","","html-keyboard-response","560","818732","0.0-1.0-812.0","0","0","82049","","null","","","null","90","","","","","","","","","","","","","","","",""
"","ISI","","html-keyboard-response","561","819740","0.0-1.0-813.0","0","0","82049","","930","","","75","90","k","","","","","","","","","","","","","","",""
"","S2","","html-keyboard-response","562","819996","0.0-1.0-814.0","0","0","82049","","null","","","null","90","","NaN","","","","","","","","","","","","","",""
"","response","","html-keyboard-response","563","820776","0.0-1.0-815.0-0.0","0","0","82049","","778","","","75","90","","","2","90","training","adjacent","DC","4","3","N.jpg","R.jpg","1","0","0","",""
"","feedback","","html-keyboard-response","564","821790","0.0-1.0-816.0-0.0","0","0","82049","","null","","","null","90","","","","","","","","","","","","","","","",""
"","time_out","","html-keyboard-response","565","823796","0.0-1.0-818.0-0.0","0","0","82049","","null","","","null","90","","","","","","","","","","","","","","","",""
"","ITI","","html-keyboard-response","566","824804","0.0-1.0-819.0","0","0","82049","","106","","","68","90","","","","","","","","","","","","","","","d",""
"","S1","","html-keyboard-response","567","825061","0.0-1.0-821.0","0","0","82049","","null","","","null","91","","","","","","","","","","","","","","","",""
"","ISI","","html-keyboard-response","568","826068","0.0-1.0-822.0","0","0","82049","","286","","","68","91","d","","","","","","","","","","","","","","",""
"","S2","","html-keyboard-response","569","826151","0.0-1.0-823.0","0","0","82049","","79","","","68","91","","d","2","91","training","adjacent","EF","5","6","P.jpg","O.jpg","0","1","0","",""
"","feedback","","html-keyboard-response","570","827156","0.0-1.0-825.0-0.0","0","0","82049","","null","","","null","91","","","","","","","","","","","","","","","",""
"","time_out","","html-keyboard-response","571","829165","0.0-1.0-827.0-0.0","0","0","82049","","null","","","null","91","","","","","","","","","","","","","","","",""
"","ITI","","html-keyboard-response","572","830168","0.0-1.0-828.0","0","0","82049","","16","","","75","91","","","","","","","","","","","","","","","k",""
"","S1","","html-keyboard-response","573","830429","0.0-1.0-830.0","0","0","82049","","null","","","null","92","","","","","","","","","","","","","","","",""
"","ISI","","html-keyboard-response","574","831435","0.0-1.0-831.0","0","0","82049","","158","","","75","92","k","","","","","","","","","","","","","","",""
"","S2","","html-keyboard-response","575","831699","0.0-1.0-832.0","0","0","82049","","null","","","null","92","","NaN","","","","","","","","","","","","","",""
"","response","","html-keyboard-response","576","831831","0.0-1.0-833.0-0.0","0","0","82049","","128","","","68","92","","","2","92","training","adjacent","BC","2","3","M.jpg","R.jpg","0","1","0","",""
"","feedback","","html-keyboard-response","577","832836","0.0-1.0-834.0-0.0","0","0","82049","","null","","","null","92","","","","","","","","","","","","","","","",""
"","time_out","","html-keyboard-response","578","834843","0.0-1.0-836.0-0.0","0","0","82049","","null","","","null","92","","","","","","","","","","","","","","","",""
"","ITI","","html-keyboard-response","579","835854","0.0-1.0-837.0","0","0","82049","","331","","","68","92","","","","","","","","","","","","","","","d",""
"","S1","","html-keyboard-response","580","836116","0.0-1.0-839.0","0","0","82049","","null","","","null","93","","","","","","","","","","","","","","","",""
"","ISI","","html-keyboard-response","581","837124","0.0-1.0-840.0","0","0","82049","","null","","","null","93","NaN","","","","","","","","","","","","","","",""
"","S2","","html-keyboard-response","582","837281","0.0-1.0-841.0","0","0","82049","","153","","","68","93","","d","2","93","training","adjacent","BC","2","3","M.jpg","R.jpg","0","1","0","",""
"","feedback","","html-keyboard-response","583","838292","0.0-1.0-843.0-0.0","0","0","82049","","null","","","null","93","","","","","","","","","","","","","","","",""
