"success","ttype","start_time","trial_type","trial_index","time_elapsed","internal_node_id","warning","missed_checkup","PID","view_history","rt","responses","repeat_instructions","key_press","index","keypress_isi","keypress_S2","block","trial_num","phase","group_type","pair_type","S1_stim","S2_stim","S1_img","S2_img","S1_chosen","S1_higher","accuracy","keypress_iti","total_bonus_tally"
"true","full_screen","d04142023hr1401","fullscreen","0","4024","0.0-0.0","0","0","80456","","","","","","","","","","","","","","","","","","","","","",""
"","instructions","","instructions","1","38004","0.0-1.0-0.0-0.0","0","0","80456","[{""page_index"":0,""viewing_time"":4084},{""page_index"":1,""viewing_time"":13161},{""page_index"":2,""viewing_time"":13856},{""page_index"":3,""viewing_time"":2877}]","33978","","","","","","","","","","","","","","","","","","","",""
"","comprehension_check","","survey-multi-choice","2","61262","0.0-1.0-0.0-1.0","0","0","80456","","23252","{""Q0"":""True"",""Q1"":""D"",""Q2"":""Once the second image appears and while the screen 'MAKE A CHOICE' is shown"",""Q3"":""Green mark"",""Q4"":""either D or K""}","0","","","","","","","","","","","","","","","","","",""
"","start_exp","","html-keyboard-response","3","62585","0.0-1.0-1.0","0","0","80456","","1319","","","32","","","","","","","","","","","","","","","","",""
"","S1","","html-keyboard-response","4","62839","0.0-1.0-2.0","0","0","80456","","null","","","null","0","","","","","","","","","","","","","","","",""
"","ISI","","html-keyboard-response","5","63842","0.0-1.0-3.0","0","0","80456","","null","","","null","0","NaN","","","","","","","","","","","","","","",""
"","S2","","html-keyboard-response","6","64095","0.0-1.0-4.0","0","0","80456","","null","","","null","0","","NaN","","","","","","","","","","","","","",""
"","response","","html-keyboard-response","7","65848","0.0-1.0-5.0-0.0","0","0","80456","","null","","","null","0","","","1","0","training","adjacent","FE","6","5","O.jpg","M.jpg","NaN","0","0","",""
"","too_slow_prompt","","html-keyboard-response","8","66850","0.0-1.0-7.0-0.0","1","0","80456","","null","","","null","","","","","","","","","","","","","","","","",""
"","time_out","","html-keyboard-response","9","68853","0.0-1.0-8.0-0.0","0","0","80456","","null","","","null","0","","","","","","","","","","","","","","","",""
"","ITI","","html-keyboard-response","10","69856","0.0-1.0-9.0","0","0","80456","","null","","","null","0","","","","","","","","","","","","","","","NaN",""
"","S1","","html-keyboard-response","11","70121","0.0-1.0-11.0","0","0","80456","","null","","","null","1","","","","","","","","","","","","","","","",""
"","ISI","","html-keyboard-response","12","71124","0.0-1.0-12.0","0","0","80456","","null","","","null","1","NaN","","","","","","","","","","","","","","",""
"","S2","","html-keyboard-response","13","71377","0.0-1.0-13.0","0","0","80456","","null","","","null","1","","NaN","","","","","","","","","","","","","",""
"","response","","html-keyboard-response","14","71675","0.0-1.0-14.0-0.0","0","0","80456","","297","","","68","1","","","1","1","training","adjacent","EF","5","6","M.jpg","O.jpg","1","1","1","",""
"","feedback","","html-keyboard-response","15","72678","0.0-1.0-15.0-0.0","0","0","80456","","null","","","null","1","","","","","","","","","","","","","","","",""
"","ITI","","html-keyboard-response","16","73681","0.0-1.0-18.0","0","0","80456","","null","","","null","1","","","","","","","","","","","","","","","NaN",""
"","S1","","html-keyboard-response","17","73933","0.0-1.0-20.0","0","0","80456","","null","","","null","2","","","","","","","","","","","","","","","",""
"","ISI","","html-keyboard-response","18","74935","0.0-1.0-21.0","0","0","80456","","null","","","null","2","NaN","","","","","","","","","","","","","","",""
"","S2","","html-keyboard-response","19","75188","0.0-1.0-22.0","0","0","80456","","null","","","null","2","","NaN","","","","","","","","","","","","","",""
"","response","","html-keyboard-response","20","75549","0.0-1.0-23.0-0.0","0","0","80456","","358","","","75","2","","","1","2","training","adjacent","FG","6","7","O.jpg","Q.jpg","0","1","0","",""
"","feedback","","html-keyboard-response","21","76551","0.0-1.0-24.0-0.0","0","0","80456","","null","","","null","2","","","","","","","","","","","","","","","",""
"","time_out","","html-keyboard-response","22","78552","0.0-1.0-26.0-0.0","0","0","80456","","null","","","null","2","","","","","","","","","","","","","","","",""
"","ITI","","html-keyboard-response","23","79555","0.0-1.0-27.0","0","0","80456","","null","","","null","2","","","","","","","","","","","","","","","NaN",""
"","S1","","html-keyboard-response","24","79808","0.0-1.0-29.0","0","0","80456","","null","","","null","3","","","","","","","","","","","","","","","",""
"","ISI","","html-keyboard-response","25","80825","0.0-1.0-30.0","0","0","80456","","null","","","null","3","NaN","","","","","","","","","","","","","","",""
"","S2","","html-keyboard-response","26","81078","0.0-1.0-31.0","0","0","80456","","null","","","null","3","","NaN","","","","","","","","","","","","","",""
"","response","","html-keyboard-response","27","81173","0.0-1.0-32.0-0.0","0","0","80456","","94","","","68","3","","","1","3","training","adjacent","DE","4","5","L.jpg","M.jpg","1","1","1","",""
"","feedback","","html-keyboard-response","28","82176","0.0-1.0-33.0-0.0","0","0","80456","","null","","","null","3","","","","","","","","","","","","","","","",""
"","ITI","","html-keyboard-response","29","83178","0.0-1.0-36.0","0","0","80456","","null","","","null","3","","","","","","","","","","","","","","","NaN",""
"","S1","","html-keyboard-response","30","83431","0.0-1.0-38.0","0","0","80456","","null","","","null","4","","","","","","","","","","","","","","","",""
"","ISI","","html-keyboard-response","31","84434","0.0-1.0-39.0","0","0","80456","","null","","","null","4","NaN","","","","","","","","","","","","","","",""
"","S2","","html-keyboard-response","32","84688","0.0-1.0-40.0","0","0","80456","","null","","","null","4","","NaN","","","","","","","","","","","","","",""
"","response","","html-keyboard-response","33","84717","0.0-1.0-41.0-0.0","0","0","80456","","27","","","75","4","","","1","4","training","adjacent","DC","4","3","L.jpg","P.jpg","0","0","1","",""
"","feedback","","html-keyboard-response","34","85719","0.0-1.0-42.0-0.0","0","0","80456","","null","","","null","4","","","","","","","","","","","","","","","",""
"","ITI","","html-keyboard-response","35","86722","0.0-1.0-45.0","0","0","80456","","null","","","null","4","","","","","","","","","","","","","","","NaN",""
"","S1","","html-keyboard-response","36","86975","0.0-1.0-47.0","0","0","80456","","null","","","null","5","","","","","","","","","","","","","","","",""
"","ISI","","html-keyboard-response","37","87977","0.0-1.0-48.0","0","0","80456","","null","","","null","5","NaN","","","","","","","","","","","","","","",""
"","S2","","html-keyboard-response","38","88230","0.0-1.0-49.0","0","0","80456","","null","","","null","5","","NaN","","","","","","","","","","","","","",""
"","response","","html-keyboard-response","39","88516","0.0-1.0-50.0-0.0","0","0","80456","","284","","","75","5","","","1","5","training","adjacent","BA","2","1","N.jpg","R.jpg","0","0","1","",""
"","feedback","","html-keyboard-response","40","89519","0.0-1.0-51.0-0.0","0","0","80456","","null","","","null","5","","","","","","","","","","","","","","","",""
"","ITI","","html-keyboard-response","41","90521","0.0-1.0-54.0","0","0","80456","","null","","","null","5","","","","","","","","","","","","","","","NaN",""
"","S1","","html-keyboard-response","42","90774","0.0-1.0-56.0","0","0","80456","","null","","","null","6","","","","","","","","","","","","","","","",""
"","ISI","","html-keyboard-response","43","91778","0.0-1.0-57.0","0","0","80456","","null","","","null","6","NaN","","","","","","","","","","","","","","",""
"","S2","","html-keyboard-response","44","92031","0.0-1.0-58.0","0","0","80456","","null","","","null","6","","NaN","","","","","","","","","","","","","",""
"","response","","html-keyboard-response","45","92082","0.0-1.0-59.0-0.0","0","0","80456","","49","","","68","6","","","1","6","training","adjacent","BC","2","3","N.jpg","P.jpg","1","1","1","",""
"","feedback","","html-keyboard-response","46","93085","0.0-1.0-60.0-0.0","0","0","80456","","null","","","null","6","","","","","","","","","","","","","","","",""
"","ITI","","html-keyboard-response","47","94088","0.0-1.0-63.0","0","0","80456","","null","","","null","6","","","","","","","","","","","","","","","NaN",""
"","S1","","html-keyboard-response","48","94340","0.0-1.0-65.0","0","0","80456","","null","","","null","7","","","","","","","","","","","","","","","",""
"","ISI","","html-keyboard-response","49","95343","0.0-1.0-66.0","0","0","80456","","null","","","null","7","NaN","","","","","","","","","","","","","","",""
"","S2","","html-keyboard-response","50","95596","0.0-1.0-67.0","0","0","80456","","null","","","null","7","","NaN","","","","","","","","","","","","","",""
"","response","","html-keyboard-response","51","95685","0.0-1.0-68.0-0.0","0","0","80456","","88","","","68","7","","","1","7","training","adjacent","BC","2","3","N.jpg","P.jpg","1","1","1","",""
"","feedback","","html-keyboard-response","52","96700","0.0-1.0-69.0-0.0","0","0","80456","","null","","","null","7","","","","","","","","","","","","","","","",""
"","ITI","","html-keyboard-response","53","97702","0.0-1.0-72.0","0","0","80456","","null","","","null","7","","","","","","","","","","","","","","","NaN",""
"","S1","","html-keyboard-response","54","97955","0.0-1.0-74.0","0","0","80456","","null","","","null","8","","","","","","","","","","","","","","","",""
"","ISI","","html-keyboard-response","55","98957","0.0-1.0-75.0","0","0","80456","","null","","","null","8","NaN","","","","","","","","","","","","","","",""
"","S2","","html-keyboard-response","56","99202","0.0-1.0-76.0","0","0","80456","","242","","","68","8","","d","1","8","training","adjacent","DE","4","5","L.jpg","M.jpg","1","1","1","",""
"","feedback","","html-keyboard-response","57","100204","0.0-1.0-78.0-0.0","0","0","80456","","null","","","null","8","","","","","","","","","","","","","","","",""
"","ITI","","html-keyboard-response","58","101208","0.0-1.0-81.0","0","0","80456","","null","","","null","8","","","","","","","","","","","","","","","NaN",""
"","S1","","html-keyboard-response","59","101462","0.0-1.0-83.0","0","0","80456","","null","","","null","9","","","","","","","","","","","","","","","",""
"","ISI","","html-keyboard-response","60","102464","0.0-1.0-84.0","0","0","80456","","null","","","null","9","NaN","","","","","","","","","","","","","","",""
"","S2","","html-keyboard-response","61","102670","0.0-1.0-85.0","0","0","80456","","204","","","75","9","","k","1","9","training","adjacent","AB","1","2","R.jpg","N.jpg","0","1","0","",""
"","feedback","","html-keyboard-response","62","103672","0.0-1.0-87.0-0.0","0","0","80456","","null","","","null","9","","","","","","","","","","","","","","","",""
"","time_out","","html-keyboard-response","63","105674","0.0-1.0-89.0-0.0","0","0","80456","","null","","","null","9","","","","","","","","","","","","","","","",""
"","ITI","","html-keyboard-response","64","106677","0.0-1.0-90.0","0","0","80456","","null","","","null","9","","","","","","","","","","","","","","","NaN",""
"","S1","","html-keyboard-response","65","106930","0.0-1.0-92.0","0","0","80456","","null","","","null","10","","","","","","","","","","","","","","","",""
"","ISI","","html-keyboard-response","66","107931","0.0-1.0-93.0","0","0","80456","","null","","","null","10","NaN","","","","","","","","","","","","","","",""
"","S2","","html-keyboard-response","67","108182","0.0-1.0-94.0","0","0","80456","","249","","","68","10","","d","1","10","training","adjacent","DE","4","5","L.jpg","M.jpg","1","1","1","",""
"","feedback","","html-keyboard-response","68","109185","0.0-1.0-96.0-0.0","0","0","80456","","null","","","null","10","","","","","","","","","","","","","","","",""
"","ITI","","html-keyboard-response","69","110190","0.0-1.0-99.0","0","0","80456","","null","","","null","10","","","","","","","","","","","","","","","NaN",""
"","S1","","html-keyboard-response","70","110443","0.0-1.0-101.0","0","0","80456","","null","","","null","11","","","","","","","","","","","","","","","",""
"","ISI","","html-keyboard-response","71","111445","0.0-1.0-102.0","0","0","80456","","null","","","null","11","NaN","","","","","","","","","","","","","","",""
"","S2","","html-keyboard-response","72","111698","0.0-1.0-103.0","0","0","80456","","null","","","null","11","","NaN","","","","","","","","","","","","","",""
"","response","","html-keyboard-response","73","111920","0.0-1.0-104.0-0.0","0","0","80456","","220","","","68","11","","","1","11","training","adjacent","DC","4","3","L.jpg","P.jpg","1","0","0","",""
"","feedback","","html-keyboard-response","74","112922","0.0-1.0-105.0-0.0","0","0","80456","","null","","","null","11","","","","","","","","","","","","","","","",""
"","time_out","","html-keyboard-response","75","114924","0.0-1.0-107.0-0.0","0","0","80456","","null","","","null","11","","","","","","","","","","","","","","","",""
"","ITI","","html-keyboard-response","76","115927","0.0-1.0-108.0","0","0","80456","","null","","","null","11","","","","","","","","","","","","","","","NaN",""
"","S1","","html-keyboard-response","77","116181","0.0-1.0-110.0","0","0","80456","","null","","","null","12","","","","","","","","","","","","","","","",""
"","ISI","","html-keyboard-response","78","117184","0.0-1.0-111.0","0","0","80456","","null","","","null","12","NaN","","","","","","","","","","","","","","",""
"","S2","","html-keyboard-response","79","117418","0.0-1.0-112.0","0","0","80456","","231","","","68","12","","d","1","12","training","adjacent","CB","3","2","P.jpg","N.jpg","1","0","0","",""
"","feedback","","html-keyboard-response","80","118421","0.0-1.0-114.0-0.0","0","0","80456","","null","","","null","12","","","","","","","","","","","","","","","",""
"","time_out","","html-keyboard-response","81","120423","0.0-1.0-116.0-0.0","0","0","80456","","null","","","null","12","","","","","","","","","","","","","","","",""
"","ITI","","html-keyboard-response","82","121425","0.0-1.0-117.0","0","0","80456","","null","","","null","12","","","","","","","","","","","","","","","NaN",""
"","S1","","html-keyboard-response","83","121679","0.0-1.0-119.0","0","0","80456","","null","","","null","13","","","","","","","","","","","","","","","",""
"","ISI","","html-keyboard-response","84","122681","0.0-1.0-120.0","0","0","80456","","56","","","75","13","k","","","","","","","","","","","","","","",""
"","S2","","html-keyboard-response","85","122935","0.0-1.0-121.0","0","0","80456","","null","","","null","13","","NaN","","","","","","","","","","","","","",""
"","response","","html-keyboard-response","86","122948","0.0-1.0-122.0-0.0","0","0","80456","","12","","","75","13","","","1","13","training","adjacent","BC","2","3","N.jpg","P.jpg","0","1","0","",""
"","feedback","","html-keyboard-response","87","123951","0.0-1.0-123.0-0.0","0","0","80456","","null","","","null","13","","","","","","","","","","","","","","","",""
"","time_out","","html-keyboard-response","88","125953","0.0-1.0-125.0-0.0","0","0","80456","","null","","","null","13","","","","","","","","","","","","","","","",""
"","ITI","","html-keyboard-response","89","126957","0.0-1.0-126.0","0","0","80456","","null","","","null","13","","","","","","","","","","","","","","","NaN",""
"","S1","","html-keyboard-response","90","127210","0.0-1.0-128.0","0","0","80456","","null","","","null","14","","","","","","","","","","","","","","","",""
"","ISI","","html-keyboard-response","91","128213","0.0-1.0-129.0","0","0","80456","","null","","","null","14","NaN","","","","","","","","","","","","","","",""
"","S2","","html-keyboard-response","92","128466","0.0-1.0-130.0","0","0","80456","","null","","","null","14","","NaN","","","","","","","","","","","","","",""
"","response","","html-keyboard-response","93","128479","0.0-1.0-131.0-0.0","0","0","80456","","11","","","75","14","","","1","14","training","adjacent","ED","5","4","M.jpg","L.jpg","0","0","1","",""
"","feedback","","html-keyboard-response","94","129482","0.0-1.0-132.0-0.0","0","0","80456","","null","","","null","14","","","","","","","","","","","","","","","",""
"","ITI","","html-keyboard-response","95","130485","0.0-1.0-135.0","0","0","80456","","null","","","null","14","","","","","","","","","","","","","","","NaN",""
"","S1","","html-keyboard-response","96","130750","0.0-1.0-137.0","0","0","80456","","null","","","null","15","","","","","","","","","","","","","","","",""
"","ISI","","html-keyboard-response","97","131752","0.0-1.0-138.0","0","0","80456","","null","","","null","15","NaN","","","","","","","","","","","","","","",""
"","S2","","html-keyboard-response","98","132005","0.0-1.0-139.0","0","0","80456","","null","","","null","15","","NaN","","","","","","","","","","","","","",""
"","response","","html-keyboard-response","99","132280","0.0-1.0-140.0-0.0","0","0","80456","","273","","","68","15","","","1","15","training","adjacent","BA","2","1","N.jpg","R.jpg","1","0","0","",""
"","feedback","","html-keyboard-response","100","133283","0.0-1.0-141.0-0.0","0","0","80456","","null","","","null","15","","","","","","","","","","","","","","","",""
"","time_out","","html-keyboard-response","101","135287","0.0-1.0-143.0-0.0","0","0","80456","","null","","","null","15","","","","","","","","","","","","","","","",""
"","ITI","","html-keyboard-response","102","136289","0.0-1.0-144.0","0","0","80456","","null","","","null","15","","","","","","","","","","","","","","","NaN",""
"","S1","","html-keyboard-response","103","136542","0.0-1.0-146.0","0","0","80456","","null","","","null","16","","","","","","","","","","","","","","","",""
"","ISI","","html-keyboard-response","104","137544","0.0-1.0-147.0","0","0","80456","","null","","","null","16","NaN","","","","","","","","","","","","","","",""
"","S2","","html-keyboard-response","105","137802","0.0-1.0-148.0","0","0","80456","","null","","","null","16","","NaN","","","","","","","","","","","","","",""
"","response","","html-keyboard-response","106","137817","0.0-1.0-149.0-0.0","0","0","80456","","14","","","68","16","","","1","16","training","adjacent","CB","3","2","P.jpg","N.jpg","1","0","0","",""
"","feedback","","html-keyboard-response","107","138820","0.0-1.0-150.0-0.0","0","0","80456","","null","","","null","16","","","","","","","","","","","","","","","",""
"","time_out","","html-keyboard-response","108","140823","0.0-1.0-152.0-0.0","0","0","80456","","null","","","null","16","","","","","","","","","","","","","","","",""
"","ITI","","html-keyboard-response","109","141825","0.0-1.0-153.0","0","0","80456","","null","","","null","16","","","","","","","","","","","","","","","NaN",""
"","S1","","html-keyboard-response","110","142091","0.0-1.0-155.0","0","0","80456","","null","","","null","17","","","","","","","","","","","","","","","",""
"","ISI","","html-keyboard-response","111","143093","0.0-1.0-156.0","0","0","80456","","null","","","null","17","NaN","","","","","","","","","","","","","","",""
"","S2","","html-keyboard-response","112","143326","0.0-1.0-157.0","0","0","80456","","230","","","75","17","","k","1","17","training","adjacent","FG","6","7","O.jpg","Q.jpg","0","1","0","",""
"","feedback","","html-keyboard-response","113","144330","0.0-1.0-159.0-0.0","0","0","80456","","null","","","null","17","","","","","","","","","","","","","","","",""
"","time_out","","html-keyboard-response","114","146332","0.0-1.0-161.0-0.0","0","0","80456","","null","","","null","17","","","","","","","","","","","","","","","",""
"","ITI","","html-keyboard-response","115","147335","0.0-1.0-162.0","0","0","80456","","null","","","null","17","","","","","","","","","","","","","","","NaN",""
"","S1","","html-keyboard-response","116","147594","0.0-1.0-164.0","0","0","80456","","null","","","null","18","","","","","","","","","","","","","","","",""
"","ISI","","html-keyboard-response","117","148596","0.0-1.0-165.0","0","0","80456","","null","","","null","18","NaN","","","","","","","","","","","","","","",""
"","S2","","html-keyboard-response","118","148850","0.0-1.0-166.0","0","0","80456","","null","","","null","18","","NaN","","","","","","","","","","","","","",""
"","response","","html-keyboard-response","119","148999","0.0-1.0-167.0-0.0","0","0","80456","","148","","","68","18","","","1","18","training","adjacent","FE","6","5","O.jpg","M.jpg","1","0","0","",""
"","feedback","","html-keyboard-response","120","150003","0.0-1.0-168.0-0.0","0","0","80456","","null","","","null","18","","","","","","","","","","","","","","","",""
"","time_out","","html-keyboard-response","121","152005","0.0-1.0-170.0-0.0","0","0","80456","","null","","","null","18","","","","","","","","","","","","","","","",""
"","ITI","","html-keyboard-response","122","153007","0.0-1.0-171.0","0","0","80456","","null","","","null","18","","","","","","","","","","","","","","","NaN",""
"","S1","","html-keyboard-response","123","153261","0.0-1.0-173.0","0","0","80456","","null","","","null","19","","","","","","","","","","","","","","","",""
"","ISI","","html-keyboard-response","124","154264","0.0-1.0-174.0","0","0","80456","","null","","","null","19","NaN","","","","","","","","","","","","","","",""
"","S2","","html-keyboard-response","125","154517","0.0-1.0-175.0","0","0","80456","","null","","","null","19","","NaN","","","","","","","","","","","","","",""
"","response","","html-keyboard-response","126","154600","0.0-1.0-176.0-0.0","0","0","80456","","82","","","75","19","","","1","19","training","adjacent","CD","3","4","P.jpg","L.jpg","0","1","0","",""
"","feedback","","html-keyboard-response","127","155603","0.0-1.0-177.0-0.0","0","0","80456","","null","","","null","19","","","","","","","","","","","","","","","",""
"","time_out","","html-keyboard-response","128","157605","0.0-1.0-179.0-0.0","0","0","80456","","null","","","null","19","","","","","","","","","","","","","","","",""
"","ITI","","html-keyboard-response","129","158608","0.0-1.0-180.0","0","0","80456","","948","","","75","19","","","","","","","","","","","","","","","k",""
"","S1","","html-keyboard-response","130","158861","0.0-1.0-182.0","0","0","80456","","null","","","null","20","","","","","","","","","","","","","","","",""
"","ISI","","html-keyboard-response","131","159863","0.0-1.0-183.0","0","0","80456","","null","","","null","20","NaN","","","","","","","","","","","","","","",""
"","S2","","html-keyboard-response","132","160115","0.0-1.0-184.0","0","0","80456","","null","","","null","20","","NaN","","","","","","","","","","","","","",""
"","response","","html-keyboard-response","133","160394","0.0-1.0-185.0-0.0","0","0","80456","","277","","","68","20","","","1","20","training","adjacent","CB","3","2","P.jpg","N.jpg","1","0","0","",""
"","feedback","","html-keyboard-response","134","161397","0.0-1.0-186.0-0.0","0","0","80456","","null","","","null","20","","","","","","","","","","","","","","","",""
"","time_out","","html-keyboard-response","135","163400","0.0-1.0-188.0-0.0","0","0","80456","","null","","","null","20","","","","","","","","","","","","","","","",""
"","ITI","","html-keyboard-response","136","164402","0.0-1.0-189.0","0","0","80456","","null","","","null","20","","","","","","","","","","","","","","","NaN",""
"","S1","","html-keyboard-response","137","164656","0.0-1.0-191.0","0","0","80456","","null","","","null","21","","","","","","","","","","","","","","","",""
"","ISI","","html-keyboard-response","138","165659","0.0-1.0-192.0","0","0","80456","","null","","","null","21","NaN","","","","","","","","","","","","","","",""
"","S2","","html-keyboard-response","139","165912","0.0-1.0-193.0","0","0","80456","","null","","","null","21","","NaN","","","","","","","","","","","","","",""
"","response","","html-keyboard-response","140","166145","0.0-1.0-194.0-0.0","0","0","80456","","232","","","68","21","","","1","21","training","adjacent","BA","2","1","N.jpg","R.jpg","1","0","0","",""
"","feedback","","html-keyboard-response","141","167149","0.0-1.0-195.0-0.0","0","0","80456","","null","","","null","21","","","","","","","","","","","","","","","",""
"","time_out","","html-keyboard-response","142","169152","0.0-1.0-197.0-0.0","0","0","80456","","null","","","null","21","","","","","","","","","","","","","","","",""
"","ITI","","html-keyboard-response","143","170154","0.0-1.0-198.0","0","0","80456","","null","","","null","21","","","","","","","","","","","","","","","NaN",""
"","S1","","html-keyboard-response","144","170406","0.0-1.0-200.0","0","0","80456","","null","","","null","22","","","","","","","","","","","","","","","",""
"","ISI","","html-keyboard-response","145","171408","0.0-1.0-201.0","0","0","80456","","711","","","75","22","k","","","","","","","","","","","","","","",""
"","S2","","html-keyboard-response","146","171661","0.0-1.0-202.0","0","0","80456","","null","","","null","22","","NaN","","","","","","","","","","","","","",""
"","response","","html-keyboard-response","147","171818","0.0-1.0-203.0-0.0","0","0","80456","","155","","","75","22","","","1","22","training","adjacent","ED","5","4","M.jpg","L.jpg","0","0","1","",""
"","feedback","","html-keyboard-response","148","172822","0.0-1.0-204.0-0.0","0","0","80456","","null","","","null","22","","","","","","","","","","","","","","","",""
"","ITI","","html-keyboard-response","149","173824","0.0-1.0-207.0","0","0","80456","","null","","","null","22","","","","","","","","","","","","","","","NaN",""
"","S1","","html-keyboard-response","150","174078","0.0-1.0-209.0","0","0","80456","","null","","","null","23","","","","","","","","","","","","","","","",""
"","ISI","","html-keyboard-response","151","175080","0.0-1.0-210.0","0","0","80456","","null","","","null","23","NaN","","","","","","","","","","","","","","",""
"","S2","","html-keyboard-response","152","175333","0.0-1.0-211.0","0","0","80456","","null","","","null","23","","NaN","","","","","","","","","","","","","",""
"","response","","html-keyboard-response","153","175617","0.0-1.0-212.0-0.0","0","0","80456","","281","","","68","23","","","1","23","training","adjacent","EF","5","6","M.jpg","O.jpg","1","1","1","",""
"","feedback","","html-keyboard-response","154","176619","0.0-1.0-213.0-0.0","0","0","80456","","null","","","null","23","","","","","","","","","","","","","","","",""
"","ITI","","html-keyboard-response","155","177623","0.0-1.0-216.0","0","0","80456","","null","","","null","23","","","","","","","","","","","","","","","NaN",""
"","S1","","html-keyboard-response","156","177875","0.0-1.0-218.0","0","0","80456","","null","","","null","24","","","","","","","","","","","","","","","",""
"","ISI","","html-keyboard-response","157","178877","0.0-1.0-219.0","0","0","80456","","null","","","null","24","NaN","","","","","","","","","","","","","","",""
"","S2","","html-keyboard-response","158","179132","0.0-1.0-220.0","0","0","80456","","null","","","null","24","","NaN","","","","","","","","","","","","","",""
"","response","","html-keyboard-response","159","179495","0.0-1.0-221.0-0.0","0","0","80456","","362","","","75","24","","","1","24","training","adjacent","CB","3","2","P.jpg","N.jpg","0","0","1","",""
"","feedback","","html-keyboard-response","160","180498","0.0-1.0-222.0-0.0","0","0","80456","","null","","","null","24","","","","","","","","","","","","","","","",""
"","ITI","","html-keyboard-response","161","181500","0.0-1.0-225.0","0","0","80456","","null","","","null","24","","","","","","","","","","","","","","","NaN",""
"","S1","","html-keyboard-response","162","181752","0.0-1.0-227.0","0","0","80456","","null","","","null","25","","","","","","","","","","","","","","","",""
"","ISI","","html-keyboard-response","163","182756","0.0-1.0-228.0","0","0","80456","","null","","","null","25","NaN","","","","","","","","","","","","","","",""
"","S2","","html-keyboard-response","164","183009","0.0-1.0-229.0","0","0","80456","","null","","","null","25","","NaN","","","","","","","","","","","","","",""
"","response","","html-keyboard-response","165","183338","0.0-1.0-230.0-0.0","0","0","80456","","327","","","75","25","","","1","25","training","adjacent","CD","3","4","P.jpg","L.jpg","0","1","0","",""
"","feedback","","html-keyboard-response","166","184341","0.0-1.0-231.0-0.0","0","0","80456","","null","","","null","25","","","","","","","","","","","","","","","",""
"","time_out","","html-keyboard-response","167","186343","0.0-1.0-233.0-0.0","0","0","80456","","null","","","null","25","","","","","","","","","","","","","","","",""
"","ITI","","html-keyboard-response","168","187346","0.0-1.0-234.0","0","0","80456","","null","","","null","25","","","","","","","","","","","","","","","NaN",""
"","S1","","html-keyboard-response","169","187605","0.0-1.0-236.0","0","0","80456","","null","","","null","26","","","","","","","","","","","","","","","",""
"","ISI","","html-keyboard-response","170","188607","0.0-1.0-237.0","0","0","80456","","null","","","null","26","NaN","","","","","","","","","","","","","","",""
"","S2","","html-keyboard-response","171","188860","0.0-1.0-238.0","0","0","80456","","null","","","null","26","","NaN","","","","","","","","","","","","","",""
"","response","","html-keyboard-response","172","189224","0.0-1.0-239.0-0.0","0","0","80456","","361","","","75","26","","","1","26","training","adjacent","GF","7","6","Q.jpg","O.jpg","0","0","1","",""
"","feedback","","html-keyboard-response","173","190227","0.0-1.0-240.0-0.0","0","0","80456","","null","","","null","26","","","","","","","","","","","","","","","",""
"","ITI","","html-keyboard-response","174","191230","0.0-1.0-243.0","0","0","80456","","null","","","null","26","","","","","","","","","","","","","","","NaN",""
"","S1","","html-keyboard-response","175","191483","0.0-1.0-245.0","0","0","80456","","null","","","null","27","","","","","","","","","","","","","","","",""
"","ISI","","html-keyboard-response","176","192485","0.0-1.0-246.0","0","0","80456","","null","","","null","27","NaN","","","","","","","","","","","","","","",""
"","S2","","html-keyboard-response","177","192739","0.0-1.0-247.0","0","0","80456","","null","","","null","27","","NaN","","","","","","","","","","","","","",""
"","response","","html-keyboard-response","178","193382","0.0-1.0-248.0-0.0","0","0","80456","","641","","","75","27","","","1","27","training","adjacent","AB","1","2","R.jpg","N.jpg","0","1","0","",""
"","feedback","","html-keyboard-response","179","194384","0.0-1.0-249.0-0.0","0","0","80456","","null","","","null","27","","","","","","","","","","","","","","","",""
"","time_out","","html-keyboard-response","180","196386","0.0-1.0-251.0-0.0","0","0","80456","","null","","","null","27","","","","","","","","","","","","","","","",""
"","ITI","","html-keyboard-response","181","197389","0.0-1.0-252.0","0","0","80456","","null","","","null","27","","","","","","","","","","","","","","","NaN",""
"","S1","","html-keyboard-response","182","197642","0.0-1.0-254.0","0","0","80456","","null","","","null","28","","","","","","","","","","","","","","","",""
"","ISI","","html-keyboard-response","183","198644","0.0-1.0-255.0","0","0","80456","","null","","","null","28","NaN","","","","","","","","","","","","","","",""
"","S2","","html-keyboard-response","184","198897","0.0-1.0-256.0","0","0","80456","","null","","","null","28","","NaN","","","","","","","","","","","","","",""
"","response","","html-keyboard-response","185","199391","0.0-1.0-257.0-0.0","0","0","80456","","492","","","75","28","","","1","28","training","adjacent","ED","5","4","M.jpg","L.jpg","0","0","1","",""
"","feedback","","html-keyboard-response","186","200394","0.0-1.0-258.0-0.0","0","0","80456","","null","","","null","28","","","","","","","","","","","","","","","",""
"","ITI","","html-keyboard-response","187","201396","0.0-1.0-261.0","0","0","80456","","null","","","null","28","","","","","","","","","","","","","","","NaN",""
"","S1","","html-keyboard-response","188","201649","0.0-1.0-263.0","0","0","80456","","null","","","null","29","","","","","","","","","","","","","","","",""
"","ISI","","html-keyboard-response","189","202651","0.0-1.0-264.0","0","0","80456","","null","","","null","29","NaN","","","","","","","","","","","","","","",""
"","S2","","html-keyboard-response","190","202904","0.0-1.0-265.0","0","0","80456","","null","","","null","29","","NaN","","","","","","","","","","","","","",""
"","response","","html-keyboard-response","191","203220","0.0-1.0-266.0-0.0","0","0","80456","","313","","","68","29","","","1","29","training","adjacent","DE","4","5","L.jpg","M.jpg","1","1","1","",""
"","feedback","","html-keyboard-response","192","204222","0.0-1.0-267.0-0.0","0","0","80456","","null","","","null","29","","","","","","","","","","","","","","","",""
"","ITI","","html-keyboard-response","193","205225","0.0-1.0-270.0","0","0","80456","","null","","","null","29","","","","","","","","","","","","","","","NaN",""
"","S1","","html-keyboard-response","194","205479","0.0-1.0-272.0","0","0","80456","","null","","","null","30","","","","","","","","","","","","","","","",""
"","ISI","","html-keyboard-response","195","206481","0.0-1.0-273.0","0","0","80456","","null","","","null","30","NaN","","","","","","","","","","","","","","",""
"","S2","","html-keyboard-response","196","206734","0.0-1.0-274.0","0","0","80456","","null","","","null","30","","NaN","","","","","","","","","","","","","",""
"","response","","html-keyboard-response","197","206970","0.0-1.0-275.0-0.0","0","0","80456","","234","","","75","30","","","1","30","training","adjacent","EF","5","6","M.jpg","O.jpg","0","1","0","",""
"","feedback","","html-keyboard-response","198","207974","0.0-1.0-276.0-0.0","0","0","80456","","null","","","null","30","","","","","","","","","","","","","","","",""
"","time_out","","html-keyboard-response","199","209976","0.0-1.0-278.0-0.0","0","0","80456","","null","","","null","30","","","","","","","","","","","","","","","",""
"","ITI","","html-keyboard-response","200","210979","0.0-1.0-279.0","0","0","80456","","null","","","null","30","","","","","","","","","","","","","","","NaN",""
"","S1","","html-keyboard-response","201","211231","0.0-1.0-281.0","0","0","80456","","null","","","null","31","","","","","","","","","","","","","","","",""
"","ISI","","html-keyboard-response","202","212234","0.0-1.0-282.0","0","0","80456","","436","","","68","31","d","","","","","","","","","","","","","","",""
"","S2","","html-keyboard-response","203","212488","0.0-1.0-283.0","0","0","80456","","null","","","null","31","","NaN","","","","","","","","","","","","","",""
"","response","","html-keyboard-response","204","212950","0.0-1.0-284.0-0.0","0","0","80456","","460","","","68","31","","","1","31","training","adjacent","FE","6","5","O.jpg","M.jpg","1","0","0","",""
"","feedback","","html-keyboard-response","205","213954","0.0-1.0-285.0-0.0","0","0","80456","","null","","","null","31","","","","","","","","","","","","","","","",""
"","time_out","","html-keyboard-response","206","215957","0.0-1.0-287.0-0.0","0","0","80456","","null","","","null","31","","","","","","","","","","","","","","","",""
"","ITI","","html-keyboard-response","207","216960","0.0-1.0-288.0","0","0","80456","","740","","","75","31","","","","","","","","","","","","","","","k",""
"","S1","","html-keyboard-response","208","217213","0.0-1.0-290.0","0","0","80456","","null","","","null","32","","","","","","","","","","","","","","","",""
"","ISI","","html-keyboard-response","209","218216","0.0-1.0-291.0","0","0","80456","","null","","","null","32","NaN","","","","","","","","","","","","","","",""
"","S2","","html-keyboard-response","210","218474","0.0-1.0-292.0","0","0","80456","","null","","","null","32","","NaN","","","","","","","","","","","","","",""
"","response","","html-keyboard-response","211","218527","0.0-1.0-293.0-0.0","0","0","80456","","51","","","68","32","","","1","32","training","adjacent","DC","4","3","L.jpg","P.jpg","1","0","0","",""
"","feedback","","html-keyboard-response","212","219531","0.0-1.0-294.0-0.0","0","0","80456","","null","","","null","32","","","","","","","","","","","","","","","",""
"","time_out","","html-keyboard-response","213","221534","0.0-1.0-296.0-0.0","0","0","80456","","null","","","null","32","","","","","","","","","","","","","","","",""
"","ITI","","html-keyboard-response","214","222537","0.0-1.0-297.0","0","0","80456","","null","","","null","32","","","","","","","","","","","","","","","NaN",""
"","S1","","html-keyboard-response","215","222791","0.0-1.0-299.0","0","0","80456","","null","","","null","33","","","","","","","","","","","","","","","",""
"","ISI","","html-keyboard-response","216","223794","0.0-1.0-300.0","0","0","80456","","null","","","null","33","NaN","","","","","","","","","","","","","","",""
"","S2","","html-keyboard-response","217","224046","0.0-1.0-301.0","0","0","80456","","null","","","null","33","","NaN","","","","","","","","","","","","","",""
"","response","","html-keyboard-response","218","224048","0.0-1.0-302.0-0.0","0","0","80456","","0","","","68","33","","","1","33","training","adjacent","BA","2","1","N.jpg","R.jpg","1","0","0","",""
"","feedback","","html-keyboard-response","219","225052","0.0-1.0-303.0-0.0","0","0","80456","","null","","","null","33","","","","","","","","","","","","","","","",""
"","time_out","","html-keyboard-response","220","227055","0.0-1.0-305.0-0.0","0","0","80456","","null","","","null","33","","","","","","","","","","","","","","","",""
"","ITI","","html-keyboard-response","221","228057","0.0-1.0-306.0","0","0","80456","","null","","","null","33","","","","","","","","","","","","","","","NaN",""
"","S1","","html-keyboard-response","222","228311","0.0-1.0-308.0","0","0","80456","","null","","","null","34","","","","","","","","","","","","","","","",""
"","ISI","","html-keyboard-response","223","229314","0.0-1.0-309.0","0","0","80456","","null","","","null","34","NaN","","","","","","","","","","","","","","",""
"","S2","","html-keyboard-response","224","229566","0.0-1.0-310.0","0","0","80456","","null","","","null","34","","NaN","","","","","","","","","","","","","",""
"","response","","html-keyboard-response","225","229642","0.0-1.0-311.0-0.0","0","0","80456","","74","","","75","34","","","1","34","training","adjacent","CD","3","4","P.jpg","L.jpg","0","1","0","",""
"","feedback","","html-keyboard-response","226","230645","0.0-1.0-312.0-0.0","0","0","80456","","null","","","null","34","","","","","","","","","","","","","","","",""
"","time_out","","html-keyboard-response","227","232648","0.0-1.0-314.0-0.0","0","0","80456","","null","","","null","34","","","","","","","","","","","","","","","",""
"","ITI","","html-keyboard-response","228","233651","0.0-1.0-315.0","0","0","80456","","null","","","null","34","","","","","","","","","","","","","","","NaN",""
"","S1","","html-keyboard-response","229","233904","0.0-1.0-317.0","0","0","80456","","null","","","null","35","","","","","","","","","","","","","","","",""
"","ISI","","html-keyboard-response","230","234906","0.0-1.0-318.0","0","0","80456","","null","","","null","35","NaN","","","","","","","","","","","","","","",""
"","S2","","html-keyboard-response","231","235159","0.0-1.0-319.0","0","0","80456","","null","","","null","35","","NaN","","","","","","","","","","","","","",""
"","response","","html-keyboard-response","232","235529","0.0-1.0-320.0-0.0","0","0","80456","","368","","","75","35","","","1","35","training","adjacent","GF","7","6","Q.jpg","O.jpg","0","0","1","",""
"","feedback","","html-keyboard-response","233","236534","0.0-1.0-321.0-0.0","0","0","80456","","null","","","null","35","","","","","","","","","","","","","","","",""
"","ITI","","html-keyboard-response","234","237537","0.0-1.0-324.0","0","0","80456","","null","","","null","35","","","","","","","","","","","","","","","NaN",""
"","S1","","html-keyboard-response","235","237791","0.0-1.0-326.0","0","0","80456","","null","","","null","36","","","","","","","","","","","","","","","",""
"","ISI","","html-keyboard-response","236","238794","0.0-1.0-327.0","0","0","80456","","null","","","null","36","NaN","","","","","","","","","","","","","","",""
"","S2","","html-keyboard-response","237","239047","0.0-1.0-328.0","0","0","80456","","null","","","null","36","","NaN","","","","","","","","","","","","","",""
"","response","","html-keyboard-response","238","239172","0.0-1.0-329.0-0.0","0","0","80456","","124","","","68","36","","","1","36","training","adjacent","AB","1","2","R.jpg","N.jpg","1","1","1","",""
"","feedback","","html-keyboard-response","239","240175","0.0-1.0-330.0-0.0","0","0","80456","","null","","","null","36","","","","","","","","","","","","","","","",""
"","ITI","","html-keyboard-response","240","241178","0.0-1.0-333.0","0","0","80456","","null","","","null","36","","","","","","","","","","","","","","","NaN",""
"","S1","","html-keyboard-response","241","241431","0.0-1.0-335.0","0","0","80456","","null","","","null","37","","","","","","","","","","","","","","","",""
"","ISI","","html-keyboard-response","242","242434","0.0-1.0-336.0","0","0","80456","","null","","","null","37","NaN","","","","","","","","","","","","","","",""
"","S2","","html-keyboard-response","243","242686","0.0-1.0-337.0","0","0","80456","","null","","","null","37","","NaN","","","","","","","","","","","","","",""
"","response","","html-keyboard-response","244","243055","0.0-1.0-338.0-0.0","0","0","80456","","367","","","68","37","","","1","37","training","adjacent","DC","4","3","L.jpg","P.jpg","1","0","0","",""
"","feedback","","html-keyboard-response","245","244058","0.0-1.0-339.0-0.0","0","0","80456","","null","","","null","37","","","","","","","","","","","","","","","",""
"","time_out","","html-keyboard-response","246","246061","0.0-1.0-341.0-0.0","0","0","80456","","null","","","null","37","","","","","","","","","","","","","","","",""
"","ITI","","html-keyboard-response","247","247064","0.0-1.0-342.0","0","0","80456","","null","","","null","37","","","","","","","","","","","","","","","NaN",""
"","S1","","html-keyboard-response","248","247317","0.0-1.0-344.0","0","0","80456","","null","","","null","38","","","","","","","","","","","","","","","",""
"","ISI","","html-keyboard-response","249","248319","0.0-1.0-345.0","0","0","80456","","null","","","null","38","NaN","","","","","","","","","","","","","","",""
"","S2","","html-keyboard-response","250","248572","0.0-1.0-346.0","0","0","80456","","null","","","null","38","","NaN","","","","","","","","","","","","","",""
"","response","","html-keyboard-response","251","249006","0.0-1.0-347.0-0.0","0","0","80456","","432","","","68","38","","","1","38","training","adjacent","BC","2","3","N.jpg","P.jpg","1","1","1","",""
"","feedback","","html-keyboard-response","252","250009","0.0-1.0-348.0-0.0","0","0","80456","","null","","","null","38","","","","","","","","","","","","","","","",""
"","ITI","","html-keyboard-response","253","251012","0.0-1.0-351.0","0","0","80456","","null","","","null","38","","","","","","","","","","","","","","","NaN",""
"","S1","","html-keyboard-response","254","251265","0.0-1.0-353.0","0","0","80456","","null","","","null","39","","","","","","","","","","","","","","","",""
"","ISI","","html-keyboard-response","255","252281","0.0-1.0-354.0","0","0","80456","","null","","","null","39","NaN","","","","","","","","","","","","","","",""
"","S2","","html-keyboard-response","256","252534","0.0-1.0-355.0","0","0","80456","","null","","","null","39","","NaN","","","","","","","","","","","","","",""
"","response","","html-keyboard-response","257","252800","0.0-1.0-356.0-0.0","0","0","80456","","264","","","75","39","","","1","39","training","adjacent","ED","5","4","M.jpg","L.jpg","0","0","1","",""
"","feedback","","html-keyboard-response","258","253804","0.0-1.0-357.0-0.0","0","0","80456","","null","","","null","39","","","","","","","","","","","","","","","",""
"","ITI","","html-keyboard-response","259","254806","0.0-1.0-360.0","0","0","80456","","null","","","null","39","","","","","","","","","","","","","","","NaN",""
"","S1","","html-keyboard-response","260","255063","0.0-1.0-362.0","0","0","80456","","null","","","null","40","","","","","","","","","","","","","","","",""
"","ISI","","html-keyboard-response","261","256065","0.0-1.0-363.0","0","0","80456","","null","","","null","40","NaN","","","","","","","","","","","","","","",""
"","S2","","html-keyboard-response","262","256317","0.0-1.0-364.0","0","0","80456","","null","","","null","40","","NaN","","","","","","","","","","","","","",""
"","response","","html-keyboard-response","263","256395","0.0-1.0-365.0-0.0","0","0","80456","","76","","","68","40","","","1","40","training","adjacent","AB","1","2","R.jpg","N.jpg","1","1","1","",""
"","feedback","","html-keyboard-response","264","257398","0.0-1.0-366.0-0.0","0","0","80456","","null","","","null","40","","","","","","","","","","","","","","","",""
"","ITI","","html-keyboard-response","265","258402","0.0-1.0-369.0","0","0","80456","","null","","","null","40","","","","","","","","","","","","","","","NaN",""
"","S1","","html-keyboard-response","266","258655","0.0-1.0-371.0","0","0","80456","","null","","","null","41","","","","","","","","","","","","","","","",""
"","ISI","","html-keyboard-response","267","259657","0.0-1.0-372.0","0","0","80456","","null","","","null","41","NaN","","","","","","","","","","","","","","",""
"","S2","","html-keyboard-response","268","259913","0.0-1.0-373.0","0","0","80456","","null","","","null","41","","NaN","","","","","","","","","","","","","",""
"","response","","html-keyboard-response","269","260198","0.0-1.0-374.0-0.0","0","0","80456","","282","","","75","41","","","1","41","training","adjacent","GF","7","6","Q.jpg","O.jpg","0","0","1","",""
"","feedback","","html-keyboard-response","270","261203","0.0-1.0-375.0-0.0","0","0","80456","","null","","","null","41","","","","","","","","","","","","","","","",""
"","ITI","","html-keyboard-response","271","262206","0.0-1.0-378.0","0","0","80456","","null","","","null","41","","","","","","","","","","","","","","","NaN",""
"","S1","","html-keyboard-response","272","262471","0.0-1.0-380.0","0","0","80456","","null","","","null","42","","","","","","","","","","","","","","","",""
"","ISI","","html-keyboard-response","273","263474","0.0-1.0-381.0","0","0","80456","","null","","","null","42","NaN","","","","","","","","","","","","","","",""
"","S2","","html-keyboard-response","274","263727","0.0-1.0-382.0","0","0","80456","","null","","","null","42","","NaN","","","","","","","","","","","","","",""
"","response","","html-keyboard-response","275","264241","0.0-1.0-383.0-0.0","0","0","80456","","512","","","75","42","","","1","42","training","adjacent","FG","6","7","O.jpg","Q.jpg","0","1","0","",""
"","feedback","","html-keyboard-response","276","265243","0.0-1.0-384.0-0.0","0","0","80456","","null","","","null","42","","","","","","","","","","","","","","","",""
"","time_out","","html-keyboard-response","277","267247","0.0-1.0-386.0-0.0","0","0","80456","","null","","","null","42","","","","","","","","","","","","","","","",""
"","ITI","","html-keyboard-response","278","268251","0.0-1.0-387.0","0","0","80456","","null","","","null","42","","","","","","","","","","","","","","","NaN",""
"","S1","","html-keyboard-response","279","268504","0.0-1.0-389.0","0","0","80456","","null","","","null","43","","","","","","","","","","","","","","","",""
"","ISI","","html-keyboard-response","280","269506","0.0-1.0-390.0","0","0","80456","","null","","","null","43","NaN","","","","","","","","","","","","","","",""
"","S2","","html-keyboard-response","281","269770","0.0-1.0-391.0","0","0","80456","","null","","","null","43","","NaN","","","","","","","","","","","","","",""
"","response","","html-keyboard-response","282","270255","0.0-1.0-392.0-0.0","0","0","80456","","484","","","68","43","","","1","43","training","adjacent","FG","6","7","O.jpg","Q.jpg","1","1","1","",""
"","feedback","","html-keyboard-response","283","271258","0.0-1.0-393.0-0.0","0","0","80456","","null","","","null","43","","","","","","","","","","","","","","","",""
"","ITI","","html-keyboard-response","284","272260","0.0-1.0-396.0","0","0","80456","","null","","","null","43","","","","","","","","","","","","","","","NaN",""
"","S1","","html-keyboard-response","285","272513","0.0-1.0-398.0","0","0","80456","","null","","","null","44","","","","","","","","","","","","","","","",""
"","ISI","","html-keyboard-response","286","273516","0.0-1.0-399.0","0","0","80456","","null","","","null","44","NaN","","","","","","","","","","","","","","",""
"","S2","","html-keyboard-response","287","273768","0.0-1.0-400.0","0","0","80456","","null","","","null","44","","NaN","","","","","","","","","","","","","",""
"","response","","html-keyboard-response","288","274160","0.0-1.0-401.0-0.0","0","0","80456","","389","","","68","44","","","1","44","training","adjacent","FE","6","5","O.jpg","M.jpg","1","0","0","",""
"","feedback","","html-keyboard-response","289","275163","0.0-1.0-402.0-0.0","0","0","80456","","null","","","null","44","","","","","","","","","","","","","","","",""
"","time_out","","html-keyboard-response","290","277166","0.0-1.0-404.0-0.0","0","0","80456","","null","","","null","44","","","","","","","","","","","","","","","",""
"","ITI","","html-keyboard-response","291","278170","0.0-1.0-405.0","0","0","80456","","null","","","null","44","","","","","","","","","","","","","","","NaN",""
"","S1","","html-keyboard-response","292","278422","0.0-1.0-407.0","0","0","80456","","null","","","null","45","","","","","","","","","","","","","","","",""
"","ISI","","html-keyboard-response","293","279424","0.0-1.0-408.0","0","0","80456","","null","","","null","45","NaN","","","","","","","","","","","","","","",""
"","S2","","html-keyboard-response","294","279677","0.0-1.0-409.0","0","0","80456","","null","","","null","45","","NaN","","","","","","","","","","","","","",""
"","response","","html-keyboard-response","295","279869","0.0-1.0-410.0-0.0","0","0","80456","","190","","","75","45","","","1","45","training","adjacent","GF","7","6","Q.jpg","O.jpg","0","0","1","",""
"","feedback","","html-keyboard-response","296","280872","0.0-1.0-411.0-0.0","0","0","80456","","null","","","null","45","","","","","","","","","","","","","","","",""
"","ITI","","html-keyboard-response","297","281875","0.0-1.0-414.0","0","0","80456","","null","","","null","45","","","","","","","","","","","","","","","NaN",""
"","S1","","html-keyboard-response","298","282136","0.0-1.0-416.0","0","0","80456","","null","","","null","46","","","","","","","","","","","","","","","",""
"","ISI","","html-keyboard-response","299","283138","0.0-1.0-417.0","0","0","80456","","null","","","null","46","NaN","","","","","","","","","","","","","","",""
"","S2","","html-keyboard-response","300","283392","0.0-1.0-418.0","0","0","80456","","null","","","null","46","","NaN","","","","","","","","","","","","","",""
"","response","","html-keyboard-response","301","283441","0.0-1.0-419.0-0.0","0","0","80456","","47","","","68","46","","","1","46","training","adjacent","CD","3","4","P.jpg","L.jpg","1","1","1","",""
"","feedback","","html-keyboard-response","302","284444","0.0-1.0-420.0-0.0","0","0","80456","","null","","","null","46","","","","","","","","","","","","","","","",""
"","ITI","","html-keyboard-response","303","285447","0.0-1.0-423.0","0","0","80456","","null","","","null","46","","","","","","","","","","","","","","","NaN",""
"","S1","","html-keyboard-response","304","285701","0.0-1.0-425.0","0","0","80456","","null","","","null","47","","","","","","","","","","","","","","","",""
"","ISI","","html-keyboard-response","305","286704","0.0-1.0-426.0","0","0","80456","","null","","","null","47","NaN","","","","","","","","","","","","","","",""
"","S2","","html-keyboard-response","306","286958","0.0-1.0-427.0","0","0","80456","","null","","","null","47","","NaN","","","","","","","","","","","","","",""
"","response","","html-keyboard-response","307","287028","0.0-1.0-428.0-0.0","0","0","80456","","69","","","75","47","","","1","47","training","adjacent","EF","5","6","M.jpg","O.jpg","0","1","0","",""
"","feedback","","html-keyboard-response","308","288031","0.0-1.0-429.0-0.0","0","0","80456","","null","","","null","47","","","","","","","","","","","","","","","",""
"","time_out","","html-keyboard-response","309","290033","0.0-1.0-431.0-0.0","0","0","80456","","null","","","null","47","","","","","","","","","","","","","","","",""
"","ITI","","html-keyboard-response","310","291036","0.0-1.0-432.0","0","0","80456","","null","","","null","47","","","","","","","","","","","","","","","NaN",""
"","block_over","","html-keyboard-response","311","338439","0.0-1.0-433.0-0.0","0","0","80456","","47401","","","32","47","","","","","","","","","","","","","","","",""
"","S1","","html-keyboard-response","312","338700","0.0-1.0-434.0","0","0","80456","","null","","","null","48","","","","","","","","","","","","","","","",""
"","ISI","","html-keyboard-response","313","339717","0.0-1.0-435.0","0","0","80456","","null","","","null","48","NaN","","","","","","","","","","","","","","",""
"","S2","","html-keyboard-response","314","339970","0.0-1.0-436.0","0","0","80456","","null","","","null","48","","NaN","","","","","","","","","","","","","",""
"","response","","html-keyboard-response","315","340495","0.0-1.0-437.0-0.0","0","0","80456","","523","","","75","48","","","2","48","training","adjacent","ED","5","4","M.jpg","L.jpg","0","0","1","",""
"","feedback","","html-keyboard-response","316","341498","0.0-1.0-438.0-0.0","0","0","80456","","null","","","null","48","","","","","","","","","","","","","","","",""
"","ITI","","html-keyboard-response","317","342500","0.0-1.0-441.0","0","0","80456","","null","","","null","48","","","","","","","","","","","","","","","NaN",""
"","S1","","html-keyboard-response","318","342753","0.0-1.0-443.0","0","0","80456","","null","","","null","49","","","","","","","","","","","","","","","",""
"","ISI","","html-keyboard-response","319","343755","0.0-1.0-444.0","0","0","80456","","null","","","null","49","NaN","","","","","","","","","","","","","","",""
"","S2","","html-keyboard-response","320","344008","0.0-1.0-445.0","0","0","80456","","null","","","null","49","","NaN","","","","","","","","","","","","","",""
"","response","","html-keyboard-response","321","344229","0.0-1.0-446.0-0.0","0","0","80456","","218","","","68","49","","","2","49","training","adjacent","FE","6","5","O.jpg","M.jpg","1","0","0","",""
"","feedback","","html-keyboard-response","322","345236","0.0-1.0-447.0-0.0","0","0","80456","","null","","","null","49","","","","","","","","","","","","","","","",""
"","time_out","","html-keyboard-response","323","347240","0.0-1.0-449.0-0.0","0","0","80456","","null","","","null","49","","","","","","","","","","","","","","","",""
"","ITI","","html-keyboard-response","324","348242","0.0-1.0-450.0","0","0","80456","","null","","","null","49","","","","","","","","","","","","","","","NaN",""
"","S1","","html-keyboard-response","325","348494","0.0-1.0-452.0","0","0","80456","","null","","","null","50","","","","","","","","","","","","","","","",""
"","ISI","","html-keyboard-response","326","349497","0.0-1.0-453.0","0","0","80456","","null","","","null","50","NaN","","","","","","","","","","","","","","",""
"","S2","","html-keyboard-response","327","349750","0.0-1.0-454.0","0","0","80456","","null","","","null","50","","NaN","","","","","","","","","","","","","",""
"","response","","html-keyboard-response","328","350196","0.0-1.0-455.0-0.0","0","0","80456","","444","","","75","50","","","2","50","training","adjacent","GF","7","6","Q.jpg","O.jpg","0","0","1","",""
"","feedback","","html-keyboard-response","329","351199","0.0-1.0-456.0-0.0","0","0","80456","","null","","","null","50","","","","","","","","","","","","","","","",""
"","ITI","","html-keyboard-response","330","352202","0.0-1.0-459.0","0","0","80456","","null","","","null","50","","","","","","","","","","","","","","","NaN",""
"","S1","","html-keyboard-response","331","352455","0.0-1.0-461.0","0","0","80456","","null","","","null","51","","","","","","","","","","","","","","","",""
"","ISI","","html-keyboard-response","332","353460","0.0-1.0-462.0","0","0","80456","","null","","","null","51","NaN","","","","","","","","","","","","","","",""
"","S2","","html-keyboard-response","333","353713","0.0-1.0-463.0","0","0","80456","","null","","","null","51","","NaN","","","","","","","","","","","","","",""
"","response","","html-keyboard-response","334","354021","0.0-1.0-464.0-0.0","0","0","80456","","306","","","75","51","","","2","51","training","adjacent","EF","5","6","M.jpg","O.jpg","0","1","0","",""
"","feedback","","html-keyboard-response","335","355024","0.0-1.0-465.0-0.0","0","0","80456","","null","","","null","51","","","","","","","","","","","","","","","",""
"","time_out","","html-keyboard-response","336","357027","0.0-1.0-467.0-0.0","0","0","80456","","null","","","null","51","","","","","","","","","","","","","","","",""
"","ITI","","html-keyboard-response","337","358030","0.0-1.0-468.0","0","0","80456","","null","","","null","51","","","","","","","","","","","","","","","NaN",""
"","S1","","html-keyboard-response","338","358283","0.0-1.0-470.0","0","0","80456","","null","","","null","52","","","","","","","","","","","","","","","",""
"","ISI","","html-keyboard-response","339","359286","0.0-1.0-471.0","0","0","80456","","null","","","null","52","NaN","","","","","","","","","","","","","","",""
"","S2","","html-keyboard-response","340","359540","0.0-1.0-472.0","0","0","80456","","null","","","null","52","","NaN","","","","","","","","","","","","","",""
"","response","","html-keyboard-response","341","359691","0.0-1.0-473.0-0.0","0","0","80456","","149","","","75","52","","","2","52","training","adjacent","BC","2","3","N.jpg","P.jpg","0","1","0","",""
"","feedback","","html-keyboard-response","342","360694","0.0-1.0-474.0-0.0","0","0","80456","","null","","","null","52","","","","","","","","","","","","","","","",""
"","time_out","","html-keyboard-response","343","362697","0.0-1.0-476.0-0.0","0","0","80456","","null","","","null","52","","","","","","","","","","","","","","","",""
"","ITI","","html-keyboard-response","344","363700","0.0-1.0-477.0","0","0","80456","","null","","","null","52","","","","","","","","","","","","","","","NaN",""
"","S1","","html-keyboard-response","345","363952","0.0-1.0-479.0","0","0","80456","","null","","","null","53","","","","","","","","","","","","","","","",""
"","ISI","","html-keyboard-response","346","364954","0.0-1.0-480.0","0","0","80456","","null","","","null","53","NaN","","","","","","","","","","","","","","",""
"","S2","","html-keyboard-response","347","365207","0.0-1.0-481.0","0","0","80456","","null","","","null","53","","NaN","","","","","","","","","","","","","",""
"","response","","html-keyboard-response","348","365230","0.0-1.0-482.0-0.0","0","0","80456","","20","","","68","53","","","2","53","training","adjacent","FE","6","5","O.jpg","M.jpg","1","0","0","",""
"","feedback","","html-keyboard-response","349","366234","0.0-1.0-483.0-0.0","0","0","80456","","null","","","null","53","","","","","","","","","","","","","","","",""
"","time_out","","html-keyboard-response","350","368236","0.0-1.0-485.0-0.0","0","0","80456","","null","","","null","53","","","","","","","","","","","","","","","",""
"","ITI","","html-keyboard-response","351","369240","0.0-1.0-486.0","0","0","80456","","null","","","null","53","","","","","","","","","","","","","","","NaN",""
"","S1","","html-keyboard-response","352","369492","0.0-1.0-488.0","0","0","80456","","null","","","null","54","","","","","","","","","","","","","","","",""
"","ISI","","html-keyboard-response","353","370495","0.0-1.0-489.0","0","0","80456","","null","","","null","54","NaN","","","","","","","","","","","","","","",""
"","S2","","html-keyboard-response","354","370734","0.0-1.0-490.0","0","0","80456","","237","","","68","54","","d","2","54","training","adjacent","DC","4","3","L.jpg","P.jpg","1","0","0","",""
"","feedback","","html-keyboard-response","355","371737","0.0-1.0-492.0-0.0","0","0","80456","","null","","","null","54","","","","","","","","","","","","","","","",""
"","time_out","","html-keyboard-response","356","373739","0.0-1.0-494.0-0.0","0","0","80456","","null","","","null","54","","","","","","","","","","","","","","","",""
"","ITI","","html-keyboard-response","357","374742","0.0-1.0-495.0","0","0","80456","","null","","","null","54","","","","","","","","","","","","","","","NaN",""
"","S1","","html-keyboard-response","358","374995","0.0-1.0-497.0","0","0","80456","","null","","","null","55","","","","","","","","","","","","","","","",""
"","ISI","","html-keyboard-response","359","375997","0.0-1.0-498.0","0","0","80456","","null","","","null","55","NaN","","","","","","","","","","","","","","",""
"","S2","","html-keyboard-response","360","376250","0.0-1.0-499.0","0","0","80456","","null","","","null","55","","NaN","","","","","","","","","","","","","",""
"","response","","html-keyboard-response","361","378004","0.0-1.0-500.0-0.0","0","0","80456","","null","","","null","55","","","2","55","training","adjacent","DC","4","3","L.jpg","P.jpg","NaN","0","0","",""
"","too_slow_prompt","","html-keyboard-response","362","379007","0.0-1.0-502.0-0.0","1","0","80456","","null","","","null","","","","","","","","","","","","","","","","",""
"","time_out","","html-keyboard-response","363","381011","0.0-1.0-503.0-0.0","0","0","80456","","null","","","null","55","","","","","","","","","","","","","","","",""
"","ITI","","html-keyboard-response","364","382013","0.0-1.0-504.0","0","0","80456","","null","","","null","55","","","","","","","","","","","","","","","NaN",""
"","S1","","html-keyboard-response","365","382266","0.0-1.0-506.0","0","0","80456","","null","","","null","56","","","","","","","","","","","","","","","",""
"","ISI","","html-keyboard-response","366","383268","0.0-1.0-507.0","0","0","80456","","null","","","null","56","NaN","","","","","","","","","","","","","","",""
"","S2","","html-keyboard-response","367","383521","0.0-1.0-508.0","0","0","80456","","null","","","null","56","","NaN","","","","","","","","","","","","","",""
"","response","","html-keyboard-response","368","383605","0.0-1.0-509.0-0.0","0","0","80456","","82","","","75","56","","","2","56","training","adjacent","EF","5","6","M.jpg","O.jpg","0","1","0","",""
"","feedback","","html-keyboard-response","369","384608","0.0-1.0-510.0-0.0","0","0","80456","","null","","","null","56","","","","","","","","","","","","","","","",""
"","time_out","","html-keyboard-response","370","386611","0.0-1.0-512.0-0.0","0","0","80456","","null","","","null","56","","","","","","","","","","","","","","","",""
"","ITI","","html-keyboard-response","371","387613","0.0-1.0-513.0","0","0","80456","","null","","","null","56","","","","","","","","","","","","","","","NaN",""
"","S1","","html-keyboard-response","372","387867","0.0-1.0-515.0","0","0","80456","","null","","","null","57","","","","","","","","","","","","","","","",""
"","ISI","","html-keyboard-response","373","388870","0.0-1.0-516.0","0","0","80456","","null","","","null","57","NaN","","","","","","","","","","","","","","",""
"","S2","","html-keyboard-response","374","389083","0.0-1.0-517.0","0","0","80456","","211","","","68","57","","d","2","57","training","adjacent","FE","6","5","O.jpg","M.jpg","1","0","0","",""
"","feedback","","html-keyboard-response","375","390096","0.0-1.0-519.0-0.0","0","0","80456","","null","","","null","57","","","","","","","","","","","","","","","",""
"","time_out","","html-keyboard-response","376","392099","0.0-1.0-521.0-0.0","0","0","80456","","null","","","null","57","","","","","","","","","","","","","","","",""
"","ITI","","html-keyboard-response","377","393101","0.0-1.0-522.0","0","0","80456","","null","","","null","57","","","","","","","","","","","","","","","NaN",""
"","S1","","html-keyboard-response","378","393354","0.0-1.0-524.0","0","0","80456","","null","","","null","58","","","","","","","","","","","","","","","",""
"","ISI","","html-keyboard-response","379","394358","0.0-1.0-525.0","0","0","80456","","null","","","null","58","NaN","","","","","","","","","","","","","","",""
"","S2","","html-keyboard-response","380","394570","0.0-1.0-526.0","0","0","80456","","209","","","75","58","","k","2","58","training","adjacent","CD","3","4","P.jpg","L.jpg","0","1","0","",""
"","feedback","","html-keyboard-response","381","395573","0.0-1.0-528.0-0.0","0","0","80456","","null","","","null","58","","","","","","","","","","","","","","","",""
"","time_out","","html-keyboard-response","382","397575","0.0-1.0-530.0-0.0","0","0","80456","","null","","","null","58","","","","","","","","","","","","","","","",""
"","ITI","","html-keyboard-response","383","398577","0.0-1.0-531.0","0","0","80456","","null","","","null","58","","","","","","","","","","","","","","","NaN",""
"","S1","","html-keyboard-response","384","398830","0.0-1.0-533.0","0","0","80456","","null","","","null","59","","","","","","","","","","","","","","","",""
"","ISI","","html-keyboard-response","385","399832","0.0-1.0-534.0","0","0","80456","","null","","","null","59","NaN","","","","","","","","","","","","","","",""
"","S2","","html-keyboard-response","386","400085","0.0-1.0-535.0","0","0","80456","","null","","","null","59","","NaN","","","","","","","","","","","","","",""
"","response","","html-keyboard-response","387","400176","0.0-1.0-536.0-0.0","0","0","80456","","88","","","68","59","","","2","59","training","adjacent","EF","5","6","M.jpg","O.jpg","1","1","1","",""
"","feedback","","html-keyboard-response","388","401179","0.0-1.0-537.0-0.0","0","0","80456","","null","","","null","59","","","","","","","","","","","","","","","",""
"","ITI","","html-keyboard-response","389","402182","0.0-1.0-540.0","0","0","80456","","null","","","null","59","","","","","","","","","","","","","","","NaN",""
"","S1","","html-keyboard-response","390","402435","0.0-1.0-542.0","0","0","80456","","null","","","null","60","","","","","","","","","","","","","","","",""
"","ISI","","html-keyboard-response","391","403438","0.0-1.0-543.0","0","0","80456","","null","","","null","60","NaN","","","","","","","","","","","","","","",""
"","S2","","html-keyboard-response","392","403691","0.0-1.0-544.0","0","0","80456","","null","","","null","60","","NaN","","","","","","","","","","","","","",""
"","response","","html-keyboard-response","393","404323","0.0-1.0-545.0-0.0","0","0","80456","","630","","","75","60","","","2","60","training","adjacent","ED","5","4","M.jpg","L.jpg","0","0","1","",""
"","feedback","","html-keyboard-response","394","405327","0.0-1.0-546.0-0.0","0","0","80456","","null","","","null","60","","","","","","","","","","","","","","","",""
"","ITI","","html-keyboard-response","395","406330","0.0-1.0-549.0","0","0","80456","","null","","","null","60","","","","","","","","","","","","","","","NaN",""
"","S1","","html-keyboard-response","396","406582","0.0-1.0-551.0","0","0","80456","","null","","","null","61","","","","","","","","","","","","","","","",""
"","ISI","","html-keyboard-response","397","407584","0.0-1.0-552.0","0","0","80456","","null","","","null","61","NaN","","","","","","","","","","","","","","",""
"","S2","","html-keyboard-response","398","407838","0.0-1.0-553.0","0","0","80456","","null","","","null","61","","NaN","","","","","","","","","","","","","",""
"","response","","html-keyboard-response","399","408650","0.0-1.0-554.0-0.0","0","0","80456","","810","","","68","61","","","2","61","training","adjacent","FG","6","7","O.jpg","Q.jpg","1","1","1","",""
"","feedback","","html-keyboard-response","400","409653","0.0-1.0-555.0-0.0","0","0","80456","","null","","","null","61","","","","","","","","","","","","","","","",""
"","ITI","","html-keyboard-response","401","410655","0.0-1.0-558.0","0","0","80456","","null","","","null","61","","","","","","","","","","","","","","","NaN",""
"","S1","","html-keyboard-response","402","410916","0.0-1.0-560.0","0","0","80456","","null","","","null","62","","","","","","","","","","","","","","","",""
"","ISI","","html-keyboard-response","403","411919","0.0-1.0-561.0","0","0","80456","","null","","","null","62","NaN","","","","","","","","","","","","","","",""
"","S2","","html-keyboard-response","404","412172","0.0-1.0-562.0","0","0","80456","","null","","","null","62","","NaN","","","","","","","","","","","","","",""
"","response","","html-keyboard-response","405","412657","0.0-1.0-563.0-0.0","0","0","80456","","483","","","68","62","","","2","62","training","adjacent","FE","6","5","O.jpg","M.jpg","1","0","0","",""
"","feedback","","html-keyboard-response","406","413661","0.0-1.0-564.0-0.0","0","0","80456","","null","","","null","62","","","","","","","","","","","","","","","",""
"","time_out","","html-keyboard-response","407","415663","0.0-1.0-566.0-0.0","0","0","80456","","null","","","null","62","","","","","","","","","","","","","","","",""
"","ITI","","html-keyboard-response","408","416666","0.0-1.0-567.0","0","0","80456","","null","","","null","62","","","","","","","","","","","","","","","NaN",""
"","S1","","html-keyboard-response","409","416920","0.0-1.0-569.0","0","0","80456","","null","","","null","63","","","","","","","","","","","","","","","",""
"","ISI","","html-keyboard-response","410","417929","0.0-1.0-570.0","0","0","80456","","null","","","null","63","NaN","","","","","","","","","","","","","","",""
"","S2","","html-keyboard-response","411","418182","0.0-1.0-571.0","0","0","80456","","null","","","null","63","","NaN","","","","","","","","","","","","","",""
"","response","","html-keyboard-response","412","418709","0.0-1.0-572.0-0.0","0","0","80456","","524","","","68","63","","","2","63","training","adjacent","BC","2","3","N.jpg","P.jpg","1","1","1","",""
"","feedback","","html-keyboard-response","413","419712","0.0-1.0-573.0-0.0","0","0","80456","","null","","","null","63","","","","","","","","","","","","","","","",""
"","ITI","","html-keyboard-response","414","420714","0.0-1.0-576.0","0","0","80456","","null","","","null","63","","","","","","","","","","","","","","","NaN",""
"","S1","","html-keyboard-response","415","420967","0.0-1.0-578.0","0","0","80456","","null","","","null","64","","","","","","","","","","","","","","","",""
"","ISI","","html-keyboard-response","416","421971","0.0-1.0-579.0","0","0","80456","","null","","","null","64","NaN","","","","","","","","","","","","","","",""
"","S2","","html-keyboard-response","417","422224","0.0-1.0-580.0","0","0","80456","","null","","","null","64","","NaN","","","","","","","","","","","","","",""
"","response","","html-keyboard-response","418","422649","0.0-1.0-581.0-0.0","0","0","80456","","423","","","75","64","","","2","64","training","adjacent","AB","1","2","R.jpg","N.jpg","0","1","0","",""
"","feedback","","html-keyboard-response","419","423652","0.0-1.0-582.0-0.0","0","0","80456","","null","","","null","64","","","","","","","","","","","","","","","",""
"","time_out","","html-keyboard-response","420","425654","0.0-1.0-584.0-0.0","0","0","80456","","null","","","null","64","","","","","","","","","","","","","","","",""
"","ITI","","html-keyboard-response","421","426656","0.0-1.0-585.0","0","0","80456","","null","","","null","64","","","","","","","","","","","","","","","NaN",""
"","S1","","html-keyboard-response","422","426909","0.0-1.0-587.0","0","0","80456","","null","","","null","65","","","","","","","","","","","","","","","",""
"","ISI","","html-keyboard-response","423","427911","0.0-1.0-588.0","0","0","80456","","null","","","null","65","NaN","","","","","","","","","","","","","","",""
"","S2","","html-keyboard-response","424","428164","0.0-1.0-589.0","0","0","80456","","null","","","null","65","","NaN","","","","","","","","","","","","","",""
"","response","","html-keyboard-response","425","428553","0.0-1.0-590.0-0.0","0","0","80456","","386","","","75","65","","","2","65","training","adjacent","ED","5","4","M.jpg","L.jpg","0","0","1","",""
"","feedback","","html-keyboard-response","426","429556","0.0-1.0-591.0-0.0","0","0","80456","","null","","","null","65","","","","","","","","","","","","","","","",""
"","ITI","","html-keyboard-response","427","430560","0.0-1.0-594.0","0","0","80456","","null","","","null","65","","","","","","","","","","","","","","","NaN",""
"","S1","","html-keyboard-response","428","430813","0.0-1.0-596.0","0","0","80456","","null","","","null","66","","","","","","","","","","","","","","","",""
"","ISI","","html-keyboard-response","429","431827","0.0-1.0-597.0","0","0","80456","","null","","","null","66","NaN","","","","","","","","","","","","","","",""
"","S2","","html-keyboard-response","430","432081","0.0-1.0-598.0","0","0","80456","","null","","","null","66","","NaN","","","","","","","","","","","","","",""
"","response","","html-keyboard-response","431","432399","0.0-1.0-599.0-0.0","0","0","80456","","317","","","68","66","","","2","66","training","adjacent","FG","6","7","O.jpg","Q.jpg","1","1","1","",""
"","feedback","","html-keyboard-response","432","433402","0.0-1.0-600.0-0.0","0","0","80456","","null","","","null","66","","","","","","","","","","","","","","","",""
"","ITI","","html-keyboard-response","433","434405","0.0-1.0-603.0","0","0","80456","","null","","","null","66","","","","","","","","","","","","","","","NaN",""
"","S1","","html-keyboard-response","434","434658","0.0-1.0-605.0","0","0","80456","","null","","","null","67","","","","","","","","","","","","","","","",""
"","ISI","","html-keyboard-response","435","435660","0.0-1.0-606.0","0","0","80456","","null","","","null","67","NaN","","","","","","","","","","","","","","",""
"","S2","","html-keyboard-response","436","435913","0.0-1.0-607.0","0","0","80456","","null","","","null","67","","NaN","","","","","","","","","","","","","",""
"","response","","html-keyboard-response","437","436352","0.0-1.0-608.0-0.0","0","0","80456","","438","","","68","67","","","2","67","training","adjacent","BA","2","1","N.jpg","R.jpg","1","0","0","",""
"","feedback","","html-keyboard-response","438","437356","0.0-1.0-609.0-0.0","0","0","80456","","null","","","null","67","","","","","","","","","","","","","","","",""
"","time_out","","html-keyboard-response","439","439360","0.0-1.0-611.0-0.0","0","0","80456","","null","","","null","67","","","","","","","","","","","","","","","",""
"","ITI","","html-keyboard-response","440","440363","0.0-1.0-612.0","0","0","80456","","null","","","null","67","","","","","","","","","","","","","","","NaN",""
"","S1","","html-keyboard-response","441","440615","0.0-1.0-614.0","0","0","80456","","null","","","null","68","","","","","","","","","","","","","","","",""
"","ISI","","html-keyboard-response","442","441618","0.0-1.0-615.0","0","0","80456","","null","","","null","68","NaN","","","","","","","","","","","","","","",""
"","S2","","html-keyboard-response","443","441871","0.0-1.0-616.0","0","0","80456","","null","","","null","68","","NaN","","","","","","","","","","","","","",""
"","response","","html-keyboard-response","444","442554","0.0-1.0-617.0-0.0","0","0","80456","","680","","","75","68","","","2","68","training","adjacent","BA","2","1","N.jpg","R.jpg","0","0","1","",""
"","feedback","","html-keyboard-response","445","443557","0.0-1.0-618.0-0.0","0","0","80456","","null","","","null","68","","","","","","","","","","","","","","","",""
"","ITI","","html-keyboard-response","446","444561","0.0-1.0-621.0","0","0","80456","","null","","","null","68","","","","","","","","","","","","","","","NaN",""
"","S1","","html-keyboard-response","447","444815","0.0-1.0-623.0","0","0","80456","","null","","","null","69","","","","","","","","","","","","","","","",""
"","ISI","","html-keyboard-response","448","445817","0.0-1.0-624.0","0","0","80456","","null","","","null","69","NaN","","","","","","","","","","","","","","",""
"","S2","","html-keyboard-response","449","446080","0.0-1.0-625.0","0","0","80456","","null","","","null","69","","NaN","","","","","","","","","","","","","",""
"","response","","html-keyboard-response","450","446232","0.0-1.0-626.0-0.0","0","0","80456","","150","","","68","69","","","2","69","training","adjacent","BC","2","3","N.jpg","P.jpg","1","1","1","",""
"","feedback","","html-keyboard-response","451","447235","0.0-1.0-627.0-0.0","0","0","80456","","null","","","null","69","","","","","","","","","","","","","","","",""
"","ITI","","html-keyboard-response","452","448239","0.0-1.0-630.0","0","0","80456","","null","","","null","69","","","","","","","","","","","","","","","NaN",""
"","S1","","html-keyboard-response","453","448492","0.0-1.0-632.0","0","0","80456","","null","","","null","70","","","","","","","","","","","","","","","",""
"","ISI","","html-keyboard-response","454","449494","0.0-1.0-633.0","0","0","80456","","null","","","null","70","NaN","","","","","","","","","","","","","","",""
"","S2","","html-keyboard-response","455","449748","0.0-1.0-634.0","0","0","80456","","null","","","null","70","","NaN","","","","","","","","","","","","","",""
"","response","","html-keyboard-response","456","450201","0.0-1.0-635.0-0.0","0","0","80456","","451","","","75","70","","","2","70","training","adjacent","GF","7","6","Q.jpg","O.jpg","0","0","1","",""
"","feedback","","html-keyboard-response","457","451205","0.0-1.0-636.0-0.0","0","0","80456","","null","","","null","70","","","","","","","","","","","","","","","",""
"","ITI","","html-keyboard-response","458","452207","0.0-1.0-639.0","0","0","80456","","null","","","null","70","","","","","","","","","","","","","","","NaN",""
"","S1","","html-keyboard-response","459","452460","0.0-1.0-641.0","0","0","80456","","null","","","null","71","","","","","","","","","","","","","","","",""
"","ISI","","html-keyboard-response","460","453463","0.0-1.0-642.0","0","0","80456","","null","","","null","71","NaN","","","","","","","","","","","","","","",""
"","S2","","html-keyboard-response","461","453716","0.0-1.0-643.0","0","0","80456","","null","","","null","71","","NaN","","","","","","","","","","","","","",""
"","response","","html-keyboard-response","462","454235","0.0-1.0-644.0-0.0","0","0","80456","","517","","","75","71","","","2","71","training","adjacent","FG","6","7","O.jpg","Q.jpg","0","1","0","",""
"","feedback","","html-keyboard-response","463","455239","0.0-1.0-645.0-0.0","0","0","80456","","null","","","null","71","","","","","","","","","","","","","","","",""
"","time_out","","html-keyboard-response","464","457241","0.0-1.0-647.0-0.0","0","0","80456","","null","","","null","71","","","","","","","","","","","","","","","",""
"","ITI","","html-keyboard-response","465","458244","0.0-1.0-648.0","0","0","80456","","null","","","null","71","","","","","","","","","","","","","","","NaN",""
"","S1","","html-keyboard-response","466","458496","0.0-1.0-650.0","0","0","80456","","null","","","null","72","","","","","","","","","","","","","","","",""
"","ISI","","html-keyboard-response","467","459499","0.0-1.0-651.0","0","0","80456","","null","","","null","72","NaN","","","","","","","","","","","","","","",""
"","S2","","html-keyboard-response","468","459751","0.0-1.0-652.0","0","0","80456","","null","","","null","72","","NaN","","","","","","","","","","","","","",""
"","response","","html-keyboard-response","469","460026","0.0-1.0-653.0-0.0","0","0","80456","","272","","","68","72","","","2","72","training","adjacent","DE","4","5","L.jpg","M.jpg","1","1","1","",""
"","feedback","","html-keyboard-response","470","461029","0.0-1.0-654.0-0.0","0","0","80456","","null","","","null","72","","","","","","","","","","","","","","","",""
"","ITI","","html-keyboard-response","471","462032","0.0-1.0-657.0","0","0","80456","","null","","","null","72","","","","","","","","","","","","","","","NaN",""
"","S1","","html-keyboard-response","472","462285","0.0-1.0-659.0","0","0","80456","","null","","","null","73","","","","","","","","","","","","","","","",""
"","ISI","","html-keyboard-response","473","463287","0.0-1.0-660.0","0","0","80456","","null","","","null","73","NaN","","","","","","","","","","","","","","",""
"","S2","","html-keyboard-response","474","463540","0.0-1.0-661.0","0","0","80456","","null","","","null","73","","NaN","","","","","","","","","","","","","",""
"","response","","html-keyboard-response","475","463595","0.0-1.0-662.0-0.0","0","0","80456","","54","","","75","73","","","2","73","training","adjacent","CD","3","4","P.jpg","L.jpg","0","1","0","",""
"","feedback","","html-keyboard-response","476","464599","0.0-1.0-663.0-0.0","0","0","80456","","null","","","null","73","","","","","","","","","","","","","","","",""
"","time_out","","html-keyboard-response","477","466602","0.0-1.0-665.0-0.0","0","0","80456","","null","","","null","73","","","","","","","","","","","","","","","",""
"","ITI","","html-keyboard-response","478","467604","0.0-1.0-666.0","0","0","80456","","null","","","null","73","","","","","","","","","","","","","","","NaN",""
"","S1","","html-keyboard-response","479","467856","0.0-1.0-668.0","0","0","80456","","null","","","null","74","","","","","","","","","","","","","","","",""
"","ISI","","html-keyboard-response","480","468874","0.0-1.0-669.0","0","0","80456","","null","","","null","74","NaN","","","","","","","","","","","","","","",""
"","S2","","html-keyboard-response","481","469138","0.0-1.0-670.0","0","0","80456","","null","","","null","74","","NaN","","","","","","","","","","","","","",""
"","response","","html-keyboard-response","482","469573","0.0-1.0-671.0-0.0","0","0","80456","","433","","","68","74","","","2","74","training","adjacent","FG","6","7","O.jpg","Q.jpg","1","1","1","",""
"","feedback","","html-keyboard-response","483","470577","0.0-1.0-672.0-0.0","0","0","80456","","null","","","null","74","","","","","","","","","","","","","","","",""
"","ITI","","html-keyboard-response","484","471579","0.0-1.0-675.0","0","0","80456","","null","","","null","74","","","","","","","","","","","","","","","NaN",""
"","S1","","html-keyboard-response","485","471832","0.0-1.0-677.0","0","0","80456","","null","","","null","75","","","","","","","","","","","","","","","",""
"","ISI","","html-keyboard-response","486","472834","0.0-1.0-678.0","0","0","80456","","null","","","null","75","NaN","","","","","","","","","","","","","","",""
"","S2","","html-keyboard-response","487","473086","0.0-1.0-679.0","0","0","80456","","null","","","null","75","","NaN","","","","","","","","","","","","","",""
"","response","","html-keyboard-response","488","473840","0.0-1.0-680.0-0.0","0","0","80456","","752","","","68","75","","","2","75","training","adjacent","DC","4","3","L.jpg","P.jpg","1","0","0","",""
"","feedback","","html-keyboard-response","489","474842","0.0-1.0-681.0-0.0","0","0","80456","","null","","","null","75","","","","","","","","","","","","","","","",""
"","time_out","","html-keyboard-response","490","476845","0.0-1.0-683.0-0.0","0","0","80456","","null","","","null","75","","","","","","","","","","","","","","","",""
"","ITI","","html-keyboard-response","491","477847","0.0-1.0-684.0","0","0","80456","","null","","","null","75","","","","","","","","","","","","","","","NaN",""
"","S1","","html-keyboard-response","492","478100","0.0-1.0-686.0","0","0","80456","","null","","","null","76","","","","","","","","","","","","","","","",""
"","ISI","","html-keyboard-response","493","479102","0.0-1.0-687.0","0","0","80456","","null","","","null","76","NaN","","","","","","","","","","","","","","",""
"","S2","","html-keyboard-response","494","479355","0.0-1.0-688.0","0","0","80456","","null","","","null","76","","NaN","","","","","","","","","","","","","",""
"","response","","html-keyboard-response","495","479435","0.0-1.0-689.0-0.0","0","0","80456","","78","","","68","76","","","2","76","training","adjacent","AB","1","2","R.jpg","N.jpg","1","1","1","",""
"","feedback","","html-keyboard-response","496","480439","0.0-1.0-690.0-0.0","0","0","80456","","null","","","null","76","","","","","","","","","","","","","","","",""
"","ITI","","html-keyboard-response","497","481442","0.0-1.0-693.0","0","0","80456","","null","","","null","76","","","","","","","","","","","","","","","NaN",""
"","S1","","html-keyboard-response","498","481695","0.0-1.0-695.0","0","0","80456","","null","","","null","77","","","","","","","","","","","","","","","",""
"","ISI","","html-keyboard-response","499","482698","0.0-1.0-696.0","0","0","80456","","null","","","null","77","NaN","","","","","","","","","","","","","","",""
"","S2","","html-keyboard-response","500","482950","0.0-1.0-697.0","0","0","80456","","null","","","null","77","","NaN","","","","","","","","","","","","","",""
"","response","","html-keyboard-response","501","483156","0.0-1.0-698.0-0.0","0","0","80456","","204","","","75","77","","","2","77","training","adjacent","BA","2","1","N.jpg","R.jpg","0","0","1","",""
"","feedback","","html-keyboard-response","502","484159","0.0-1.0-699.0-0.0","0","0","80456","","null","","","null","77","","","","","","","","","","","","","","","",""
"","ITI","","html-keyboard-response","503","485164","0.0-1.0-702.0","0","0","80456","","null","","","null","77","","","","","","","","","","","","","","","NaN",""
"","S1","","html-keyboard-response","504","485416","0.0-1.0-704.0","0","0","80456","","null","","","null","78","","","","","","","","","","","","","","","",""
"","ISI","","html-keyboard-response","505","486420","0.0-1.0-705.0","0","0","80456","","null","","","null","78","NaN","","","","","","","","","","","","","","",""
"","S2","","html-keyboard-response","506","486672","0.0-1.0-706.0","0","0","80456","","null","","","null","78","","NaN","","","","","","","","","","","","","",""
"","response","","html-keyboard-response","507","487114","0.0-1.0-707.0-0.0","0","0","80456","","440","","","68","78","","","2","78","training","adjacent","CB","3","2","P.jpg","N.jpg","1","0","0","",""
"","feedback","","html-keyboard-response","508","488117","0.0-1.0-708.0-0.0","0","0","80456","","null","","","null","78","","","","","","","","","","","","","","","",""
"","time_out","","html-keyboard-response","509","490120","0.0-1.0-710.0-0.0","0","0","80456","","null","","","null","78","","","","","","","","","","","","","","","",""
"","ITI","","html-keyboard-response","510","491122","0.0-1.0-711.0","0","0","80456","","null","","","null","78","","","","","","","","","","","","","","","NaN",""
"","S1","","html-keyboard-response","511","491376","0.0-1.0-713.0","0","0","80456","","null","","","null","79","","","","","","","","","","","","","","","",""
"","ISI","","html-keyboard-response","512","492380","0.0-1.0-714.0","0","0","80456","","null","","","null","79","NaN","","","","","","","","","","","","","","",""
"","S2","","html-keyboard-response","513","492632","0.0-1.0-715.0","0","0","80456","","null","","","null","79","","NaN","","","","","","","","","","","","","",""
"","response","","html-keyboard-response","514","493170","0.0-1.0-716.0-0.0","0","0","80456","","535","","","75","79","","","2","79","training","adjacent","DE","4","5","L.jpg","M.jpg","0","1","0","",""
"","feedback","","html-keyboard-response","515","494173","0.0-1.0-717.0-0.0","0","0","80456","","null","","","null","79","","","","","","","","","","","","","","","",""
"","time_out","","html-keyboard-response","516","496176","0.0-1.0-719.0-0.0","0","0","80456","","null","","","null","79","","","","","","","","","","","","","","","",""
"","ITI","","html-keyboard-response","517","497179","0.0-1.0-720.0","0","0","80456","","null","","","null","79","","","","","","","","","","","","","","","NaN",""
"","S1","","html-keyboard-response","518","497432","0.0-1.0-722.0","0","0","80456","","null","","","null","80","","","","","","","","","","","","","","","",""
"","ISI","","html-keyboard-response","519","498435","0.0-1.0-723.0","0","0","80456","","null","","","null","80","NaN","","","","","","","","","","","","","","",""
"","S2","","html-keyboard-response","520","498691","0.0-1.0-724.0","0","0","80456","","null","","","null","80","","NaN","","","","","","","","","","","","","",""
"","response","","html-keyboard-response","521","499272","0.0-1.0-725.0-0.0","0","0","80456","","579","","","75","80","","","2","80","training","adjacent","ED","5","4","M.jpg","L.jpg","0","0","1","",""
"","feedback","","html-keyboard-response","522","500276","0.0-1.0-726.0-0.0","0","0","80456","","null","","","null","80","","","","","","","","","","","","","","","",""
"","ITI","","html-keyboard-response","523","501279","0.0-1.0-729.0","0","0","80456","","null","","","null","80","","","","","","","","","","","","","","","NaN",""
"","S1","","html-keyboard-response","524","501532","0.0-1.0-731.0","0","0","80456","","null","","","null","81","","","","","","","","","","","","","","","",""
"","ISI","","html-keyboard-response","525","502535","0.0-1.0-732.0","0","0","80456","","null","","","null","81","NaN","","","","","","","","","","","","","","",""
"","S2","","html-keyboard-response","526","502788","0.0-1.0-733.0","0","0","80456","","null","","","null","81","","NaN","","","","","","","","","","","","","",""
"","response","","html-keyboard-response","527","503443","0.0-1.0-734.0-0.0","0","0","80456","","652","","","75","81","","","2","81","training","adjacent","CD","3","4","P.jpg","L.jpg","0","1","0","",""
"","feedback","","html-keyboard-response","528","504446","0.0-1.0-735.0-0.0","0","0","80456","","null","","","null","81","","","","","","","","","","","","","","","",""
"","time_out","","html-keyboard-response","529","506449","0.0-1.0-737.0-0.0","0","0","80456","","null","","","null","81","","","","","","","","","","","","","","","",""
"","ITI","","html-keyboard-response","530","507461","0.0-1.0-738.0","0","0","80456","","null","","","null","81","","","","","","","","","","","","","","","NaN",""
"","S1","","html-keyboard-response","531","507714","0.0-1.0-740.0","0","0","80456","","null","","","null","82","","","","","","","","","","","","","","","",""
"","ISI","","html-keyboard-response","532","508717","0.0-1.0-741.0","0","0","80456","","null","","","null","82","NaN","","","","","","","","","","","","","","",""
"","S2","","html-keyboard-response","533","508970","0.0-1.0-742.0","0","0","80456","","null","","","null","82","","NaN","","","","","","","","","","","","","",""
"","response","","html-keyboard-response","534","509226","0.0-1.0-743.0-0.0","0","0","80456","","255","","","68","82","","","2","82","training","adjacent","CB","3","2","P.jpg","N.jpg","1","0","0","",""
"","feedback","","html-keyboard-response","535","510229","0.0-1.0-744.0-0.0","0","0","80456","","null","","","null","82","","","","","","","","","","","","","","","",""
"","time_out","","html-keyboard-response","536","512243","0.0-1.0-746.0-0.0","0","0","80456","","null","","","null","82","","","","","","","","","","","","","","","",""
"","ITI","","html-keyboard-response","537","513245","0.0-1.0-747.0","0","0","80456","","null","","","null","82","","","","","","","","","","","","","","","NaN",""
"","S1","","html-keyboard-response","538","513504","0.0-1.0-749.0","0","0","80456","","null","","","null","83","","","","","","","","","","","","","","","",""
"","ISI","","html-keyboard-response","539","514506","0.0-1.0-750.0","0","0","80456","","null","","","null","83","NaN","","","","","","","","","","","","","","",""
"","S2","","html-keyboard-response","540","514759","0.0-1.0-751.0","0","0","80456","","null","","","null","83","","NaN","","","","","","","","","","","","","",""
"","response","","html-keyboard-response","541","515008","0.0-1.0-752.0-0.0","0","0","80456","","246","","","75","83","","","2","83","training","adjacent","BA","2","1","N.jpg","R.jpg","0","0","1","",""
"","feedback","","html-keyboard-response","542","516011","0.0-1.0-753.0-0.0","0","0","80456","","null","","","null","83","","","","","","","","","","","","","","","",""
"","ITI","","html-keyboard-response","543","517013","0.0-1.0-756.0","0","0","80456","","null","","","null","83","","","","","","","","","","","","","","","NaN",""
"","S1","","html-keyboard-response","544","517266","0.0-1.0-758.0","0","0","80456","","null","","","null","84","","","","","","","","","","","","","","","",""
"","ISI","","html-keyboard-response","545","518269","0.0-1.0-759.0","0","0","80456","","null","","","null","84","NaN","","","","","","","","","","","","","","",""
"","S2","","html-keyboard-response","546","518522","0.0-1.0-760.0","0","0","80456","","null","","","null","84","","NaN","","","","","","","","","","","","","",""
"","response","","html-keyboard-response","547","518914","0.0-1.0-761.0-0.0","0","0","80456","","390","","","68","84","","","2","84","training","adjacent","CD","3","4","P.jpg","L.jpg","1","1","1","",""
"","feedback","","html-keyboard-response","548","519919","0.0-1.0-762.0-0.0","0","0","80456","","null","","","null","84","","","","","","","","","","","","","","","",""
"","ITI","","html-keyboard-response","549","520922","0.0-1.0-765.0","0","0","80456","","null","","","null","84","","","","","","","","","","","","","","","NaN",""
"","S1","","html-keyboard-response","550","521175","0.0-1.0-767.0","0","0","80456","","null","","","null","85","","","","","","","","","","","","","","","",""
"","ISI","","html-keyboard-response","551","522177","0.0-1.0-768.0","0","0","80456","","null","","","null","85","NaN","","","","","","","","","","","","","","",""
"","S2","","html-keyboard-response","552","522431","0.0-1.0-769.0","0","0","80456","","null","","","null","85","","NaN","","","","","","","","","","","","","",""
"","response","","html-keyboard-response","553","522665","0.0-1.0-770.0-0.0","0","0","80456","","232","","","75","85","","","2","85","training","adjacent","GF","7","6","Q.jpg","O.jpg","0","0","1","",""
"","feedback","","html-keyboard-response","554","523670","0.0-1.0-771.0-0.0","0","0","80456","","null","","","null","85","","","","","","","","","","","","","","","",""
"","ITI","","html-keyboard-response","555","524672","0.0-1.0-774.0","0","0","80456","","null","","","null","85","","","","","","","","","","","","","","","NaN",""
"","S1","","html-keyboard-response","556","524925","0.0-1.0-776.0","0","0","80456","","null","","","null","86","","","","","","","","","","","","","","","",""
"","ISI","","html-keyboard-response","557","525935","0.0-1.0-777.0","0","0","80456","","null","","","null","86","NaN","","","","","","","","","","","","","","",""
"","S2","","html-keyboard-response","558","526188","0.0-1.0-778.0","0","0","80456","","null","","","null","86","","NaN","","","","","","","","","","","","","",""
"","response","","html-keyboard-response","559","526842","0.0-1.0-779.0-0.0","0","0","80456","","652","","","68","86","","","2","86","training","adjacent","BC","2","3","N.jpg","P.jpg","1","1","1","",""
"","feedback","","html-keyboard-response","560","527845","0.0-1.0-780.0-0.0","0","0","80456","","null","","","null","86","","","","","","","","","","","","","","","",""
"","ITI","","html-keyboard-response","561","528848","0.0-1.0-783.0","0","0","80456","","null","","","null","86","","","","","","","","","","","","","","","NaN",""
"","S1","","html-keyboard-response","562","529102","0.0-1.0-785.0","0","0","80456","","null","","","null","87","","","","","","","","","","","","","","","",""
"","ISI","","html-keyboard-response","563","530104","0.0-1.0-786.0","0","0","80456","","null","","","null","87","NaN","","","","","","","","","","","","","","",""
"","S2","","html-keyboard-response","564","530358","0.0-1.0-787.0","0","0","80456","","null","","","null","87","","NaN","","","","","","","","","","","","","",""
"","response","","html-keyboard-response","565","530652","0.0-1.0-788.0-0.0","0","0","80456","","291","","","68","87","","","2","87","training","adjacent","DC","4","3","L.jpg","P.jpg","1","0","0","",""
"","feedback","","html-keyboard-response","566","531654","0.0-1.0-789.0-0.0","0","0","80456","","null","","","null","87","","","","","","","","","","","","","","","",""
"","time_out","","html-keyboard-response","567","533657","0.0-1.0-791.0-0.0","0","0","80456","","null","","","null","87","","","","","","","","","","","","","","","",""
"","ITI","","html-keyboard-response","568","534659","0.0-1.0-792.0","0","0","80456","","null","","","null","87","","","","","","","","","","","","","","","NaN",""
"","S1","","html-keyboard-response","569","534912","0.0-1.0-794.0","0","0","80456","","null","","","null","88","","","","","","","","","","","","","","","",""
"","ISI","","html-keyboard-response","570","535915","0.0-1.0-795.0","0","0","80456","","null","","","null","88","NaN","","","","","","","","","","","","","","",""
"","S2","","html-keyboard-response","571","536167","0.0-1.0-796.0","0","0","80456","","null","","","null","88","","NaN","","","","","","","","","","","","","",""
"","response","","html-keyboard-response","572","536314","0.0-1.0-797.0-0.0","0","0","80456","","144","","","68","88","","","2","88","training","adjacent","DE","4","5","L.jpg","M.jpg","1","1","1","",""
"","feedback","","html-keyboard-response","573","537317","0.0-1.0-798.0-0.0","0","0","80456","","null","","","null","88","","","","","","","","","","","","","","","",""
"","ITI","","html-keyboard-response","574","538321","0.0-1.0-801.0","0","0","80456","","null","","","null","88","","","","","","","","","","","","","","","NaN",""
"","S1","","html-keyboard-response","575","538575","0.0-1.0-803.0","0","0","80456","","null","","","null","89","","","","","","","","","","","","","","","",""
"","ISI","","html-keyboard-response","576","539578","0.0-1.0-804.0","0","0","80456","","null","","","null","89","NaN","","","","","","","","","","","","","","",""
"","S2","","html-keyboard-response","577","539831","0.0-1.0-805.0","0","0","80456","","null","","","null","89","","NaN","","","","","","","","","","","","","",""
"","response","","html-keyboard-response","578","540635","0.0-1.0-806.0-0.0","0","0","80456","","802","","","68","89","","","2","89","training","adjacent","CB","3","2","P.jpg","N.jpg","1","0","0","",""
"","feedback","","html-keyboard-response","579","541639","0.0-1.0-807.0-0.0","0","0","80456","","null","","","null","89","","","","","","","","","","","","","","","",""
"","time_out","","html-keyboard-response","580","543642","0.0-1.0-809.0-0.0","0","0","80456","","null","","","null","89","","","","","","","","","","","","","","","",""
"","ITI","","html-keyboard-response","581","544646","0.0-1.0-810.0","0","0","80456","","null","","","null","89","","","","","","","","","","","","","","","NaN",""
"","S1","","html-keyboard-response","582","544899","0.0-1.0-812.0","0","0","80456","","null","","","null","90","","","","","","","","","","","","","","","",""
"","ISI","","html-keyboard-response","583","545902","0.0-1.0-813.0","0","0","80456","","null","","","null","90","NaN","","","","","","","","","","","","","","",""
