"success","ttype","start_time","trial_type","trial_index","time_elapsed","internal_node_id","warning","missed_checkup","PID","view_history","rt","responses","repeat_instructions","key_press","index","keypress_isi","keypress_S2","block","trial_num","phase","group_type","pair_type","S1_stim","S2_stim","S1_img","S2_img","S1_chosen","S1_higher","accuracy","keypress_iti","total_bonus_tally"
"true","full_screen","d03082023hr1449","fullscreen","0","17534","0.0-0.0","0","0","54704","","","","","","","","","","","","","","","","","","","","","",""
"","instructions","","instructions","1","84058","0.0-1.0-0.0-0.0","0","0","54704","[{""page_index"":0,""viewing_time"":4868},{""page_index"":1,""viewing_time"":50186},{""page_index"":2,""viewing_time"":9127},{""page_index"":3,""viewing_time"":2337}]","66518","","","","","","","","","","","","","","","","","","","",""
"","comprehension_check","","survey-multi-choice","2","111370","0.0-1.0-0.0-1.0","0","0","54704","","27306","{""Q0"":""True"",""Q1"":""D"",""Q2"":""Once the second image appears and while the screen 'MAKE A CHOICE' is shown"",""Q3"":""Green mark"",""Q4"":""either D or K""}","0","","","","","","","","","","","","","","","","","",""
"","start_exp","","html-keyboard-response","3","114321","0.0-1.0-1.0","0","0","54704","","2945","","","32","","","","","","","","","","","","","","","","",""
"","S1","","html-keyboard-response","4","114584","0.0-1.0-2.0","0","0","54704","","null","","","null","0","","","","","","","","","","","","","","","",""
"","ISI","","html-keyboard-response","5","114755","0.0-1.0-3.0","0","0","54704","","null","","","null","0","NaN","","","","","","","","","","","","","","",""
"","S2","","html-keyboard-response","6","115018","0.0-1.0-4.0","0","0","54704","","null","","","null","0","","NaN","","","","","","","","","","","","","",""
"","response","","html-keyboard-response","7","116779","0.0-1.0-5.0-0.0","0","0","54704","","null","","","null","0","","","1","0","training","adjacent","CB","3","2","R.jpg","Q.jpg","NaN","0","0","",""
"","too_slow_prompt","","html-keyboard-response","8","117798","0.0-1.0-7.0-0.0","1","0","54704","","null","","","null","","","","","","","","","","","","","","","","",""
"","time_out","","html-keyboard-response","9","119810","0.0-1.0-8.0-0.0","0","0","54704","","null","","","null","0","","","","","","","","","","","","","","","",""
"","ITI","","html-keyboard-response","10","120827","0.0-1.0-9.0","0","0","54704","","null","","","null","0","","","","","","","","","","","","","","","NaN",""
"","S1","","html-keyboard-response","11","121091","0.0-1.0-11.0","0","0","54704","","null","","","null","1","","","","","","","","","","","","","","","",""
"","ISI","","html-keyboard-response","12","121249","0.0-1.0-12.0","0","0","54704","","null","","","null","1","NaN","","","","","","","","","","","","","","",""
"","S2","","html-keyboard-response","13","121515","0.0-1.0-13.0","0","0","54704","","null","","","null","1","","NaN","","","","","","","","","","","","","",""
"","response","","html-keyboard-response","14","121811","0.0-1.0-14.0-0.0","0","0","54704","","288","","","68","1","","","1","1","training","adjacent","BC","2","3","Q.jpg","R.jpg","1","1","1","",""
"","feedback","","html-keyboard-response","15","122825","0.0-1.0-15.0-0.0","0","0","54704","","null","","","null","1","","","","","","","","","","","","","","","",""
"","ITI","","html-keyboard-response","16","123840","0.0-1.0-18.0","0","0","54704","","null","","","null","1","","","","","","","","","","","","","","","NaN",""
"","S1","","html-keyboard-response","17","124105","0.0-1.0-20.0","0","0","54704","","null","","","null","2","","","","","","","","","","","","","","","",""
"","ISI","","html-keyboard-response","18","124259","0.0-1.0-21.0","0","0","54704","","null","","","null","2","NaN","","","","","","","","","","","","","","",""
"","S2","","html-keyboard-response","19","124526","0.0-1.0-22.0","0","0","54704","","null","","","null","2","","NaN","","","","","","","","","","","","","",""
"","response","","html-keyboard-response","20","126289","0.0-1.0-23.0-0.0","0","0","54704","","null","","","null","2","","","1","2","training","adjacent","BC","2","3","Q.jpg","R.jpg","NaN","1","0","",""
"","too_slow_prompt","","html-keyboard-response","21","127303","0.0-1.0-25.0-0.0","1","0","54704","","null","","","null","","","","","","","","","","","","","","","","",""
"","time_out","","html-keyboard-response","22","129319","0.0-1.0-26.0-0.0","0","0","54704","","null","","","null","2","","","","","","","","","","","","","","","",""
"","ITI","","html-keyboard-response","23","130332","0.0-1.0-27.0","0","0","54704","","null","","","null","2","","","","","","","","","","","","","","","NaN",""
"","S1","","html-keyboard-response","24","130597","0.0-1.0-29.0","0","0","54704","","null","","","null","3","","","","","","","","","","","","","","","",""
"","ISI","","html-keyboard-response","25","130754","0.0-1.0-30.0","0","0","54704","","null","","","null","3","NaN","","","","","","","","","","","","","","",""
"","S2","","html-keyboard-response","26","131018","0.0-1.0-31.0","0","0","54704","","null","","","null","3","","NaN","","","","","","","","","","","","","",""
"","response","","html-keyboard-response","27","131390","0.0-1.0-32.0-0.0","0","0","54704","","370","","","75","3","","","1","3","training","adjacent","CB","3","2","R.jpg","Q.jpg","0","0","1","",""
"","feedback","","html-keyboard-response","28","132406","0.0-1.0-33.0-0.0","0","0","54704","","null","","","null","3","","","","","","","","","","","","","","","",""
"","ITI","","html-keyboard-response","29","133417","0.0-1.0-36.0","0","0","54704","","null","","","null","3","","","","","","","","","","","","","","","NaN",""
"","S1","","html-keyboard-response","30","133683","0.0-1.0-38.0","0","0","54704","","null","","","null","4","","","","","","","","","","","","","","","",""
"","ISI","","html-keyboard-response","31","133837","0.0-1.0-39.0","0","0","54704","","null","","","null","4","NaN","","","","","","","","","","","","","","",""
"","S2","","html-keyboard-response","32","134101","0.0-1.0-40.0","0","0","54704","","null","","","null","4","","NaN","","","","","","","","","","","","","",""
"","response","","html-keyboard-response","33","134292","0.0-1.0-41.0-0.0","0","0","54704","","189","","","68","4","","","1","4","training","adjacent","EF","5","6","L.jpg","M.jpg","1","1","1","",""
"","feedback","","html-keyboard-response","34","135296","0.0-1.0-42.0-0.0","0","0","54704","","null","","","null","4","","","","","","","","","","","","","","","",""
"","ITI","","html-keyboard-response","35","136312","0.0-1.0-45.0","0","0","54704","","null","","","null","4","","","","","","","","","","","","","","","NaN",""
"","S1","","html-keyboard-response","36","136576","0.0-1.0-47.0","0","0","54704","","null","","","null","5","","","","","","","","","","","","","","","",""
"","ISI","","html-keyboard-response","37","136736","0.0-1.0-48.0","0","0","54704","","null","","","null","5","NaN","","","","","","","","","","","","","","",""
"","S2","","html-keyboard-response","38","137001","0.0-1.0-49.0","0","0","54704","","null","","","null","5","","NaN","","","","","","","","","","","","","",""
"","response","","html-keyboard-response","39","137109","0.0-1.0-50.0-0.0","0","0","54704","","105","","","75","5","","","1","5","training","adjacent","DC","4","3","P.jpg","R.jpg","0","0","1","",""
"","feedback","","html-keyboard-response","40","138126","0.0-1.0-51.0-0.0","0","0","54704","","null","","","null","5","","","","","","","","","","","","","","","",""
"","ITI","","html-keyboard-response","41","139141","0.0-1.0-54.0","0","0","54704","","null","","","null","5","","","","","","","","","","","","","","","NaN",""
"","S1","","html-keyboard-response","42","139407","0.0-1.0-56.0","0","0","54704","","null","","","null","6","","","","","","","","","","","","","","","",""
"","ISI","","html-keyboard-response","43","139572","0.0-1.0-57.0","0","0","54704","","null","","","null","6","NaN","","","","","","","","","","","","","","",""
"","S2","","html-keyboard-response","44","139842","0.0-1.0-58.0","0","0","54704","","null","","","null","6","","NaN","","","","","","","","","","","","","",""
"","response","","html-keyboard-response","45","139873","0.0-1.0-59.0-0.0","0","0","54704","","27","","","68","6","","","1","6","training","adjacent","AB","1","2","O.jpg","Q.jpg","1","1","1","",""
"","feedback","","html-keyboard-response","46","140887","0.0-1.0-60.0-0.0","0","0","54704","","null","","","null","6","","","","","","","","","","","","","","","",""
"","ITI","","html-keyboard-response","47","141903","0.0-1.0-63.0","0","0","54704","","null","","","null","6","","","","","","","","","","","","","","","NaN",""
"","S1","","html-keyboard-response","48","142169","0.0-1.0-65.0","0","0","54704","","null","","","null","7","","","","","","","","","","","","","","","",""
"","ISI","","html-keyboard-response","49","142340","0.0-1.0-66.0","0","0","54704","","null","","","null","7","NaN","","","","","","","","","","","","","","",""
"","S2","","html-keyboard-response","50","142604","0.0-1.0-67.0","0","0","54704","","null","","","null","7","","NaN","","","","","","","","","","","","","",""
"","response","","html-keyboard-response","51","142643","0.0-1.0-68.0-0.0","0","0","54704","","35","","","75","7","","","1","7","training","adjacent","FE","6","5","M.jpg","L.jpg","0","0","1","",""
"","feedback","","html-keyboard-response","52","143660","0.0-1.0-69.0-0.0","0","0","54704","","null","","","null","7","","","","","","","","","","","","","","","",""
"","ITI","","html-keyboard-response","53","144670","0.0-1.0-72.0","0","0","54704","","null","","","null","7","","","","","","","","","","","","","","","NaN",""
"","S1","","html-keyboard-response","54","144937","0.0-1.0-74.0","0","0","54704","","null","","","null","8","","","","","","","","","","","","","","","",""
"","ISI","","html-keyboard-response","55","145107","0.0-1.0-75.0","0","0","54704","","null","","","null","8","NaN","","","","","","","","","","","","","","",""
"","S2","","html-keyboard-response","56","145373","0.0-1.0-76.0","0","0","54704","","null","","","null","8","","NaN","","","","","","","","","","","","","",""
"","response","","html-keyboard-response","57","147141","0.0-1.0-77.0-0.0","0","0","54704","","null","","","null","8","","","1","8","training","adjacent","GF","7","6","N.jpg","M.jpg","NaN","0","0","",""
"","too_slow_prompt","","html-keyboard-response","58","148152","0.0-1.0-79.0-0.0","1","0","54704","","null","","","null","","","","","","","","","","","","","","","","",""
"","time_out","","html-keyboard-response","59","150162","0.0-1.0-80.0-0.0","0","0","54704","","null","","","null","8","","","","","","","","","","","","","","","",""
"","ITI","","html-keyboard-response","60","151177","0.0-1.0-81.0","0","0","54704","","null","","","null","8","","","","","","","","","","","","","","","NaN",""
"","S1","","html-keyboard-response","61","151445","0.0-1.0-83.0","0","0","54704","","null","","","null","9","","","","","","","","","","","","","","","",""
"","ISI","","html-keyboard-response","62","151601","0.0-1.0-84.0","0","0","54704","","null","","","null","9","NaN","","","","","","","","","","","","","","",""
"","S2","","html-keyboard-response","63","151867","0.0-1.0-85.0","0","0","54704","","null","","","null","9","","NaN","","","","","","","","","","","","","",""
"","response","","html-keyboard-response","64","152339","0.0-1.0-86.0-0.0","0","0","54704","","468","","","68","9","","","1","9","training","adjacent","BA","2","1","Q.jpg","O.jpg","1","0","0","",""
"","feedback","","html-keyboard-response","65","153345","0.0-1.0-87.0-0.0","0","0","54704","","null","","","null","9","","","","","","","","","","","","","","","",""
"","time_out","","html-keyboard-response","66","155362","0.0-1.0-89.0-0.0","0","0","54704","","null","","","null","9","","","","","","","","","","","","","","","",""
"","ITI","","html-keyboard-response","67","156373","0.0-1.0-90.0","0","0","54704","","null","","","null","9","","","","","","","","","","","","","","","NaN",""
"","S1","","html-keyboard-response","68","156638","0.0-1.0-92.0","0","0","54704","","null","","","null","10","","","","","","","","","","","","","","","",""
"","ISI","","html-keyboard-response","69","156797","0.0-1.0-93.0","0","0","54704","","null","","","null","10","NaN","","","","","","","","","","","","","","",""
"","S2","","html-keyboard-response","70","157059","0.0-1.0-94.0","0","0","54704","","null","","","null","10","","NaN","","","","","","","","","","","","","",""
"","response","","html-keyboard-response","71","157974","0.0-1.0-95.0-0.0","0","0","54704","","912","","","68","10","","","1","10","training","adjacent","DE","4","5","P.jpg","L.jpg","1","1","1","",""
"","feedback","","html-keyboard-response","72","158993","0.0-1.0-96.0-0.0","0","0","54704","","null","","","null","10","","","","","","","","","","","","","","","",""
"","ITI","","html-keyboard-response","73","160006","0.0-1.0-99.0","0","0","54704","","null","","","null","10","","","","","","","","","","","","","","","NaN",""
"","S1","","html-keyboard-response","74","160272","0.0-1.0-101.0","0","0","54704","","null","","","null","11","","","","","","","","","","","","","","","",""
"","ISI","","html-keyboard-response","75","160425","0.0-1.0-102.0","0","0","54704","","null","","","null","11","NaN","","","","","","","","","","","","","","",""
"","S2","","html-keyboard-response","76","160693","0.0-1.0-103.0","0","0","54704","","null","","","null","11","","NaN","","","","","","","","","","","","","",""
"","response","","html-keyboard-response","77","162455","0.0-1.0-104.0-0.0","0","0","54704","","null","","","null","11","","","1","11","training","adjacent","BA","2","1","Q.jpg","O.jpg","NaN","0","0","",""
"","too_slow_prompt","","html-keyboard-response","78","163469","0.0-1.0-106.0-0.0","1","0","54704","","null","","","null","","","","","","","","","","","","","","","","",""
"","time_out","","html-keyboard-response","79","165485","0.0-1.0-107.0-0.0","0","0","54704","","null","","","null","11","","","","","","","","","","","","","","","",""
"","ITI","","html-keyboard-response","80","166501","0.0-1.0-108.0","0","0","54704","","null","","","null","11","","","","","","","","","","","","","","","NaN",""
"","S1","","html-keyboard-response","81","166764","0.0-1.0-110.0","0","0","54704","","null","","","null","12","","","","","","","","","","","","","","","",""
"","ISI","","html-keyboard-response","82","166924","0.0-1.0-111.0","0","0","54704","","null","","","null","12","NaN","","","","","","","","","","","","","","",""
"","S2","","html-keyboard-response","83","167187","0.0-1.0-112.0","0","0","54704","","null","","","null","12","","NaN","","","","","","","","","","","","","",""
"","response","","html-keyboard-response","84","167290","0.0-1.0-113.0-0.0","0","0","54704","","96","","","75","12","","","1","12","training","adjacent","GF","7","6","N.jpg","M.jpg","0","0","1","",""
"","feedback","","html-keyboard-response","85","168304","0.0-1.0-114.0-0.0","0","0","54704","","null","","","null","12","","","","","","","","","","","","","","","",""
"","ITI","","html-keyboard-response","86","169320","0.0-1.0-117.0","0","0","54704","","null","","","null","12","","","","","","","","","","","","","","","NaN",""
"","S1","","html-keyboard-response","87","169586","0.0-1.0-119.0","0","0","54704","","null","","","null","13","","","","","","","","","","","","","","","",""
"","ISI","","html-keyboard-response","88","169741","0.0-1.0-120.0","0","0","54704","","null","","","null","13","NaN","","","","","","","","","","","","","","",""
"","S2","","html-keyboard-response","89","170010","0.0-1.0-121.0","0","0","54704","","null","","","null","13","","NaN","","","","","","","","","","","","","",""
"","response","","html-keyboard-response","90","170092","0.0-1.0-122.0-0.0","0","0","54704","","79","","","68","13","","","1","13","training","adjacent","DC","4","3","P.jpg","R.jpg","1","0","0","",""
"","feedback","","html-keyboard-response","91","171103","0.0-1.0-123.0-0.0","0","0","54704","","null","","","null","13","","","","","","","","","","","","","","","",""
"","time_out","","html-keyboard-response","92","173122","0.0-1.0-125.0-0.0","0","0","54704","","null","","","null","13","","","","","","","","","","","","","","","",""
"","ITI","","html-keyboard-response","93","174131","0.0-1.0-126.0","0","0","54704","","null","","","null","13","","","","","","","","","","","","","","","NaN",""
"","S1","","html-keyboard-response","94","174399","0.0-1.0-128.0","0","0","54704","","null","","","null","14","","","","","","","","","","","","","","","",""
"","ISI","","html-keyboard-response","95","174556","0.0-1.0-129.0","0","0","54704","","null","","","null","14","NaN","","","","","","","","","","","","","","",""
"","S2","","html-keyboard-response","96","174821","0.0-1.0-130.0","0","0","54704","","null","","","null","14","","NaN","","","","","","","","","","","","","",""
"","response","","html-keyboard-response","97","174887","0.0-1.0-131.0-0.0","0","0","54704","","62","","","68","14","","","1","14","training","adjacent","BC","2","3","Q.jpg","R.jpg","1","1","1","",""
"","feedback","","html-keyboard-response","98","175906","0.0-1.0-132.0-0.0","0","0","54704","","null","","","null","14","","","","","","","","","","","","","","","",""
"","ITI","","html-keyboard-response","99","176924","0.0-1.0-135.0","0","0","54704","","null","","","null","14","","","","","","","","","","","","","","","NaN",""
"","S1","","html-keyboard-response","100","177188","0.0-1.0-137.0","0","0","54704","","null","","","null","15","","","","","","","","","","","","","","","",""
"","ISI","","html-keyboard-response","101","177344","0.0-1.0-138.0","0","0","54704","","null","","","null","15","NaN","","","","","","","","","","","","","","",""
"","S2","","html-keyboard-response","102","177610","0.0-1.0-139.0","0","0","54704","","263","","","75","15","","k","1","15","training","adjacent","GF","7","6","N.jpg","M.jpg","0","0","1","",""
"","feedback","","html-keyboard-response","103","178628","0.0-1.0-141.0-0.0","0","0","54704","","null","","","null","15","","","","","","","","","","","","","","","",""
"","ITI","","html-keyboard-response","104","179637","0.0-1.0-144.0","0","0","54704","","null","","","null","15","","","","","","","","","","","","","","","NaN",""
"","S1","","html-keyboard-response","105","179898","0.0-1.0-146.0","0","0","54704","","null","","","null","16","","","","","","","","","","","","","","","",""
"","ISI","","html-keyboard-response","106","180056","0.0-1.0-147.0","0","0","54704","","null","","","null","16","NaN","","","","","","","","","","","","","","",""
"","S2","","html-keyboard-response","107","180320","0.0-1.0-148.0","0","0","54704","","null","","","null","16","","NaN","","","","","","","","","","","","","",""
"","response","","html-keyboard-response","108","180400","0.0-1.0-149.0-0.0","0","0","54704","","78","","","68","16","","","1","16","training","adjacent","CD","3","4","R.jpg","P.jpg","1","1","1","",""
"","feedback","","html-keyboard-response","109","181418","0.0-1.0-150.0-0.0","0","0","54704","","null","","","null","16","","","","","","","","","","","","","","","",""
"","ITI","","html-keyboard-response","110","182432","0.0-1.0-153.0","0","0","54704","","null","","","null","16","","","","","","","","","","","","","","","NaN",""
"","S1","","html-keyboard-response","111","182697","0.0-1.0-155.0","0","0","54704","","null","","","null","17","","","","","","","","","","","","","","","",""
"","ISI","","html-keyboard-response","112","182855","0.0-1.0-156.0","0","0","54704","","null","","","null","17","NaN","","","","","","","","","","","","","","",""
"","S2","","html-keyboard-response","113","183121","0.0-1.0-157.0","0","0","54704","","null","","","null","17","","NaN","","","","","","","","","","","","","",""
"","response","","html-keyboard-response","114","183198","0.0-1.0-158.0-0.0","0","0","54704","","70","","","75","17","","","1","17","training","adjacent","ED","5","4","L.jpg","P.jpg","0","0","1","",""
"","feedback","","html-keyboard-response","115","184214","0.0-1.0-159.0-0.0","0","0","54704","","null","","","null","17","","","","","","","","","","","","","","","",""
"","ITI","","html-keyboard-response","116","185217","0.0-1.0-162.0","0","0","54704","","null","","","null","17","","","","","","","","","","","","","","","NaN",""
"","S1","","html-keyboard-response","117","185487","0.0-1.0-164.0","0","0","54704","","null","","","null","18","","","","","","","","","","","","","","","",""
"","ISI","","html-keyboard-response","118","185658","0.0-1.0-165.0","0","0","54704","","null","","","null","18","NaN","","","","","","","","","","","","","","",""
"","S2","","html-keyboard-response","119","185869","0.0-1.0-166.0","0","0","54704","","208","","","68","18","","d","1","18","training","adjacent","FG","6","7","M.jpg","N.jpg","1","1","1","",""
"","feedback","","html-keyboard-response","120","186877","0.0-1.0-168.0-0.0","0","0","54704","","null","","","null","18","","","","","","","","","","","","","","","",""
"","ITI","","html-keyboard-response","121","187896","0.0-1.0-171.0","0","0","54704","","null","","","null","18","","","","","","","","","","","","","","","NaN",""
"","S1","","html-keyboard-response","122","188161","0.0-1.0-173.0","0","0","54704","","null","","","null","19","","","","","","","","","","","","","","","",""
"","ISI","","html-keyboard-response","123","188331","0.0-1.0-174.0","0","0","54704","","null","","","null","19","NaN","","","","","","","","","","","","","","",""
"","S2","","html-keyboard-response","124","188591","0.0-1.0-175.0","0","0","54704","","null","","","null","19","","NaN","","","","","","","","","","","","","",""
"","response","","html-keyboard-response","125","188711","0.0-1.0-176.0-0.0","0","0","54704","","111","","","75","19","","","1","19","training","adjacent","ED","5","4","L.jpg","P.jpg","0","0","1","",""
"","feedback","","html-keyboard-response","126","189719","0.0-1.0-177.0-0.0","0","0","54704","","null","","","null","19","","","","","","","","","","","","","","","",""
"","ITI","","html-keyboard-response","127","190737","0.0-1.0-180.0","0","0","54704","","null","","","null","19","","","","","","","","","","","","","","","NaN",""
"","S1","","html-keyboard-response","128","190999","0.0-1.0-182.0","0","0","54704","","null","","","null","20","","","","","","","","","","","","","","","",""
"","ISI","","html-keyboard-response","129","191155","0.0-1.0-183.0","0","0","54704","","null","","","null","20","NaN","","","","","","","","","","","","","","",""
"","S2","","html-keyboard-response","130","191419","0.0-1.0-184.0","0","0","54704","","null","","","null","20","","NaN","","","","","","","","","","","","","",""
"","response","","html-keyboard-response","131","191523","0.0-1.0-185.0-0.0","0","0","54704","","97","","","68","20","","","1","20","training","adjacent","DE","4","5","P.jpg","L.jpg","1","1","1","",""
"","feedback","","html-keyboard-response","132","192543","0.0-1.0-186.0-0.0","0","0","54704","","null","","","null","20","","","","","","","","","","","","","","","",""
"","ITI","","html-keyboard-response","133","193562","0.0-1.0-189.0","0","0","54704","","null","","","null","20","","","","","","","","","","","","","","","NaN",""
"","S1","","html-keyboard-response","134","193826","0.0-1.0-191.0","0","0","54704","","null","","","null","21","","","","","","","","","","","","","","","",""
"","ISI","","html-keyboard-response","135","193982","0.0-1.0-192.0","0","0","54704","","null","","","null","21","NaN","","","","","","","","","","","","","","",""
"","S2","","html-keyboard-response","136","194243","0.0-1.0-193.0","0","0","54704","","null","","","null","21","","NaN","","","","","","","","","","","","","",""
"","response","","html-keyboard-response","137","194325","0.0-1.0-194.0-0.0","0","0","54704","","80","","","75","21","","","1","21","training","adjacent","EF","5","6","L.jpg","M.jpg","0","1","0","",""
"","feedback","","html-keyboard-response","138","195341","0.0-1.0-195.0-0.0","0","0","54704","","null","","","null","21","","","","","","","","","","","","","","","",""
"","time_out","","html-keyboard-response","139","197353","0.0-1.0-197.0-0.0","0","0","54704","","null","","","null","21","","","","","","","","","","","","","","","",""
"","ITI","","html-keyboard-response","140","198369","0.0-1.0-198.0","0","0","54704","","null","","","null","21","","","","","","","","","","","","","","","NaN",""
"","S1","","html-keyboard-response","141","198636","0.0-1.0-200.0","0","0","54704","","null","","","null","22","","","","","","","","","","","","","","","",""
"","ISI","","html-keyboard-response","142","198791","0.0-1.0-201.0","0","0","54704","","null","","","null","22","NaN","","","","","","","","","","","","","","",""
"","S2","","html-keyboard-response","143","199058","0.0-1.0-202.0","0","0","54704","","null","","","null","22","","NaN","","","","","","","","","","","","","",""
"","response","","html-keyboard-response","144","199198","0.0-1.0-203.0-0.0","0","0","54704","","131","","","68","22","","","1","22","training","adjacent","AB","1","2","O.jpg","Q.jpg","1","1","1","",""
"","feedback","","html-keyboard-response","145","200207","0.0-1.0-204.0-0.0","0","0","54704","","null","","","null","22","","","","","","","","","","","","","","","",""
"","ITI","","html-keyboard-response","146","201223","0.0-1.0-207.0","0","0","54704","","null","","","null","22","","","","","","","","","","","","","","","NaN",""
"","S1","","html-keyboard-response","147","201489","0.0-1.0-209.0","0","0","54704","","null","","","null","23","","","","","","","","","","","","","","","",""
"","ISI","","html-keyboard-response","148","201650","0.0-1.0-210.0","0","0","54704","","null","","","null","23","NaN","","","","","","","","","","","","","","",""
"","S2","","html-keyboard-response","149","201909","0.0-1.0-211.0","0","0","54704","","null","","","null","23","","NaN","","","","","","","","","","","","","",""
"","response","","html-keyboard-response","150","202225","0.0-1.0-212.0-0.0","0","0","54704","","313","","","75","23","","","1","23","training","adjacent","EF","5","6","L.jpg","M.jpg","0","1","0","",""
"","feedback","","html-keyboard-response","151","203241","0.0-1.0-213.0-0.0","0","0","54704","","null","","","null","23","","","","","","","","","","","","","","","",""
"","time_out","","html-keyboard-response","152","205260","0.0-1.0-215.0-0.0","0","0","54704","","null","","","null","23","","","","","","","","","","","","","","","",""
"","ITI","","html-keyboard-response","153","206270","0.0-1.0-216.0","0","0","54704","","null","","","null","23","","","","","","","","","","","","","","","NaN",""
"","S1","","html-keyboard-response","154","206537","0.0-1.0-218.0","0","0","54704","","null","","","null","24","","","","","","","","","","","","","","","",""
"","ISI","","html-keyboard-response","155","206707","0.0-1.0-219.0","0","0","54704","","null","","","null","24","NaN","","","","","","","","","","","","","","",""
"","S2","","html-keyboard-response","156","206969","0.0-1.0-220.0","0","0","54704","","null","","","null","24","","NaN","","","","","","","","","","","","","",""
"","response","","html-keyboard-response","157","207128","0.0-1.0-221.0-0.0","0","0","54704","","157","","","68","24","","","1","24","training","adjacent","CD","3","4","R.jpg","P.jpg","1","1","1","",""
"","feedback","","html-keyboard-response","158","208143","0.0-1.0-222.0-0.0","0","0","54704","","null","","","null","24","","","","","","","","","","","","","","","",""
"","ITI","","html-keyboard-response","159","209157","0.0-1.0-225.0","0","0","54704","","null","","","null","24","","","","","","","","","","","","","","","NaN",""
"","S1","","html-keyboard-response","160","209424","0.0-1.0-227.0","0","0","54704","","null","","","null","25","","","","","","","","","","","","","","","",""
"","ISI","","html-keyboard-response","161","209577","0.0-1.0-228.0","0","0","54704","","null","","","null","25","NaN","","","","","","","","","","","","","","",""
"","S2","","html-keyboard-response","162","209844","0.0-1.0-229.0","0","0","54704","","null","","","null","25","","NaN","","","","","","","","","","","","","",""
"","response","","html-keyboard-response","163","209997","0.0-1.0-230.0-0.0","0","0","54704","","147","","","68","25","","","1","25","training","adjacent","CD","3","4","R.jpg","P.jpg","1","1","1","",""
"","feedback","","html-keyboard-response","164","211015","0.0-1.0-231.0-0.0","0","0","54704","","null","","","null","25","","","","","","","","","","","","","","","",""
"","ITI","","html-keyboard-response","165","212029","0.0-1.0-234.0","0","0","54704","","null","","","null","25","","","","","","","","","","","","","","","NaN",""
"","S1","","html-keyboard-response","166","212296","0.0-1.0-236.0","0","0","54704","","null","","","null","26","","","","","","","","","","","","","","","",""
"","ISI","","html-keyboard-response","167","212452","0.0-1.0-237.0","0","0","54704","","null","","","null","26","NaN","","","","","","","","","","","","","","",""
"","S2","","html-keyboard-response","168","212714","0.0-1.0-238.0","0","0","54704","","null","","","null","26","","NaN","","","","","","","","","","","","","",""
"","response","","html-keyboard-response","169","212815","0.0-1.0-239.0-0.0","0","0","54704","","90","","","75","26","","","1","26","training","adjacent","DC","4","3","P.jpg","R.jpg","0","0","1","",""
"","feedback","","html-keyboard-response","170","213833","0.0-1.0-240.0-0.0","0","0","54704","","null","","","null","26","","","","","","","","","","","","","","","",""
"","ITI","","html-keyboard-response","171","214846","0.0-1.0-243.0","0","0","54704","","null","","","null","26","","","","","","","","","","","","","","","NaN",""
"","S1","","html-keyboard-response","172","215113","0.0-1.0-245.0","0","0","54704","","null","","","null","27","","","","","","","","","","","","","","","",""
"","ISI","","html-keyboard-response","173","215269","0.0-1.0-246.0","0","0","54704","","null","","","null","27","NaN","","","","","","","","","","","","","","",""
"","S2","","html-keyboard-response","174","215544","0.0-1.0-247.0","0","0","54704","","null","","","null","27","","NaN","","","","","","","","","","","","","",""
"","response","","html-keyboard-response","175","215667","0.0-1.0-248.0-0.0","0","0","54704","","116","","","68","27","","","1","27","training","adjacent","DE","4","5","P.jpg","L.jpg","1","1","1","",""
"","feedback","","html-keyboard-response","176","216672","0.0-1.0-249.0-0.0","0","0","54704","","null","","","null","27","","","","","","","","","","","","","","","",""
"","ITI","","html-keyboard-response","177","217685","0.0-1.0-252.0","0","0","54704","","null","","","null","27","","","","","","","","","","","","","","","NaN",""
"","S1","","html-keyboard-response","178","217950","0.0-1.0-254.0","0","0","54704","","null","","","null","28","","","","","","","","","","","","","","","",""
"","ISI","","html-keyboard-response","179","218108","0.0-1.0-255.0","0","0","54704","","null","","","null","28","NaN","","","","","","","","","","","","","","",""
"","S2","","html-keyboard-response","180","218375","0.0-1.0-256.0","0","0","54704","","null","","","null","28","","NaN","","","","","","","","","","","","","",""
"","response","","html-keyboard-response","181","218478","0.0-1.0-257.0-0.0","0","0","54704","","98","","","75","28","","","1","28","training","adjacent","DE","4","5","P.jpg","L.jpg","0","1","0","",""
"","feedback","","html-keyboard-response","182","219484","0.0-1.0-258.0-0.0","0","0","54704","","null","","","null","28","","","","","","","","","","","","","","","",""
"","time_out","","html-keyboard-response","183","221493","0.0-1.0-260.0-0.0","0","0","54704","","null","","","null","28","","","","","","","","","","","","","","","",""
"","ITI","","html-keyboard-response","184","222508","0.0-1.0-261.0","0","0","54704","","null","","","null","28","","","","","","","","","","","","","","","NaN",""
"","S1","","html-keyboard-response","185","222773","0.0-1.0-263.0","0","0","54704","","null","","","null","29","","","","","","","","","","","","","","","",""
"","ISI","","html-keyboard-response","186","222930","0.0-1.0-264.0","0","0","54704","","null","","","null","29","NaN","","","","","","","","","","","","","","",""
"","S2","","html-keyboard-response","187","223196","0.0-1.0-265.0","0","0","54704","","null","","","null","29","","NaN","","","","","","","","","","","","","",""
"","response","","html-keyboard-response","188","223269","0.0-1.0-266.0-0.0","0","0","54704","","67","","","68","29","","","1","29","training","adjacent","ED","5","4","L.jpg","P.jpg","1","0","0","",""
"","feedback","","html-keyboard-response","189","224280","0.0-1.0-267.0-0.0","0","0","54704","","null","","","null","29","","","","","","","","","","","","","","","",""
"","time_out","","html-keyboard-response","190","226295","0.0-1.0-269.0-0.0","0","0","54704","","null","","","null","29","","","","","","","","","","","","","","","",""
"","ITI","","html-keyboard-response","191","227310","0.0-1.0-270.0","0","0","54704","","null","","","null","29","","","","","","","","","","","","","","","NaN",""
"","S1","","html-keyboard-response","192","227578","0.0-1.0-272.0","0","0","54704","","null","","","null","30","","","","","","","","","","","","","","","",""
"","ISI","","html-keyboard-response","193","227742","0.0-1.0-273.0","0","0","54704","","null","","","null","30","NaN","","","","","","","","","","","","","","",""
"","S2","","html-keyboard-response","194","228013","0.0-1.0-274.0","0","0","54704","","null","","","null","30","","NaN","","","","","","","","","","","","","",""
"","response","","html-keyboard-response","195","228133","0.0-1.0-275.0-0.0","0","0","54704","","114","","","75","30","","","1","30","training","adjacent","BA","2","1","Q.jpg","O.jpg","0","0","1","",""
"","feedback","","html-keyboard-response","196","229155","0.0-1.0-276.0-0.0","0","0","54704","","null","","","null","30","","","","","","","","","","","","","","","",""
"","ITI","","html-keyboard-response","197","230167","0.0-1.0-279.0","0","0","54704","","null","","","null","30","","","","","","","","","","","","","","","NaN",""
"","S1","","html-keyboard-response","198","230429","0.0-1.0-281.0","0","0","54704","","null","","","null","31","","","","","","","","","","","","","","","",""
"","ISI","","html-keyboard-response","199","230585","0.0-1.0-282.0","0","0","54704","","null","","","null","31","NaN","","","","","","","","","","","","","","",""
"","S2","","html-keyboard-response","200","230855","0.0-1.0-283.0","0","0","54704","","null","","","null","31","","NaN","","","","","","","","","","","","","",""
"","response","","html-keyboard-response","201","231093","0.0-1.0-284.0-0.0","0","0","54704","","236","","","68","31","","","1","31","training","adjacent","CB","3","2","R.jpg","Q.jpg","1","0","0","",""
"","feedback","","html-keyboard-response","202","232103","0.0-1.0-285.0-0.0","0","0","54704","","null","","","null","31","","","","","","","","","","","","","","","",""
"","time_out","","html-keyboard-response","203","234122","0.0-1.0-287.0-0.0","0","0","54704","","null","","","null","31","","","","","","","","","","","","","","","",""
"","ITI","","html-keyboard-response","204","235142","0.0-1.0-288.0","0","0","54704","","null","","","null","31","","","","","","","","","","","","","","","NaN",""
"","S1","","html-keyboard-response","205","235409","0.0-1.0-290.0","0","0","54704","","null","","","null","32","","","","","","","","","","","","","","","",""
"","ISI","","html-keyboard-response","206","235567","0.0-1.0-291.0","0","0","54704","","null","","","null","32","NaN","","","","","","","","","","","","","","",""
"","S2","","html-keyboard-response","207","235829","0.0-1.0-292.0","0","0","54704","","null","","","null","32","","NaN","","","","","","","","","","","","","",""
"","response","","html-keyboard-response","208","235987","0.0-1.0-293.0-0.0","0","0","54704","","151","","","75","32","","","1","32","training","adjacent","AB","1","2","O.jpg","Q.jpg","0","1","0","",""
"","feedback","","html-keyboard-response","209","237000","0.0-1.0-294.0-0.0","0","0","54704","","null","","","null","32","","","","","","","","","","","","","","","",""
"","time_out","","html-keyboard-response","210","239018","0.0-1.0-296.0-0.0","0","0","54704","","null","","","null","32","","","","","","","","","","","","","","","",""
"","ITI","","html-keyboard-response","211","240030","0.0-1.0-297.0","0","0","54704","","null","","","null","32","","","","","","","","","","","","","","","NaN",""
"","S1","","html-keyboard-response","212","240300","0.0-1.0-299.0","0","0","54704","","null","","","null","33","","","","","","","","","","","","","","","",""
"","ISI","","html-keyboard-response","213","240466","0.0-1.0-300.0","0","0","54704","","null","","","null","33","NaN","","","","","","","","","","","","","","",""
"","S2","","html-keyboard-response","214","240733","0.0-1.0-301.0","0","0","54704","","null","","","null","33","","NaN","","","","","","","","","","","","","",""
"","response","","html-keyboard-response","215","240747","0.0-1.0-302.0-0.0","0","0","54704","","12","","","75","33","","","1","33","training","adjacent","FG","6","7","M.jpg","N.jpg","0","1","0","",""
"","feedback","","html-keyboard-response","216","241753","0.0-1.0-303.0-0.0","0","0","54704","","null","","","null","33","","","","","","","","","","","","","","","",""
"","time_out","","html-keyboard-response","217","243758","0.0-1.0-305.0-0.0","0","0","54704","","null","","","null","33","","","","","","","","","","","","","","","",""
"","ITI","","html-keyboard-response","218","244775","0.0-1.0-306.0","0","0","54704","","null","","","null","33","","","","","","","","","","","","","","","NaN",""
"","S1","","html-keyboard-response","219","245037","0.0-1.0-308.0","0","0","54704","","null","","","null","34","","","","","","","","","","","","","","","",""
"","ISI","","html-keyboard-response","220","245195","0.0-1.0-309.0","0","0","54704","","null","","","null","34","NaN","","","","","","","","","","","","","","",""
"","S2","","html-keyboard-response","221","245463","0.0-1.0-310.0","0","0","54704","","null","","","null","34","","NaN","","","","","","","","","","","","","",""
"","response","","html-keyboard-response","222","245519","0.0-1.0-311.0-0.0","0","0","54704","","53","","","75","34","","","1","34","training","adjacent","FE","6","5","M.jpg","L.jpg","0","0","1","",""
"","feedback","","html-keyboard-response","223","246539","0.0-1.0-312.0-0.0","0","0","54704","","null","","","null","34","","","","","","","","","","","","","","","",""
"","ITI","","html-keyboard-response","224","247553","0.0-1.0-315.0","0","0","54704","","null","","","null","34","","","","","","","","","","","","","","","NaN",""
"","S1","","html-keyboard-response","225","247818","0.0-1.0-317.0","0","0","54704","","null","","","null","35","","","","","","","","","","","","","","","",""
"","ISI","","html-keyboard-response","226","247985","0.0-1.0-318.0","0","0","54704","","null","","","null","35","NaN","","","","","","","","","","","","","","",""
"","S2","","html-keyboard-response","227","248253","0.0-1.0-319.0","0","0","54704","","null","","","null","35","","NaN","","","","","","","","","","","","","",""
"","response","","html-keyboard-response","228","248339","0.0-1.0-320.0-0.0","0","0","54704","","80","","","68","35","","","1","35","training","adjacent","DC","4","3","P.jpg","R.jpg","1","0","0","",""
"","feedback","","html-keyboard-response","229","249349","0.0-1.0-321.0-0.0","0","0","54704","","null","","","null","35","","","","","","","","","","","","","","","",""
"","time_out","","html-keyboard-response","230","251367","0.0-1.0-323.0-0.0","0","0","54704","","null","","","null","35","","","","","","","","","","","","","","","",""
"","ITI","","html-keyboard-response","231","252376","0.0-1.0-324.0","0","0","54704","","null","","","null","35","","","","","","","","","","","","","","","NaN",""
"","S1","","html-keyboard-response","232","252644","0.0-1.0-326.0","0","0","54704","","null","","","null","36","","","","","","","","","","","","","","","",""
"","ISI","","html-keyboard-response","233","252800","0.0-1.0-327.0","0","0","54704","","null","","","null","36","NaN","","","","","","","","","","","","","","",""
"","S2","","html-keyboard-response","234","253065","0.0-1.0-328.0","0","0","54704","","null","","","null","36","","NaN","","","","","","","","","","","","","",""
"","response","","html-keyboard-response","235","253155","0.0-1.0-329.0-0.0","0","0","54704","","83","","","68","36","","","1","36","training","adjacent","EF","5","6","L.jpg","M.jpg","1","1","1","",""
"","feedback","","html-keyboard-response","236","254171","0.0-1.0-330.0-0.0","0","0","54704","","null","","","null","36","","","","","","","","","","","","","","","",""
"","ITI","","html-keyboard-response","237","255183","0.0-1.0-333.0","0","0","54704","","null","","","null","36","","","","","","","","","","","","","","","NaN",""
"","S1","","html-keyboard-response","238","255443","0.0-1.0-335.0","0","0","54704","","null","","","null","37","","","","","","","","","","","","","","","",""
"","ISI","","html-keyboard-response","239","255600","0.0-1.0-336.0","0","0","54704","","null","","","null","37","NaN","","","","","","","","","","","","","","",""
"","S2","","html-keyboard-response","240","255867","0.0-1.0-337.0","0","0","54704","","null","","","null","37","","NaN","","","","","","","","","","","","","",""
"","response","","html-keyboard-response","241","256163","0.0-1.0-338.0-0.0","0","0","54704","","293","","","68","37","","","1","37","training","adjacent","GF","7","6","N.jpg","M.jpg","1","0","0","",""
"","feedback","","html-keyboard-response","242","257180","0.0-1.0-339.0-0.0","0","0","54704","","null","","","null","37","","","","","","","","","","","","","","","",""
"","time_out","","html-keyboard-response","243","259197","0.0-1.0-341.0-0.0","0","0","54704","","null","","","null","37","","","","","","","","","","","","","","","",""
"","ITI","","html-keyboard-response","244","260214","0.0-1.0-342.0","0","0","54704","","null","","","null","37","","","","","","","","","","","","","","","NaN",""
"","S1","","html-keyboard-response","245","260482","0.0-1.0-344.0","0","0","54704","","null","","","null","38","","","","","","","","","","","","","","","",""
"","ISI","","html-keyboard-response","246","260650","0.0-1.0-345.0","0","0","54704","","null","","","null","38","NaN","","","","","","","","","","","","","","",""
"","S2","","html-keyboard-response","247","260913","0.0-1.0-346.0","0","0","54704","","null","","","null","38","","NaN","","","","","","","","","","","","","",""
"","response","","html-keyboard-response","248","260989","0.0-1.0-347.0-0.0","0","0","54704","","67","","","75","38","","","1","38","training","adjacent","AB","1","2","O.jpg","Q.jpg","0","1","0","",""
"","feedback","","html-keyboard-response","249","262007","0.0-1.0-348.0-0.0","0","0","54704","","null","","","null","38","","","","","","","","","","","","","","","",""
"","time_out","","html-keyboard-response","250","264026","0.0-1.0-350.0-0.0","0","0","54704","","null","","","null","38","","","","","","","","","","","","","","","",""
"","ITI","","html-keyboard-response","251","265037","0.0-1.0-351.0","0","0","54704","","null","","","null","38","","","","","","","","","","","","","","","NaN",""
"","S1","","html-keyboard-response","252","265304","0.0-1.0-353.0","0","0","54704","","null","","","null","39","","","","","","","","","","","","","","","",""
"","ISI","","html-keyboard-response","253","265475","0.0-1.0-354.0","0","0","54704","","null","","","null","39","NaN","","","","","","","","","","","","","","",""
"","S2","","html-keyboard-response","254","265744","0.0-1.0-355.0","0","0","54704","","null","","","null","39","","NaN","","","","","","","","","","","","","",""
"","response","","html-keyboard-response","255","265954","0.0-1.0-356.0-0.0","0","0","54704","","204","","","68","39","","","1","39","training","adjacent","ED","5","4","L.jpg","P.jpg","1","0","0","",""
"","feedback","","html-keyboard-response","256","266974","0.0-1.0-357.0-0.0","0","0","54704","","null","","","null","39","","","","","","","","","","","","","","","",""
"","time_out","","html-keyboard-response","257","268991","0.0-1.0-359.0-0.0","0","0","54704","","null","","","null","39","","","","","","","","","","","","","","","",""
"","ITI","","html-keyboard-response","258","270005","0.0-1.0-360.0","0","0","54704","","null","","","null","39","","","","","","","","","","","","","","","NaN",""
"","S1","","html-keyboard-response","259","270271","0.0-1.0-362.0","0","0","54704","","null","","","null","40","","","","","","","","","","","","","","","",""
"","ISI","","html-keyboard-response","260","270442","0.0-1.0-363.0","0","0","54704","","null","","","null","40","NaN","","","","","","","","","","","","","","",""
"","S2","","html-keyboard-response","261","270707","0.0-1.0-364.0","0","0","54704","","null","","","null","40","","NaN","","","","","","","","","","","","","",""
"","response","","html-keyboard-response","262","270765","0.0-1.0-365.0-0.0","0","0","54704","","56","","","75","40","","","1","40","training","adjacent","CB","3","2","R.jpg","Q.jpg","0","0","1","",""
"","feedback","","html-keyboard-response","263","271771","0.0-1.0-366.0-0.0","0","0","54704","","null","","","null","40","","","","","","","","","","","","","","","",""
"","ITI","","html-keyboard-response","264","272789","0.0-1.0-369.0","0","0","54704","","null","","","null","40","","","","","","","","","","","","","","","NaN",""
"","S1","","html-keyboard-response","265","273055","0.0-1.0-371.0","0","0","54704","","null","","","null","41","","","","","","","","","","","","","","","",""
"","ISI","","html-keyboard-response","266","273209","0.0-1.0-372.0","0","0","54704","","null","","","null","41","NaN","","","","","","","","","","","","","","",""
"","S2","","html-keyboard-response","267","273472","0.0-1.0-373.0","0","0","54704","","null","","","null","41","","NaN","","","","","","","","","","","","","",""
"","response","","html-keyboard-response","268","273609","0.0-1.0-374.0-0.0","0","0","54704","","131","","","75","41","","","1","41","training","adjacent","BA","2","1","Q.jpg","O.jpg","0","0","1","",""
"","feedback","","html-keyboard-response","269","274617","0.0-1.0-375.0-0.0","0","0","54704","","null","","","null","41","","","","","","","","","","","","","","","",""
"","ITI","","html-keyboard-response","270","275637","0.0-1.0-378.0","0","0","54704","","null","","","null","41","","","","","","","","","","","","","","","NaN",""
"","S1","","html-keyboard-response","271","275903","0.0-1.0-380.0","0","0","54704","","null","","","null","42","","","","","","","","","","","","","","","",""
"","ISI","","html-keyboard-response","272","276075","0.0-1.0-381.0","0","0","54704","","null","","","null","42","NaN","","","","","","","","","","","","","","",""
"","S2","","html-keyboard-response","273","276340","0.0-1.0-382.0","0","0","54704","","null","","","null","42","","NaN","","","","","","","","","","","","","",""
"","response","","html-keyboard-response","274","276444","0.0-1.0-383.0-0.0","0","0","54704","","95","","","75","42","","","1","42","training","adjacent","FE","6","5","M.jpg","L.jpg","0","0","1","",""
"","feedback","","html-keyboard-response","275","277463","0.0-1.0-384.0-0.0","0","0","54704","","null","","","null","42","","","","","","","","","","","","","","","",""
"","ITI","","html-keyboard-response","276","278480","0.0-1.0-387.0","0","0","54704","","null","","","null","42","","","","","","","","","","","","","","","NaN",""
"","S1","","html-keyboard-response","277","278743","0.0-1.0-389.0","0","0","54704","","null","","","null","43","","","","","","","","","","","","","","","",""
"","ISI","","html-keyboard-response","278","278899","0.0-1.0-390.0","0","0","54704","","null","","","null","43","NaN","","","","","","","","","","","","","","",""
"","S2","","html-keyboard-response","279","279160","0.0-1.0-391.0","0","0","54704","","null","","","null","43","","NaN","","","","","","","","","","","","","",""
"","response","","html-keyboard-response","280","279270","0.0-1.0-392.0-0.0","0","0","54704","","106","","","68","43","","","1","43","training","adjacent","FE","6","5","M.jpg","L.jpg","1","0","0","",""
"","feedback","","html-keyboard-response","281","280280","0.0-1.0-393.0-0.0","0","0","54704","","null","","","null","43","","","","","","","","","","","","","","","",""
"","time_out","","html-keyboard-response","282","282305","0.0-1.0-395.0-0.0","0","0","54704","","null","","","null","43","","","","","","","","","","","","","","","",""
"","ITI","","html-keyboard-response","283","283313","0.0-1.0-396.0","0","0","54704","","null","","","null","43","","","","","","","","","","","","","","","NaN",""
"","S1","","html-keyboard-response","284","283580","0.0-1.0-398.0","0","0","54704","","null","","","null","44","","","","","","","","","","","","","","","",""
"","ISI","","html-keyboard-response","285","283746","0.0-1.0-399.0","0","0","54704","","null","","","null","44","NaN","","","","","","","","","","","","","","",""
"","S2","","html-keyboard-response","286","284017","0.0-1.0-400.0","0","0","54704","","null","","","null","44","","NaN","","","","","","","","","","","","","",""
"","response","","html-keyboard-response","287","284039","0.0-1.0-401.0-0.0","0","0","54704","","19","","","75","44","","","1","44","training","adjacent","CD","3","4","R.jpg","P.jpg","0","1","0","",""
"","feedback","","html-keyboard-response","288","285044","0.0-1.0-402.0-0.0","0","0","54704","","null","","","null","44","","","","","","","","","","","","","","","",""
"","time_out","","html-keyboard-response","289","287069","0.0-1.0-404.0-0.0","0","0","54704","","null","","","null","44","","","","","","","","","","","","","","","",""
"","ITI","","html-keyboard-response","290","288094","0.0-1.0-405.0","0","0","54704","","null","","","null","44","","","","","","","","","","","","","","","NaN",""
"","S1","","html-keyboard-response","291","288358","0.0-1.0-407.0","0","0","54704","","null","","","null","45","","","","","","","","","","","","","","","",""
"","ISI","","html-keyboard-response","292","288511","0.0-1.0-408.0","0","0","54704","","null","","","null","45","NaN","","","","","","","","","","","","","","",""
"","S2","","html-keyboard-response","293","288789","0.0-1.0-409.0","0","0","54704","","null","","","null","45","","NaN","","","","","","","","","","","","","",""
"","response","","html-keyboard-response","294","288932","0.0-1.0-410.0-0.0","0","0","54704","","136","","","68","45","","","1","45","training","adjacent","FG","6","7","M.jpg","N.jpg","1","1","1","",""
"","feedback","","html-keyboard-response","295","289951","0.0-1.0-411.0-0.0","0","0","54704","","null","","","null","45","","","","","","","","","","","","","","","",""
"","ITI","","html-keyboard-response","296","290965","0.0-1.0-414.0","0","0","54704","","null","","","null","45","","","","","","","","","","","","","","","NaN",""
"","S1","","html-keyboard-response","297","291230","0.0-1.0-416.0","0","0","54704","","null","","","null","46","","","","","","","","","","","","","","","",""
"","ISI","","html-keyboard-response","298","291389","0.0-1.0-417.0","0","0","54704","","null","","","null","46","NaN","","","","","","","","","","","","","","",""
"","S2","","html-keyboard-response","299","291655","0.0-1.0-418.0","0","0","54704","","null","","","null","46","","NaN","","","","","","","","","","","","","",""
"","response","","html-keyboard-response","300","291871","0.0-1.0-419.0-0.0","0","0","54704","","213","","","68","46","","","1","46","training","adjacent","FG","6","7","M.jpg","N.jpg","1","1","1","",""
"","feedback","","html-keyboard-response","301","292890","0.0-1.0-420.0-0.0","0","0","54704","","null","","","null","46","","","","","","","","","","","","","","","",""
"","ITI","","html-keyboard-response","302","293906","0.0-1.0-423.0","0","0","54704","","null","","","null","46","","","","","","","","","","","","","","","NaN",""
"","S1","","html-keyboard-response","303","294172","0.0-1.0-425.0","0","0","54704","","null","","","null","47","","","","","","","","","","","","","","","",""
"","ISI","","html-keyboard-response","304","294327","0.0-1.0-426.0","0","0","54704","","null","","","null","47","NaN","","","","","","","","","","","","","","",""
"","S2","","html-keyboard-response","305","294591","0.0-1.0-427.0","0","0","54704","","null","","","null","47","","NaN","","","","","","","","","","","","","",""
"","response","","html-keyboard-response","306","294692","0.0-1.0-428.0-0.0","0","0","54704","","95","","","75","47","","","1","47","training","adjacent","BC","2","3","Q.jpg","R.jpg","0","1","0","",""
"","feedback","","html-keyboard-response","307","295717","0.0-1.0-429.0-0.0","0","0","54704","","null","","","null","47","","","","","","","","","","","","","","","",""
"","time_out","","html-keyboard-response","308","297728","0.0-1.0-431.0-0.0","0","0","54704","","null","","","null","47","","","","","","","","","","","","","","","",""
"","ITI","","html-keyboard-response","309","298744","0.0-1.0-432.0","0","0","54704","","null","","","null","47","","","","","","","","","","","","","","","NaN",""
"","block_over","","html-keyboard-response","310","308368","0.0-1.0-433.0-0.0","0","0","54704","","9618","","","32","47","","","","","","","","","","","","","","","",""
"","S1","","html-keyboard-response","311","308624","0.0-1.0-434.0","0","0","54704","","null","","","null","48","","","","","","","","","","","","","","","",""
"","ISI","","html-keyboard-response","312","308792","0.0-1.0-435.0","0","0","54704","","null","","","null","48","NaN","","","","","","","","","","","","","","",""
"","S2","","html-keyboard-response","313","309058","0.0-1.0-436.0","0","0","54704","","null","","","null","48","","NaN","","","","","","","","","","","","","",""
"","response","","html-keyboard-response","314","309091","0.0-1.0-437.0-0.0","0","0","54704","","30","","","75","48","","","2","48","training","adjacent","BC","2","3","Q.jpg","R.jpg","0","1","0","",""
"","feedback","","html-keyboard-response","315","310100","0.0-1.0-438.0-0.0","0","0","54704","","null","","","null","48","","","","","","","","","","","","","","","",""
"","time_out","","html-keyboard-response","316","312115","0.0-1.0-440.0-0.0","0","0","54704","","null","","","null","48","","","","","","","","","","","","","","","",""
"","ITI","","html-keyboard-response","317","313121","0.0-1.0-441.0","0","0","54704","","null","","","null","48","","","","","","","","","","","","","","","NaN",""
"","S1","","html-keyboard-response","318","313388","0.0-1.0-443.0","0","0","54704","","null","","","null","49","","","","","","","","","","","","","","","",""
"","ISI","","html-keyboard-response","319","313558","0.0-1.0-444.0","0","0","54704","","null","","","null","49","NaN","","","","","","","","","","","","","","",""
"","S2","","html-keyboard-response","320","313813","0.0-1.0-445.0","0","0","54704","","252","","","68","49","","d","2","49","training","adjacent","GF","7","6","N.jpg","M.jpg","1","0","0","",""
"","feedback","","html-keyboard-response","321","314822","0.0-1.0-447.0-0.0","0","0","54704","","null","","","null","49","","","","","","","","","","","","","","","",""
"","time_out","","html-keyboard-response","322","316840","0.0-1.0-449.0-0.0","0","0","54704","","null","","","null","49","","","","","","","","","","","","","","","",""
"","ITI","","html-keyboard-response","323","317854","0.0-1.0-450.0","0","0","54704","","null","","","null","49","","","","","","","","","","","","","","","NaN",""
"","S1","","html-keyboard-response","324","318117","0.0-1.0-452.0","0","0","54704","","null","","","null","50","","","","","","","","","","","","","","","",""
"","ISI","","html-keyboard-response","325","318274","0.0-1.0-453.0","0","0","54704","","null","","","null","50","NaN","","","","","","","","","","","","","","",""
"","S2","","html-keyboard-response","326","318540","0.0-1.0-454.0","0","0","54704","","null","","","null","50","","NaN","","","","","","","","","","","","","",""
"","response","","html-keyboard-response","327","318637","0.0-1.0-455.0-0.0","0","0","54704","","90","","","75","50","","","2","50","training","adjacent","AB","1","2","O.jpg","Q.jpg","0","1","0","",""
"","feedback","","html-keyboard-response","328","319655","0.0-1.0-456.0-0.0","0","0","54704","","null","","","null","50","","","","","","","","","","","","","","","",""
"","time_out","","html-keyboard-response","329","321673","0.0-1.0-458.0-0.0","0","0","54704","","null","","","null","50","","","","","","","","","","","","","","","",""
"","ITI","","html-keyboard-response","330","322688","0.0-1.0-459.0","0","0","54704","","null","","","null","50","","","","","","","","","","","","","","","NaN",""
"","S1","","html-keyboard-response","331","322956","0.0-1.0-461.0","0","0","54704","","null","","","null","51","","","","","","","","","","","","","","","",""
"","ISI","","html-keyboard-response","332","323113","0.0-1.0-462.0","0","0","54704","","null","","","null","51","NaN","","","","","","","","","","","","","","",""
"","S2","","html-keyboard-response","333","323339","0.0-1.0-463.0","0","0","54704","","219","","","68","51","","d","2","51","training","adjacent","BC","2","3","Q.jpg","R.jpg","1","1","1","",""
"","feedback","","html-keyboard-response","334","324351","0.0-1.0-465.0-0.0","0","0","54704","","null","","","null","51","","","","","","","","","","","","","","","",""
"","ITI","","html-keyboard-response","335","325366","0.0-1.0-468.0","0","0","54704","","null","","","null","51","","","","","","","","","","","","","","","NaN",""
"","S1","","html-keyboard-response","336","325631","0.0-1.0-470.0","0","0","54704","","null","","","null","52","","","","","","","","","","","","","","","",""
"","ISI","","html-keyboard-response","337","325802","0.0-1.0-471.0","0","0","54704","","null","","","null","52","NaN","","","","","","","","","","","","","","",""
"","S2","","html-keyboard-response","338","326070","0.0-1.0-472.0","0","0","54704","","null","","","null","52","","NaN","","","","","","","","","","","","","",""
"","response","","html-keyboard-response","339","326119","0.0-1.0-473.0-0.0","0","0","54704","","47","","","75","52","","","2","52","training","adjacent","AB","1","2","O.jpg","Q.jpg","0","1","0","",""
"","feedback","","html-keyboard-response","340","327133","0.0-1.0-474.0-0.0","0","0","54704","","null","","","null","52","","","","","","","","","","","","","","","",""
"","time_out","","html-keyboard-response","341","329149","0.0-1.0-476.0-0.0","0","0","54704","","null","","","null","52","","","","","","","","","","","","","","","",""
"","ITI","","html-keyboard-response","342","330167","0.0-1.0-477.0","0","0","54704","","null","","","null","52","","","","","","","","","","","","","","","NaN",""
"","S1","","html-keyboard-response","343","330431","0.0-1.0-479.0","0","0","54704","","null","","","null","53","","","","","","","","","","","","","","","",""
"","ISI","","html-keyboard-response","344","330587","0.0-1.0-480.0","0","0","54704","","null","","","null","53","NaN","","","","","","","","","","","","","","",""
"","S2","","html-keyboard-response","345","330852","0.0-1.0-481.0","0","0","54704","","null","","","null","53","","NaN","","","","","","","","","","","","","",""
"","response","","html-keyboard-response","346","330912","0.0-1.0-482.0-0.0","0","0","54704","","56","","","75","53","","","2","53","training","adjacent","FE","6","5","M.jpg","L.jpg","0","0","1","",""
"","feedback","","html-keyboard-response","347","331931","0.0-1.0-483.0-0.0","0","0","54704","","null","","","null","53","","","","","","","","","","","","","","","",""
"","ITI","","html-keyboard-response","348","332945","0.0-1.0-486.0","0","0","54704","","null","","","null","53","","","","","","","","","","","","","","","NaN",""
"","S1","","html-keyboard-response","349","333210","0.0-1.0-488.0","0","0","54704","","null","","","null","54","","","","","","","","","","","","","","","",""
"","ISI","","html-keyboard-response","350","333368","0.0-1.0-489.0","0","0","54704","","null","","","null","54","NaN","","","","","","","","","","","","","","",""
"","S2","","html-keyboard-response","351","333627","0.0-1.0-490.0","0","0","54704","","null","","","null","54","","NaN","","","","","","","","","","","","","",""
"","response","","html-keyboard-response","352","333710","0.0-1.0-491.0-0.0","0","0","54704","","77","","","68","54","","","2","54","training","adjacent","FG","6","7","M.jpg","N.jpg","1","1","1","",""
"","feedback","","html-keyboard-response","353","334721","0.0-1.0-492.0-0.0","0","0","54704","","null","","","null","54","","","","","","","","","","","","","","","",""
"","ITI","","html-keyboard-response","354","335740","0.0-1.0-495.0","0","0","54704","","null","","","null","54","","","","","","","","","","","","","","","NaN",""
"","S1","","html-keyboard-response","355","336003","0.0-1.0-497.0","0","0","54704","","null","","","null","55","","","","","","","","","","","","","","","",""
"","ISI","","html-keyboard-response","356","336160","0.0-1.0-498.0","0","0","54704","","null","","","null","55","NaN","","","","","","","","","","","","","","",""
"","S2","","html-keyboard-response","357","336426","0.0-1.0-499.0","0","0","54704","","null","","","null","55","","NaN","","","","","","","","","","","","","",""
"","response","","html-keyboard-response","358","336673","0.0-1.0-500.0-0.0","0","0","54704","","243","","","68","55","","","2","55","training","adjacent","CD","3","4","R.jpg","P.jpg","1","1","1","",""
"","feedback","","html-keyboard-response","359","337690","0.0-1.0-501.0-0.0","0","0","54704","","null","","","null","55","","","","","","","","","","","","","","","",""
"","ITI","","html-keyboard-response","360","338705","0.0-1.0-504.0","0","0","54704","","null","","","null","55","","","","","","","","","","","","","","","NaN",""
"","S1","","html-keyboard-response","361","338966","0.0-1.0-506.0","0","0","54704","","null","","","null","56","","","","","","","","","","","","","","","",""
"","ISI","","html-keyboard-response","362","339120","0.0-1.0-507.0","0","0","54704","","null","","","null","56","NaN","","","","","","","","","","","","","","",""
"","S2","","html-keyboard-response","363","339389","0.0-1.0-508.0","0","0","54704","","null","","","null","56","","NaN","","","","","","","","","","","","","",""
"","response","","html-keyboard-response","364","339697","0.0-1.0-509.0-0.0","0","0","54704","","301","","","68","56","","","2","56","training","adjacent","EF","5","6","L.jpg","M.jpg","1","1","1","",""
"","feedback","","html-keyboard-response","365","340703","0.0-1.0-510.0-0.0","0","0","54704","","null","","","null","56","","","","","","","","","","","","","","","",""
"","ITI","","html-keyboard-response","366","341727","0.0-1.0-513.0","0","0","54704","","null","","","null","56","","","","","","","","","","","","","","","NaN",""
"","S1","","html-keyboard-response","367","341984","0.0-1.0-515.0","0","0","54704","","null","","","null","57","","","","","","","","","","","","","","","",""
"","ISI","","html-keyboard-response","368","342153","0.0-1.0-516.0","0","0","54704","","null","","","null","57","NaN","","","","","","","","","","","","","","",""
"","S2","","html-keyboard-response","369","342421","0.0-1.0-517.0","0","0","54704","","null","","","null","57","","NaN","","","","","","","","","","","","","",""
"","response","","html-keyboard-response","370","342549","0.0-1.0-518.0-0.0","0","0","54704","","126","","","75","57","","","2","57","training","adjacent","DC","4","3","P.jpg","R.jpg","0","0","1","",""
"","feedback","","html-keyboard-response","371","343567","0.0-1.0-519.0-0.0","0","0","54704","","null","","","null","57","","","","","","","","","","","","","","","",""
"","ITI","","html-keyboard-response","372","344581","0.0-1.0-522.0","0","0","54704","","null","","","null","57","","","","","","","","","","","","","","","NaN",""
"","S1","","html-keyboard-response","373","344848","0.0-1.0-524.0","0","0","54704","","null","","","null","58","","","","","","","","","","","","","","","",""
"","ISI","","html-keyboard-response","374","345019","0.0-1.0-525.0","0","0","54704","","null","","","null","58","NaN","","","","","","","","","","","","","","",""
"","S2","","html-keyboard-response","375","345284","0.0-1.0-526.0","0","0","54704","","null","","","null","58","","NaN","","","","","","","","","","","","","",""
"","response","","html-keyboard-response","376","345539","0.0-1.0-527.0-0.0","0","0","54704","","251","","","68","58","","","2","58","training","adjacent","CD","3","4","R.jpg","P.jpg","1","1","1","",""
"","feedback","","html-keyboard-response","377","346554","0.0-1.0-528.0-0.0","0","0","54704","","null","","","null","58","","","","","","","","","","","","","","","",""
"","ITI","","html-keyboard-response","378","347564","0.0-1.0-531.0","0","0","54704","","null","","","null","58","","","","","","","","","","","","","","","NaN",""
"","S1","","html-keyboard-response","379","347833","0.0-1.0-533.0","0","0","54704","","null","","","null","59","","","","","","","","","","","","","","","",""
"","ISI","","html-keyboard-response","380","348004","0.0-1.0-534.0","0","0","54704","","null","","","null","59","NaN","","","","","","","","","","","","","","",""
"","S2","","html-keyboard-response","381","348271","0.0-1.0-535.0","0","0","54704","","null","","","null","59","","NaN","","","","","","","","","","","","","",""
"","response","","html-keyboard-response","382","348561","0.0-1.0-536.0-0.0","0","0","54704","","286","","","75","59","","","2","59","training","adjacent","ED","5","4","L.jpg","P.jpg","0","0","1","",""
"","feedback","","html-keyboard-response","383","349565","0.0-1.0-537.0-0.0","0","0","54704","","null","","","null","59","","","","","","","","","","","","","","","",""
"","ITI","","html-keyboard-response","384","350585","0.0-1.0-540.0","0","0","54704","","null","","","null","59","","","","","","","","","","","","","","","NaN",""
"","S1","","html-keyboard-response","385","350852","0.0-1.0-542.0","0","0","54704","","null","","","null","60","","","","","","","","","","","","","","","",""
"","ISI","","html-keyboard-response","386","351023","0.0-1.0-543.0","0","0","54704","","null","","","null","60","NaN","","","","","","","","","","","","","","",""
"","S2","","html-keyboard-response","387","351290","0.0-1.0-544.0","0","0","54704","","null","","","null","60","","NaN","","","","","","","","","","","","","",""
"","response","","html-keyboard-response","388","351343","0.0-1.0-545.0-0.0","0","0","54704","","48","","","68","60","","","2","60","training","adjacent","GF","7","6","N.jpg","M.jpg","1","0","0","",""
"","feedback","","html-keyboard-response","389","352353","0.0-1.0-546.0-0.0","0","0","54704","","null","","","null","60","","","","","","","","","","","","","","","",""
"","time_out","","html-keyboard-response","390","354373","0.0-1.0-548.0-0.0","0","0","54704","","null","","","null","60","","","","","","","","","","","","","","","",""
"","ITI","","html-keyboard-response","391","355386","0.0-1.0-549.0","0","0","54704","","null","","","null","60","","","","","","","","","","","","","","","NaN",""
"","S1","","html-keyboard-response","392","355657","0.0-1.0-551.0","0","0","54704","","null","","","null","61","","","","","","","","","","","","","","","",""
"","ISI","","html-keyboard-response","393","355818","0.0-1.0-552.0","0","0","54704","","null","","","null","61","NaN","","","","","","","","","","","","","","",""
"","S2","","html-keyboard-response","394","356011","0.0-1.0-553.0","0","0","54704","","186","","","75","61","","k","2","61","training","adjacent","ED","5","4","L.jpg","P.jpg","0","0","1","",""
"","feedback","","html-keyboard-response","395","357022","0.0-1.0-555.0-0.0","0","0","54704","","null","","","null","61","","","","","","","","","","","","","","","",""
"","ITI","","html-keyboard-response","396","358036","0.0-1.0-558.0","0","0","54704","","null","","","null","61","","","","","","","","","","","","","","","NaN",""
"","S1","","html-keyboard-response","397","358301","0.0-1.0-560.0","0","0","54704","","null","","","null","62","","","","","","","","","","","","","","","",""
"","ISI","","html-keyboard-response","398","358455","0.0-1.0-561.0","0","0","54704","","null","","","null","62","NaN","","","","","","","","","","","","","","",""
"","S2","","html-keyboard-response","399","358722","0.0-1.0-562.0","0","0","54704","","null","","","null","62","","NaN","","","","","","","","","","","","","",""
"","response","","html-keyboard-response","400","358771","0.0-1.0-563.0-0.0","0","0","54704","","45","","","68","62","","","2","62","training","adjacent","CD","3","4","R.jpg","P.jpg","1","1","1","",""
"","feedback","","html-keyboard-response","401","359786","0.0-1.0-564.0-0.0","0","0","54704","","null","","","null","62","","","","","","","","","","","","","","","",""
"","ITI","","html-keyboard-response","402","360800","0.0-1.0-567.0","0","0","54704","","null","","","null","62","","","","","","","","","","","","","","","NaN",""
"","S1","","html-keyboard-response","403","361065","0.0-1.0-569.0","0","0","54704","","null","","","null","63","","","","","","","","","","","","","","","",""
"","ISI","","html-keyboard-response","404","361223","0.0-1.0-570.0","0","0","54704","","null","","","null","63","NaN","","","","","","","","","","","","","","",""
"","S2","","html-keyboard-response","405","361406","0.0-1.0-571.0","0","0","54704","","179","","","75","63","","k","2","63","training","adjacent","DE","4","5","P.jpg","L.jpg","0","1","0","",""
"","feedback","","html-keyboard-response","406","362425","0.0-1.0-573.0-0.0","0","0","54704","","null","","","null","63","","","","","","","","","","","","","","","",""
"","time_out","","html-keyboard-response","407","364451","0.0-1.0-575.0-0.0","0","0","54704","","null","","","null","63","","","","","","","","","","","","","","","",""
"","ITI","","html-keyboard-response","408","365459","0.0-1.0-576.0","0","0","54704","","null","","","null","63","","","","","","","","","","","","","","","NaN",""
"","S1","","html-keyboard-response","409","365723","0.0-1.0-578.0","0","0","54704","","null","","","null","64","","","","","","","","","","","","","","","",""
"","ISI","","html-keyboard-response","410","365893","0.0-1.0-579.0","0","0","54704","","null","","","null","64","NaN","","","","","","","","","","","","","","",""
"","S2","","html-keyboard-response","411","366086","0.0-1.0-580.0","0","0","54704","","189","","","68","64","","d","2","64","training","adjacent","BC","2","3","Q.jpg","R.jpg","1","1","1","",""
"","feedback","","html-keyboard-response","412","367095","0.0-1.0-582.0-0.0","0","0","54704","","null","","","null","64","","","","","","","","","","","","","","","",""
"","ITI","","html-keyboard-response","413","368116","0.0-1.0-585.0","0","0","54704","","null","","","null","64","","","","","","","","","","","","","","","NaN",""
"","S1","","html-keyboard-response","414","368377","0.0-1.0-587.0","0","0","54704","","null","","","null","65","","","","","","","","","","","","","","","",""
"","ISI","","html-keyboard-response","415","368532","0.0-1.0-588.0","0","0","54704","","null","","","null","65","NaN","","","","","","","","","","","","","","",""
"","S2","","html-keyboard-response","416","368700","0.0-1.0-589.0","0","0","54704","","162","","","68","65","","d","2","65","training","adjacent","BA","2","1","Q.jpg","O.jpg","1","0","0","",""
"","feedback","","html-keyboard-response","417","369716","0.0-1.0-591.0-0.0","0","0","54704","","null","","","null","65","","","","","","","","","","","","","","","",""
"","time_out","","html-keyboard-response","418","371723","0.0-1.0-593.0-0.0","0","0","54704","","null","","","null","65","","","","","","","","","","","","","","","",""
"","ITI","","html-keyboard-response","419","372738","0.0-1.0-594.0","0","0","54704","","null","","","null","65","","","","","","","","","","","","","","","NaN",""
"","S1","","html-keyboard-response","420","373005","0.0-1.0-596.0","0","0","54704","","null","","","null","66","","","","","","","","","","","","","","","",""
"","ISI","","html-keyboard-response","421","373163","0.0-1.0-597.0","0","0","54704","","null","","","null","66","NaN","","","","","","","","","","","","","","",""
"","S2","","html-keyboard-response","422","373349","0.0-1.0-598.0","0","0","54704","","183","","","75","66","","k","2","66","training","adjacent","FG","6","7","M.jpg","N.jpg","0","1","0","",""
"","feedback","","html-keyboard-response","423","374364","0.0-1.0-600.0-0.0","0","0","54704","","null","","","null","66","","","","","","","","","","","","","","","",""
"","time_out","","html-keyboard-response","424","376374","0.0-1.0-602.0-0.0","0","0","54704","","null","","","null","66","","","","","","","","","","","","","","","",""
"","ITI","","html-keyboard-response","425","377388","0.0-1.0-603.0","0","0","54704","","null","","","null","66","","","","","","","","","","","","","","","NaN",""
"","S1","","html-keyboard-response","426","377653","0.0-1.0-605.0","0","0","54704","","null","","","null","67","","","","","","","","","","","","","","","",""
"","ISI","","html-keyboard-response","427","377811","0.0-1.0-606.0","0","0","54704","","null","","","null","67","NaN","","","","","","","","","","","","","","",""
"","S2","","html-keyboard-response","428","377944","0.0-1.0-607.0","0","0","54704","","131","","","68","67","","d","2","67","training","adjacent","ED","5","4","L.jpg","P.jpg","1","0","0","",""
"","feedback","","html-keyboard-response","429","378960","0.0-1.0-609.0-0.0","0","0","54704","","null","","","null","67","","","","","","","","","","","","","","","",""
"","time_out","","html-keyboard-response","430","380967","0.0-1.0-611.0-0.0","0","0","54704","","null","","","null","67","","","","","","","","","","","","","","","",""
"","ITI","","html-keyboard-response","431","381979","0.0-1.0-612.0","0","0","54704","","null","","","null","67","","","","","","","","","","","","","","","NaN",""
"","S1","","html-keyboard-response","432","382246","0.0-1.0-614.0","0","0","54704","","null","","","null","68","","","","","","","","","","","","","","","",""
"","ISI","","html-keyboard-response","433","382401","0.0-1.0-615.0","0","0","54704","","null","","","null","68","NaN","","","","","","","","","","","","","","",""
"","S2","","html-keyboard-response","434","382577","0.0-1.0-616.0","0","0","54704","","174","","","75","68","","k","2","68","training","adjacent","FG","6","7","M.jpg","N.jpg","0","1","0","",""
"","feedback","","html-keyboard-response","435","383589","0.0-1.0-618.0-0.0","0","0","54704","","null","","","null","68","","","","","","","","","","","","","","","",""
"","time_out","","html-keyboard-response","436","385600","0.0-1.0-620.0-0.0","0","0","54704","","null","","","null","68","","","","","","","","","","","","","","","",""
"","ITI","","html-keyboard-response","437","386617","0.0-1.0-621.0","0","0","54704","","null","","","null","68","","","","","","","","","","","","","","","NaN",""
"","S1","","html-keyboard-response","438","386881","0.0-1.0-623.0","0","0","54704","","null","","","null","69","","","","","","","","","","","","","","","",""
"","ISI","","html-keyboard-response","439","387053","0.0-1.0-624.0","0","0","54704","","null","","","null","69","NaN","","","","","","","","","","","","","","",""
"","S2","","html-keyboard-response","440","387238","0.0-1.0-625.0","0","0","54704","","182","","","68","69","","d","2","69","training","adjacent","CB","3","2","R.jpg","Q.jpg","1","0","0","",""
"","feedback","","html-keyboard-response","441","388251","0.0-1.0-627.0-0.0","0","0","54704","","null","","","null","69","","","","","","","","","","","","","","","",""
"","time_out","","html-keyboard-response","442","390269","0.0-1.0-629.0-0.0","0","0","54704","","null","","","null","69","","","","","","","","","","","","","","","",""
"","ITI","","html-keyboard-response","443","391281","0.0-1.0-630.0","0","0","54704","","null","","","null","69","","","","","","","","","","","","","","","NaN",""
"","S1","","html-keyboard-response","444","391549","0.0-1.0-632.0","0","0","54704","","null","","","null","70","","","","","","","","","","","","","","","",""
"","ISI","","html-keyboard-response","445","391715","0.0-1.0-633.0","0","0","54704","","null","","","null","70","NaN","","","","","","","","","","","","","","",""
"","S2","","html-keyboard-response","446","391925","0.0-1.0-634.0","0","0","54704","","203","","","75","70","","k","2","70","training","adjacent","CB","3","2","R.jpg","Q.jpg","0","0","1","",""
"","feedback","","html-keyboard-response","447","392938","0.0-1.0-636.0-0.0","0","0","54704","","null","","","null","70","","","","","","","","","","","","","","","",""
"","ITI","","html-keyboard-response","448","393951","0.0-1.0-639.0","0","0","54704","","null","","","null","70","","","","","","","","","","","","","","","NaN",""
"","S1","","html-keyboard-response","449","394221","0.0-1.0-641.0","0","0","54704","","null","","","null","71","","","","","","","","","","","","","","","",""
"","ISI","","html-keyboard-response","450","394388","0.0-1.0-642.0","0","0","54704","","null","","","null","71","NaN","","","","","","","","","","","","","","",""
"","S2","","html-keyboard-response","451","394659","0.0-1.0-643.0","0","0","54704","","null","","","null","71","","NaN","","","","","","","","","","","","","",""
"","response","","html-keyboard-response","452","394662","0.0-1.0-644.0-0.0","0","0","54704","","1","","","68","71","","","2","71","training","adjacent","FE","6","5","M.jpg","L.jpg","1","0","0","",""
"","feedback","","html-keyboard-response","453","395668","0.0-1.0-645.0-0.0","0","0","54704","","null","","","null","71","","","","","","","","","","","","","","","",""
"","time_out","","html-keyboard-response","454","397681","0.0-1.0-647.0-0.0","0","0","54704","","null","","","null","71","","","","","","","","","","","","","","","",""
"","ITI","","html-keyboard-response","455","398703","0.0-1.0-648.0","0","0","54704","","null","","","null","71","","","","","","","","","","","","","","","NaN",""
"","S1","","html-keyboard-response","456","398966","0.0-1.0-650.0","0","0","54704","","null","","","null","72","","","","","","","","","","","","","","","",""
"","ISI","","html-keyboard-response","457","399137","0.0-1.0-651.0","0","0","54704","","null","","","null","72","NaN","","","","","","","","","","","","","","",""
"","S2","","html-keyboard-response","458","399339","0.0-1.0-652.0","0","0","54704","","200","","","75","72","","k","2","72","training","adjacent","DC","4","3","P.jpg","R.jpg","0","0","1","",""
"","feedback","","html-keyboard-response","459","400357","0.0-1.0-654.0-0.0","0","0","54704","","null","","","null","72","","","","","","","","","","","","","","","",""
"","ITI","","html-keyboard-response","460","401369","0.0-1.0-657.0","0","0","54704","","null","","","null","72","","","","","","","","","","","","","","","NaN",""
"","S1","","html-keyboard-response","461","401635","0.0-1.0-659.0","0","0","54704","","null","","","null","73","","","","","","","","","","","","","","","",""
"","ISI","","html-keyboard-response","462","401805","0.0-1.0-660.0","0","0","54704","","null","","","null","73","NaN","","","","","","","","","","","","","","",""
"","S2","","html-keyboard-response","463","402070","0.0-1.0-661.0","0","0","54704","","null","","","null","73","","NaN","","","","","","","","","","","","","",""
"","response","","html-keyboard-response","464","402083","0.0-1.0-662.0-0.0","0","0","54704","","11","","","68","73","","","2","73","training","adjacent","BA","2","1","Q.jpg","O.jpg","1","0","0","",""
"","feedback","","html-keyboard-response","465","403098","0.0-1.0-663.0-0.0","0","0","54704","","null","","","null","73","","","","","","","","","","","","","","","",""
"","time_out","","html-keyboard-response","466","405109","0.0-1.0-665.0-0.0","0","0","54704","","null","","","null","73","","","","","","","","","","","","","","","",""
"","ITI","","html-keyboard-response","467","406125","0.0-1.0-666.0","0","0","54704","","null","","","null","73","","","","","","","","","","","","","","","NaN",""
"","S1","","html-keyboard-response","468","406391","0.0-1.0-668.0","0","0","54704","","null","","","null","74","","","","","","","","","","","","","","","",""
"","ISI","","html-keyboard-response","469","406563","0.0-1.0-669.0","0","0","54704","","null","","","null","74","NaN","","","","","","","","","","","","","","",""
"","S2","","html-keyboard-response","470","406761","0.0-1.0-670.0","0","0","54704","","187","","","75","74","","k","2","74","training","adjacent","EF","5","6","L.jpg","M.jpg","0","1","0","",""
"","feedback","","html-keyboard-response","471","407774","0.0-1.0-672.0-0.0","0","0","54704","","null","","","null","74","","","","","","","","","","","","","","","",""
"","time_out","","html-keyboard-response","472","409784","0.0-1.0-674.0-0.0","0","0","54704","","null","","","null","74","","","","","","","","","","","","","","","",""
"","ITI","","html-keyboard-response","473","410798","0.0-1.0-675.0","0","0","54704","","null","","","null","74","","","","","","","","","","","","","","","NaN",""
"","S1","","html-keyboard-response","474","411062","0.0-1.0-677.0","0","0","54704","","null","","","null","75","","","","","","","","","","","","","","","",""
"","ISI","","html-keyboard-response","475","411218","0.0-1.0-678.0","0","0","54704","","null","","","null","75","NaN","","","","","","","","","","","","","","",""
"","S2","","html-keyboard-response","476","411423","0.0-1.0-679.0","0","0","54704","","202","","","68","75","","d","2","75","training","adjacent","AB","1","2","O.jpg","Q.jpg","1","1","1","",""
"","feedback","","html-keyboard-response","477","412440","0.0-1.0-681.0-0.0","0","0","54704","","null","","","null","75","","","","","","","","","","","","","","","",""
"","ITI","","html-keyboard-response","478","413456","0.0-1.0-684.0","0","0","54704","","null","","","null","75","","","","","","","","","","","","","","","NaN",""
"","S1","","html-keyboard-response","479","413717","0.0-1.0-686.0","0","0","54704","","null","","","null","76","","","","","","","","","","","","","","","",""
"","ISI","","html-keyboard-response","480","413873","0.0-1.0-687.0","0","0","54704","","null","","","null","76","NaN","","","","","","","","","","","","","","",""
"","S2","","html-keyboard-response","481","414142","0.0-1.0-688.0","0","0","54704","","null","","","null","76","","NaN","","","","","","","","","","","","","",""
"","response","","html-keyboard-response","482","414145","0.0-1.0-689.0-0.0","0","0","54704","","1","","","75","76","","","2","76","training","adjacent","ED","5","4","L.jpg","P.jpg","0","0","1","",""
"","feedback","","html-keyboard-response","483","415156","0.0-1.0-690.0-0.0","0","0","54704","","null","","","null","76","","","","","","","","","","","","","","","",""
"","ITI","","html-keyboard-response","484","416173","0.0-1.0-693.0","0","0","54704","","null","","","null","76","","","","","","","","","","","","","","","NaN",""
"","S1","","html-keyboard-response","485","416441","0.0-1.0-695.0","0","0","54704","","null","","","null","77","","","","","","","","","","","","","","","",""
"","ISI","","html-keyboard-response","486","416594","0.0-1.0-696.0","0","0","54704","","null","","","null","77","NaN","","","","","","","","","","","","","","",""
"","S2","","html-keyboard-response","487","416862","0.0-1.0-697.0","0","0","54704","","null","","","null","77","","NaN","","","","","","","","","","","","","",""
"","response","","html-keyboard-response","488","416878","0.0-1.0-698.0-0.0","0","0","54704","","8","","","68","77","","","2","77","training","adjacent","DC","4","3","P.jpg","R.jpg","1","0","0","",""
"","feedback","","html-keyboard-response","489","417890","0.0-1.0-699.0-0.0","0","0","54704","","null","","","null","77","","","","","","","","","","","","","","","",""
"","time_out","","html-keyboard-response","490","419906","0.0-1.0-701.0-0.0","0","0","54704","","null","","","null","77","","","","","","","","","","","","","","","",""
"","ITI","","html-keyboard-response","491","420918","0.0-1.0-702.0","0","0","54704","","null","","","null","77","","","","","","","","","","","","","","","NaN",""
"","S1","","html-keyboard-response","492","421184","0.0-1.0-704.0","0","0","54704","","null","","","null","78","","","","","","","","","","","","","","","",""
"","ISI","","html-keyboard-response","493","421353","0.0-1.0-705.0","0","0","54704","","null","","","null","78","NaN","","","","","","","","","","","","","","",""
"","S2","","html-keyboard-response","494","421616","0.0-1.0-706.0","0","0","54704","","null","","","null","78","","NaN","","","","","","","","","","","","","",""
"","response","","html-keyboard-response","495","421682","0.0-1.0-707.0-0.0","0","0","54704","","64","","","75","78","","","2","78","training","adjacent","CB","3","2","R.jpg","Q.jpg","0","0","1","",""
"","feedback","","html-keyboard-response","496","422694","0.0-1.0-708.0-0.0","0","0","54704","","null","","","null","78","","","","","","","","","","","","","","","",""
"","ITI","","html-keyboard-response","497","423713","0.0-1.0-711.0","0","0","54704","","null","","","null","78","","","","","","","","","","","","","","","NaN",""
"","S1","","html-keyboard-response","498","423979","0.0-1.0-713.0","0","0","54704","","null","","","null","79","","","","","","","","","","","","","","","",""
"","ISI","","html-keyboard-response","499","424134","0.0-1.0-714.0","0","0","54704","","null","","","null","79","NaN","","","","","","","","","","","","","","",""
"","S2","","html-keyboard-response","500","424401","0.0-1.0-715.0","0","0","54704","","null","","","null","79","","NaN","","","","","","","","","","","","","",""
"","response","","html-keyboard-response","501","424482","0.0-1.0-716.0-0.0","0","0","54704","","75","","","75","79","","","2","79","training","adjacent","DE","4","5","P.jpg","L.jpg","0","1","0","",""
"","feedback","","html-keyboard-response","502","425492","0.0-1.0-717.0-0.0","0","0","54704","","null","","","null","79","","","","","","","","","","","","","","","",""
"","time_out","","html-keyboard-response","503","427503","0.0-1.0-719.0-0.0","0","0","54704","","null","","","null","79","","","","","","","","","","","","","","","",""
"","ITI","","html-keyboard-response","504","428519","0.0-1.0-720.0","0","0","54704","","null","","","null","79","","","","","","","","","","","","","","","NaN",""
"","S1","","html-keyboard-response","505","428787","0.0-1.0-722.0","0","0","54704","","null","","","null","80","","","","","","","","","","","","","","","",""
"","ISI","","html-keyboard-response","506","428954","0.0-1.0-723.0","0","0","54704","","null","","","null","80","NaN","","","","","","","","","","","","","","",""
"","S2","","html-keyboard-response","507","429131","0.0-1.0-724.0","0","0","54704","","173","","","68","80","","d","2","80","training","adjacent","DE","4","5","P.jpg","L.jpg","1","1","1","",""
"","feedback","","html-keyboard-response","508","430142","0.0-1.0-726.0-0.0","0","0","54704","","null","","","null","80","","","","","","","","","","","","","","","",""
"","ITI","","html-keyboard-response","509","431156","0.0-1.0-729.0","0","0","54704","","null","","","null","80","","","","","","","","","","","","","","","NaN",""
"","S1","","html-keyboard-response","510","431419","0.0-1.0-731.0","0","0","54704","","null","","","null","81","","","","","","","","","","","","","","","",""
"","ISI","","html-keyboard-response","511","431575","0.0-1.0-732.0","0","0","54704","","null","","","null","81","NaN","","","","","","","","","","","","","","",""
"","S2","","html-keyboard-response","512","431832","0.0-1.0-733.0","0","0","54704","","254","","","75","81","","k","2","81","training","adjacent","BA","2","1","Q.jpg","O.jpg","0","0","1","",""
"","feedback","","html-keyboard-response","513","432840","0.0-1.0-735.0-0.0","0","0","54704","","null","","","null","81","","","","","","","","","","","","","","","",""
"","ITI","","html-keyboard-response","514","433857","0.0-1.0-738.0","0","0","54704","","null","","","null","81","","","","","","","","","","","","","","","NaN",""
"","S1","","html-keyboard-response","515","434122","0.0-1.0-740.0","0","0","54704","","null","","","null","82","","","","","","","","","","","","","","","",""
"","ISI","","html-keyboard-response","516","434289","0.0-1.0-741.0","0","0","54704","","null","","","null","82","NaN","","","","","","","","","","","","","","",""
"","S2","","html-keyboard-response","517","434557","0.0-1.0-742.0","0","0","54704","","null","","","null","82","","NaN","","","","","","","","","","","","","",""
"","response","","html-keyboard-response","518","435013","0.0-1.0-743.0-0.0","0","0","54704","","450","","","68","82","","","2","82","training","adjacent","FE","6","5","M.jpg","L.jpg","1","0","0","",""
"","feedback","","html-keyboard-response","519","436030","0.0-1.0-744.0-0.0","0","0","54704","","null","","","null","82","","","","","","","","","","","","","","","",""
"","time_out","","html-keyboard-response","520","438047","0.0-1.0-746.0-0.0","0","0","54704","","null","","","null","82","","","","","","","","","","","","","","","",""
"","ITI","","html-keyboard-response","521","439063","0.0-1.0-747.0","0","0","54704","","null","","","null","82","","","","","","","","","","","","","","","NaN",""
"","S1","","html-keyboard-response","522","439326","0.0-1.0-749.0","0","0","54704","","null","","","null","83","","","","","","","","","","","","","","","",""
"","ISI","","html-keyboard-response","523","439486","0.0-1.0-750.0","0","0","54704","","null","","","null","83","NaN","","","","","","","","","","","","","","",""
"","S2","","html-keyboard-response","524","439760","0.0-1.0-751.0","0","0","54704","","null","","","null","83","","NaN","","","","","","","","","","","","","",""
"","response","","html-keyboard-response","525","439776","0.0-1.0-752.0-0.0","0","0","54704","","11","","","75","83","","","2","83","training","adjacent","FE","6","5","M.jpg","L.jpg","0","0","1","",""
"","feedback","","html-keyboard-response","526","440786","0.0-1.0-753.0-0.0","0","0","54704","","null","","","null","83","","","","","","","","","","","","","","","",""
"","ITI","","html-keyboard-response","527","441809","0.0-1.0-756.0","0","0","54704","","null","","","null","83","","","","","","","","","","","","","","","NaN",""
"","S1","","html-keyboard-response","528","442070","0.0-1.0-758.0","0","0","54704","","null","","","null","84","","","","","","","","","","","","","","","",""
"","ISI","","html-keyboard-response","529","442226","0.0-1.0-759.0","0","0","54704","","null","","","null","84","NaN","","","","","","","","","","","","","","",""
"","S2","","html-keyboard-response","530","442489","0.0-1.0-760.0","0","0","54704","","null","","","null","84","","NaN","","","","","","","","","","","","","",""
"","response","","html-keyboard-response","531","442641","0.0-1.0-761.0-0.0","0","0","54704","","146","","","75","84","","","2","84","training","adjacent","DC","4","3","P.jpg","R.jpg","0","0","1","",""
"","feedback","","html-keyboard-response","532","443658","0.0-1.0-762.0-0.0","0","0","54704","","null","","","null","84","","","","","","","","","","","","","","","",""
"","ITI","","html-keyboard-response","533","444667","0.0-1.0-765.0","0","0","54704","","null","","","null","84","","","","","","","","","","","","","","","NaN",""
"","S1","","html-keyboard-response","534","444928","0.0-1.0-767.0","0","0","54704","","null","","","null","85","","","","","","","","","","","","","","","",""
"","ISI","","html-keyboard-response","535","445086","0.0-1.0-768.0","0","0","54704","","null","","","null","85","NaN","","","","","","","","","","","","","","",""
"","S2","","html-keyboard-response","536","445353","0.0-1.0-769.0","0","0","54704","","null","","","null","85","","NaN","","","","","","","","","","","","","",""
"","response","","html-keyboard-response","537","445591","0.0-1.0-770.0-0.0","0","0","54704","","231","","","68","85","","","2","85","training","adjacent","AB","1","2","O.jpg","Q.jpg","1","1","1","",""
"","feedback","","html-keyboard-response","538","446602","0.0-1.0-771.0-0.0","0","0","54704","","null","","","null","85","","","","","","","","","","","","","","","",""
"","ITI","","html-keyboard-response","539","447619","0.0-1.0-774.0","0","0","54704","","null","","","null","85","","","","","","","","","","","","","","","NaN",""
"","S1","","html-keyboard-response","540","447885","0.0-1.0-776.0","0","0","54704","","null","","","null","86","","","","","","","","","","","","","","","",""
"","ISI","","html-keyboard-response","541","448044","0.0-1.0-777.0","0","0","54704","","null","","","null","86","NaN","","","","","","","","","","","","","","",""
"","S2","","html-keyboard-response","542","448306","0.0-1.0-778.0","0","0","54704","","null","","","null","86","","NaN","","","","","","","","","","","","","",""
"","response","","html-keyboard-response","543","448446","0.0-1.0-779.0-0.0","0","0","54704","","134","","","75","86","","","2","86","training","adjacent","EF","5","6","L.jpg","M.jpg","0","1","0","",""
"","feedback","","html-keyboard-response","544","449461","0.0-1.0-780.0-0.0","0","0","54704","","null","","","null","86","","","","","","","","","","","","","","","",""
"","time_out","","html-keyboard-response","545","451467","0.0-1.0-782.0-0.0","0","0","54704","","null","","","null","86","","","","","","","","","","","","","","","",""
"","ITI","","html-keyboard-response","546","452476","0.0-1.0-783.0","0","0","54704","","null","","","null","86","","","","","","","","","","","","","","","NaN",""
"","S1","","html-keyboard-response","547","452741","0.0-1.0-785.0","0","0","54704","","null","","","null","87","","","","","","","","","","","","","","","",""
"","ISI","","html-keyboard-response","548","452897","0.0-1.0-786.0","0","0","54704","","null","","","null","87","NaN","","","","","","","","","","","","","","",""
"","S2","","html-keyboard-response","549","453160","0.0-1.0-787.0","0","0","54704","","null","","","null","87","","NaN","","","","","","","","","","","","","",""
"","response","","html-keyboard-response","550","453184","0.0-1.0-788.0-0.0","0","0","54704","","21","","","68","87","","","2","87","training","adjacent","CB","3","2","R.jpg","Q.jpg","1","0","0","",""
"","feedback","","html-keyboard-response","551","454190","0.0-1.0-789.0-0.0","0","0","54704","","null","","","null","87","","","","","","","","","","","","","","","",""
"","time_out","","html-keyboard-response","552","456200","0.0-1.0-791.0-0.0","0","0","54704","","null","","","null","87","","","","","","","","","","","","","","","",""
"","ITI","","html-keyboard-response","553","457216","0.0-1.0-792.0","0","0","54704","","null","","","null","87","","","","","","","","","","","","","","","NaN",""
"","S1","","html-keyboard-response","554","457478","0.0-1.0-794.0","0","0","54704","","null","","","null","88","","","","","","","","","","","","","","","",""
"","ISI","","html-keyboard-response","555","457635","0.0-1.0-795.0","0","0","54704","","null","","","null","88","NaN","","","","","","","","","","","","","","",""
"","S2","","html-keyboard-response","556","457786","0.0-1.0-796.0","0","0","54704","","140","","","75","88","","k","2","88","training","adjacent","FG","6","7","M.jpg","N.jpg","0","1","0","",""
"","feedback","","html-keyboard-response","557","458804","0.0-1.0-798.0-0.0","0","0","54704","","null","","","null","88","","","","","","","","","","","","","","","",""
"","time_out","","html-keyboard-response","558","460819","0.0-1.0-800.0-0.0","0","0","54704","","null","","","null","88","","","","","","","","","","","","","","","",""
"","ITI","","html-keyboard-response","559","461830","0.0-1.0-801.0","0","0","54704","","null","","","null","88","","","","","","","","","","","","","","","NaN",""
"","S1","","html-keyboard-response","560","462096","0.0-1.0-803.0","0","0","54704","","null","","","null","89","","","","","","","","","","","","","","","",""
"","ISI","","html-keyboard-response","561","462267","0.0-1.0-804.0","0","0","54704","","null","","","null","89","NaN","","","","","","","","","","","","","","",""
"","S2","","html-keyboard-response","562","462534","0.0-1.0-805.0","0","0","54704","","null","","","null","89","","NaN","","","","","","","","","","","","","",""
"","response","","html-keyboard-response","563","462868","0.0-1.0-806.0-0.0","0","0","54704","","329","","","68","89","","","2","89","training","adjacent","EF","5","6","L.jpg","M.jpg","1","1","1","",""
"","feedback","","html-keyboard-response","564","463877","0.0-1.0-807.0-0.0","0","0","54704","","null","","","null","89","","","","","","","","","","","","","","","",""
"","ITI","","html-keyboard-response","565","464890","0.0-1.0-810.0","0","0","54704","","null","","","null","89","","","","","","","","","","","","","","","NaN",""
"","S1","","html-keyboard-response","566","465156","0.0-1.0-812.0","0","0","54704","","null","","","null","90","","","","","","","","","","","","","","","",""
"","ISI","","html-keyboard-response","567","465328","0.0-1.0-813.0","0","0","54704","","null","","","null","90","NaN","","","","","","","","","","","","","","",""
"","S2","","html-keyboard-response","568","465595","0.0-1.0-814.0","0","0","54704","","null","","","null","90","","NaN","","","","","","","","","","","","","",""
"","response","","html-keyboard-response","569","465971","0.0-1.0-815.0-0.0","0","0","54704","","372","","","75","90","","","2","90","training","adjacent","BA","2","1","Q.jpg","O.jpg","0","0","1","",""
"","feedback","","html-keyboard-response","570","466984","0.0-1.0-816.0-0.0","0","0","54704","","null","","","null","90","","","","","","","","","","","","","","","",""
"","ITI","","html-keyboard-response","571","467997","0.0-1.0-819.0","0","0","54704","","null","","","null","90","","","","","","","","","","","","","","","NaN",""
"","S1","","html-keyboard-response","572","468263","0.0-1.0-821.0","0","0","54704","","null","","","null","91","","","","","","","","","","","","","","","",""
"","ISI","","html-keyboard-response","573","468419","0.0-1.0-822.0","0","0","54704","","null","","","null","91","NaN","","","","","","","","","","","","","","",""
"","S2","","html-keyboard-response","574","468682","0.0-1.0-823.0","0","0","54704","","null","","","null","91","","NaN","","","","","","","","","","","","","",""
"","response","","html-keyboard-response","575","469032","0.0-1.0-824.0-0.0","0","0","54704","","348","","","68","91","","","2","91","training","adjacent","GF","7","6","N.jpg","M.jpg","1","0","0","",""
"","feedback","","html-keyboard-response","576","470042","0.0-1.0-825.0-0.0","0","0","54704","","null","","","null","91","","","","","","","","","","","","","","","",""
"","time_out","","html-keyboard-response","577","472060","0.0-1.0-827.0-0.0","0","0","54704","","null","","","null","91","","","","","","","","","","","","","","","",""
"","ITI","","html-keyboard-response","578","473079","0.0-1.0-828.0","0","0","54704","","null","","","null","91","","","","","","","","","","","","","","","NaN",""
"","S1","","html-keyboard-response","579","473346","0.0-1.0-830.0","0","0","54704","","null","","","null","92","","","","","","","","","","","","","","","",""
"","ISI","","html-keyboard-response","580","473515","0.0-1.0-831.0","0","0","54704","","null","","","null","92","NaN","","","","","","","","","","","","","","",""
"","S2","","html-keyboard-response","581","473781","0.0-1.0-832.0","0","0","54704","","null","","","null","92","","NaN","","","","","","","","","","","","","",""
"","response","","html-keyboard-response","582","473878","0.0-1.0-833.0-0.0","0","0","54704","","86","","","75","92","","","2","92","training","adjacent","BC","2","3","Q.jpg","R.jpg","0","1","0","",""
