"success","ttype","start_time","trial_type","trial_index","time_elapsed","internal_node_id","warning","missed_checkup","PID","view_history","rt","responses","repeat_instructions","key_press","index","keypress_isi","keypress_S2","block","trial_num","phase","group_type","pair_type","S1_stim","S2_stim","S1_img","S2_img","S1_chosen","S1_higher","accuracy","keypress_iti","total_bonus_tally"
"true","full_screen","d03082023hr1609","fullscreen","0","11073","0.0-0.0","0","0","72105","","","","","","","","","","","","","","","","","","","","","",""
"","instructions","","instructions","1","55119","0.0-1.0-0.0-0.0","0","0","72105","[{""page_index"":0,""viewing_time"":4682},{""page_index"":1,""viewing_time"":25283},{""page_index"":2,""viewing_time"":10487},{""page_index"":3,""viewing_time"":3586}]","44040","","","","","","","","","","","","","","","","","","","",""
"","comprehension_check","","survey-multi-choice","2","86142","0.0-1.0-0.0-1.0","0","0","72105","","31014","{""Q0"":""True"",""Q1"":""K"",""Q2"":""Once the second image appears and while the screen 'MAKE A CHOICE' is shown"",""Q3"":""Green mark"",""Q4"":""either D or K""}","0","","","","","","","","","","","","","","","","","",""
"","start_exp","","html-keyboard-response","3","88722","0.0-1.0-1.0","0","0","72105","","2573","","","32","","","","","","","","","","","","","","","","",""
"","S1","","html-keyboard-response","4","88979","0.0-1.0-2.0","0","0","72105","","null","","","null","0","","","","","","","","","","","","","","","",""
"","ISI","","html-keyboard-response","5","89134","0.0-1.0-3.0","0","0","72105","","null","","","null","0","NaN","","","","","","","","","","","","","","",""
"","S2","","html-keyboard-response","6","89390","0.0-1.0-4.0","0","0","72105","","null","","","null","0","","NaN","","","","","","","","","","","","","",""
"","response","","html-keyboard-response","7","89488","0.0-1.0-5.0-0.0","0","0","72105","","93","","","75","0","","","1","0","training","adjacent","FE","6","5","R.jpg","Q.jpg","1","0","0","",""
"","feedback","","html-keyboard-response","8","90494","0.0-1.0-6.0-0.0","0","0","72105","","null","","","null","0","","","","","","","","","","","","","","","",""
"","time_out","","html-keyboard-response","9","92498","0.0-1.0-8.0-0.0","0","0","72105","","null","","","null","0","","","","","","","","","","","","","","","",""
"","ITI","","html-keyboard-response","10","93503","0.0-1.0-9.0","0","0","72105","","600","","","32","0","","","","","","","","","","","","","","","space",""
"","S1","","html-keyboard-response","11","93759","0.0-1.0-11.0","0","0","72105","","null","","","null","1","","","","","","","","","","","","","","","",""
"","ISI","","html-keyboard-response","12","93914","0.0-1.0-12.0","0","0","72105","","null","","","null","1","NaN","","","","","","","","","","","","","","",""
"","S2","","html-keyboard-response","13","94013","0.0-1.0-13.0","0","0","72105","","95","","","75","1","","k","1","1","training","adjacent","GF","7","6","P.jpg","R.jpg","1","0","0","",""
"","feedback","","html-keyboard-response","14","95018","0.0-1.0-15.0-0.0","0","0","72105","","null","","","null","1","","","","","","","","","","","","","","","",""
"","time_out","","html-keyboard-response","15","97023","0.0-1.0-17.0-0.0","0","0","72105","","null","","","null","1","","","","","","","","","","","","","","","",""
"","ITI","","html-keyboard-response","16","98028","0.0-1.0-18.0","0","0","72105","","null","","","null","1","","","","","","","","","","","","","","","NaN",""
"","S1","","html-keyboard-response","17","98283","0.0-1.0-20.0","0","0","72105","","null","","","null","2","","","","","","","","","","","","","","","",""
"","ISI","","html-keyboard-response","18","98437","0.0-1.0-21.0","0","0","72105","","62","","","75","2","k","","","","","","","","","","","","","","",""
"","S2","","html-keyboard-response","19","98692","0.0-1.0-22.0","0","0","72105","","null","","","null","2","","NaN","","","","","","","","","","","","","",""
"","response","","html-keyboard-response","20","98956","0.0-1.0-23.0-0.0","0","0","72105","","258","","","68","2","","","1","2","training","adjacent","CD","3","4","N.jpg","O.jpg","0","1","0","",""
"","feedback","","html-keyboard-response","21","99961","0.0-1.0-24.0-0.0","0","0","72105","","null","","","null","2","","","","","","","","","","","","","","","",""
"","time_out","","html-keyboard-response","22","101967","0.0-1.0-26.0-0.0","0","0","72105","","null","","","null","2","","","","","","","","","","","","","","","",""
"","ITI","","html-keyboard-response","23","102971","0.0-1.0-27.0","0","0","72105","","447","","","75","2","","","","","","","","","","","","","","","k",""
"","S1","","html-keyboard-response","24","103227","0.0-1.0-29.0","0","0","72105","","null","","","null","3","","","","","","","","","","","","","","","",""
"","ISI","","html-keyboard-response","25","103382","0.0-1.0-30.0","0","0","72105","","106","","","68","3","d","","","","","","","","","","","","","","",""
"","S2","","html-keyboard-response","26","103638","0.0-1.0-31.0","0","0","72105","","null","","","null","3","","NaN","","","","","","","","","","","","","",""
"","response","","html-keyboard-response","27","104017","0.0-1.0-32.0-0.0","0","0","72105","","375","","","68","3","","","1","3","training","adjacent","CB","3","2","N.jpg","M.jpg","0","0","1","",""
"","feedback","","html-keyboard-response","28","105022","0.0-1.0-33.0-0.0","0","0","72105","","null","","","null","3","","","","","","","","","","","","","","","",""
"","ITI","","html-keyboard-response","29","106027","0.0-1.0-36.0","0","0","72105","","null","","","null","3","","","","","","","","","","","","","","","NaN",""
"","S1","","html-keyboard-response","30","106282","0.0-1.0-38.0","0","0","72105","","null","","","null","4","","","","","","","","","","","","","","","",""
"","ISI","","html-keyboard-response","31","106437","0.0-1.0-39.0","0","0","72105","","null","","","null","4","NaN","","","","","","","","","","","","","","",""
"","S2","","html-keyboard-response","32","106693","0.0-1.0-40.0","0","0","72105","","null","","","null","4","","NaN","","","","","","","","","","","","","",""
"","response","","html-keyboard-response","33","106728","0.0-1.0-41.0-0.0","0","0","72105","","30","","","68","4","","","1","4","training","adjacent","DC","4","3","O.jpg","N.jpg","0","0","1","",""
"","feedback","","html-keyboard-response","34","107732","0.0-1.0-42.0-0.0","0","0","72105","","null","","","null","4","","","","","","","","","","","","","","","",""
"","ITI","","html-keyboard-response","35","108737","0.0-1.0-45.0","0","0","72105","","null","","","null","4","","","","","","","","","","","","","","","NaN",""
"","S1","","html-keyboard-response","36","108992","0.0-1.0-47.0","0","0","72105","","null","","","null","5","","","","","","","","","","","","","","","",""
"","ISI","","html-keyboard-response","37","109147","0.0-1.0-48.0","0","0","72105","","null","","","null","5","NaN","","","","","","","","","","","","","","",""
"","S2","","html-keyboard-response","38","109402","0.0-1.0-49.0","0","0","72105","","null","","","null","5","","NaN","","","","","","","","","","","","","",""
"","response","","html-keyboard-response","39","109487","0.0-1.0-50.0-0.0","0","0","72105","","80","","","68","5","","","1","5","training","adjacent","BC","2","3","M.jpg","N.jpg","0","1","0","",""
"","feedback","","html-keyboard-response","40","110493","0.0-1.0-51.0-0.0","0","0","72105","","null","","","null","5","","","","","","","","","","","","","","","",""
"","time_out","","html-keyboard-response","41","112498","0.0-1.0-53.0-0.0","0","0","72105","","null","","","null","5","","","","","","","","","","","","","","","",""
"","ITI","","html-keyboard-response","42","113506","0.0-1.0-54.0","0","0","72105","","null","","","null","5","","","","","","","","","","","","","","","NaN",""
"","S1","","html-keyboard-response","43","113762","0.0-1.0-56.0","0","0","72105","","null","","","null","6","","","","","","","","","","","","","","","",""
"","ISI","","html-keyboard-response","44","113917","0.0-1.0-57.0","0","0","72105","","69","","","75","6","k","","","","","","","","","","","","","","",""
"","S2","","html-keyboard-response","45","114172","0.0-1.0-58.0","0","0","72105","","null","","","null","6","","NaN","","","","","","","","","","","","","",""
"","response","","html-keyboard-response","46","114548","0.0-1.0-59.0-0.0","0","0","72105","","371","","","75","6","","","1","6","training","adjacent","FG","6","7","R.jpg","P.jpg","1","1","1","",""
"","feedback","","html-keyboard-response","47","115553","0.0-1.0-60.0-0.0","0","0","72105","","null","","","null","6","","","","","","","","","","","","","","","",""
"","ITI","","html-keyboard-response","48","116556","0.0-1.0-63.0","0","0","72105","","null","","","null","6","","","","","","","","","","","","","","","NaN",""
"","S1","","html-keyboard-response","49","116812","0.0-1.0-65.0","0","0","72105","","null","","","null","7","","","","","","","","","","","","","","","",""
"","ISI","","html-keyboard-response","50","116968","0.0-1.0-66.0","0","0","72105","","null","","","null","7","NaN","","","","","","","","","","","","","","",""
"","S2","","html-keyboard-response","51","117223","0.0-1.0-67.0","0","0","72105","","null","","","null","7","","NaN","","","","","","","","","","","","","",""
"","response","","html-keyboard-response","52","117578","0.0-1.0-68.0-0.0","0","0","72105","","350","","","75","7","","","1","7","training","adjacent","DE","4","5","O.jpg","Q.jpg","1","1","1","",""
"","feedback","","html-keyboard-response","53","118583","0.0-1.0-69.0-0.0","0","0","72105","","null","","","null","7","","","","","","","","","","","","","","","",""
"","ITI","","html-keyboard-response","54","119588","0.0-1.0-72.0","0","0","72105","","null","","","null","7","","","","","","","","","","","","","","","NaN",""
"","S1","","html-keyboard-response","55","119843","0.0-1.0-74.0","0","0","72105","","null","","","null","8","","","","","","","","","","","","","","","",""
"","ISI","","html-keyboard-response","56","119998","0.0-1.0-75.0","0","0","72105","","null","","","null","8","NaN","","","","","","","","","","","","","","",""
"","S2","","html-keyboard-response","57","120254","0.0-1.0-76.0","0","0","72105","","null","","","null","8","","NaN","","","","","","","","","","","","","",""
"","response","","html-keyboard-response","58","120306","0.0-1.0-77.0-0.0","0","0","72105","","47","","","68","8","","","1","8","training","adjacent","CB","3","2","N.jpg","M.jpg","0","0","1","",""
"","feedback","","html-keyboard-response","59","121312","0.0-1.0-78.0-0.0","0","0","72105","","null","","","null","8","","","","","","","","","","","","","","","",""
"","ITI","","html-keyboard-response","60","122317","0.0-1.0-81.0","0","0","72105","","null","","","null","8","","","","","","","","","","","","","","","NaN",""
"","S1","","html-keyboard-response","61","122572","0.0-1.0-83.0","0","0","72105","","null","","","null","9","","","","","","","","","","","","","","","",""
"","ISI","","html-keyboard-response","62","122727","0.0-1.0-84.0","0","0","72105","","null","","","null","9","NaN","","","","","","","","","","","","","","",""
"","S2","","html-keyboard-response","63","122982","0.0-1.0-85.0","0","0","72105","","null","","","null","9","","NaN","","","","","","","","","","","","","",""
"","response","","html-keyboard-response","64","123152","0.0-1.0-86.0-0.0","0","0","72105","","165","","","75","9","","","1","9","training","adjacent","EF","5","6","Q.jpg","R.jpg","1","1","1","",""
"","feedback","","html-keyboard-response","65","124157","0.0-1.0-87.0-0.0","0","0","72105","","null","","","null","9","","","","","","","","","","","","","","","",""
"","ITI","","html-keyboard-response","66","125162","0.0-1.0-90.0","0","0","72105","","null","","","null","9","","","","","","","","","","","","","","","NaN",""
"","S1","","html-keyboard-response","67","125417","0.0-1.0-92.0","0","0","72105","","null","","","null","10","","","","","","","","","","","","","","","",""
"","ISI","","html-keyboard-response","68","125572","0.0-1.0-93.0","0","0","72105","","null","","","null","10","NaN","","","","","","","","","","","","","","",""
"","S2","","html-keyboard-response","69","125828","0.0-1.0-94.0","0","0","72105","","null","","","null","10","","NaN","","","","","","","","","","","","","",""
"","response","","html-keyboard-response","70","125832","0.0-1.0-95.0-0.0","0","0","72105","","0","","","68","10","","","1","10","training","adjacent","BA","2","1","M.jpg","L.jpg","0","0","1","",""
"","feedback","","html-keyboard-response","71","126837","0.0-1.0-96.0-0.0","0","0","72105","","null","","","null","10","","","","","","","","","","","","","","","",""
"","ITI","","html-keyboard-response","72","127842","0.0-1.0-99.0","0","0","72105","","null","","","null","10","","","","","","","","","","","","","","","NaN",""
"","S1","","html-keyboard-response","73","128097","0.0-1.0-101.0","0","0","72105","","null","","","null","11","","","","","","","","","","","","","","","",""
"","ISI","","html-keyboard-response","74","128252","0.0-1.0-102.0","0","0","72105","","null","","","null","11","NaN","","","","","","","","","","","","","","",""
"","S2","","html-keyboard-response","75","128508","0.0-1.0-103.0","0","0","72105","","null","","","null","11","","NaN","","","","","","","","","","","","","",""
"","response","","html-keyboard-response","76","128533","0.0-1.0-104.0-0.0","0","0","72105","","20","","","75","11","","","1","11","training","adjacent","DE","4","5","O.jpg","Q.jpg","1","1","1","",""
"","feedback","","html-keyboard-response","77","129538","0.0-1.0-105.0-0.0","0","0","72105","","null","","","null","11","","","","","","","","","","","","","","","",""
"","ITI","","html-keyboard-response","78","130544","0.0-1.0-108.0","0","0","72105","","null","","","null","11","","","","","","","","","","","","","","","NaN",""
"","S1","","html-keyboard-response","79","130798","0.0-1.0-110.0","0","0","72105","","null","","","null","12","","","","","","","","","","","","","","","",""
"","ISI","","html-keyboard-response","80","130952","0.0-1.0-111.0","0","0","72105","","null","","","null","12","NaN","","","","","","","","","","","","","","",""
"","S2","","html-keyboard-response","81","131149","0.0-1.0-112.0","0","0","72105","","191","","","68","12","","d","1","12","training","adjacent","AB","1","2","L.jpg","M.jpg","0","1","0","",""
"","feedback","","html-keyboard-response","82","132154","0.0-1.0-114.0-0.0","0","0","72105","","null","","","null","12","","","","","","","","","","","","","","","",""
"","time_out","","html-keyboard-response","83","134159","0.0-1.0-116.0-0.0","0","0","72105","","null","","","null","12","","","","","","","","","","","","","","","",""
"","ITI","","html-keyboard-response","84","135164","0.0-1.0-117.0","0","0","72105","","null","","","null","12","","","","","","","","","","","","","","","NaN",""
"","S1","","html-keyboard-response","85","135418","0.0-1.0-119.0","0","0","72105","","null","","","null","13","","","","","","","","","","","","","","","",""
"","ISI","","html-keyboard-response","86","135572","0.0-1.0-120.0","0","0","72105","","null","","","null","13","NaN","","","","","","","","","","","","","","",""
"","S2","","html-keyboard-response","87","135828","0.0-1.0-121.0","0","0","72105","","null","","","null","13","","NaN","","","","","","","","","","","","","",""
"","response","","html-keyboard-response","88","135833","0.0-1.0-122.0-0.0","0","0","72105","","0","","","75","13","","","1","13","training","adjacent","CD","3","4","N.jpg","O.jpg","1","1","1","",""
"","feedback","","html-keyboard-response","89","136838","0.0-1.0-123.0-0.0","0","0","72105","","null","","","null","13","","","","","","","","","","","","","","","",""
"","ITI","","html-keyboard-response","90","137845","0.0-1.0-126.0","0","0","72105","","null","","","null","13","","","","","","","","","","","","","","","NaN",""
"","S1","","html-keyboard-response","91","138098","0.0-1.0-128.0","0","0","72105","","null","","","null","14","","","","","","","","","","","","","","","",""
"","ISI","","html-keyboard-response","92","138252","0.0-1.0-129.0","0","0","72105","","null","","","null","14","NaN","","","","","","","","","","","","","","",""
"","S2","","html-keyboard-response","93","138462","0.0-1.0-130.0","0","0","72105","","207","","","68","14","","d","1","14","training","adjacent","FG","6","7","R.jpg","P.jpg","0","1","0","",""
"","feedback","","html-keyboard-response","94","139466","0.0-1.0-132.0-0.0","0","0","72105","","null","","","null","14","","","","","","","","","","","","","","","",""
"","time_out","","html-keyboard-response","95","141470","0.0-1.0-134.0-0.0","0","0","72105","","null","","","null","14","","","","","","","","","","","","","","","",""
"","ITI","","html-keyboard-response","96","142474","0.0-1.0-135.0","0","0","72105","","null","","","null","14","","","","","","","","","","","","","","","NaN",""
"","S1","","html-keyboard-response","97","142728","0.0-1.0-137.0","0","0","72105","","null","","","null","15","","","","","","","","","","","","","","","",""
"","ISI","","html-keyboard-response","98","142883","0.0-1.0-138.0","0","0","72105","","null","","","null","15","NaN","","","","","","","","","","","","","","",""
"","S2","","html-keyboard-response","99","143138","0.0-1.0-139.0","0","0","72105","","null","","","null","15","","NaN","","","","","","","","","","","","","",""
"","response","","html-keyboard-response","100","143181","0.0-1.0-140.0-0.0","0","0","72105","","39","","","75","15","","","1","15","training","adjacent","DE","4","5","O.jpg","Q.jpg","1","1","1","",""
"","feedback","","html-keyboard-response","101","144186","0.0-1.0-141.0-0.0","0","0","72105","","null","","","null","15","","","","","","","","","","","","","","","",""
"","ITI","","html-keyboard-response","102","145191","0.0-1.0-144.0","0","0","72105","","null","","","null","15","","","","","","","","","","","","","","","NaN",""
"","S1","","html-keyboard-response","103","145447","0.0-1.0-146.0","0","0","72105","","null","","","null","16","","","","","","","","","","","","","","","",""
"","ISI","","html-keyboard-response","104","145602","0.0-1.0-147.0","0","0","72105","","null","","","null","16","NaN","","","","","","","","","","","","","","",""
"","S2","","html-keyboard-response","105","145858","0.0-1.0-148.0","0","0","72105","","null","","","null","16","","NaN","","","","","","","","","","","","","",""
"","response","","html-keyboard-response","106","146132","0.0-1.0-149.0-0.0","0","0","72105","","270","","","68","16","","","1","16","training","adjacent","GF","7","6","P.jpg","R.jpg","0","0","1","",""
"","feedback","","html-keyboard-response","107","147138","0.0-1.0-150.0-0.0","0","0","72105","","null","","","null","16","","","","","","","","","","","","","","","",""
"","ITI","","html-keyboard-response","108","148142","0.0-1.0-153.0","0","0","72105","","null","","","null","16","","","","","","","","","","","","","","","NaN",""
"","S1","","html-keyboard-response","109","148398","0.0-1.0-155.0","0","0","72105","","null","","","null","17","","","","","","","","","","","","","","","",""
"","ISI","","html-keyboard-response","110","148552","0.0-1.0-156.0","0","0","72105","","null","","","null","17","NaN","","","","","","","","","","","","","","",""
"","S2","","html-keyboard-response","111","148808","0.0-1.0-157.0","0","0","72105","","null","","","null","17","","NaN","","","","","","","","","","","","","",""
"","response","","html-keyboard-response","112","149139","0.0-1.0-158.0-0.0","0","0","72105","","326","","","75","17","","","1","17","training","adjacent","FG","6","7","R.jpg","P.jpg","1","1","1","",""
"","feedback","","html-keyboard-response","113","150145","0.0-1.0-159.0-0.0","0","0","72105","","null","","","null","17","","","","","","","","","","","","","","","",""
"","ITI","","html-keyboard-response","114","151150","0.0-1.0-162.0","0","0","72105","","null","","","null","17","","","","","","","","","","","","","","","NaN",""
"","S1","","html-keyboard-response","115","151406","0.0-1.0-164.0","0","0","72105","","null","","","null","18","","","","","","","","","","","","","","","",""
"","ISI","","html-keyboard-response","116","151561","0.0-1.0-165.0","0","0","72105","","null","","","null","18","NaN","","","","","","","","","","","","","","",""
"","S2","","html-keyboard-response","117","151817","0.0-1.0-166.0","0","0","72105","","null","","","null","18","","NaN","","","","","","","","","","","","","",""
"","response","","html-keyboard-response","118","152066","0.0-1.0-167.0-0.0","0","0","72105","","244","","","68","18","","","1","18","training","adjacent","FG","6","7","R.jpg","P.jpg","0","1","0","",""
"","feedback","","html-keyboard-response","119","153072","0.0-1.0-168.0-0.0","0","0","72105","","null","","","null","18","","","","","","","","","","","","","","","",""
"","time_out","","html-keyboard-response","120","155077","0.0-1.0-170.0-0.0","0","0","72105","","null","","","null","18","","","","","","","","","","","","","","","",""
"","ITI","","html-keyboard-response","121","156081","0.0-1.0-171.0","0","0","72105","","null","","","null","18","","","","","","","","","","","","","","","NaN",""
"","S1","","html-keyboard-response","122","156338","0.0-1.0-173.0","0","0","72105","","null","","","null","19","","","","","","","","","","","","","","","",""
"","ISI","","html-keyboard-response","123","156493","0.0-1.0-174.0","0","0","72105","","null","","","null","19","NaN","","","","","","","","","","","","","","",""
"","S2","","html-keyboard-response","124","156749","0.0-1.0-175.0","0","0","72105","","null","","","null","19","","NaN","","","","","","","","","","","","","",""
"","response","","html-keyboard-response","125","156863","0.0-1.0-176.0-0.0","0","0","72105","","109","","","75","19","","","1","19","training","adjacent","ED","5","4","Q.jpg","O.jpg","1","0","0","",""
"","feedback","","html-keyboard-response","126","157868","0.0-1.0-177.0-0.0","0","0","72105","","null","","","null","19","","","","","","","","","","","","","","","",""
"","time_out","","html-keyboard-response","127","159873","0.0-1.0-179.0-0.0","0","0","72105","","null","","","null","19","","","","","","","","","","","","","","","",""
"","ITI","","html-keyboard-response","128","160878","0.0-1.0-180.0","0","0","72105","","null","","","null","19","","","","","","","","","","","","","","","NaN",""
"","S1","","html-keyboard-response","129","161133","0.0-1.0-182.0","0","0","72105","","null","","","null","20","","","","","","","","","","","","","","","",""
"","ISI","","html-keyboard-response","130","161287","0.0-1.0-183.0","0","0","72105","","null","","","null","20","NaN","","","","","","","","","","","","","","",""
"","S2","","html-keyboard-response","131","161543","0.0-1.0-184.0","0","0","72105","","null","","","null","20","","NaN","","","","","","","","","","","","","",""
"","response","","html-keyboard-response","132","161619","0.0-1.0-185.0-0.0","0","0","72105","","72","","","75","20","","","1","20","training","adjacent","FE","6","5","R.jpg","Q.jpg","1","0","0","",""
"","feedback","","html-keyboard-response","133","162624","0.0-1.0-186.0-0.0","0","0","72105","","null","","","null","20","","","","","","","","","","","","","","","",""
"","time_out","","html-keyboard-response","134","164629","0.0-1.0-188.0-0.0","0","0","72105","","null","","","null","20","","","","","","","","","","","","","","","",""
"","ITI","","html-keyboard-response","135","165634","0.0-1.0-189.0","0","0","72105","","null","","","null","20","","","","","","","","","","","","","","","NaN",""
"","S1","","html-keyboard-response","136","165890","0.0-1.0-191.0","0","0","72105","","null","","","null","21","","","","","","","","","","","","","","","",""
"","ISI","","html-keyboard-response","137","166045","0.0-1.0-192.0","0","0","72105","","null","","","null","21","NaN","","","","","","","","","","","","","","",""
"","S2","","html-keyboard-response","138","166301","0.0-1.0-193.0","0","0","72105","","null","","","null","21","","NaN","","","","","","","","","","","","","",""
"","response","","html-keyboard-response","139","166602","0.0-1.0-194.0-0.0","0","0","72105","","296","","","68","21","","","1","21","training","adjacent","AB","1","2","L.jpg","M.jpg","0","1","0","",""
"","feedback","","html-keyboard-response","140","167607","0.0-1.0-195.0-0.0","0","0","72105","","null","","","null","21","","","","","","","","","","","","","","","",""
"","time_out","","html-keyboard-response","141","169612","0.0-1.0-197.0-0.0","0","0","72105","","null","","","null","21","","","","","","","","","","","","","","","",""
"","ITI","","html-keyboard-response","142","170617","0.0-1.0-198.0","0","0","72105","","null","","","null","21","","","","","","","","","","","","","","","NaN",""
"","S1","","html-keyboard-response","143","170872","0.0-1.0-200.0","0","0","72105","","null","","","null","22","","","","","","","","","","","","","","","",""
"","ISI","","html-keyboard-response","144","171027","0.0-1.0-201.0","0","0","72105","","null","","","null","22","NaN","","","","","","","","","","","","","","",""
"","S2","","html-keyboard-response","145","171283","0.0-1.0-202.0","0","0","72105","","null","","","null","22","","NaN","","","","","","","","","","","","","",""
"","response","","html-keyboard-response","146","171513","0.0-1.0-203.0-0.0","0","0","72105","","224","","","68","22","","","1","22","training","adjacent","CD","3","4","N.jpg","O.jpg","0","1","0","",""
"","feedback","","html-keyboard-response","147","172518","0.0-1.0-204.0-0.0","0","0","72105","","null","","","null","22","","","","","","","","","","","","","","","",""
"","time_out","","html-keyboard-response","148","174523","0.0-1.0-206.0-0.0","0","0","72105","","null","","","null","22","","","","","","","","","","","","","","","",""
"","ITI","","html-keyboard-response","149","175528","0.0-1.0-207.0","0","0","72105","","null","","","null","22","","","","","","","","","","","","","","","NaN",""
"","S1","","html-keyboard-response","150","175783","0.0-1.0-209.0","0","0","72105","","null","","","null","23","","","","","","","","","","","","","","","",""
"","ISI","","html-keyboard-response","151","175938","0.0-1.0-210.0","0","0","72105","","null","","","null","23","NaN","","","","","","","","","","","","","","",""
"","S2","","html-keyboard-response","152","176193","0.0-1.0-211.0","0","0","72105","","null","","","null","23","","NaN","","","","","","","","","","","","","",""
"","response","","html-keyboard-response","153","176613","0.0-1.0-212.0-0.0","0","0","72105","","415","","","75","23","","","1","23","training","adjacent","DC","4","3","O.jpg","N.jpg","1","0","0","",""
"","feedback","","html-keyboard-response","154","177620","0.0-1.0-213.0-0.0","0","0","72105","","null","","","null","23","","","","","","","","","","","","","","","",""
"","time_out","","html-keyboard-response","155","179624","0.0-1.0-215.0-0.0","0","0","72105","","null","","","null","23","","","","","","","","","","","","","","","",""
"","ITI","","html-keyboard-response","156","180630","0.0-1.0-216.0","0","0","72105","","null","","","null","23","","","","","","","","","","","","","","","NaN",""
"","S1","","html-keyboard-response","157","180884","0.0-1.0-218.0","0","0","72105","","null","","","null","24","","","","","","","","","","","","","","","",""
"","ISI","","html-keyboard-response","158","181037","0.0-1.0-219.0","0","0","72105","","null","","","null","24","NaN","","","","","","","","","","","","","","",""
"","S2","","html-keyboard-response","159","181291","0.0-1.0-220.0","0","0","72105","","null","","","null","24","","NaN","","","","","","","","","","","","","",""
"","response","","html-keyboard-response","160","181554","0.0-1.0-221.0-0.0","0","0","72105","","259","","","75","24","","","1","24","training","adjacent","BC","2","3","M.jpg","N.jpg","1","1","1","",""
"","feedback","","html-keyboard-response","161","182558","0.0-1.0-222.0-0.0","0","0","72105","","null","","","null","24","","","","","","","","","","","","","","","",""
"","ITI","","html-keyboard-response","162","183562","0.0-1.0-225.0","0","0","72105","","null","","","null","24","","","","","","","","","","","","","","","NaN",""
"","S1","","html-keyboard-response","163","183817","0.0-1.0-227.0","0","0","72105","","null","","","null","25","","","","","","","","","","","","","","","",""
"","ISI","","html-keyboard-response","164","183972","0.0-1.0-228.0","0","0","72105","","null","","","null","25","NaN","","","","","","","","","","","","","","",""
"","S2","","html-keyboard-response","165","184226","0.0-1.0-229.0","0","0","72105","","null","","","null","25","","NaN","","","","","","","","","","","","","",""
"","response","","html-keyboard-response","166","184488","0.0-1.0-230.0-0.0","0","0","72105","","257","","","68","25","","","1","25","training","adjacent","ED","5","4","Q.jpg","O.jpg","0","0","1","",""
"","feedback","","html-keyboard-response","167","185492","0.0-1.0-231.0-0.0","0","0","72105","","null","","","null","25","","","","","","","","","","","","","","","",""
"","ITI","","html-keyboard-response","168","186497","0.0-1.0-234.0","0","0","72105","","null","","","null","25","","","","","","","","","","","","","","","NaN",""
"","S1","","html-keyboard-response","169","186752","0.0-1.0-236.0","0","0","72105","","null","","","null","26","","","","","","","","","","","","","","","",""
"","ISI","","html-keyboard-response","170","186907","0.0-1.0-237.0","0","0","72105","","null","","","null","26","NaN","","","","","","","","","","","","","","",""
"","S2","","html-keyboard-response","171","187161","0.0-1.0-238.0","0","0","72105","","null","","","null","26","","NaN","","","","","","","","","","","","","",""
"","response","","html-keyboard-response","172","187397","0.0-1.0-239.0-0.0","0","0","72105","","233","","","75","26","","","1","26","training","adjacent","EF","5","6","Q.jpg","R.jpg","1","1","1","",""
"","feedback","","html-keyboard-response","173","188403","0.0-1.0-240.0-0.0","0","0","72105","","null","","","null","26","","","","","","","","","","","","","","","",""
"","ITI","","html-keyboard-response","174","189408","0.0-1.0-243.0","0","0","72105","","null","","","null","26","","","","","","","","","","","","","","","NaN",""
"","S1","","html-keyboard-response","175","189664","0.0-1.0-245.0","0","0","72105","","null","","","null","27","","","","","","","","","","","","","","","",""
"","ISI","","html-keyboard-response","176","189819","0.0-1.0-246.0","0","0","72105","","null","","","null","27","NaN","","","","","","","","","","","","","","",""
"","S2","","html-keyboard-response","177","190074","0.0-1.0-247.0","0","0","72105","","null","","","null","27","","NaN","","","","","","","","","","","","","",""
"","response","","html-keyboard-response","178","190102","0.0-1.0-248.0-0.0","0","0","72105","","24","","","68","27","","","1","27","training","adjacent","BC","2","3","M.jpg","N.jpg","0","1","0","",""
"","feedback","","html-keyboard-response","179","191108","0.0-1.0-249.0-0.0","0","0","72105","","null","","","null","27","","","","","","","","","","","","","","","",""
"","time_out","","html-keyboard-response","180","193113","0.0-1.0-251.0-0.0","0","0","72105","","null","","","null","27","","","","","","","","","","","","","","","",""
"","ITI","","html-keyboard-response","181","194118","0.0-1.0-252.0","0","0","72105","","null","","","null","27","","","","","","","","","","","","","","","NaN",""
"","S1","","html-keyboard-response","182","194373","0.0-1.0-254.0","0","0","72105","","null","","","null","28","","","","","","","","","","","","","","","",""
"","ISI","","html-keyboard-response","183","194528","0.0-1.0-255.0","0","0","72105","","null","","","null","28","NaN","","","","","","","","","","","","","","",""
"","S2","","html-keyboard-response","184","194783","0.0-1.0-256.0","0","0","72105","","null","","","null","28","","NaN","","","","","","","","","","","","","",""
"","response","","html-keyboard-response","185","195996","0.0-1.0-257.0-0.0","0","0","72105","","1209","","","68","28","","","1","28","training","adjacent","AB","1","2","L.jpg","M.jpg","0","1","0","",""
"","feedback","","html-keyboard-response","186","197000","0.0-1.0-258.0-0.0","0","0","72105","","null","","","null","28","","","","","","","","","","","","","","","",""
"","time_out","","html-keyboard-response","187","199005","0.0-1.0-260.0-0.0","0","0","72105","","null","","","null","28","","","","","","","","","","","","","","","",""
"","ITI","","html-keyboard-response","188","200011","0.0-1.0-261.0","0","0","72105","","null","","","null","28","","","","","","","","","","","","","","","NaN",""
"","S1","","html-keyboard-response","189","200266","0.0-1.0-263.0","0","0","72105","","null","","","null","29","","","","","","","","","","","","","","","",""
"","ISI","","html-keyboard-response","190","200422","0.0-1.0-264.0","0","0","72105","","null","","","null","29","NaN","","","","","","","","","","","","","","",""
"","S2","","html-keyboard-response","191","200677","0.0-1.0-265.0","0","0","72105","","null","","","null","29","","NaN","","","","","","","","","","","","","",""
"","response","","html-keyboard-response","192","202432","0.0-1.0-266.0-0.0","0","0","72105","","null","","","null","29","","","1","29","training","adjacent","EF","5","6","Q.jpg","R.jpg","NaN","1","0","",""
"","too_slow_prompt","","html-keyboard-response","193","203437","0.0-1.0-268.0-0.0","1","0","72105","","null","","","null","","","","","","","","","","","","","","","","",""
"","time_out","","html-keyboard-response","194","205442","0.0-1.0-269.0-0.0","0","0","72105","","null","","","null","29","","","","","","","","","","","","","","","",""
"","ITI","","html-keyboard-response","195","206447","0.0-1.0-270.0","0","0","72105","","null","","","null","29","","","","","","","","","","","","","","","NaN",""
"","S1","","html-keyboard-response","196","206702","0.0-1.0-272.0","0","0","72105","","null","","","null","30","","","","","","","","","","","","","","","",""
"","ISI","","html-keyboard-response","197","206856","0.0-1.0-273.0","0","0","72105","","null","","","null","30","NaN","","","","","","","","","","","","","","",""
"","S2","","html-keyboard-response","198","207112","0.0-1.0-274.0","0","0","72105","","null","","","null","30","","NaN","","","","","","","","","","","","","",""
"","response","","html-keyboard-response","199","207478","0.0-1.0-275.0-0.0","0","0","72105","","361","","","68","30","","","1","30","training","adjacent","ED","5","4","Q.jpg","O.jpg","0","0","1","",""
"","feedback","","html-keyboard-response","200","208484","0.0-1.0-276.0-0.0","0","0","72105","","null","","","null","30","","","","","","","","","","","","","","","",""
"","ITI","","html-keyboard-response","201","209489","0.0-1.0-279.0","0","0","72105","","null","","","null","30","","","","","","","","","","","","","","","NaN",""
"","S1","","html-keyboard-response","202","209745","0.0-1.0-281.0","0","0","72105","","null","","","null","31","","","","","","","","","","","","","","","",""
"","ISI","","html-keyboard-response","203","209899","0.0-1.0-282.0","0","0","72105","","null","","","null","31","NaN","","","","","","","","","","","","","","",""
"","S2","","html-keyboard-response","204","210154","0.0-1.0-283.0","0","0","72105","","null","","","null","31","","NaN","","","","","","","","","","","","","",""
"","response","","html-keyboard-response","205","210427","0.0-1.0-284.0-0.0","0","0","72105","","268","","","68","31","","","1","31","training","adjacent","FE","6","5","R.jpg","Q.jpg","0","0","1","",""
"","feedback","","html-keyboard-response","206","211433","0.0-1.0-285.0-0.0","0","0","72105","","null","","","null","31","","","","","","","","","","","","","","","",""
"","ITI","","html-keyboard-response","207","212439","0.0-1.0-288.0","0","0","72105","","null","","","null","31","","","","","","","","","","","","","","","NaN",""
"","S1","","html-keyboard-response","208","212694","0.0-1.0-290.0","0","0","72105","","null","","","null","32","","","","","","","","","","","","","","","",""
"","ISI","","html-keyboard-response","209","212849","0.0-1.0-291.0","0","0","72105","","null","","","null","32","NaN","","","","","","","","","","","","","","",""
"","S2","","html-keyboard-response","210","213105","0.0-1.0-292.0","0","0","72105","","null","","","null","32","","NaN","","","","","","","","","","","","","",""
"","response","","html-keyboard-response","211","213386","0.0-1.0-293.0-0.0","0","0","72105","","276","","","68","32","","","1","32","training","adjacent","BA","2","1","M.jpg","L.jpg","0","0","1","",""
"","feedback","","html-keyboard-response","212","214392","0.0-1.0-294.0-0.0","0","0","72105","","null","","","null","32","","","","","","","","","","","","","","","",""
"","ITI","","html-keyboard-response","213","215397","0.0-1.0-297.0","0","0","72105","","null","","","null","32","","","","","","","","","","","","","","","NaN",""
"","S1","","html-keyboard-response","214","215652","0.0-1.0-299.0","0","0","72105","","null","","","null","33","","","","","","","","","","","","","","","",""
"","ISI","","html-keyboard-response","215","215807","0.0-1.0-300.0","0","0","72105","","null","","","null","33","NaN","","","","","","","","","","","","","","",""
"","S2","","html-keyboard-response","216","216063","0.0-1.0-301.0","0","0","72105","","null","","","null","33","","NaN","","","","","","","","","","","","","",""
"","response","","html-keyboard-response","217","216121","0.0-1.0-302.0-0.0","0","0","72105","","53","","","68","33","","","1","33","training","adjacent","BC","2","3","M.jpg","N.jpg","0","1","0","",""
"","feedback","","html-keyboard-response","218","217127","0.0-1.0-303.0-0.0","0","0","72105","","null","","","null","33","","","","","","","","","","","","","","","",""
"","time_out","","html-keyboard-response","219","219132","0.0-1.0-305.0-0.0","0","0","72105","","null","","","null","33","","","","","","","","","","","","","","","",""
"","ITI","","html-keyboard-response","220","220137","0.0-1.0-306.0","0","0","72105","","null","","","null","33","","","","","","","","","","","","","","","NaN",""
"","S1","","html-keyboard-response","221","220392","0.0-1.0-308.0","0","0","72105","","null","","","null","34","","","","","","","","","","","","","","","",""
"","ISI","","html-keyboard-response","222","220547","0.0-1.0-309.0","0","0","72105","","null","","","null","34","NaN","","","","","","","","","","","","","","",""
"","S2","","html-keyboard-response","223","220802","0.0-1.0-310.0","0","0","72105","","null","","","null","34","","NaN","","","","","","","","","","","","","",""
"","response","","html-keyboard-response","224","221238","0.0-1.0-311.0-0.0","0","0","72105","","432","","","75","34","","","1","34","training","adjacent","DC","4","3","O.jpg","N.jpg","1","0","0","",""
"","feedback","","html-keyboard-response","225","222243","0.0-1.0-312.0-0.0","0","0","72105","","null","","","null","34","","","","","","","","","","","","","","","",""
"","time_out","","html-keyboard-response","226","224249","0.0-1.0-314.0-0.0","0","0","72105","","null","","","null","34","","","","","","","","","","","","","","","",""
"","ITI","","html-keyboard-response","227","225254","0.0-1.0-315.0","0","0","72105","","null","","","null","34","","","","","","","","","","","","","","","NaN",""
"","S1","","html-keyboard-response","228","225510","0.0-1.0-317.0","0","0","72105","","null","","","null","35","","","","","","","","","","","","","","","",""
"","ISI","","html-keyboard-response","229","225665","0.0-1.0-318.0","0","0","72105","","null","","","null","35","NaN","","","","","","","","","","","","","","",""
"","S2","","html-keyboard-response","230","225921","0.0-1.0-319.0","0","0","72105","","null","","","null","35","","NaN","","","","","","","","","","","","","",""
"","response","","html-keyboard-response","231","226140","0.0-1.0-320.0-0.0","0","0","72105","","212","","","68","35","","","1","35","training","adjacent","CB","3","2","N.jpg","M.jpg","0","0","1","",""
"","feedback","","html-keyboard-response","232","227146","0.0-1.0-321.0-0.0","0","0","72105","","null","","","null","35","","","","","","","","","","","","","","","",""
"","ITI","","html-keyboard-response","233","228152","0.0-1.0-324.0","0","0","72105","","null","","","null","35","","","","","","","","","","","","","","","NaN",""
"","S1","","html-keyboard-response","234","228407","0.0-1.0-326.0","0","0","72105","","null","","","null","36","","","","","","","","","","","","","","","",""
"","ISI","","html-keyboard-response","235","228562","0.0-1.0-327.0","0","0","72105","","null","","","null","36","NaN","","","","","","","","","","","","","","",""
"","S2","","html-keyboard-response","236","228818","0.0-1.0-328.0","0","0","72105","","null","","","null","36","","NaN","","","","","","","","","","","","","",""
"","response","","html-keyboard-response","237","229058","0.0-1.0-329.0-0.0","0","0","72105","","235","","","75","36","","","1","36","training","adjacent","GF","7","6","P.jpg","R.jpg","1","0","0","",""
"","feedback","","html-keyboard-response","238","230063","0.0-1.0-330.0-0.0","0","0","72105","","null","","","null","36","","","","","","","","","","","","","","","",""
"","time_out","","html-keyboard-response","239","232067","0.0-1.0-332.0-0.0","0","0","72105","","null","","","null","36","","","","","","","","","","","","","","","",""
"","ITI","","html-keyboard-response","240","233072","0.0-1.0-333.0","0","0","72105","","null","","","null","36","","","","","","","","","","","","","","","NaN",""
"","S1","","html-keyboard-response","241","233327","0.0-1.0-335.0","0","0","72105","","null","","","null","37","","","","","","","","","","","","","","","",""
"","ISI","","html-keyboard-response","242","233482","0.0-1.0-336.0","0","0","72105","","null","","","null","37","NaN","","","","","","","","","","","","","","",""
"","S2","","html-keyboard-response","243","233519","0.0-1.0-337.0","0","0","72105","","33","","","68","37","","d","1","37","training","adjacent","AB","1","2","L.jpg","M.jpg","0","1","0","",""
"","feedback","","html-keyboard-response","244","234525","0.0-1.0-339.0-0.0","0","0","72105","","null","","","null","37","","","","","","","","","","","","","","","",""
"","time_out","","html-keyboard-response","245","236530","0.0-1.0-341.0-0.0","0","0","72105","","null","","","null","37","","","","","","","","","","","","","","","",""
"","ITI","","html-keyboard-response","246","237535","0.0-1.0-342.0","0","0","72105","","904","","","75","37","","","","","","","","","","","","","","","k",""
"","S1","","html-keyboard-response","247","237791","0.0-1.0-344.0","0","0","72105","","null","","","null","38","","","","","","","","","","","","","","","",""
"","ISI","","html-keyboard-response","248","237946","0.0-1.0-345.0","0","0","72105","","null","","","null","38","NaN","","","","","","","","","","","","","","",""
"","S2","","html-keyboard-response","249","238201","0.0-1.0-346.0","0","0","72105","","null","","","null","38","","NaN","","","","","","","","","","","","","",""
"","response","","html-keyboard-response","250","238637","0.0-1.0-347.0-0.0","0","0","72105","","430","","","68","38","","","1","38","training","adjacent","CD","3","4","N.jpg","O.jpg","0","1","0","",""
"","feedback","","html-keyboard-response","251","239643","0.0-1.0-348.0-0.0","0","0","72105","","null","","","null","38","","","","","","","","","","","","","","","",""
"","time_out","","html-keyboard-response","252","241648","0.0-1.0-350.0-0.0","0","0","72105","","null","","","null","38","","","","","","","","","","","","","","","",""
"","ITI","","html-keyboard-response","253","242653","0.0-1.0-351.0","0","0","72105","","null","","","null","38","","","","","","","","","","","","","","","NaN",""
"","S1","","html-keyboard-response","254","242909","0.0-1.0-353.0","0","0","72105","","null","","","null","39","","","","","","","","","","","","","","","",""
"","ISI","","html-keyboard-response","255","243064","0.0-1.0-354.0","0","0","72105","","null","","","null","39","NaN","","","","","","","","","","","","","","",""
"","S2","","html-keyboard-response","256","243319","0.0-1.0-355.0","0","0","72105","","null","","","null","39","","NaN","","","","","","","","","","","","","",""
"","response","","html-keyboard-response","257","243362","0.0-1.0-356.0-0.0","0","0","72105","","38","","","75","39","","","1","39","training","adjacent","BA","2","1","M.jpg","L.jpg","1","0","0","",""
"","feedback","","html-keyboard-response","258","244368","0.0-1.0-357.0-0.0","0","0","72105","","null","","","null","39","","","","","","","","","","","","","","","",""
"","time_out","","html-keyboard-response","259","246374","0.0-1.0-359.0-0.0","0","0","72105","","null","","","null","39","","","","","","","","","","","","","","","",""
"","ITI","","html-keyboard-response","260","247379","0.0-1.0-360.0","0","0","72105","","null","","","null","39","","","","","","","","","","","","","","","NaN",""
"","S1","","html-keyboard-response","261","247635","0.0-1.0-362.0","0","0","72105","","null","","","null","40","","","","","","","","","","","","","","","",""
"","ISI","","html-keyboard-response","262","247790","0.0-1.0-363.0","0","0","72105","","null","","","null","40","NaN","","","","","","","","","","","","","","",""
"","S2","","html-keyboard-response","263","248045","0.0-1.0-364.0","0","0","72105","","null","","","null","40","","NaN","","","","","","","","","","","","","",""
"","response","","html-keyboard-response","264","248329","0.0-1.0-365.0-0.0","0","0","72105","","278","","","68","40","","","1","40","training","adjacent","FE","6","5","R.jpg","Q.jpg","0","0","1","",""
"","feedback","","html-keyboard-response","265","249335","0.0-1.0-366.0-0.0","0","0","72105","","null","","","null","40","","","","","","","","","","","","","","","",""
"","ITI","","html-keyboard-response","266","250341","0.0-1.0-369.0","0","0","72105","","null","","","null","40","","","","","","","","","","","","","","","NaN",""
"","S1","","html-keyboard-response","267","250596","0.0-1.0-371.0","0","0","72105","","null","","","null","41","","","","","","","","","","","","","","","",""
"","ISI","","html-keyboard-response","268","250751","0.0-1.0-372.0","0","0","72105","","null","","","null","41","NaN","","","","","","","","","","","","","","",""
"","S2","","html-keyboard-response","269","251007","0.0-1.0-373.0","0","0","72105","","null","","","null","41","","NaN","","","","","","","","","","","","","",""
"","response","","html-keyboard-response","270","252761","0.0-1.0-374.0-0.0","0","0","72105","","null","","","null","41","","","1","41","training","adjacent","GF","7","6","P.jpg","R.jpg","NaN","0","0","",""
"","too_slow_prompt","","html-keyboard-response","271","253766","0.0-1.0-376.0-0.0","1","0","72105","","null","","","null","","","","","","","","","","","","","","","","",""
"","time_out","","html-keyboard-response","272","255770","0.0-1.0-377.0-0.0","0","0","72105","","null","","","null","41","","","","","","","","","","","","","","","",""
"","ITI","","html-keyboard-response","273","256775","0.0-1.0-378.0","0","0","72105","","null","","","null","41","","","","","","","","","","","","","","","NaN",""
"","S1","","html-keyboard-response","274","257031","0.0-1.0-380.0","0","0","72105","","null","","","null","42","","","","","","","","","","","","","","","",""
"","ISI","","html-keyboard-response","275","257186","0.0-1.0-381.0","0","0","72105","","null","","","null","42","NaN","","","","","","","","","","","","","","",""
"","S2","","html-keyboard-response","276","257442","0.0-1.0-382.0","0","0","72105","","null","","","null","42","","NaN","","","","","","","","","","","","","",""
"","response","","html-keyboard-response","277","257867","0.0-1.0-383.0-0.0","0","0","72105","","420","","","75","42","","","1","42","training","adjacent","DC","4","3","O.jpg","N.jpg","1","0","0","",""
"","feedback","","html-keyboard-response","278","258873","0.0-1.0-384.0-0.0","0","0","72105","","null","","","null","42","","","","","","","","","","","","","","","",""
"","time_out","","html-keyboard-response","279","260879","0.0-1.0-386.0-0.0","0","0","72105","","null","","","null","42","","","","","","","","","","","","","","","",""
"","ITI","","html-keyboard-response","280","261884","0.0-1.0-387.0","0","0","72105","","null","","","null","42","","","","","","","","","","","","","","","NaN",""
"","S1","","html-keyboard-response","281","262141","0.0-1.0-389.0","0","0","72105","","null","","","null","43","","","","","","","","","","","","","","","",""
"","ISI","","html-keyboard-response","282","262296","0.0-1.0-390.0","0","0","72105","","null","","","null","43","NaN","","","","","","","","","","","","","","",""
"","S2","","html-keyboard-response","283","262552","0.0-1.0-391.0","0","0","72105","","null","","","null","43","","NaN","","","","","","","","","","","","","",""
"","response","","html-keyboard-response","284","262969","0.0-1.0-392.0-0.0","0","0","72105","","412","","","68","43","","","1","43","training","adjacent","CB","3","2","N.jpg","M.jpg","0","0","1","",""
"","feedback","","html-keyboard-response","285","263974","0.0-1.0-393.0-0.0","0","0","72105","","null","","","null","43","","","","","","","","","","","","","","","",""
"","ITI","","html-keyboard-response","286","264979","0.0-1.0-396.0","0","0","72105","","null","","","null","43","","","","","","","","","","","","","","","NaN",""
"","S1","","html-keyboard-response","287","265234","0.0-1.0-398.0","0","0","72105","","null","","","null","44","","","","","","","","","","","","","","","",""
"","ISI","","html-keyboard-response","288","265388","0.0-1.0-399.0","0","0","72105","","null","","","null","44","NaN","","","","","","","","","","","","","","",""
"","S2","","html-keyboard-response","289","265643","0.0-1.0-400.0","0","0","72105","","null","","","null","44","","NaN","","","","","","","","","","","","","",""
"","response","","html-keyboard-response","290","266224","0.0-1.0-401.0-0.0","0","0","72105","","574","","","75","44","","","1","44","training","adjacent","EF","5","6","Q.jpg","R.jpg","1","1","1","",""
"","feedback","","html-keyboard-response","291","267230","0.0-1.0-402.0-0.0","0","0","72105","","null","","","null","44","","","","","","","","","","","","","","","",""
"","ITI","","html-keyboard-response","292","268235","0.0-1.0-405.0","0","0","72105","","null","","","null","44","","","","","","","","","","","","","","","NaN",""
"","S1","","html-keyboard-response","293","268491","0.0-1.0-407.0","0","0","72105","","null","","","null","45","","","","","","","","","","","","","","","",""
"","ISI","","html-keyboard-response","294","268646","0.0-1.0-408.0","0","0","72105","","null","","","null","45","NaN","","","","","","","","","","","","","","",""
"","S2","","html-keyboard-response","295","268902","0.0-1.0-409.0","0","0","72105","","null","","","null","45","","NaN","","","","","","","","","","","","","",""
"","response","","html-keyboard-response","296","269349","0.0-1.0-410.0-0.0","0","0","72105","","443","","","75","45","","","1","45","training","adjacent","BA","2","1","M.jpg","L.jpg","1","0","0","",""
"","feedback","","html-keyboard-response","297","270355","0.0-1.0-411.0-0.0","0","0","72105","","null","","","null","45","","","","","","","","","","","","","","","",""
"","time_out","","html-keyboard-response","298","272360","0.0-1.0-413.0-0.0","0","0","72105","","null","","","null","45","","","","","","","","","","","","","","","",""
"","ITI","","html-keyboard-response","299","273367","0.0-1.0-414.0","0","0","72105","","null","","","null","45","","","","","","","","","","","","","","","NaN",""
"","S1","","html-keyboard-response","300","273622","0.0-1.0-416.0","0","0","72105","","null","","","null","46","","","","","","","","","","","","","","","",""
"","ISI","","html-keyboard-response","301","273777","0.0-1.0-417.0","0","0","72105","","null","","","null","46","NaN","","","","","","","","","","","","","","",""
"","S2","","html-keyboard-response","302","274032","0.0-1.0-418.0","0","0","72105","","null","","","null","46","","NaN","","","","","","","","","","","","","",""
"","response","","html-keyboard-response","303","274324","0.0-1.0-419.0-0.0","0","0","72105","","287","","","75","46","","","1","46","training","adjacent","DE","4","5","O.jpg","Q.jpg","1","1","1","",""
"","feedback","","html-keyboard-response","304","275330","0.0-1.0-420.0-0.0","0","0","72105","","null","","","null","46","","","","","","","","","","","","","","","",""
"","ITI","","html-keyboard-response","305","276336","0.0-1.0-423.0","0","0","72105","","null","","","null","46","","","","","","","","","","","","","","","NaN",""
"","S1","","html-keyboard-response","306","276591","0.0-1.0-425.0","0","0","72105","","null","","","null","47","","","","","","","","","","","","","","","",""
"","ISI","","html-keyboard-response","307","276746","0.0-1.0-426.0","0","0","72105","","null","","","null","47","NaN","","","","","","","","","","","","","","",""
"","S2","","html-keyboard-response","308","277002","0.0-1.0-427.0","0","0","72105","","null","","","null","47","","NaN","","","","","","","","","","","","","",""
"","response","","html-keyboard-response","309","277362","0.0-1.0-428.0-0.0","0","0","72105","","355","","","68","47","","","1","47","training","adjacent","ED","5","4","Q.jpg","O.jpg","0","0","1","",""
"","feedback","","html-keyboard-response","310","278368","0.0-1.0-429.0-0.0","0","0","72105","","null","","","null","47","","","","","","","","","","","","","","","",""
"","ITI","","html-keyboard-response","311","279373","0.0-1.0-432.0","0","0","72105","","null","","","null","47","","","","","","","","","","","","","","","NaN",""
"","block_over","","html-keyboard-response","312","284198","0.0-1.0-433.0-0.0","0","0","72105","","4818","","","32","47","","","","","","","","","","","","","","","",""
"","S1","","html-keyboard-response","313","284454","0.0-1.0-434.0","0","0","72105","","null","","","null","48","","","","","","","","","","","","","","","",""
"","ISI","","html-keyboard-response","314","284608","0.0-1.0-435.0","0","0","72105","","null","","","null","48","NaN","","","","","","","","","","","","","","",""
"","S2","","html-keyboard-response","315","284863","0.0-1.0-436.0","0","0","72105","","null","","","null","48","","NaN","","","","","","","","","","","","","",""
"","response","","html-keyboard-response","316","284884","0.0-1.0-437.0-0.0","0","0","72105","","17","","","75","48","","","2","48","training","adjacent","DE","4","5","O.jpg","Q.jpg","1","1","1","",""
"","feedback","","html-keyboard-response","317","285889","0.0-1.0-438.0-0.0","0","0","72105","","null","","","null","48","","","","","","","","","","","","","","","",""
"","ITI","","html-keyboard-response","318","286894","0.0-1.0-441.0","0","0","72105","","null","","","null","48","","","","","","","","","","","","","","","NaN",""
"","S1","","html-keyboard-response","319","287149","0.0-1.0-443.0","0","0","72105","","null","","","null","49","","","","","","","","","","","","","","","",""
"","ISI","","html-keyboard-response","320","287304","0.0-1.0-444.0","0","0","72105","","null","","","null","49","NaN","","","","","","","","","","","","","","",""
"","S2","","html-keyboard-response","321","287558","0.0-1.0-445.0","0","0","72105","","null","","","null","49","","NaN","","","","","","","","","","","","","",""
"","response","","html-keyboard-response","322","287843","0.0-1.0-446.0-0.0","0","0","72105","","281","","","68","49","","","2","49","training","adjacent","DC","4","3","O.jpg","N.jpg","0","0","1","",""
"","feedback","","html-keyboard-response","323","288848","0.0-1.0-447.0-0.0","0","0","72105","","null","","","null","49","","","","","","","","","","","","","","","",""
"","ITI","","html-keyboard-response","324","289854","0.0-1.0-450.0","0","0","72105","","null","","","null","49","","","","","","","","","","","","","","","NaN",""
"","S1","","html-keyboard-response","325","290109","0.0-1.0-452.0","0","0","72105","","null","","","null","50","","","","","","","","","","","","","","","",""
"","ISI","","html-keyboard-response","326","290264","0.0-1.0-453.0","0","0","72105","","null","","","null","50","NaN","","","","","","","","","","","","","","",""
"","S2","","html-keyboard-response","327","290520","0.0-1.0-454.0","0","0","72105","","null","","","null","50","","NaN","","","","","","","","","","","","","",""
"","response","","html-keyboard-response","328","290907","0.0-1.0-455.0-0.0","0","0","72105","","381","","","75","50","","","2","50","training","adjacent","EF","5","6","Q.jpg","R.jpg","1","1","1","",""
"","feedback","","html-keyboard-response","329","291912","0.0-1.0-456.0-0.0","0","0","72105","","null","","","null","50","","","","","","","","","","","","","","","",""
"","ITI","","html-keyboard-response","330","292918","0.0-1.0-459.0","0","0","72105","","null","","","null","50","","","","","","","","","","","","","","","NaN",""
"","S1","","html-keyboard-response","331","293173","0.0-1.0-461.0","0","0","72105","","null","","","null","51","","","","","","","","","","","","","","","",""
"","ISI","","html-keyboard-response","332","293328","0.0-1.0-462.0","0","0","72105","","null","","","null","51","NaN","","","","","","","","","","","","","","",""
"","S2","","html-keyboard-response","333","293584","0.0-1.0-463.0","0","0","72105","","null","","","null","51","","NaN","","","","","","","","","","","","","",""
"","response","","html-keyboard-response","334","294146","0.0-1.0-464.0-0.0","0","0","72105","","557","","","68","51","","","2","51","training","adjacent","AB","1","2","L.jpg","M.jpg","0","1","0","",""
"","feedback","","html-keyboard-response","335","295153","0.0-1.0-465.0-0.0","0","0","72105","","null","","","null","51","","","","","","","","","","","","","","","",""
"","time_out","","html-keyboard-response","336","297157","0.0-1.0-467.0-0.0","0","0","72105","","null","","","null","51","","","","","","","","","","","","","","","",""
"","ITI","","html-keyboard-response","337","298162","0.0-1.0-468.0","0","0","72105","","null","","","null","51","","","","","","","","","","","","","","","NaN",""
"","S1","","html-keyboard-response","338","298417","0.0-1.0-470.0","0","0","72105","","null","","","null","52","","","","","","","","","","","","","","","",""
"","ISI","","html-keyboard-response","339","298572","0.0-1.0-471.0","0","0","72105","","null","","","null","52","NaN","","","","","","","","","","","","","","",""
"","S2","","html-keyboard-response","340","298828","0.0-1.0-472.0","0","0","72105","","null","","","null","52","","NaN","","","","","","","","","","","","","",""
"","response","","html-keyboard-response","341","298919","0.0-1.0-473.0-0.0","0","0","72105","","87","","","68","52","","","2","52","training","adjacent","DC","4","3","O.jpg","N.jpg","0","0","1","",""
"","feedback","","html-keyboard-response","342","299924","0.0-1.0-474.0-0.0","0","0","72105","","null","","","null","52","","","","","","","","","","","","","","","",""
"","ITI","","html-keyboard-response","343","300930","0.0-1.0-477.0","0","0","72105","","null","","","null","52","","","","","","","","","","","","","","","NaN",""
"","S1","","html-keyboard-response","344","301186","0.0-1.0-479.0","0","0","72105","","null","","","null","53","","","","","","","","","","","","","","","",""
"","ISI","","html-keyboard-response","345","301340","0.0-1.0-480.0","0","0","72105","","null","","","null","53","NaN","","","","","","","","","","","","","","",""
"","S2","","html-keyboard-response","346","301596","0.0-1.0-481.0","0","0","72105","","null","","","null","53","","NaN","","","","","","","","","","","","","",""
"","response","","html-keyboard-response","347","302053","0.0-1.0-482.0-0.0","0","0","72105","","452","","","75","53","","","2","53","training","adjacent","DE","4","5","O.jpg","Q.jpg","1","1","1","",""
"","feedback","","html-keyboard-response","348","303059","0.0-1.0-483.0-0.0","0","0","72105","","null","","","null","53","","","","","","","","","","","","","","","",""
"","ITI","","html-keyboard-response","349","304065","0.0-1.0-486.0","0","0","72105","","null","","","null","53","","","","","","","","","","","","","","","NaN",""
"","S1","","html-keyboard-response","350","304320","0.0-1.0-488.0","0","0","72105","","null","","","null","54","","","","","","","","","","","","","","","",""
"","ISI","","html-keyboard-response","351","304475","0.0-1.0-489.0","0","0","72105","","null","","","null","54","NaN","","","","","","","","","","","","","","",""
"","S2","","html-keyboard-response","352","304730","0.0-1.0-490.0","0","0","72105","","null","","","null","54","","NaN","","","","","","","","","","","","","",""
"","response","","html-keyboard-response","353","305092","0.0-1.0-491.0-0.0","0","0","72105","","358","","","68","54","","","2","54","training","adjacent","EF","5","6","Q.jpg","R.jpg","0","1","0","",""
"","feedback","","html-keyboard-response","354","306098","0.0-1.0-492.0-0.0","0","0","72105","","null","","","null","54","","","","","","","","","","","","","","","",""
"","time_out","","html-keyboard-response","355","308104","0.0-1.0-494.0-0.0","0","0","72105","","null","","","null","54","","","","","","","","","","","","","","","",""
"","ITI","","html-keyboard-response","356","309108","0.0-1.0-495.0","0","0","72105","","null","","","null","54","","","","","","","","","","","","","","","NaN",""
"","S1","","html-keyboard-response","357","309363","0.0-1.0-497.0","0","0","72105","","null","","","null","55","","","","","","","","","","","","","","","",""
"","ISI","","html-keyboard-response","358","309518","0.0-1.0-498.0","0","0","72105","","null","","","null","55","NaN","","","","","","","","","","","","","","",""
"","S2","","html-keyboard-response","359","309773","0.0-1.0-499.0","0","0","72105","","null","","","null","55","","NaN","","","","","","","","","","","","","",""
"","response","","html-keyboard-response","360","310089","0.0-1.0-500.0-0.0","0","0","72105","","311","","","68","55","","","2","55","training","adjacent","ED","5","4","Q.jpg","O.jpg","0","0","1","",""
"","feedback","","html-keyboard-response","361","311094","0.0-1.0-501.0-0.0","0","0","72105","","null","","","null","55","","","","","","","","","","","","","","","",""
"","ITI","","html-keyboard-response","362","312099","0.0-1.0-504.0","0","0","72105","","null","","","null","55","","","","","","","","","","","","","","","NaN",""
"","S1","","html-keyboard-response","363","312354","0.0-1.0-506.0","0","0","72105","","null","","","null","56","","","","","","","","","","","","","","","",""
"","ISI","","html-keyboard-response","364","312511","0.0-1.0-507.0","0","0","72105","","null","","","null","56","NaN","","","","","","","","","","","","","","",""
"","S2","","html-keyboard-response","365","312765","0.0-1.0-508.0","0","0","72105","","null","","","null","56","","NaN","","","","","","","","","","","","","",""
"","response","","html-keyboard-response","366","313184","0.0-1.0-509.0-0.0","0","0","72105","","413","","","75","56","","","2","56","training","adjacent","CB","3","2","N.jpg","M.jpg","1","0","0","",""
"","feedback","","html-keyboard-response","367","314189","0.0-1.0-510.0-0.0","0","0","72105","","null","","","null","56","","","","","","","","","","","","","","","",""
"","time_out","","html-keyboard-response","368","316194","0.0-1.0-512.0-0.0","0","0","72105","","null","","","null","56","","","","","","","","","","","","","","","",""
"","ITI","","html-keyboard-response","369","317199","0.0-1.0-513.0","0","0","72105","","null","","","null","56","","","","","","","","","","","","","","","NaN",""
"","S1","","html-keyboard-response","370","317454","0.0-1.0-515.0","0","0","72105","","null","","","null","57","","","","","","","","","","","","","","","",""
"","ISI","","html-keyboard-response","371","317608","0.0-1.0-516.0","0","0","72105","","null","","","null","57","NaN","","","","","","","","","","","","","","",""
"","S2","","html-keyboard-response","372","317863","0.0-1.0-517.0","0","0","72105","","null","","","null","57","","NaN","","","","","","","","","","","","","",""
"","response","","html-keyboard-response","373","318157","0.0-1.0-518.0-0.0","0","0","72105","","288","","","75","57","","","2","57","training","adjacent","FG","6","7","R.jpg","P.jpg","1","1","1","",""
"","feedback","","html-keyboard-response","374","319162","0.0-1.0-519.0-0.0","0","0","72105","","null","","","null","57","","","","","","","","","","","","","","","",""
"","ITI","","html-keyboard-response","375","320168","0.0-1.0-522.0","0","0","72105","","null","","","null","57","","","","","","","","","","","","","","","NaN",""
"","S1","","html-keyboard-response","376","320423","0.0-1.0-524.0","0","0","72105","","null","","","null","58","","","","","","","","","","","","","","","",""
"","ISI","","html-keyboard-response","377","320578","0.0-1.0-525.0","0","0","72105","","null","","","null","58","NaN","","","","","","","","","","","","","","",""
"","S2","","html-keyboard-response","378","320833","0.0-1.0-526.0","0","0","72105","","null","","","null","58","","NaN","","","","","","","","","","","","","",""
"","response","","html-keyboard-response","379","322588","0.0-1.0-527.0-0.0","0","0","72105","","null","","","null","58","","","2","58","training","adjacent","AB","1","2","L.jpg","M.jpg","NaN","1","0","",""
"","too_slow_prompt","","html-keyboard-response","380","323595","0.0-1.0-529.0-0.0","1","0","72105","","null","","","null","","","","","","","","","","","","","","","","",""
"","time_out","","html-keyboard-response","381","325601","0.0-1.0-530.0-0.0","0","0","72105","","null","","","null","58","","","","","","","","","","","","","","","",""
"","ITI","","html-keyboard-response","382","326606","0.0-1.0-531.0","0","0","72105","","null","","","null","58","","","","","","","","","","","","","","","NaN",""
"","S1","","html-keyboard-response","383","326862","0.0-1.0-533.0","0","0","72105","","null","","","null","59","","","","","","","","","","","","","","","",""
"","ISI","","html-keyboard-response","384","327017","0.0-1.0-534.0","0","0","72105","","null","","","null","59","NaN","","","","","","","","","","","","","","",""
"","S2","","html-keyboard-response","385","327264","0.0-1.0-535.0","0","0","72105","","242","","","68","59","","d","2","59","training","adjacent","DE","4","5","O.jpg","Q.jpg","0","1","0","",""
"","feedback","","html-keyboard-response","386","328271","0.0-1.0-537.0-0.0","0","0","72105","","null","","","null","59","","","","","","","","","","","","","","","",""
"","time_out","","html-keyboard-response","387","330276","0.0-1.0-539.0-0.0","0","0","72105","","null","","","null","59","","","","","","","","","","","","","","","",""
"","ITI","","html-keyboard-response","388","331281","0.0-1.0-540.0","0","0","72105","","null","","","null","59","","","","","","","","","","","","","","","NaN",""
"","S1","","html-keyboard-response","389","331537","0.0-1.0-542.0","0","0","72105","","null","","","null","60","","","","","","","","","","","","","","","",""
"","ISI","","html-keyboard-response","390","331692","0.0-1.0-543.0","0","0","72105","","null","","","null","60","NaN","","","","","","","","","","","","","","",""
"","S2","","html-keyboard-response","391","331902","0.0-1.0-544.0","0","0","72105","","204","","","68","60","","d","2","60","training","adjacent","AB","1","2","L.jpg","M.jpg","0","1","0","",""
"","feedback","","html-keyboard-response","392","332908","0.0-1.0-546.0-0.0","0","0","72105","","null","","","null","60","","","","","","","","","","","","","","","",""
"","time_out","","html-keyboard-response","393","334913","0.0-1.0-548.0-0.0","0","0","72105","","null","","","null","60","","","","","","","","","","","","","","","",""
"","ITI","","html-keyboard-response","394","335918","0.0-1.0-549.0","0","0","72105","","null","","","null","60","","","","","","","","","","","","","","","NaN",""
"","S1","","html-keyboard-response","395","336175","0.0-1.0-551.0","0","0","72105","","null","","","null","61","","","","","","","","","","","","","","","",""
"","ISI","","html-keyboard-response","396","336329","0.0-1.0-552.0","0","0","72105","","null","","","null","61","NaN","","","","","","","","","","","","","","",""
"","S2","","html-keyboard-response","397","336564","0.0-1.0-553.0","0","0","72105","","230","","","75","61","","k","2","61","training","adjacent","BA","2","1","M.jpg","L.jpg","1","0","0","",""
"","feedback","","html-keyboard-response","398","337571","0.0-1.0-555.0-0.0","0","0","72105","","null","","","null","61","","","","","","","","","","","","","","","",""
"","time_out","","html-keyboard-response","399","339576","0.0-1.0-557.0-0.0","0","0","72105","","null","","","null","61","","","","","","","","","","","","","","","",""
"","ITI","","html-keyboard-response","400","340581","0.0-1.0-558.0","0","0","72105","","null","","","null","61","","","","","","","","","","","","","","","NaN",""
"","S1","","html-keyboard-response","401","340837","0.0-1.0-560.0","0","0","72105","","null","","","null","62","","","","","","","","","","","","","","","",""
"","ISI","","html-keyboard-response","402","340992","0.0-1.0-561.0","0","0","72105","","null","","","null","62","NaN","","","","","","","","","","","","","","",""
"","S2","","html-keyboard-response","403","341247","0.0-1.0-562.0","0","0","72105","","null","","","null","62","","NaN","","","","","","","","","","","","","",""
"","response","","html-keyboard-response","404","341263","0.0-1.0-563.0-0.0","0","0","72105","","12","","","75","62","","","2","62","training","adjacent","EF","5","6","Q.jpg","R.jpg","1","1","1","",""
"","feedback","","html-keyboard-response","405","342268","0.0-1.0-564.0-0.0","0","0","72105","","null","","","null","62","","","","","","","","","","","","","","","",""
"","ITI","","html-keyboard-response","406","343273","0.0-1.0-567.0","0","0","72105","","null","","","null","62","","","","","","","","","","","","","","","NaN",""
"","S1","","html-keyboard-response","407","343529","0.0-1.0-569.0","0","0","72105","","null","","","null","63","","","","","","","","","","","","","","","",""
"","ISI","","html-keyboard-response","408","343683","0.0-1.0-570.0","0","0","72105","","null","","","null","63","NaN","","","","","","","","","","","","","","",""
"","S2","","html-keyboard-response","409","343927","0.0-1.0-571.0","0","0","72105","","238","","","68","63","","d","2","63","training","adjacent","BC","2","3","M.jpg","N.jpg","0","1","0","",""
"","feedback","","html-keyboard-response","410","344933","0.0-1.0-573.0-0.0","0","0","72105","","null","","","null","63","","","","","","","","","","","","","","","",""
"","time_out","","html-keyboard-response","411","346939","0.0-1.0-575.0-0.0","0","0","72105","","null","","","null","63","","","","","","","","","","","","","","","",""
"","ITI","","html-keyboard-response","412","347944","0.0-1.0-576.0","0","0","72105","","null","","","null","63","","","","","","","","","","","","","","","NaN",""
"","S1","","html-keyboard-response","413","348199","0.0-1.0-578.0","0","0","72105","","null","","","null","64","","","","","","","","","","","","","","","",""
"","ISI","","html-keyboard-response","414","348354","0.0-1.0-579.0","0","0","72105","","null","","","null","64","NaN","","","","","","","","","","","","","","",""
"","S2","","html-keyboard-response","415","348609","0.0-1.0-580.0","0","0","72105","","null","","","null","64","","NaN","","","","","","","","","","","","","",""
"","response","","html-keyboard-response","416","348942","0.0-1.0-581.0-0.0","0","0","72105","","328","","","75","64","","","2","64","training","adjacent","FE","6","5","R.jpg","Q.jpg","1","0","0","",""
"","feedback","","html-keyboard-response","417","349949","0.0-1.0-582.0-0.0","0","0","72105","","null","","","null","64","","","","","","","","","","","","","","","",""
"","time_out","","html-keyboard-response","418","351955","0.0-1.0-584.0-0.0","0","0","72105","","null","","","null","64","","","","","","","","","","","","","","","",""
"","ITI","","html-keyboard-response","419","352962","0.0-1.0-585.0","0","0","72105","","null","","","null","64","","","","","","","","","","","","","","","NaN",""
"","S1","","html-keyboard-response","420","353218","0.0-1.0-587.0","0","0","72105","","null","","","null","65","","","","","","","","","","","","","","","",""
"","ISI","","html-keyboard-response","421","353373","0.0-1.0-588.0","0","0","72105","","null","","","null","65","NaN","","","","","","","","","","","","","","",""
"","S2","","html-keyboard-response","422","353629","0.0-1.0-589.0","0","0","72105","","null","","","null","65","","NaN","","","","","","","","","","","","","",""
"","response","","html-keyboard-response","423","353898","0.0-1.0-590.0-0.0","0","0","72105","","264","","","75","65","","","2","65","training","adjacent","BC","2","3","M.jpg","N.jpg","1","1","1","",""
"","feedback","","html-keyboard-response","424","354906","0.0-1.0-591.0-0.0","0","0","72105","","null","","","null","65","","","","","","","","","","","","","","","",""
"","ITI","","html-keyboard-response","425","355910","0.0-1.0-594.0","0","0","72105","","null","","","null","65","","","","","","","","","","","","","","","NaN",""
"","S1","","html-keyboard-response","426","356165","0.0-1.0-596.0","0","0","72105","","null","","","null","66","","","","","","","","","","","","","","","",""
"","ISI","","html-keyboard-response","427","356320","0.0-1.0-597.0","0","0","72105","","null","","","null","66","NaN","","","","","","","","","","","","","","",""
"","S2","","html-keyboard-response","428","356576","0.0-1.0-598.0","0","0","72105","","null","","","null","66","","NaN","","","","","","","","","","","","","",""
"","response","","html-keyboard-response","429","356745","0.0-1.0-599.0-0.0","0","0","72105","","164","","","68","66","","","2","66","training","adjacent","GF","7","6","P.jpg","R.jpg","0","0","1","",""
"","feedback","","html-keyboard-response","430","357751","0.0-1.0-600.0-0.0","0","0","72105","","null","","","null","66","","","","","","","","","","","","","","","",""
"","ITI","","html-keyboard-response","431","358756","0.0-1.0-603.0","0","0","72105","","null","","","null","66","","","","","","","","","","","","","","","NaN",""
"","S1","","html-keyboard-response","432","359011","0.0-1.0-605.0","0","0","72105","","null","","","null","67","","","","","","","","","","","","","","","",""
"","ISI","","html-keyboard-response","433","359166","0.0-1.0-606.0","0","0","72105","","null","","","null","67","NaN","","","","","","","","","","","","","","",""
"","S2","","html-keyboard-response","434","359422","0.0-1.0-607.0","0","0","72105","","null","","","null","67","","NaN","","","","","","","","","","","","","",""
"","response","","html-keyboard-response","435","359689","0.0-1.0-608.0-0.0","0","0","72105","","262","","","75","67","","","2","67","training","adjacent","CD","3","4","N.jpg","O.jpg","1","1","1","",""
"","feedback","","html-keyboard-response","436","360696","0.0-1.0-609.0-0.0","0","0","72105","","null","","","null","67","","","","","","","","","","","","","","","",""
"","ITI","","html-keyboard-response","437","361702","0.0-1.0-612.0","0","0","72105","","null","","","null","67","","","","","","","","","","","","","","","NaN",""
"","S1","","html-keyboard-response","438","361957","0.0-1.0-614.0","0","0","72105","","null","","","null","68","","","","","","","","","","","","","","","",""
"","ISI","","html-keyboard-response","439","362112","0.0-1.0-615.0","0","0","72105","","null","","","null","68","NaN","","","","","","","","","","","","","","",""
"","S2","","html-keyboard-response","440","362238","0.0-1.0-616.0","0","0","72105","","121","","","68","68","","d","2","68","training","adjacent","CB","3","2","N.jpg","M.jpg","0","0","1","",""
"","feedback","","html-keyboard-response","441","363244","0.0-1.0-618.0-0.0","0","0","72105","","null","","","null","68","","","","","","","","","","","","","","","",""
"","ITI","","html-keyboard-response","442","364250","0.0-1.0-621.0","0","0","72105","","null","","","null","68","","","","","","","","","","","","","","","NaN",""
"","S1","","html-keyboard-response","443","364506","0.0-1.0-623.0","0","0","72105","","null","","","null","69","","","","","","","","","","","","","","","",""
"","ISI","","html-keyboard-response","444","364661","0.0-1.0-624.0","0","0","72105","","null","","","null","69","NaN","","","","","","","","","","","","","","",""
"","S2","","html-keyboard-response","445","364917","0.0-1.0-625.0","0","0","72105","","null","","","null","69","","NaN","","","","","","","","","","","","","",""
"","response","","html-keyboard-response","446","364957","0.0-1.0-626.0-0.0","0","0","72105","","35","","","75","69","","","2","69","training","adjacent","EF","5","6","Q.jpg","R.jpg","1","1","1","",""
"","feedback","","html-keyboard-response","447","365963","0.0-1.0-627.0-0.0","0","0","72105","","null","","","null","69","","","","","","","","","","","","","","","",""
"","ITI","","html-keyboard-response","448","366970","0.0-1.0-630.0","0","0","72105","","null","","","null","69","","","","","","","","","","","","","","","NaN",""
"","S1","","html-keyboard-response","449","367226","0.0-1.0-632.0","0","0","72105","","null","","","null","70","","","","","","","","","","","","","","","",""
"","ISI","","html-keyboard-response","450","367381","0.0-1.0-633.0","0","0","72105","","null","","","null","70","NaN","","","","","","","","","","","","","","",""
"","S2","","html-keyboard-response","451","367637","0.0-1.0-634.0","0","0","72105","","null","","","null","70","","NaN","","","","","","","","","","","","","",""
"","response","","html-keyboard-response","452","367859","0.0-1.0-635.0-0.0","0","0","72105","","218","","","68","70","","","2","70","training","adjacent","GF","7","6","P.jpg","R.jpg","0","0","1","",""
"","feedback","","html-keyboard-response","453","368865","0.0-1.0-636.0-0.0","0","0","72105","","null","","","null","70","","","","","","","","","","","","","","","",""
"","ITI","","html-keyboard-response","454","369871","0.0-1.0-639.0","0","0","72105","","null","","","null","70","","","","","","","","","","","","","","","NaN",""
"","S1","","html-keyboard-response","455","370127","0.0-1.0-641.0","0","0","72105","","null","","","null","71","","","","","","","","","","","","","","","",""
"","ISI","","html-keyboard-response","456","370282","0.0-1.0-642.0","0","0","72105","","null","","","null","71","NaN","","","","","","","","","","","","","","",""
"","S2","","html-keyboard-response","457","370538","0.0-1.0-643.0","0","0","72105","","null","","","null","71","","NaN","","","","","","","","","","","","","",""
"","response","","html-keyboard-response","458","370554","0.0-1.0-644.0-0.0","0","0","72105","","12","","","75","71","","","2","71","training","adjacent","ED","5","4","Q.jpg","O.jpg","1","0","0","",""
"","feedback","","html-keyboard-response","459","371561","0.0-1.0-645.0-0.0","0","0","72105","","null","","","null","71","","","","","","","","","","","","","","","",""
"","time_out","","html-keyboard-response","460","373566","0.0-1.0-647.0-0.0","0","0","72105","","null","","","null","71","","","","","","","","","","","","","","","",""
"","ITI","","html-keyboard-response","461","374572","0.0-1.0-648.0","0","0","72105","","null","","","null","71","","","","","","","","","","","","","","","NaN",""
"","S1","","html-keyboard-response","462","374827","0.0-1.0-650.0","0","0","72105","","null","","","null","72","","","","","","","","","","","","","","","",""
"","ISI","","html-keyboard-response","463","374982","0.0-1.0-651.0","0","0","72105","","null","","","null","72","NaN","","","","","","","","","","","","","","",""
"","S2","","html-keyboard-response","464","375238","0.0-1.0-652.0","0","0","72105","","null","","","null","72","","NaN","","","","","","","","","","","","","",""
"","response","","html-keyboard-response","465","375527","0.0-1.0-653.0-0.0","0","0","72105","","284","","","75","72","","","2","72","training","adjacent","BA","2","1","M.jpg","L.jpg","1","0","0","",""
"","feedback","","html-keyboard-response","466","376533","0.0-1.0-654.0-0.0","0","0","72105","","null","","","null","72","","","","","","","","","","","","","","","",""
"","time_out","","html-keyboard-response","467","378539","0.0-1.0-656.0-0.0","0","0","72105","","null","","","null","72","","","","","","","","","","","","","","","",""
"","ITI","","html-keyboard-response","468","379543","0.0-1.0-657.0","0","0","72105","","null","","","null","72","","","","","","","","","","","","","","","NaN",""
"","S1","","html-keyboard-response","469","379799","0.0-1.0-659.0","0","0","72105","","null","","","null","73","","","","","","","","","","","","","","","",""
"","ISI","","html-keyboard-response","470","379954","0.0-1.0-660.0","0","0","72105","","null","","","null","73","NaN","","","","","","","","","","","","","","",""
"","S2","","html-keyboard-response","471","380209","0.0-1.0-661.0","0","0","72105","","null","","","null","73","","NaN","","","","","","","","","","","","","",""
"","response","","html-keyboard-response","472","380725","0.0-1.0-662.0-0.0","0","0","72105","","511","","","75","73","","","2","73","training","adjacent","CD","3","4","N.jpg","O.jpg","1","1","1","",""
"","feedback","","html-keyboard-response","473","381732","0.0-1.0-663.0-0.0","0","0","72105","","null","","","null","73","","","","","","","","","","","","","","","",""
"","ITI","","html-keyboard-response","474","382738","0.0-1.0-666.0","0","0","72105","","null","","","null","73","","","","","","","","","","","","","","","NaN",""
"","S1","","html-keyboard-response","475","382993","0.0-1.0-668.0","0","0","72105","","null","","","null","74","","","","","","","","","","","","","","","",""
"","ISI","","html-keyboard-response","476","383148","0.0-1.0-669.0","0","0","72105","","null","","","null","74","NaN","","","","","","","","","","","","","","",""
"","S2","","html-keyboard-response","477","383404","0.0-1.0-670.0","0","0","72105","","null","","","null","74","","NaN","","","","","","","","","","","","","",""
"","response","","html-keyboard-response","478","383835","0.0-1.0-671.0-0.0","0","0","72105","","425","","","68","74","","","2","74","training","adjacent","FE","6","5","R.jpg","Q.jpg","0","0","1","",""
"","feedback","","html-keyboard-response","479","384840","0.0-1.0-672.0-0.0","0","0","72105","","null","","","null","74","","","","","","","","","","","","","","","",""
"","ITI","","html-keyboard-response","480","385846","0.0-1.0-675.0","0","0","72105","","null","","","null","74","","","","","","","","","","","","","","","NaN",""
"","S1","","html-keyboard-response","481","386102","0.0-1.0-677.0","0","0","72105","","null","","","null","75","","","","","","","","","","","","","","","",""
"","ISI","","html-keyboard-response","482","386256","0.0-1.0-678.0","0","0","72105","","null","","","null","75","NaN","","","","","","","","","","","","","","",""
"","S2","","html-keyboard-response","483","386511","0.0-1.0-679.0","0","0","72105","","null","","","null","75","","NaN","","","","","","","","","","","","","",""
"","response","","html-keyboard-response","484","386946","0.0-1.0-680.0-0.0","0","0","72105","","429","","","75","75","","","2","75","training","adjacent","BC","2","3","M.jpg","N.jpg","1","1","1","",""
"","feedback","","html-keyboard-response","485","387952","0.0-1.0-681.0-0.0","0","0","72105","","null","","","null","75","","","","","","","","","","","","","","","",""
"","ITI","","html-keyboard-response","486","388958","0.0-1.0-684.0","0","0","72105","","null","","","null","75","","","","","","","","","","","","","","","NaN",""
"","S1","","html-keyboard-response","487","389214","0.0-1.0-686.0","0","0","72105","","null","","","null","76","","","","","","","","","","","","","","","",""
"","ISI","","html-keyboard-response","488","389369","0.0-1.0-687.0","0","0","72105","","null","","","null","76","NaN","","","","","","","","","","","","","","",""
"","S2","","html-keyboard-response","489","389625","0.0-1.0-688.0","0","0","72105","","null","","","null","76","","NaN","","","","","","","","","","","","","",""
"","response","","html-keyboard-response","490","389952","0.0-1.0-689.0-0.0","0","0","72105","","322","","","68","76","","","2","76","training","adjacent","AB","1","2","L.jpg","M.jpg","0","1","0","",""
"","feedback","","html-keyboard-response","491","390958","0.0-1.0-690.0-0.0","0","0","72105","","null","","","null","76","","","","","","","","","","","","","","","",""
"","time_out","","html-keyboard-response","492","392964","0.0-1.0-692.0-0.0","0","0","72105","","null","","","null","76","","","","","","","","","","","","","","","",""
"","ITI","","html-keyboard-response","493","393968","0.0-1.0-693.0","0","0","72105","","null","","","null","76","","","","","","","","","","","","","","","NaN",""
"","S1","","html-keyboard-response","494","394223","0.0-1.0-695.0","0","0","72105","","null","","","null","77","","","","","","","","","","","","","","","",""
"","ISI","","html-keyboard-response","495","394378","0.0-1.0-696.0","0","0","72105","","null","","","null","77","NaN","","","","","","","","","","","","","","",""
"","S2","","html-keyboard-response","496","394633","0.0-1.0-697.0","0","0","72105","","null","","","null","77","","NaN","","","","","","","","","","","","","",""
"","response","","html-keyboard-response","497","394919","0.0-1.0-698.0-0.0","0","0","72105","","280","","","68","77","","","2","77","training","adjacent","DC","4","3","O.jpg","N.jpg","0","0","1","",""
"","feedback","","html-keyboard-response","498","395924","0.0-1.0-699.0-0.0","0","0","72105","","null","","","null","77","","","","","","","","","","","","","","","",""
"","ITI","","html-keyboard-response","499","396931","0.0-1.0-702.0","0","0","72105","","null","","","null","77","","","","","","","","","","","","","","","NaN",""
"","S1","","html-keyboard-response","500","397187","0.0-1.0-704.0","0","0","72105","","null","","","null","78","","","","","","","","","","","","","","","",""
"","ISI","","html-keyboard-response","501","397342","0.0-1.0-705.0","0","0","72105","","null","","","null","78","NaN","","","","","","","","","","","","","","",""
"","S2","","html-keyboard-response","502","397598","0.0-1.0-706.0","0","0","72105","","null","","","null","78","","NaN","","","","","","","","","","","","","",""
"","response","","html-keyboard-response","503","397884","0.0-1.0-707.0-0.0","0","0","72105","","281","","","75","78","","","2","78","training","adjacent","DC","4","3","O.jpg","N.jpg","1","0","0","",""
"","feedback","","html-keyboard-response","504","398891","0.0-1.0-708.0-0.0","0","0","72105","","null","","","null","78","","","","","","","","","","","","","","","",""
"","time_out","","html-keyboard-response","505","400896","0.0-1.0-710.0-0.0","0","0","72105","","null","","","null","78","","","","","","","","","","","","","","","",""
"","ITI","","html-keyboard-response","506","401902","0.0-1.0-711.0","0","0","72105","","null","","","null","78","","","","","","","","","","","","","","","NaN",""
"","S1","","html-keyboard-response","507","402157","0.0-1.0-713.0","0","0","72105","","null","","","null","79","","","","","","","","","","","","","","","",""
"","ISI","","html-keyboard-response","508","402312","0.0-1.0-714.0","0","0","72105","","null","","","null","79","NaN","","","","","","","","","","","","","","",""
"","S2","","html-keyboard-response","509","402568","0.0-1.0-715.0","0","0","72105","","null","","","null","79","","NaN","","","","","","","","","","","","","",""
"","response","","html-keyboard-response","510","402835","0.0-1.0-716.0-0.0","0","0","72105","","261","","","75","79","","","2","79","training","adjacent","GF","7","6","P.jpg","R.jpg","1","0","0","",""
"","feedback","","html-keyboard-response","511","403842","0.0-1.0-717.0-0.0","0","0","72105","","null","","","null","79","","","","","","","","","","","","","","","",""
"","time_out","","html-keyboard-response","512","405847","0.0-1.0-719.0-0.0","0","0","72105","","null","","","null","79","","","","","","","","","","","","","","","",""
"","ITI","","html-keyboard-response","513","406852","0.0-1.0-720.0","0","0","72105","","null","","","null","79","","","","","","","","","","","","","","","NaN",""
"","S1","","html-keyboard-response","514","407108","0.0-1.0-722.0","0","0","72105","","null","","","null","80","","","","","","","","","","","","","","","",""
"","ISI","","html-keyboard-response","515","407263","0.0-1.0-723.0","0","0","72105","","null","","","null","80","NaN","","","","","","","","","","","","","","",""
"","S2","","html-keyboard-response","516","407518","0.0-1.0-724.0","0","0","72105","","null","","","null","80","","NaN","","","","","","","","","","","","","",""
"","response","","html-keyboard-response","517","407711","0.0-1.0-725.0-0.0","0","0","72105","","188","","","75","80","","","2","80","training","adjacent","CD","3","4","N.jpg","O.jpg","1","1","1","",""
"","feedback","","html-keyboard-response","518","408718","0.0-1.0-726.0-0.0","0","0","72105","","null","","","null","80","","","","","","","","","","","","","","","",""
"","ITI","","html-keyboard-response","519","409724","0.0-1.0-729.0","0","0","72105","","null","","","null","80","","","","","","","","","","","","","","","NaN",""
"","S1","","html-keyboard-response","520","409979","0.0-1.0-731.0","0","0","72105","","null","","","null","81","","","","","","","","","","","","","","","",""
"","ISI","","html-keyboard-response","521","410135","0.0-1.0-732.0","0","0","72105","","null","","","null","81","NaN","","","","","","","","","","","","","","",""
"","S2","","html-keyboard-response","522","410390","0.0-1.0-733.0","0","0","72105","","null","","","null","81","","NaN","","","","","","","","","","","","","",""
"","response","","html-keyboard-response","523","410694","0.0-1.0-734.0-0.0","0","0","72105","","298","","","68","81","","","2","81","training","adjacent","CD","3","4","N.jpg","O.jpg","0","1","0","",""
"","feedback","","html-keyboard-response","524","411701","0.0-1.0-735.0-0.0","0","0","72105","","null","","","null","81","","","","","","","","","","","","","","","",""
"","time_out","","html-keyboard-response","525","413705","0.0-1.0-737.0-0.0","0","0","72105","","null","","","null","81","","","","","","","","","","","","","","","",""
"","ITI","","html-keyboard-response","526","414710","0.0-1.0-738.0","0","0","72105","","null","","","null","81","","","","","","","","","","","","","","","NaN",""
"","S1","","html-keyboard-response","527","414966","0.0-1.0-740.0","0","0","72105","","null","","","null","82","","","","","","","","","","","","","","","",""
"","ISI","","html-keyboard-response","528","415121","0.0-1.0-741.0","0","0","72105","","null","","","null","82","NaN","","","","","","","","","","","","","","",""
"","S2","","html-keyboard-response","529","415377","0.0-1.0-742.0","0","0","72105","","null","","","null","82","","NaN","","","","","","","","","","","","","",""
"","response","","html-keyboard-response","530","415635","0.0-1.0-743.0-0.0","0","0","72105","","253","","","75","82","","","2","82","training","adjacent","CB","3","2","N.jpg","M.jpg","1","0","0","",""
"","feedback","","html-keyboard-response","531","416642","0.0-1.0-744.0-0.0","0","0","72105","","null","","","null","82","","","","","","","","","","","","","","","",""
"","time_out","","html-keyboard-response","532","418648","0.0-1.0-746.0-0.0","0","0","72105","","null","","","null","82","","","","","","","","","","","","","","","",""
"","ITI","","html-keyboard-response","533","419653","0.0-1.0-747.0","0","0","72105","","null","","","null","82","","","","","","","","","","","","","","","NaN",""
"","S1","","html-keyboard-response","534","419910","0.0-1.0-749.0","0","0","72105","","null","","","null","83","","","","","","","","","","","","","","","",""
"","ISI","","html-keyboard-response","535","420065","0.0-1.0-750.0","0","0","72105","","null","","","null","83","NaN","","","","","","","","","","","","","","",""
"","S2","","html-keyboard-response","536","420321","0.0-1.0-751.0","0","0","72105","","null","","","null","83","","NaN","","","","","","","","","","","","","",""
"","response","","html-keyboard-response","537","420344","0.0-1.0-752.0-0.0","0","0","72105","","19","","","68","83","","","2","83","training","adjacent","BA","2","1","M.jpg","L.jpg","0","0","1","",""
"","feedback","","html-keyboard-response","538","421350","0.0-1.0-753.0-0.0","0","0","72105","","null","","","null","83","","","","","","","","","","","","","","","",""
"","ITI","","html-keyboard-response","539","422355","0.0-1.0-756.0","0","0","72105","","null","","","null","83","","","","","","","","","","","","","","","NaN",""
"","S1","","html-keyboard-response","540","422611","0.0-1.0-758.0","0","0","72105","","null","","","null","84","","","","","","","","","","","","","","","",""
"","ISI","","html-keyboard-response","541","422766","0.0-1.0-759.0","0","0","72105","","null","","","null","84","NaN","","","","","","","","","","","","","","",""
"","S2","","html-keyboard-response","542","423022","0.0-1.0-760.0","0","0","72105","","null","","","null","84","","NaN","","","","","","","","","","","","","",""
"","response","","html-keyboard-response","543","423463","0.0-1.0-761.0-0.0","0","0","72105","","436","","","68","84","","","2","84","training","adjacent","DE","4","5","O.jpg","Q.jpg","0","1","0","",""
"","feedback","","html-keyboard-response","544","424469","0.0-1.0-762.0-0.0","0","0","72105","","null","","","null","84","","","","","","","","","","","","","","","",""
"","time_out","","html-keyboard-response","545","426474","0.0-1.0-764.0-0.0","0","0","72105","","null","","","null","84","","","","","","","","","","","","","","","",""
"","ITI","","html-keyboard-response","546","427479","0.0-1.0-765.0","0","0","72105","","null","","","null","84","","","","","","","","","","","","","","","NaN",""
"","S1","","html-keyboard-response","547","427736","0.0-1.0-767.0","0","0","72105","","null","","","null","85","","","","","","","","","","","","","","","",""
"","ISI","","html-keyboard-response","548","427889","0.0-1.0-768.0","0","0","72105","","null","","","null","85","NaN","","","","","","","","","","","","","","",""
"","S2","","html-keyboard-response","549","428144","0.0-1.0-769.0","0","0","72105","","null","","","null","85","","NaN","","","","","","","","","","","","","",""
"","response","","html-keyboard-response","550","428501","0.0-1.0-770.0-0.0","0","0","72105","","350","","","75","85","","","2","85","training","adjacent","ED","5","4","Q.jpg","O.jpg","1","0","0","",""
"","feedback","","html-keyboard-response","551","429507","0.0-1.0-771.0-0.0","0","0","72105","","null","","","null","85","","","","","","","","","","","","","","","",""
"","time_out","","html-keyboard-response","552","431512","0.0-1.0-773.0-0.0","0","0","72105","","null","","","null","85","","","","","","","","","","","","","","","",""
"","ITI","","html-keyboard-response","553","432517","0.0-1.0-774.0","0","0","72105","","null","","","null","85","","","","","","","","","","","","","","","NaN",""
"","S1","","html-keyboard-response","554","432773","0.0-1.0-776.0","0","0","72105","","null","","","null","86","","","","","","","","","","","","","","","",""
"","ISI","","html-keyboard-response","555","432927","0.0-1.0-777.0","0","0","72105","","null","","","null","86","NaN","","","","","","","","","","","","","","",""
"","S2","","html-keyboard-response","556","433183","0.0-1.0-778.0","0","0","72105","","null","","","null","86","","NaN","","","","","","","","","","","","","",""
"","response","","html-keyboard-response","557","433276","0.0-1.0-779.0-0.0","0","0","72105","","87","","","68","86","","","2","86","training","adjacent","FE","6","5","R.jpg","Q.jpg","0","0","1","",""
"","feedback","","html-keyboard-response","558","434282","0.0-1.0-780.0-0.0","0","0","72105","","null","","","null","86","","","","","","","","","","","","","","","",""
"","ITI","","html-keyboard-response","559","435288","0.0-1.0-783.0","0","0","72105","","null","","","null","86","","","","","","","","","","","","","","","NaN",""
"","S1","","html-keyboard-response","560","435544","0.0-1.0-785.0","0","0","72105","","null","","","null","87","","","","","","","","","","","","","","","",""
"","ISI","","html-keyboard-response","561","435701","0.0-1.0-786.0","0","0","72105","","null","","","null","87","NaN","","","","","","","","","","","","","","",""
"","S2","","html-keyboard-response","562","435956","0.0-1.0-787.0","0","0","72105","","null","","","null","87","","NaN","","","","","","","","","","","","","",""
"","response","","html-keyboard-response","563","436599","0.0-1.0-788.0-0.0","0","0","72105","","639","","","68","87","","","2","87","training","adjacent","GF","7","6","P.jpg","R.jpg","0","0","1","",""
"","feedback","","html-keyboard-response","564","437605","0.0-1.0-789.0-0.0","0","0","72105","","null","","","null","87","","","","","","","","","","","","","","","",""
"","ITI","","html-keyboard-response","565","438611","0.0-1.0-792.0","0","0","72105","","null","","","null","87","","","","","","","","","","","","","","","NaN",""
"","S1","","html-keyboard-response","566","438867","0.0-1.0-794.0","0","0","72105","","null","","","null","88","","","","","","","","","","","","","","","",""
"","ISI","","html-keyboard-response","567","439022","0.0-1.0-795.0","0","0","72105","","null","","","null","88","NaN","","","","","","","","","","","","","","",""
"","S2","","html-keyboard-response","568","439279","0.0-1.0-796.0","0","0","72105","","null","","","null","88","","NaN","","","","","","","","","","","","","",""
"","response","","html-keyboard-response","569","439607","0.0-1.0-797.0-0.0","0","0","72105","","323","","","75","88","","","2","88","training","adjacent","FE","6","5","R.jpg","Q.jpg","1","0","0","",""
"","feedback","","html-keyboard-response","570","440614","0.0-1.0-798.0-0.0","0","0","72105","","null","","","null","88","","","","","","","","","","","","","","","",""
"","time_out","","html-keyboard-response","571","442621","0.0-1.0-800.0-0.0","0","0","72105","","null","","","null","88","","","","","","","","","","","","","","","",""
"","ITI","","html-keyboard-response","572","443626","0.0-1.0-801.0","0","0","72105","","null","","","null","88","","","","","","","","","","","","","","","NaN",""
"","S1","","html-keyboard-response","573","443882","0.0-1.0-803.0","0","0","72105","","null","","","null","89","","","","","","","","","","","","","","","",""
"","ISI","","html-keyboard-response","574","444037","0.0-1.0-804.0","0","0","72105","","null","","","null","89","NaN","","","","","","","","","","","","","","",""
"","S2","","html-keyboard-response","575","444286","0.0-1.0-805.0","0","0","72105","","244","","","75","89","","k","2","89","training","adjacent","FG","6","7","R.jpg","P.jpg","1","1","1","",""
"","feedback","","html-keyboard-response","576","445292","0.0-1.0-807.0-0.0","0","0","72105","","null","","","null","89","","","","","","","","","","","","","","","",""
"","ITI","","html-keyboard-response","577","446297","0.0-1.0-810.0","0","0","72105","","null","","","null","89","","","","","","","","","","","","","","","NaN",""
"","S1","","html-keyboard-response","578","446552","0.0-1.0-812.0","0","0","72105","","null","","","null","90","","","","","","","","","","","","","","","",""
"","ISI","","html-keyboard-response","579","446706","0.0-1.0-813.0","0","0","72105","","null","","","null","90","NaN","","","","","","","","","","","","","","",""
"","S2","","html-keyboard-response","580","446962","0.0-1.0-814.0","0","0","72105","","null","","","null","90","","NaN","","","","","","","","","","","","","",""
"","response","","html-keyboard-response","581","447298","0.0-1.0-815.0-0.0","0","0","72105","","332","","","68","90","","","2","90","training","adjacent","FG","6","7","R.jpg","P.jpg","0","1","0","",""
"","feedback","","html-keyboard-response","582","448305","0.0-1.0-816.0-0.0","0","0","72105","","null","","","null","90","","","","","","","","","","","","","","","",""
