"success","ttype","start_time","trial_type","trial_index","time_elapsed","internal_node_id","warning","missed_checkup","PID","view_history","rt","responses","repeat_instructions","key_press","index","keypress_isi","keypress_S2","block","trial_num","phase","group_type","pair_type","S1_stim","S2_stim","S1_img","S2_img","S1_chosen","S1_higher","accuracy","keypress_iti","total_bonus_tally"
"true","full_screen","d04062023hr1738","fullscreen","0","15226","0.0-0.0","0","0","46896","","","","","","","","","","","","","","","","","","","","","",""
"","instructions","","instructions","1","87281","0.0-1.0-0.0-0.0","0","0","46896","[{""page_index"":0,""viewing_time"":8348},{""page_index"":1,""viewing_time"":29967},{""page_index"":2,""viewing_time"":9541},{""page_index"":1,""viewing_time"":14381},{""page_index"":2,""viewing_time"":7122},{""page_index"":3,""viewing_time"":2691}]","72052","","","","","","","","","","","","","","","","","","","",""
"","comprehension_check","","survey-multi-choice","2","116001","0.0-1.0-0.0-1.0","0","0","46896","","28708","{""Q0"":""True"",""Q1"":""D"",""Q2"":""Only when the screen 'MAKE A CHOICE' is shown"",""Q3"":""Green mark"",""Q4"":""either D or K""}","1","","","","","","","","","","","","","","","","","",""
"","missed_instruction_checkup","","html-keyboard-response","3","121287","0.0-1.0-0.0-2.0-0.0","0","1","46896","","5278","","","32","","","","","","","","","","","","","","","","",""
"","instructions","","instructions","4","148282","0.0-1.0-0.1-0.1","0","0","46896","[{""page_index"":0,""viewing_time"":6069},{""page_index"":1,""viewing_time"":15577},{""page_index"":2,""viewing_time"":4275},{""page_index"":3,""viewing_time"":1069}]","26991","","","","","","","","","","","","","","","","","","","",""
"","comprehension_check","","survey-multi-choice","5","169816","0.0-1.0-0.1-1.1","0","0","46896","","21526","{""Q0"":""True"",""Q1"":""D"",""Q2"":""Once the second image appears and while the screen 'MAKE A CHOICE' is shown"",""Q3"":""Green mark"",""Q4"":""either D or K""}","0","","","","","","","","","","","","","","","","","",""
"","start_exp","","html-keyboard-response","6","171741","0.0-1.0-1.0","0","0","46896","","1918","","","32","","","","","","","","","","","","","","","","",""
"","S1","","html-keyboard-response","7","171898","0.0-1.0-2.0","0","0","46896","","null","","","null","0","","","","","","","","","","","","","","","",""
"","ISI","","html-keyboard-response","8","173905","0.0-1.0-3.0","0","0","46896","","null","","","null","0","NaN","","","","","","","","","","","","","","",""
"","S2","","html-keyboard-response","9","174061","0.0-1.0-4.0","0","0","46896","","null","","","null","0","","NaN","","","","","","","","","","","","","",""
"","response","","html-keyboard-response","10","175917","0.0-1.0-5.0-0.0","0","0","46896","","null","","","null","0","","","1","0","training","adjacent","DC","4","3","L.jpg","P.jpg","NaN","0","0","",""
"","too_slow_prompt","","html-keyboard-response","11","176925","0.0-1.0-7.0-0.0","1","0","46896","","null","","","null","","","","","","","","","","","","","","","","",""
"","time_out","","html-keyboard-response","12","178931","0.0-1.0-8.0-0.0","0","0","46896","","null","","","null","0","","","","","","","","","","","","","","","",""
"","ITI","","html-keyboard-response","13","179936","0.0-1.0-9.0","0","0","46896","","null","","","null","0","","","","","","","","","","","","","","","NaN",""
"","S1","","html-keyboard-response","14","180091","0.0-1.0-11.0","0","0","46896","","null","","","null","1","","","","","","","","","","","","","","","",""
"","ISI","","html-keyboard-response","15","182096","0.0-1.0-12.0","0","0","46896","","null","","","null","1","NaN","","","","","","","","","","","","","","",""
"","S2","","html-keyboard-response","16","182252","0.0-1.0-13.0","0","0","46896","","null","","","null","1","","NaN","","","","","","","","","","","","","",""
"","response","","html-keyboard-response","17","182755","0.0-1.0-14.0-0.0","0","0","46896","","497","","","75","1","","","1","1","training","adjacent","BA","2","1","R.jpg","O.jpg","0","0","1","",""
"","feedback","","html-keyboard-response","18","183761","0.0-1.0-15.0-0.0","0","0","46896","","null","","","null","1","","","","","","","","","","","","","","","",""
"","ITI","","html-keyboard-response","19","184776","0.0-1.0-18.0","0","0","46896","","null","","","null","1","","","","","","","","","","","","","","","NaN",""
"","S1","","html-keyboard-response","20","184932","0.0-1.0-20.0","0","0","46896","","null","","","null","2","","","","","","","","","","","","","","","",""
"","ISI","","html-keyboard-response","21","186939","0.0-1.0-21.0","0","0","46896","","null","","","null","2","NaN","","","","","","","","","","","","","","",""
"","S2","","html-keyboard-response","22","187096","0.0-1.0-22.0","0","0","46896","","null","","","null","2","","NaN","","","","","","","","","","","","","",""
"","response","","html-keyboard-response","23","187790","0.0-1.0-23.0-0.0","0","0","46896","","688","","","68","2","","","1","2","training","adjacent","BC","2","3","R.jpg","P.jpg","1","1","1","",""
"","feedback","","html-keyboard-response","24","188803","0.0-1.0-24.0-0.0","0","0","46896","","null","","","null","2","","","","","","","","","","","","","","","",""
"","ITI","","html-keyboard-response","25","189810","0.0-1.0-27.0","0","0","46896","","null","","","null","2","","","","","","","","","","","","","","","NaN",""
"","S1","","html-keyboard-response","26","189965","0.0-1.0-29.0","0","0","46896","","null","","","null","3","","","","","","","","","","","","","","","",""
"","ISI","","html-keyboard-response","27","191970","0.0-1.0-30.0","0","0","46896","","null","","","null","3","NaN","","","","","","","","","","","","","","",""
"","S2","","html-keyboard-response","28","192126","0.0-1.0-31.0","0","0","46896","","null","","","null","3","","NaN","","","","","","","","","","","","","",""
"","response","","html-keyboard-response","29","192711","0.0-1.0-32.0-0.0","0","0","46896","","581","","","75","3","","","1","3","training","adjacent","FE","6","5","Q.jpg","N.jpg","0","0","1","",""
"","feedback","","html-keyboard-response","30","193718","0.0-1.0-33.0-0.0","0","0","46896","","null","","","null","3","","","","","","","","","","","","","","","",""
"","ITI","","html-keyboard-response","31","194724","0.0-1.0-36.0","0","0","46896","","null","","","null","3","","","","","","","","","","","","","","","NaN",""
"","S1","","html-keyboard-response","32","194882","0.0-1.0-38.0","0","0","46896","","null","","","null","4","","","","","","","","","","","","","","","",""
"","ISI","","html-keyboard-response","33","196888","0.0-1.0-39.0","0","0","46896","","null","","","null","4","NaN","","","","","","","","","","","","","","",""
"","S2","","html-keyboard-response","34","197044","0.0-1.0-40.0","0","0","46896","","null","","","null","4","","NaN","","","","","","","","","","","","","",""
"","response","","html-keyboard-response","35","197674","0.0-1.0-41.0-0.0","0","0","46896","","625","","","75","4","","","1","4","training","adjacent","BC","2","3","R.jpg","P.jpg","0","1","0","",""
"","feedback","","html-keyboard-response","36","198680","0.0-1.0-42.0-0.0","0","0","46896","","null","","","null","4","","","","","","","","","","","","","","","",""
"","time_out","","html-keyboard-response","37","200685","0.0-1.0-44.0-0.0","0","0","46896","","null","","","null","4","","","","","","","","","","","","","","","",""
"","ITI","","html-keyboard-response","38","201700","0.0-1.0-45.0","0","0","46896","","null","","","null","4","","","","","","","","","","","","","","","NaN",""
"","S1","","html-keyboard-response","39","201858","0.0-1.0-47.0","0","0","46896","","null","","","null","5","","","","","","","","","","","","","","","",""
"","ISI","","html-keyboard-response","40","203865","0.0-1.0-48.0","0","0","46896","","null","","","null","5","NaN","","","","","","","","","","","","","","",""
"","S2","","html-keyboard-response","41","204021","0.0-1.0-49.0","0","0","46896","","null","","","null","5","","NaN","","","","","","","","","","","","","",""
"","response","","html-keyboard-response","42","204878","0.0-1.0-50.0-0.0","0","0","46896","","855","","","68","5","","","1","5","training","adjacent","GF","7","6","M.jpg","Q.jpg","1","0","0","",""
"","feedback","","html-keyboard-response","43","205884","0.0-1.0-51.0-0.0","0","0","46896","","null","","","null","5","","","","","","","","","","","","","","","",""
"","time_out","","html-keyboard-response","44","207890","0.0-1.0-53.0-0.0","0","0","46896","","null","","","null","5","","","","","","","","","","","","","","","",""
"","ITI","","html-keyboard-response","45","208896","0.0-1.0-54.0","0","0","46896","","null","","","null","5","","","","","","","","","","","","","","","NaN",""
"","S1","","html-keyboard-response","46","209053","0.0-1.0-56.0","0","0","46896","","null","","","null","6","","","","","","","","","","","","","","","",""
"","ISI","","html-keyboard-response","47","211059","0.0-1.0-57.0","0","0","46896","","null","","","null","6","NaN","","","","","","","","","","","","","","",""
"","S2","","html-keyboard-response","48","211215","0.0-1.0-58.0","0","0","46896","","null","","","null","6","","NaN","","","","","","","","","","","","","",""
"","response","","html-keyboard-response","49","211637","0.0-1.0-59.0-0.0","0","0","46896","","417","","","75","6","","","1","6","training","adjacent","AB","1","2","O.jpg","R.jpg","0","1","0","",""
"","feedback","","html-keyboard-response","50","212644","0.0-1.0-60.0-0.0","0","0","46896","","null","","","null","6","","","","","","","","","","","","","","","",""
"","time_out","","html-keyboard-response","51","214650","0.0-1.0-62.0-0.0","0","0","46896","","null","","","null","6","","","","","","","","","","","","","","","",""
"","ITI","","html-keyboard-response","52","215658","0.0-1.0-63.0","0","0","46896","","null","","","null","6","","","","","","","","","","","","","","","NaN",""
"","S1","","html-keyboard-response","53","215813","0.0-1.0-65.0","0","0","46896","","null","","","null","7","","","","","","","","","","","","","","","",""
"","ISI","","html-keyboard-response","54","217819","0.0-1.0-66.0","0","0","46896","","null","","","null","7","NaN","","","","","","","","","","","","","","",""
"","S2","","html-keyboard-response","55","217976","0.0-1.0-67.0","0","0","46896","","null","","","null","7","","NaN","","","","","","","","","","","","","",""
"","response","","html-keyboard-response","56","218394","0.0-1.0-68.0-0.0","0","0","46896","","413","","","68","7","","","1","7","training","adjacent","FG","6","7","Q.jpg","M.jpg","1","1","1","",""
"","feedback","","html-keyboard-response","57","219401","0.0-1.0-69.0-0.0","0","0","46896","","null","","","null","7","","","","","","","","","","","","","","","",""
"","ITI","","html-keyboard-response","58","220407","0.0-1.0-72.0","0","0","46896","","null","","","null","7","","","","","","","","","","","","","","","NaN",""
"","S1","","html-keyboard-response","59","220563","0.0-1.0-74.0","0","0","46896","","null","","","null","8","","","","","","","","","","","","","","","",""
"","ISI","","html-keyboard-response","60","222568","0.0-1.0-75.0","0","0","46896","","null","","","null","8","NaN","","","","","","","","","","","","","","",""
"","S2","","html-keyboard-response","61","222725","0.0-1.0-76.0","0","0","46896","","null","","","null","8","","NaN","","","","","","","","","","","","","",""
"","response","","html-keyboard-response","62","223092","0.0-1.0-77.0-0.0","0","0","46896","","361","","","68","8","","","1","8","training","adjacent","CB","3","2","P.jpg","R.jpg","1","0","0","",""
"","feedback","","html-keyboard-response","63","224098","0.0-1.0-78.0-0.0","0","0","46896","","null","","","null","8","","","","","","","","","","","","","","","",""
"","time_out","","html-keyboard-response","64","226103","0.0-1.0-80.0-0.0","0","0","46896","","null","","","null","8","","","","","","","","","","","","","","","",""
"","ITI","","html-keyboard-response","65","227109","0.0-1.0-81.0","0","0","46896","","null","","","null","8","","","","","","","","","","","","","","","NaN",""
"","S1","","html-keyboard-response","66","227266","0.0-1.0-83.0","0","0","46896","","null","","","null","9","","","","","","","","","","","","","","","",""
"","ISI","","html-keyboard-response","67","229272","0.0-1.0-84.0","0","0","46896","","null","","","null","9","NaN","","","","","","","","","","","","","","",""
"","S2","","html-keyboard-response","68","229427","0.0-1.0-85.0","0","0","46896","","null","","","null","9","","NaN","","","","","","","","","","","","","",""
"","response","","html-keyboard-response","69","229928","0.0-1.0-86.0-0.0","0","0","46896","","496","","","75","9","","","1","9","training","adjacent","BA","2","1","R.jpg","O.jpg","0","0","1","",""
"","feedback","","html-keyboard-response","70","230936","0.0-1.0-87.0-0.0","0","0","46896","","null","","","null","9","","","","","","","","","","","","","","","",""
"","ITI","","html-keyboard-response","71","231941","0.0-1.0-90.0","0","0","46896","","null","","","null","9","","","","","","","","","","","","","","","NaN",""
"","S1","","html-keyboard-response","72","232097","0.0-1.0-92.0","0","0","46896","","null","","","null","10","","","","","","","","","","","","","","","",""
"","ISI","","html-keyboard-response","73","234101","0.0-1.0-93.0","0","0","46896","","null","","","null","10","NaN","","","","","","","","","","","","","","",""
"","S2","","html-keyboard-response","74","234259","0.0-1.0-94.0","0","0","46896","","null","","","null","10","","NaN","","","","","","","","","","","","","",""
"","response","","html-keyboard-response","75","234641","0.0-1.0-95.0-0.0","0","0","46896","","377","","","68","10","","","1","10","training","adjacent","DC","4","3","L.jpg","P.jpg","1","0","0","",""
"","feedback","","html-keyboard-response","76","235650","0.0-1.0-96.0-0.0","0","0","46896","","null","","","null","10","","","","","","","","","","","","","","","",""
"","time_out","","html-keyboard-response","77","237656","0.0-1.0-98.0-0.0","0","0","46896","","null","","","null","10","","","","","","","","","","","","","","","",""
"","ITI","","html-keyboard-response","78","238661","0.0-1.0-99.0","0","0","46896","","null","","","null","10","","","","","","","","","","","","","","","NaN",""
"","S1","","html-keyboard-response","79","238829","0.0-1.0-101.0","0","0","46896","","null","","","null","11","","","","","","","","","","","","","","","",""
"","ISI","","html-keyboard-response","80","240834","0.0-1.0-102.0","0","0","46896","","null","","","null","11","NaN","","","","","","","","","","","","","","",""
"","S2","","html-keyboard-response","81","241004","0.0-1.0-103.0","0","0","46896","","null","","","null","11","","NaN","","","","","","","","","","","","","",""
"","response","","html-keyboard-response","82","241305","0.0-1.0-104.0-0.0","0","0","46896","","296","","","68","11","","","1","11","training","adjacent","DE","4","5","L.jpg","N.jpg","1","1","1","",""
"","feedback","","html-keyboard-response","83","242310","0.0-1.0-105.0-0.0","0","0","46896","","null","","","null","11","","","","","","","","","","","","","","","",""
"","ITI","","html-keyboard-response","84","243316","0.0-1.0-108.0","0","0","46896","","null","","","null","11","","","","","","","","","","","","","","","NaN",""
"","S1","","html-keyboard-response","85","243478","0.0-1.0-110.0","0","0","46896","","null","","","null","12","","","","","","","","","","","","","","","",""
"","ISI","","html-keyboard-response","86","245484","0.0-1.0-111.0","0","0","46896","","null","","","null","12","NaN","","","","","","","","","","","","","","",""
"","S2","","html-keyboard-response","87","245640","0.0-1.0-112.0","0","0","46896","","null","","","null","12","","NaN","","","","","","","","","","","","","",""
"","response","","html-keyboard-response","88","246242","0.0-1.0-113.0-0.0","0","0","46896","","596","","","68","12","","","1","12","training","adjacent","CB","3","2","P.jpg","R.jpg","1","0","0","",""
"","feedback","","html-keyboard-response","89","247249","0.0-1.0-114.0-0.0","0","0","46896","","null","","","null","12","","","","","","","","","","","","","","","",""
"","time_out","","html-keyboard-response","90","249255","0.0-1.0-116.0-0.0","0","0","46896","","null","","","null","12","","","","","","","","","","","","","","","",""
"","ITI","","html-keyboard-response","91","250260","0.0-1.0-117.0","0","0","46896","","null","","","null","12","","","","","","","","","","","","","","","NaN",""
"","S1","","html-keyboard-response","92","250416","0.0-1.0-119.0","0","0","46896","","null","","","null","13","","","","","","","","","","","","","","","",""
"","ISI","","html-keyboard-response","93","252422","0.0-1.0-120.0","0","0","46896","","null","","","null","13","NaN","","","","","","","","","","","","","","",""
"","S2","","html-keyboard-response","94","252577","0.0-1.0-121.0","0","0","46896","","null","","","null","13","","NaN","","","","","","","","","","","","","",""
"","response","","html-keyboard-response","95","253076","0.0-1.0-122.0-0.0","0","0","46896","","494","","","75","13","","","1","13","training","adjacent","CD","3","4","P.jpg","L.jpg","0","1","0","",""
"","feedback","","html-keyboard-response","96","254082","0.0-1.0-123.0-0.0","0","0","46896","","null","","","null","13","","","","","","","","","","","","","","","",""
"","time_out","","html-keyboard-response","97","256089","0.0-1.0-125.0-0.0","0","0","46896","","null","","","null","13","","","","","","","","","","","","","","","",""
"","ITI","","html-keyboard-response","98","257094","0.0-1.0-126.0","0","0","46896","","null","","","null","13","","","","","","","","","","","","","","","NaN",""
"","S1","","html-keyboard-response","99","257249","0.0-1.0-128.0","0","0","46896","","null","","","null","14","","","","","","","","","","","","","","","",""
"","ISI","","html-keyboard-response","100","259254","0.0-1.0-129.0","0","0","46896","","null","","","null","14","NaN","","","","","","","","","","","","","","",""
"","S2","","html-keyboard-response","101","259410","0.0-1.0-130.0","0","0","46896","","null","","","null","14","","NaN","","","","","","","","","","","","","",""
"","response","","html-keyboard-response","102","260058","0.0-1.0-131.0-0.0","0","0","46896","","643","","","68","14","","","1","14","training","adjacent","DC","4","3","L.jpg","P.jpg","1","0","0","",""
"","feedback","","html-keyboard-response","103","261064","0.0-1.0-132.0-0.0","0","0","46896","","null","","","null","14","","","","","","","","","","","","","","","",""
"","time_out","","html-keyboard-response","104","263069","0.0-1.0-134.0-0.0","0","0","46896","","null","","","null","14","","","","","","","","","","","","","","","",""
"","ITI","","html-keyboard-response","105","264074","0.0-1.0-135.0","0","0","46896","","null","","","null","14","","","","","","","","","","","","","","","NaN",""
"","S1","","html-keyboard-response","106","264230","0.0-1.0-137.0","0","0","46896","","null","","","null","15","","","","","","","","","","","","","","","",""
"","ISI","","html-keyboard-response","107","266235","0.0-1.0-138.0","0","0","46896","","null","","","null","15","NaN","","","","","","","","","","","","","","",""
"","S2","","html-keyboard-response","108","266391","0.0-1.0-139.0","0","0","46896","","null","","","null","15","","NaN","","","","","","","","","","","","","",""
"","response","","html-keyboard-response","109","266962","0.0-1.0-140.0-0.0","0","0","46896","","566","","","75","15","","","1","15","training","adjacent","FG","6","7","Q.jpg","M.jpg","0","1","0","",""
"","feedback","","html-keyboard-response","110","267969","0.0-1.0-141.0-0.0","0","0","46896","","null","","","null","15","","","","","","","","","","","","","","","",""
"","time_out","","html-keyboard-response","111","269976","0.0-1.0-143.0-0.0","0","0","46896","","null","","","null","15","","","","","","","","","","","","","","","",""
"","ITI","","html-keyboard-response","112","270983","0.0-1.0-144.0","0","0","46896","","null","","","null","15","","","","","","","","","","","","","","","NaN",""
"","S1","","html-keyboard-response","113","271138","0.0-1.0-146.0","0","0","46896","","null","","","null","16","","","","","","","","","","","","","","","",""
"","ISI","","html-keyboard-response","114","273143","0.0-1.0-147.0","0","0","46896","","null","","","null","16","NaN","","","","","","","","","","","","","","",""
"","S2","","html-keyboard-response","115","273299","0.0-1.0-148.0","0","0","46896","","null","","","null","16","","NaN","","","","","","","","","","","","","",""
"","response","","html-keyboard-response","116","273571","0.0-1.0-149.0-0.0","0","0","46896","","266","","","68","16","","","1","16","training","adjacent","EF","5","6","N.jpg","Q.jpg","1","1","1","",""
"","feedback","","html-keyboard-response","117","274578","0.0-1.0-150.0-0.0","0","0","46896","","null","","","null","16","","","","","","","","","","","","","","","",""
"","ITI","","html-keyboard-response","118","275584","0.0-1.0-153.0","0","0","46896","","null","","","null","16","","","","","","","","","","","","","","","NaN",""
"","S1","","html-keyboard-response","119","275740","0.0-1.0-155.0","0","0","46896","","null","","","null","17","","","","","","","","","","","","","","","",""
"","ISI","","html-keyboard-response","120","277745","0.0-1.0-156.0","0","0","46896","","null","","","null","17","NaN","","","","","","","","","","","","","","",""
"","S2","","html-keyboard-response","121","277900","0.0-1.0-157.0","0","0","46896","","null","","","null","17","","NaN","","","","","","","","","","","","","",""
"","response","","html-keyboard-response","122","278113","0.0-1.0-158.0-0.0","0","0","46896","","209","","","68","17","","","1","17","training","adjacent","BA","2","1","R.jpg","O.jpg","1","0","0","",""
"","feedback","","html-keyboard-response","123","279121","0.0-1.0-159.0-0.0","0","0","46896","","null","","","null","17","","","","","","","","","","","","","","","",""
"","time_out","","html-keyboard-response","124","281127","0.0-1.0-161.0-0.0","0","0","46896","","null","","","null","17","","","","","","","","","","","","","","","",""
"","ITI","","html-keyboard-response","125","282132","0.0-1.0-162.0","0","0","46896","","null","","","null","17","","","","","","","","","","","","","","","NaN",""
"","S1","","html-keyboard-response","126","282289","0.0-1.0-164.0","0","0","46896","","null","","","null","18","","","","","","","","","","","","","","","",""
"","ISI","","html-keyboard-response","127","284295","0.0-1.0-165.0","0","0","46896","","null","","","null","18","NaN","","","","","","","","","","","","","","",""
"","S2","","html-keyboard-response","128","284451","0.0-1.0-166.0","0","0","46896","","null","","","null","18","","NaN","","","","","","","","","","","","","",""
"","response","","html-keyboard-response","129","284775","0.0-1.0-167.0-0.0","0","0","46896","","319","","","75","18","","","1","18","training","adjacent","DE","4","5","L.jpg","N.jpg","0","1","0","",""
"","feedback","","html-keyboard-response","130","285779","0.0-1.0-168.0-0.0","0","0","46896","","null","","","null","18","","","","","","","","","","","","","","","",""
"","time_out","","html-keyboard-response","131","287784","0.0-1.0-170.0-0.0","0","0","46896","","null","","","null","18","","","","","","","","","","","","","","","",""
"","ITI","","html-keyboard-response","132","288790","0.0-1.0-171.0","0","0","46896","","null","","","null","18","","","","","","","","","","","","","","","NaN",""
"","S1","","html-keyboard-response","133","288946","0.0-1.0-173.0","0","0","46896","","null","","","null","19","","","","","","","","","","","","","","","",""
"","ISI","","html-keyboard-response","134","290952","0.0-1.0-174.0","0","0","46896","","null","","","null","19","NaN","","","","","","","","","","","","","","",""
"","S2","","html-keyboard-response","135","291110","0.0-1.0-175.0","0","0","46896","","null","","","null","19","","NaN","","","","","","","","","","","","","",""
"","response","","html-keyboard-response","136","291567","0.0-1.0-176.0-0.0","0","0","46896","","452","","","68","19","","","1","19","training","adjacent","CD","3","4","P.jpg","L.jpg","1","1","1","",""
"","feedback","","html-keyboard-response","137","292573","0.0-1.0-177.0-0.0","0","0","46896","","null","","","null","19","","","","","","","","","","","","","","","",""
"","ITI","","html-keyboard-response","138","293579","0.0-1.0-180.0","0","0","46896","","null","","","null","19","","","","","","","","","","","","","","","NaN",""
"","S1","","html-keyboard-response","139","293736","0.0-1.0-182.0","0","0","46896","","null","","","null","20","","","","","","","","","","","","","","","",""
"","ISI","","html-keyboard-response","140","295742","0.0-1.0-183.0","0","0","46896","","null","","","null","20","NaN","","","","","","","","","","","","","","",""
"","S2","","html-keyboard-response","141","295897","0.0-1.0-184.0","0","0","46896","","null","","","null","20","","NaN","","","","","","","","","","","","","",""
"","response","","html-keyboard-response","142","296330","0.0-1.0-185.0-0.0","0","0","46896","","427","","","68","20","","","1","20","training","adjacent","ED","5","4","N.jpg","L.jpg","1","0","0","",""
"","feedback","","html-keyboard-response","143","297334","0.0-1.0-186.0-0.0","0","0","46896","","null","","","null","20","","","","","","","","","","","","","","","",""
"","time_out","","html-keyboard-response","144","299341","0.0-1.0-188.0-0.0","0","0","46896","","null","","","null","20","","","","","","","","","","","","","","","",""
"","ITI","","html-keyboard-response","145","300346","0.0-1.0-189.0","0","0","46896","","null","","","null","20","","","","","","","","","","","","","","","NaN",""
"","S1","","html-keyboard-response","146","300501","0.0-1.0-191.0","0","0","46896","","null","","","null","21","","","","","","","","","","","","","","","",""
"","ISI","","html-keyboard-response","147","302508","0.0-1.0-192.0","0","0","46896","","null","","","null","21","NaN","","","","","","","","","","","","","","",""
"","S2","","html-keyboard-response","148","302666","0.0-1.0-193.0","0","0","46896","","null","","","null","21","","NaN","","","","","","","","","","","","","",""
"","response","","html-keyboard-response","149","303057","0.0-1.0-194.0-0.0","0","0","46896","","385","","","75","21","","","1","21","training","adjacent","DE","4","5","L.jpg","N.jpg","0","1","0","",""
"","feedback","","html-keyboard-response","150","304064","0.0-1.0-195.0-0.0","0","0","46896","","null","","","null","21","","","","","","","","","","","","","","","",""
"","time_out","","html-keyboard-response","151","306069","0.0-1.0-197.0-0.0","0","0","46896","","null","","","null","21","","","","","","","","","","","","","","","",""
"","ITI","","html-keyboard-response","152","307075","0.0-1.0-198.0","0","0","46896","","null","","","null","21","","","","","","","","","","","","","","","NaN",""
"","S1","","html-keyboard-response","153","307231","0.0-1.0-200.0","0","0","46896","","null","","","null","22","","","","","","","","","","","","","","","",""
"","ISI","","html-keyboard-response","154","309237","0.0-1.0-201.0","0","0","46896","","null","","","null","22","NaN","","","","","","","","","","","","","","",""
"","S2","","html-keyboard-response","155","309394","0.0-1.0-202.0","0","0","46896","","null","","","null","22","","NaN","","","","","","","","","","","","","",""
"","response","","html-keyboard-response","156","309644","0.0-1.0-203.0-0.0","0","0","46896","","245","","","68","22","","","1","22","training","adjacent","ED","5","4","N.jpg","L.jpg","1","0","0","",""
"","feedback","","html-keyboard-response","157","310649","0.0-1.0-204.0-0.0","0","0","46896","","null","","","null","22","","","","","","","","","","","","","","","",""
"","time_out","","html-keyboard-response","158","312656","0.0-1.0-206.0-0.0","0","0","46896","","null","","","null","22","","","","","","","","","","","","","","","",""
"","ITI","","html-keyboard-response","159","313663","0.0-1.0-207.0","0","0","46896","","null","","","null","22","","","","","","","","","","","","","","","NaN",""
"","S1","","html-keyboard-response","160","313818","0.0-1.0-209.0","0","0","46896","","null","","","null","23","","","","","","","","","","","","","","","",""
"","ISI","","html-keyboard-response","161","315824","0.0-1.0-210.0","0","0","46896","","null","","","null","23","NaN","","","","","","","","","","","","","","",""
"","S2","","html-keyboard-response","162","315980","0.0-1.0-211.0","0","0","46896","","null","","","null","23","","NaN","","","","","","","","","","","","","",""
"","response","","html-keyboard-response","163","316507","0.0-1.0-212.0-0.0","0","0","46896","","522","","","75","23","","","1","23","training","adjacent","BC","2","3","R.jpg","P.jpg","0","1","0","",""
"","feedback","","html-keyboard-response","164","317514","0.0-1.0-213.0-0.0","0","0","46896","","null","","","null","23","","","","","","","","","","","","","","","",""
"","time_out","","html-keyboard-response","165","319520","0.0-1.0-215.0-0.0","0","0","46896","","null","","","null","23","","","","","","","","","","","","","","","",""
"","ITI","","html-keyboard-response","166","320524","0.0-1.0-216.0","0","0","46896","","null","","","null","23","","","","","","","","","","","","","","","NaN",""
"","S1","","html-keyboard-response","167","320680","0.0-1.0-218.0","0","0","46896","","null","","","null","24","","","","","","","","","","","","","","","",""
"","ISI","","html-keyboard-response","168","322685","0.0-1.0-219.0","0","0","46896","","null","","","null","24","NaN","","","","","","","","","","","","","","",""
"","S2","","html-keyboard-response","169","322841","0.0-1.0-220.0","0","0","46896","","null","","","null","24","","NaN","","","","","","","","","","","","","",""
"","response","","html-keyboard-response","170","323177","0.0-1.0-221.0-0.0","0","0","46896","","332","","","68","24","","","1","24","training","adjacent","CD","3","4","P.jpg","L.jpg","1","1","1","",""
"","feedback","","html-keyboard-response","171","324183","0.0-1.0-222.0-0.0","0","0","46896","","null","","","null","24","","","","","","","","","","","","","","","",""
"","ITI","","html-keyboard-response","172","325190","0.0-1.0-225.0","0","0","46896","","null","","","null","24","","","","","","","","","","","","","","","NaN",""
"","S1","","html-keyboard-response","173","325345","0.0-1.0-227.0","0","0","46896","","null","","","null","25","","","","","","","","","","","","","","","",""
"","ISI","","html-keyboard-response","174","327349","0.0-1.0-228.0","0","0","46896","","null","","","null","25","NaN","","","","","","","","","","","","","","",""
"","S2","","html-keyboard-response","175","327503","0.0-1.0-229.0","0","0","46896","","null","","","null","25","","NaN","","","","","","","","","","","","","",""
"","response","","html-keyboard-response","176","328118","0.0-1.0-230.0-0.0","0","0","46896","","609","","","68","25","","","1","25","training","adjacent","GF","7","6","M.jpg","Q.jpg","1","0","0","",""
"","feedback","","html-keyboard-response","177","329125","0.0-1.0-231.0-0.0","0","0","46896","","null","","","null","25","","","","","","","","","","","","","","","",""
"","time_out","","html-keyboard-response","178","331133","0.0-1.0-233.0-0.0","0","0","46896","","null","","","null","25","","","","","","","","","","","","","","","",""
"","ITI","","html-keyboard-response","179","332138","0.0-1.0-234.0","0","0","46896","","null","","","null","25","","","","","","","","","","","","","","","NaN",""
"","S1","","html-keyboard-response","180","332292","0.0-1.0-236.0","0","0","46896","","null","","","null","26","","","","","","","","","","","","","","","",""
"","ISI","","html-keyboard-response","181","334300","0.0-1.0-237.0","0","0","46896","","null","","","null","26","NaN","","","","","","","","","","","","","","",""
"","S2","","html-keyboard-response","182","334456","0.0-1.0-238.0","0","0","46896","","null","","","null","26","","NaN","","","","","","","","","","","","","",""
"","response","","html-keyboard-response","183","334831","0.0-1.0-239.0-0.0","0","0","46896","","369","","","68","26","","","1","26","training","adjacent","BA","2","1","R.jpg","O.jpg","1","0","0","",""
"","feedback","","html-keyboard-response","184","335838","0.0-1.0-240.0-0.0","0","0","46896","","null","","","null","26","","","","","","","","","","","","","","","",""
"","time_out","","html-keyboard-response","185","337844","0.0-1.0-242.0-0.0","0","0","46896","","null","","","null","26","","","","","","","","","","","","","","","",""
"","ITI","","html-keyboard-response","186","338852","0.0-1.0-243.0","0","0","46896","","null","","","null","26","","","","","","","","","","","","","","","NaN",""
"","S1","","html-keyboard-response","187","339009","0.0-1.0-245.0","0","0","46896","","null","","","null","27","","","","","","","","","","","","","","","",""
"","ISI","","html-keyboard-response","188","341016","0.0-1.0-246.0","0","0","46896","","null","","","null","27","NaN","","","","","","","","","","","","","","",""
"","S2","","html-keyboard-response","189","341170","0.0-1.0-247.0","0","0","46896","","null","","","null","27","","NaN","","","","","","","","","","","","","",""
"","response","","html-keyboard-response","190","341651","0.0-1.0-248.0-0.0","0","0","46896","","475","","","75","27","","","1","27","training","adjacent","CD","3","4","P.jpg","L.jpg","0","1","0","",""
"","feedback","","html-keyboard-response","191","342658","0.0-1.0-249.0-0.0","0","0","46896","","null","","","null","27","","","","","","","","","","","","","","","",""
"","time_out","","html-keyboard-response","192","344664","0.0-1.0-251.0-0.0","0","0","46896","","null","","","null","27","","","","","","","","","","","","","","","",""
"","ITI","","html-keyboard-response","193","345669","0.0-1.0-252.0","0","0","46896","","null","","","null","27","","","","","","","","","","","","","","","NaN",""
"","S1","","html-keyboard-response","194","345823","0.0-1.0-254.0","0","0","46896","","null","","","null","28","","","","","","","","","","","","","","","",""
"","ISI","","html-keyboard-response","195","347829","0.0-1.0-255.0","0","0","46896","","null","","","null","28","NaN","","","","","","","","","","","","","","",""
"","S2","","html-keyboard-response","196","347987","0.0-1.0-256.0","0","0","46896","","null","","","null","28","","NaN","","","","","","","","","","","","","",""
"","response","","html-keyboard-response","197","348379","0.0-1.0-257.0-0.0","0","0","46896","","386","","","75","28","","","1","28","training","adjacent","FE","6","5","Q.jpg","N.jpg","0","0","1","",""
"","feedback","","html-keyboard-response","198","349386","0.0-1.0-258.0-0.0","0","0","46896","","null","","","null","28","","","","","","","","","","","","","","","",""
"","ITI","","html-keyboard-response","199","350393","0.0-1.0-261.0","0","0","46896","","null","","","null","28","","","","","","","","","","","","","","","NaN",""
"","S1","","html-keyboard-response","200","350549","0.0-1.0-263.0","0","0","46896","","null","","","null","29","","","","","","","","","","","","","","","",""
"","ISI","","html-keyboard-response","201","352553","0.0-1.0-264.0","0","0","46896","","null","","","null","29","NaN","","","","","","","","","","","","","","",""
"","S2","","html-keyboard-response","202","352708","0.0-1.0-265.0","0","0","46896","","null","","","null","29","","NaN","","","","","","","","","","","","","",""
"","response","","html-keyboard-response","203","352942","0.0-1.0-266.0-0.0","0","0","46896","","228","","","75","29","","","1","29","training","adjacent","CB","3","2","P.jpg","R.jpg","0","0","1","",""
"","feedback","","html-keyboard-response","204","353950","0.0-1.0-267.0-0.0","0","0","46896","","null","","","null","29","","","","","","","","","","","","","","","",""
"","ITI","","html-keyboard-response","205","354957","0.0-1.0-270.0","0","0","46896","","null","","","null","29","","","","","","","","","","","","","","","NaN",""
"","S1","","html-keyboard-response","206","355114","0.0-1.0-272.0","0","0","46896","","null","","","null","30","","","","","","","","","","","","","","","",""
"","ISI","","html-keyboard-response","207","357120","0.0-1.0-273.0","0","0","46896","","null","","","null","30","NaN","","","","","","","","","","","","","","",""
"","S2","","html-keyboard-response","208","357276","0.0-1.0-274.0","0","0","46896","","null","","","null","30","","NaN","","","","","","","","","","","","","",""
"","response","","html-keyboard-response","209","357698","0.0-1.0-275.0-0.0","0","0","46896","","416","","","68","30","","","1","30","training","adjacent","AB","1","2","O.jpg","R.jpg","1","1","1","",""
"","feedback","","html-keyboard-response","210","358704","0.0-1.0-276.0-0.0","0","0","46896","","null","","","null","30","","","","","","","","","","","","","","","",""
"","ITI","","html-keyboard-response","211","359717","0.0-1.0-279.0","0","0","46896","","null","","","null","30","","","","","","","","","","","","","","","NaN",""
"","S1","","html-keyboard-response","212","359873","0.0-1.0-281.0","0","0","46896","","null","","","null","31","","","","","","","","","","","","","","","",""
"","ISI","","html-keyboard-response","213","361878","0.0-1.0-282.0","0","0","46896","","null","","","null","31","NaN","","","","","","","","","","","","","","",""
"","S2","","html-keyboard-response","214","362033","0.0-1.0-283.0","0","0","46896","","null","","","null","31","","NaN","","","","","","","","","","","","","",""
"","response","","html-keyboard-response","215","362598","0.0-1.0-284.0-0.0","0","0","46896","","559","","","68","31","","","1","31","training","adjacent","CB","3","2","P.jpg","R.jpg","1","0","0","",""
"","feedback","","html-keyboard-response","216","363605","0.0-1.0-285.0-0.0","0","0","46896","","null","","","null","31","","","","","","","","","","","","","","","",""
"","time_out","","html-keyboard-response","217","365611","0.0-1.0-287.0-0.0","0","0","46896","","null","","","null","31","","","","","","","","","","","","","","","",""
"","ITI","","html-keyboard-response","218","366617","0.0-1.0-288.0","0","0","46896","","null","","","null","31","","","","","","","","","","","","","","","NaN",""
"","S1","","html-keyboard-response","219","366773","0.0-1.0-290.0","0","0","46896","","null","","","null","32","","","","","","","","","","","","","","","",""
"","ISI","","html-keyboard-response","220","368778","0.0-1.0-291.0","0","0","46896","","null","","","null","32","NaN","","","","","","","","","","","","","","",""
"","S2","","html-keyboard-response","221","368934","0.0-1.0-292.0","0","0","46896","","null","","","null","32","","NaN","","","","","","","","","","","","","",""
"","response","","html-keyboard-response","222","369488","0.0-1.0-293.0-0.0","0","0","46896","","549","","","75","32","","","1","32","training","adjacent","DE","4","5","L.jpg","N.jpg","0","1","0","",""
"","feedback","","html-keyboard-response","223","370492","0.0-1.0-294.0-0.0","0","0","46896","","null","","","null","32","","","","","","","","","","","","","","","",""
"","time_out","","html-keyboard-response","224","372498","0.0-1.0-296.0-0.0","0","0","46896","","null","","","null","32","","","","","","","","","","","","","","","",""
"","ITI","","html-keyboard-response","225","373505","0.0-1.0-297.0","0","0","46896","","null","","","null","32","","","","","","","","","","","","","","","NaN",""
"","S1","","html-keyboard-response","226","373663","0.0-1.0-299.0","0","0","46896","","null","","","null","33","","","","","","","","","","","","","","","",""
"","ISI","","html-keyboard-response","227","375670","0.0-1.0-300.0","0","0","46896","","null","","","null","33","NaN","","","","","","","","","","","","","","",""
"","S2","","html-keyboard-response","228","375828","0.0-1.0-301.0","0","0","46896","","null","","","null","33","","NaN","","","","","","","","","","","","","",""
"","response","","html-keyboard-response","229","376328","0.0-1.0-302.0-0.0","0","0","46896","","495","","","68","33","","","1","33","training","adjacent","AB","1","2","O.jpg","R.jpg","1","1","1","",""
"","feedback","","html-keyboard-response","230","377333","0.0-1.0-303.0-0.0","0","0","46896","","null","","","null","33","","","","","","","","","","","","","","","",""
"","ITI","","html-keyboard-response","231","378340","0.0-1.0-306.0","0","0","46896","","null","","","null","33","","","","","","","","","","","","","","","NaN",""
"","S1","","html-keyboard-response","232","378496","0.0-1.0-308.0","0","0","46896","","null","","","null","34","","","","","","","","","","","","","","","",""
"","ISI","","html-keyboard-response","233","380502","0.0-1.0-309.0","0","0","46896","","null","","","null","34","NaN","","","","","","","","","","","","","","",""
"","S2","","html-keyboard-response","234","380659","0.0-1.0-310.0","0","0","46896","","null","","","null","34","","NaN","","","","","","","","","","","","","",""
"","response","","html-keyboard-response","235","380788","0.0-1.0-311.0-0.0","0","0","46896","","125","","","75","34","","","1","34","training","adjacent","EF","5","6","N.jpg","Q.jpg","0","1","0","",""
"","feedback","","html-keyboard-response","236","381806","0.0-1.0-312.0-0.0","0","0","46896","","null","","","null","34","","","","","","","","","","","","","","","",""
"","time_out","","html-keyboard-response","237","383813","0.0-1.0-314.0-0.0","0","0","46896","","null","","","null","34","","","","","","","","","","","","","","","",""
"","ITI","","html-keyboard-response","238","384819","0.0-1.0-315.0","0","0","46896","","null","","","null","34","","","","","","","","","","","","","","","NaN",""
"","S1","","html-keyboard-response","239","384974","0.0-1.0-317.0","0","0","46896","","null","","","null","35","","","","","","","","","","","","","","","",""
"","ISI","","html-keyboard-response","240","386980","0.0-1.0-318.0","0","0","46896","","null","","","null","35","NaN","","","","","","","","","","","","","","",""
"","S2","","html-keyboard-response","241","387136","0.0-1.0-319.0","0","0","46896","","null","","","null","35","","NaN","","","","","","","","","","","","","",""
"","response","","html-keyboard-response","242","387618","0.0-1.0-320.0-0.0","0","0","46896","","478","","","68","35","","","1","35","training","adjacent","EF","5","6","N.jpg","Q.jpg","1","1","1","",""
"","feedback","","html-keyboard-response","243","388623","0.0-1.0-321.0-0.0","0","0","46896","","null","","","null","35","","","","","","","","","","","","","","","",""
"","ITI","","html-keyboard-response","244","389629","0.0-1.0-324.0","0","0","46896","","null","","","null","35","","","","","","","","","","","","","","","NaN",""
"","S1","","html-keyboard-response","245","389784","0.0-1.0-326.0","0","0","46896","","null","","","null","36","","","","","","","","","","","","","","","",""
"","ISI","","html-keyboard-response","246","391790","0.0-1.0-327.0","0","0","46896","","null","","","null","36","NaN","","","","","","","","","","","","","","",""
"","S2","","html-keyboard-response","247","391945","0.0-1.0-328.0","0","0","46896","","null","","","null","36","","NaN","","","","","","","","","","","","","",""
"","response","","html-keyboard-response","248","392574","0.0-1.0-329.0-0.0","0","0","46896","","623","","","75","36","","","1","36","training","adjacent","FE","6","5","Q.jpg","N.jpg","0","0","1","",""
"","feedback","","html-keyboard-response","249","393580","0.0-1.0-330.0-0.0","0","0","46896","","null","","","null","36","","","","","","","","","","","","","","","",""
"","ITI","","html-keyboard-response","250","394586","0.0-1.0-333.0","0","0","46896","","null","","","null","36","","","","","","","","","","","","","","","NaN",""
"","S1","","html-keyboard-response","251","394743","0.0-1.0-335.0","0","0","46896","","null","","","null","37","","","","","","","","","","","","","","","",""
"","ISI","","html-keyboard-response","252","396749","0.0-1.0-336.0","0","0","46896","","null","","","null","37","NaN","","","","","","","","","","","","","","",""
"","S2","","html-keyboard-response","253","396904","0.0-1.0-337.0","0","0","46896","","null","","","null","37","","NaN","","","","","","","","","","","","","",""
"","response","","html-keyboard-response","254","397102","0.0-1.0-338.0-0.0","0","0","46896","","194","","","68","37","","","1","37","training","adjacent","ED","5","4","N.jpg","L.jpg","1","0","0","",""
"","feedback","","html-keyboard-response","255","398107","0.0-1.0-339.0-0.0","0","0","46896","","null","","","null","37","","","","","","","","","","","","","","","",""
"","time_out","","html-keyboard-response","256","400111","0.0-1.0-341.0-0.0","0","0","46896","","null","","","null","37","","","","","","","","","","","","","","","",""
"","ITI","","html-keyboard-response","257","401116","0.0-1.0-342.0","0","0","46896","","null","","","null","37","","","","","","","","","","","","","","","NaN",""
"","S1","","html-keyboard-response","258","401274","0.0-1.0-344.0","0","0","46896","","null","","","null","38","","","","","","","","","","","","","","","",""
"","ISI","","html-keyboard-response","259","403279","0.0-1.0-345.0","0","0","46896","","null","","","null","38","NaN","","","","","","","","","","","","","","",""
"","S2","","html-keyboard-response","260","403435","0.0-1.0-346.0","0","0","46896","","null","","","null","38","","NaN","","","","","","","","","","","","","",""
"","response","","html-keyboard-response","261","403784","0.0-1.0-347.0-0.0","0","0","46896","","346","","","75","38","","","1","38","training","adjacent","BC","2","3","R.jpg","P.jpg","0","1","0","",""
"","feedback","","html-keyboard-response","262","404791","0.0-1.0-348.0-0.0","0","0","46896","","null","","","null","38","","","","","","","","","","","","","","","",""
"","time_out","","html-keyboard-response","263","406798","0.0-1.0-350.0-0.0","0","0","46896","","null","","","null","38","","","","","","","","","","","","","","","",""
"","ITI","","html-keyboard-response","264","407804","0.0-1.0-351.0","0","0","46896","","null","","","null","38","","","","","","","","","","","","","","","NaN",""
"","S1","","html-keyboard-response","265","407960","0.0-1.0-353.0","0","0","46896","","null","","","null","39","","","","","","","","","","","","","","","",""
"","ISI","","html-keyboard-response","266","409966","0.0-1.0-354.0","0","0","46896","","524","","","68","39","d","","","","","","","","","","","","","","",""
"","S2","","html-keyboard-response","267","410125","0.0-1.0-355.0","0","0","46896","","null","","","null","39","","NaN","","","","","","","","","","","","","",""
"","response","","html-keyboard-response","268","410324","0.0-1.0-356.0-0.0","0","0","46896","","194","","","68","39","","","1","39","training","adjacent","GF","7","6","M.jpg","Q.jpg","1","0","0","",""
"","feedback","","html-keyboard-response","269","411332","0.0-1.0-357.0-0.0","0","0","46896","","null","","","null","39","","","","","","","","","","","","","","","",""
"","time_out","","html-keyboard-response","270","413338","0.0-1.0-359.0-0.0","0","0","46896","","null","","","null","39","","","","","","","","","","","","","","","",""
"","ITI","","html-keyboard-response","271","414344","0.0-1.0-360.0","0","0","46896","","null","","","null","39","","","","","","","","","","","","","","","NaN",""
"","S1","","html-keyboard-response","272","414509","0.0-1.0-362.0","0","0","46896","","null","","","null","40","","","","","","","","","","","","","","","",""
"","ISI","","html-keyboard-response","273","416515","0.0-1.0-363.0","0","0","46896","","null","","","null","40","NaN","","","","","","","","","","","","","","",""
"","S2","","html-keyboard-response","274","416673","0.0-1.0-364.0","0","0","46896","","null","","","null","40","","NaN","","","","","","","","","","","","","",""
"","response","","html-keyboard-response","275","417243","0.0-1.0-365.0-0.0","0","0","46896","","564","","","68","40","","","1","40","training","adjacent","DC","4","3","L.jpg","P.jpg","1","0","0","",""
"","feedback","","html-keyboard-response","276","418250","0.0-1.0-366.0-0.0","0","0","46896","","null","","","null","40","","","","","","","","","","","","","","","",""
"","time_out","","html-keyboard-response","277","420256","0.0-1.0-368.0-0.0","0","0","46896","","null","","","null","40","","","","","","","","","","","","","","","",""
"","ITI","","html-keyboard-response","278","421261","0.0-1.0-369.0","0","0","46896","","null","","","null","40","","","","","","","","","","","","","","","NaN",""
"","S1","","html-keyboard-response","279","421417","0.0-1.0-371.0","0","0","46896","","null","","","null","41","","","","","","","","","","","","","","","",""
"","ISI","","html-keyboard-response","280","423423","0.0-1.0-372.0","0","0","46896","","null","","","null","41","NaN","","","","","","","","","","","","","","",""
"","S2","","html-keyboard-response","281","423580","0.0-1.0-373.0","0","0","46896","","null","","","null","41","","NaN","","","","","","","","","","","","","",""
"","response","","html-keyboard-response","282","424489","0.0-1.0-374.0-0.0","0","0","46896","","904","","","75","41","","","1","41","training","adjacent","EF","5","6","N.jpg","Q.jpg","0","1","0","",""
"","feedback","","html-keyboard-response","283","425493","0.0-1.0-375.0-0.0","0","0","46896","","null","","","null","41","","","","","","","","","","","","","","","",""
"","time_out","","html-keyboard-response","284","427497","0.0-1.0-377.0-0.0","0","0","46896","","null","","","null","41","","","","","","","","","","","","","","","",""
"","ITI","","html-keyboard-response","285","428501","0.0-1.0-378.0","0","0","46896","","null","","","null","41","","","","","","","","","","","","","","","NaN",""
"","S1","","html-keyboard-response","286","428658","0.0-1.0-380.0","0","0","46896","","null","","","null","42","","","","","","","","","","","","","","","",""
"","ISI","","html-keyboard-response","287","430664","0.0-1.0-381.0","0","0","46896","","null","","","null","42","NaN","","","","","","","","","","","","","","",""
"","S2","","html-keyboard-response","288","430821","0.0-1.0-382.0","0","0","46896","","null","","","null","42","","NaN","","","","","","","","","","","","","",""
"","response","","html-keyboard-response","289","431042","0.0-1.0-383.0-0.0","0","0","46896","","215","","","75","42","","","1","42","training","adjacent","FG","6","7","Q.jpg","M.jpg","0","1","0","",""
"","feedback","","html-keyboard-response","290","432049","0.0-1.0-384.0-0.0","0","0","46896","","null","","","null","42","","","","","","","","","","","","","","","",""
"","time_out","","html-keyboard-response","291","434055","0.0-1.0-386.0-0.0","0","0","46896","","null","","","null","42","","","","","","","","","","","","","","","",""
"","ITI","","html-keyboard-response","292","435061","0.0-1.0-387.0","0","0","46896","","null","","","null","42","","","","","","","","","","","","","","","NaN",""
"","S1","","html-keyboard-response","293","435216","0.0-1.0-389.0","0","0","46896","","null","","","null","43","","","","","","","","","","","","","","","",""
"","ISI","","html-keyboard-response","294","437222","0.0-1.0-390.0","0","0","46896","","212","","","68","43","d","","","","","","","","","","","","","","",""
"","S2","","html-keyboard-response","295","437387","0.0-1.0-391.0","0","0","46896","","null","","","null","43","","NaN","","","","","","","","","","","","","",""
"","response","","html-keyboard-response","296","438754","0.0-1.0-392.0-0.0","0","0","46896","","1362","","","68","43","","","1","43","training","adjacent","FE","6","5","Q.jpg","N.jpg","1","0","0","",""
"","feedback","","html-keyboard-response","297","439761","0.0-1.0-393.0-0.0","0","0","46896","","null","","","null","43","","","","","","","","","","","","","","","",""
"","time_out","","html-keyboard-response","298","441768","0.0-1.0-395.0-0.0","0","0","46896","","null","","","null","43","","","","","","","","","","","","","","","",""
"","ITI","","html-keyboard-response","299","442773","0.0-1.0-396.0","0","0","46896","","null","","","null","43","","","","","","","","","","","","","","","NaN",""
"","S1","","html-keyboard-response","300","442930","0.0-1.0-398.0","0","0","46896","","null","","","null","44","","","","","","","","","","","","","","","",""
"","ISI","","html-keyboard-response","301","444935","0.0-1.0-399.0","0","0","46896","","null","","","null","44","NaN","","","","","","","","","","","","","","",""
"","S2","","html-keyboard-response","302","445090","0.0-1.0-400.0","0","0","46896","","null","","","null","44","","NaN","","","","","","","","","","","","","",""
"","response","","html-keyboard-response","303","445490","0.0-1.0-401.0-0.0","0","0","46896","","396","","","68","44","","","1","44","training","adjacent","AB","1","2","O.jpg","R.jpg","1","1","1","",""
"","feedback","","html-keyboard-response","304","446496","0.0-1.0-402.0-0.0","0","0","46896","","null","","","null","44","","","","","","","","","","","","","","","",""
"","ITI","","html-keyboard-response","305","447502","0.0-1.0-405.0","0","0","46896","","null","","","null","44","","","","","","","","","","","","","","","NaN",""
"","S1","","html-keyboard-response","306","447658","0.0-1.0-407.0","0","0","46896","","null","","","null","45","","","","","","","","","","","","","","","",""
"","ISI","","html-keyboard-response","307","449664","0.0-1.0-408.0","0","0","46896","","null","","","null","45","NaN","","","","","","","","","","","","","","",""
"","S2","","html-keyboard-response","308","449821","0.0-1.0-409.0","0","0","46896","","null","","","null","45","","NaN","","","","","","","","","","","","","",""
"","response","","html-keyboard-response","309","450593","0.0-1.0-410.0-0.0","0","0","46896","","768","","","68","45","","","1","45","training","adjacent","FG","6","7","Q.jpg","M.jpg","1","1","1","",""
"","feedback","","html-keyboard-response","310","451597","0.0-1.0-411.0-0.0","0","0","46896","","null","","","null","45","","","","","","","","","","","","","","","",""
"","ITI","","html-keyboard-response","311","452602","0.0-1.0-414.0","0","0","46896","","null","","","null","45","","","","","","","","","","","","","","","NaN",""
"","S1","","html-keyboard-response","312","452759","0.0-1.0-416.0","0","0","46896","","null","","","null","46","","","","","","","","","","","","","","","",""
"","ISI","","html-keyboard-response","313","454764","0.0-1.0-417.0","0","0","46896","","null","","","null","46","NaN","","","","","","","","","","","","","","",""
"","S2","","html-keyboard-response","314","454918","0.0-1.0-418.0","0","0","46896","","null","","","null","46","","NaN","","","","","","","","","","","","","",""
"","response","","html-keyboard-response","315","455060","0.0-1.0-419.0-0.0","0","0","46896","","138","","","68","46","","","1","46","training","adjacent","GF","7","6","M.jpg","Q.jpg","1","0","0","",""
"","feedback","","html-keyboard-response","316","456069","0.0-1.0-420.0-0.0","0","0","46896","","null","","","null","46","","","","","","","","","","","","","","","",""
"","time_out","","html-keyboard-response","317","458076","0.0-1.0-422.0-0.0","0","0","46896","","null","","","null","46","","","","","","","","","","","","","","","",""
"","ITI","","html-keyboard-response","318","459082","0.0-1.0-423.0","0","0","46896","","null","","","null","46","","","","","","","","","","","","","","","NaN",""
"","S1","","html-keyboard-response","319","459237","0.0-1.0-425.0","0","0","46896","","null","","","null","47","","","","","","","","","","","","","","","",""
"","ISI","","html-keyboard-response","320","461242","0.0-1.0-426.0","0","0","46896","","null","","","null","47","NaN","","","","","","","","","","","","","","",""
"","S2","","html-keyboard-response","321","461398","0.0-1.0-427.0","0","0","46896","","null","","","null","47","","NaN","","","","","","","","","","","","","",""
"","response","","html-keyboard-response","322","461924","0.0-1.0-428.0-0.0","0","0","46896","","520","","","75","47","","","1","47","training","adjacent","ED","5","4","N.jpg","L.jpg","0","0","1","",""
"","feedback","","html-keyboard-response","323","462931","0.0-1.0-429.0-0.0","0","0","46896","","null","","","null","47","","","","","","","","","","","","","","","",""
"","ITI","","html-keyboard-response","324","463937","0.0-1.0-432.0","0","0","46896","","null","","","null","47","","","","","","","","","","","","","","","NaN",""
"","block_over","","html-keyboard-response","325","473971","0.0-1.0-433.0-0.0","0","0","46896","","10027","","","32","47","","","","","","","","","","","","","","","",""
"","S1","","html-keyboard-response","326","474130","0.0-1.0-434.0","0","0","46896","","null","","","null","48","","","","","","","","","","","","","","","",""
"","ISI","","html-keyboard-response","327","476136","0.0-1.0-435.0","0","0","46896","","null","","","null","48","NaN","","","","","","","","","","","","","","",""
"","S2","","html-keyboard-response","328","476290","0.0-1.0-436.0","0","0","46896","","null","","","null","48","","NaN","","","","","","","","","","","","","",""
"","response","","html-keyboard-response","329","477200","0.0-1.0-437.0-0.0","0","0","46896","","905","","","68","48","","","2","48","training","adjacent","CB","3","2","P.jpg","R.jpg","1","0","0","",""
"","feedback","","html-keyboard-response","330","478207","0.0-1.0-438.0-0.0","0","0","46896","","null","","","null","48","","","","","","","","","","","","","","","",""
"","time_out","","html-keyboard-response","331","480213","0.0-1.0-440.0-0.0","0","0","46896","","null","","","null","48","","","","","","","","","","","","","","","",""
"","ITI","","html-keyboard-response","332","481219","0.0-1.0-441.0","0","0","46896","","null","","","null","48","","","","","","","","","","","","","","","NaN",""
"","S1","","html-keyboard-response","333","481375","0.0-1.0-443.0","0","0","46896","","null","","","null","49","","","","","","","","","","","","","","","",""
"","ISI","","html-keyboard-response","334","483381","0.0-1.0-444.0","0","0","46896","","null","","","null","49","NaN","","","","","","","","","","","","","","",""
"","S2","","html-keyboard-response","335","483542","0.0-1.0-445.0","0","0","46896","","null","","","null","49","","NaN","","","","","","","","","","","","","",""
"","response","","html-keyboard-response","336","483992","0.0-1.0-446.0-0.0","0","0","46896","","445","","","75","49","","","2","49","training","adjacent","DE","4","5","L.jpg","N.jpg","0","1","0","",""
"","feedback","","html-keyboard-response","337","485000","0.0-1.0-447.0-0.0","0","0","46896","","null","","","null","49","","","","","","","","","","","","","","","",""
"","time_out","","html-keyboard-response","338","487008","0.0-1.0-449.0-0.0","0","0","46896","","null","","","null","49","","","","","","","","","","","","","","","",""
"","ITI","","html-keyboard-response","339","488015","0.0-1.0-450.0","0","0","46896","","null","","","null","49","","","","","","","","","","","","","","","NaN",""
"","S1","","html-keyboard-response","340","488171","0.0-1.0-452.0","0","0","46896","","null","","","null","50","","","","","","","","","","","","","","","",""
"","ISI","","html-keyboard-response","341","490177","0.0-1.0-453.0","0","0","46896","","null","","","null","50","NaN","","","","","","","","","","","","","","",""
"","S2","","html-keyboard-response","342","490334","0.0-1.0-454.0","0","0","46896","","null","","","null","50","","NaN","","","","","","","","","","","","","",""
"","response","","html-keyboard-response","343","490708","0.0-1.0-455.0-0.0","0","0","46896","","367","","","68","50","","","2","50","training","adjacent","FE","6","5","Q.jpg","N.jpg","1","0","0","",""
"","feedback","","html-keyboard-response","344","491716","0.0-1.0-456.0-0.0","0","0","46896","","null","","","null","50","","","","","","","","","","","","","","","",""
"","time_out","","html-keyboard-response","345","493722","0.0-1.0-458.0-0.0","0","0","46896","","null","","","null","50","","","","","","","","","","","","","","","",""
"","ITI","","html-keyboard-response","346","494728","0.0-1.0-459.0","0","0","46896","","null","","","null","50","","","","","","","","","","","","","","","NaN",""
"","S1","","html-keyboard-response","347","494885","0.0-1.0-461.0","0","0","46896","","null","","","null","51","","","","","","","","","","","","","","","",""
"","ISI","","html-keyboard-response","348","496891","0.0-1.0-462.0","0","0","46896","","243","","","75","51","k","","","","","","","","","","","","","","",""
"","S2","","html-keyboard-response","349","497055","0.0-1.0-463.0","0","0","46896","","null","","","null","51","","NaN","","","","","","","","","","","","","",""
"","response","","html-keyboard-response","350","497857","0.0-1.0-464.0-0.0","0","0","46896","","796","","","68","51","","","2","51","training","adjacent","GF","7","6","M.jpg","Q.jpg","1","0","0","",""
"","feedback","","html-keyboard-response","351","498863","0.0-1.0-465.0-0.0","0","0","46896","","null","","","null","51","","","","","","","","","","","","","","","",""
"","time_out","","html-keyboard-response","352","500869","0.0-1.0-467.0-0.0","0","0","46896","","null","","","null","51","","","","","","","","","","","","","","","",""
"","ITI","","html-keyboard-response","353","501873","0.0-1.0-468.0","0","0","46896","","null","","","null","51","","","","","","","","","","","","","","","NaN",""
"","S1","","html-keyboard-response","354","502029","0.0-1.0-470.0","0","0","46896","","null","","","null","52","","","","","","","","","","","","","","","",""
"","ISI","","html-keyboard-response","355","504035","0.0-1.0-471.0","0","0","46896","","null","","","null","52","NaN","","","","","","","","","","","","","","",""
"","S2","","html-keyboard-response","356","504190","0.0-1.0-472.0","0","0","46896","","null","","","null","52","","NaN","","","","","","","","","","","","","",""
"","response","","html-keyboard-response","357","504718","0.0-1.0-473.0-0.0","0","0","46896","","523","","","75","52","","","2","52","training","adjacent","DC","4","3","L.jpg","P.jpg","0","0","1","",""
"","feedback","","html-keyboard-response","358","505727","0.0-1.0-474.0-0.0","0","0","46896","","null","","","null","52","","","","","","","","","","","","","","","",""
"","ITI","","html-keyboard-response","359","506734","0.0-1.0-477.0","0","0","46896","","null","","","null","52","","","","","","","","","","","","","","","NaN",""
"","S1","","html-keyboard-response","360","506891","0.0-1.0-479.0","0","0","46896","","null","","","null","53","","","","","","","","","","","","","","","",""
"","ISI","","html-keyboard-response","361","508898","0.0-1.0-480.0","0","0","46896","","null","","","null","53","NaN","","","","","","","","","","","","","","",""
"","S2","","html-keyboard-response","362","509056","0.0-1.0-481.0","0","0","46896","","null","","","null","53","","NaN","","","","","","","","","","","","","",""
"","response","","html-keyboard-response","363","509791","0.0-1.0-482.0-0.0","0","0","46896","","729","","","75","53","","","2","53","training","adjacent","AB","1","2","O.jpg","R.jpg","0","1","0","",""
"","feedback","","html-keyboard-response","364","510799","0.0-1.0-483.0-0.0","0","0","46896","","null","","","null","53","","","","","","","","","","","","","","","",""
"","time_out","","html-keyboard-response","365","512804","0.0-1.0-485.0-0.0","0","0","46896","","null","","","null","53","","","","","","","","","","","","","","","",""
"","ITI","","html-keyboard-response","366","513809","0.0-1.0-486.0","0","0","46896","","null","","","null","53","","","","","","","","","","","","","","","NaN",""
"","S1","","html-keyboard-response","367","513965","0.0-1.0-488.0","0","0","46896","","null","","","null","54","","","","","","","","","","","","","","","",""
"","ISI","","html-keyboard-response","368","515971","0.0-1.0-489.0","0","0","46896","","505","","","68","54","d","","","","","","","","","","","","","","",""
"","S2","","html-keyboard-response","369","516127","0.0-1.0-490.0","0","0","46896","","null","","","null","54","","NaN","","","","","","","","","","","","","",""
"","response","","html-keyboard-response","370","516575","0.0-1.0-491.0-0.0","0","0","46896","","443","","","68","54","","","2","54","training","adjacent","EF","5","6","N.jpg","Q.jpg","1","1","1","",""
"","feedback","","html-keyboard-response","371","517583","0.0-1.0-492.0-0.0","0","0","46896","","null","","","null","54","","","","","","","","","","","","","","","",""
"","ITI","","html-keyboard-response","372","518588","0.0-1.0-495.0","0","0","46896","","null","","","null","54","","","","","","","","","","","","","","","NaN",""
"","S1","","html-keyboard-response","373","518742","0.0-1.0-497.0","0","0","46896","","null","","","null","55","","","","","","","","","","","","","","","",""
"","ISI","","html-keyboard-response","374","520749","0.0-1.0-498.0","0","0","46896","","null","","","null","55","NaN","","","","","","","","","","","","","","",""
"","S2","","html-keyboard-response","375","520906","0.0-1.0-499.0","0","0","46896","","null","","","null","55","","NaN","","","","","","","","","","","","","",""
"","response","","html-keyboard-response","376","521592","0.0-1.0-500.0-0.0","0","0","46896","","682","","","75","55","","","2","55","training","adjacent","ED","5","4","N.jpg","L.jpg","0","0","1","",""
"","feedback","","html-keyboard-response","377","522600","0.0-1.0-501.0-0.0","0","0","46896","","null","","","null","55","","","","","","","","","","","","","","","",""
"","ITI","","html-keyboard-response","378","523608","0.0-1.0-504.0","0","0","46896","","null","","","null","55","","","","","","","","","","","","","","","NaN",""
"","S1","","html-keyboard-response","379","523764","0.0-1.0-506.0","0","0","46896","","null","","","null","56","","","","","","","","","","","","","","","",""
"","ISI","","html-keyboard-response","380","525771","0.0-1.0-507.0","0","0","46896","","null","","","null","56","NaN","","","","","","","","","","","","","","",""
"","S2","","html-keyboard-response","381","525928","0.0-1.0-508.0","0","0","46896","","null","","","null","56","","NaN","","","","","","","","","","","","","",""
"","response","","html-keyboard-response","382","526738","0.0-1.0-509.0-0.0","0","0","46896","","805","","","75","56","","","2","56","training","adjacent","DE","4","5","L.jpg","N.jpg","0","1","0","",""
"","feedback","","html-keyboard-response","383","527745","0.0-1.0-510.0-0.0","0","0","46896","","null","","","null","56","","","","","","","","","","","","","","","",""
"","time_out","","html-keyboard-response","384","529753","0.0-1.0-512.0-0.0","0","0","46896","","null","","","null","56","","","","","","","","","","","","","","","",""
"","ITI","","html-keyboard-response","385","530760","0.0-1.0-513.0","0","0","46896","","null","","","null","56","","","","","","","","","","","","","","","NaN",""
"","S1","","html-keyboard-response","386","530915","0.0-1.0-515.0","0","0","46896","","null","","","null","57","","","","","","","","","","","","","","","",""
"","ISI","","html-keyboard-response","387","532919","0.0-1.0-516.0","0","0","46896","","null","","","null","57","NaN","","","","","","","","","","","","","","",""
"","S2","","html-keyboard-response","388","533074","0.0-1.0-517.0","0","0","46896","","null","","","null","57","","NaN","","","","","","","","","","","","","",""
"","response","","html-keyboard-response","389","533612","0.0-1.0-518.0-0.0","0","0","46896","","532","","","68","57","","","2","57","training","adjacent","CB","3","2","P.jpg","R.jpg","1","0","0","",""
"","feedback","","html-keyboard-response","390","534619","0.0-1.0-519.0-0.0","0","0","46896","","null","","","null","57","","","","","","","","","","","","","","","",""
"","time_out","","html-keyboard-response","391","536626","0.0-1.0-521.0-0.0","0","0","46896","","null","","","null","57","","","","","","","","","","","","","","","",""
"","ITI","","html-keyboard-response","392","537631","0.0-1.0-522.0","0","0","46896","","null","","","null","57","","","","","","","","","","","","","","","NaN",""
"","S1","","html-keyboard-response","393","537787","0.0-1.0-524.0","0","0","46896","","null","","","null","58","","","","","","","","","","","","","","","",""
"","ISI","","html-keyboard-response","394","539792","0.0-1.0-525.0","0","0","46896","","null","","","null","58","NaN","","","","","","","","","","","","","","",""
"","S2","","html-keyboard-response","395","539947","0.0-1.0-526.0","0","0","46896","","null","","","null","58","","NaN","","","","","","","","","","","","","",""
"","response","","html-keyboard-response","396","540532","0.0-1.0-527.0-0.0","0","0","46896","","580","","","75","58","","","2","58","training","adjacent","BA","2","1","R.jpg","O.jpg","0","0","1","",""
"","feedback","","html-keyboard-response","397","541537","0.0-1.0-528.0-0.0","0","0","46896","","null","","","null","58","","","","","","","","","","","","","","","",""
"","ITI","","html-keyboard-response","398","542543","0.0-1.0-531.0","0","0","46896","","null","","","null","58","","","","","","","","","","","","","","","NaN",""
"","S1","","html-keyboard-response","399","542704","0.0-1.0-533.0","0","0","46896","","null","","","null","59","","","","","","","","","","","","","","","",""
"","ISI","","html-keyboard-response","400","544711","0.0-1.0-534.0","0","0","46896","","null","","","null","59","NaN","","","","","","","","","","","","","","",""
"","S2","","html-keyboard-response","401","544876","0.0-1.0-535.0","0","0","46896","","null","","","null","59","","NaN","","","","","","","","","","","","","",""
"","response","","html-keyboard-response","402","545267","0.0-1.0-536.0-0.0","0","0","46896","","386","","","68","59","","","2","59","training","adjacent","DC","4","3","L.jpg","P.jpg","1","0","0","",""
"","feedback","","html-keyboard-response","403","546275","0.0-1.0-537.0-0.0","0","0","46896","","null","","","null","59","","","","","","","","","","","","","","","",""
"","time_out","","html-keyboard-response","404","548281","0.0-1.0-539.0-0.0","0","0","46896","","null","","","null","59","","","","","","","","","","","","","","","",""
"","ITI","","html-keyboard-response","405","549288","0.0-1.0-540.0","0","0","46896","","null","","","null","59","","","","","","","","","","","","","","","NaN",""
"","S1","","html-keyboard-response","406","549444","0.0-1.0-542.0","0","0","46896","","null","","","null","60","","","","","","","","","","","","","","","",""
"","ISI","","html-keyboard-response","407","551450","0.0-1.0-543.0","0","0","46896","","null","","","null","60","NaN","","","","","","","","","","","","","","",""
"","S2","","html-keyboard-response","408","551608","0.0-1.0-544.0","0","0","46896","","null","","","null","60","","NaN","","","","","","","","","","","","","",""
"","response","","html-keyboard-response","409","552101","0.0-1.0-545.0-0.0","0","0","46896","","489","","","75","60","","","2","60","training","adjacent","BA","2","1","R.jpg","O.jpg","0","0","1","",""
"","feedback","","html-keyboard-response","410","553108","0.0-1.0-546.0-0.0","0","0","46896","","null","","","null","60","","","","","","","","","","","","","","","",""
"","ITI","","html-keyboard-response","411","554116","0.0-1.0-549.0","0","0","46896","","null","","","null","60","","","","","","","","","","","","","","","NaN",""
"","S1","","html-keyboard-response","412","554274","0.0-1.0-551.0","0","0","46896","","null","","","null","61","","","","","","","","","","","","","","","",""
"","ISI","","html-keyboard-response","413","556280","0.0-1.0-552.0","0","0","46896","","null","","","null","61","NaN","","","","","","","","","","","","","","",""
"","S2","","html-keyboard-response","414","556438","0.0-1.0-553.0","0","0","46896","","null","","","null","61","","NaN","","","","","","","","","","","","","",""
"","response","","html-keyboard-response","415","557101","0.0-1.0-554.0-0.0","0","0","46896","","658","","","68","61","","","2","61","training","adjacent","AB","1","2","O.jpg","R.jpg","1","1","1","",""
"","feedback","","html-keyboard-response","416","558106","0.0-1.0-555.0-0.0","0","0","46896","","null","","","null","61","","","","","","","","","","","","","","","",""
"","ITI","","html-keyboard-response","417","559113","0.0-1.0-558.0","0","0","46896","","null","","","null","61","","","","","","","","","","","","","","","NaN",""
"","S1","","html-keyboard-response","418","559271","0.0-1.0-560.0","0","0","46896","","null","","","null","62","","","","","","","","","","","","","","","",""
"","ISI","","html-keyboard-response","419","561277","0.0-1.0-561.0","0","0","46896","","null","","","null","62","NaN","","","","","","","","","","","","","","",""
"","S2","","html-keyboard-response","420","561435","0.0-1.0-562.0","0","0","46896","","null","","","null","62","","NaN","","","","","","","","","","","","","",""
"","response","","html-keyboard-response","421","562144","0.0-1.0-563.0-0.0","0","0","46896","","704","","","75","62","","","2","62","training","adjacent","FE","6","5","Q.jpg","N.jpg","0","0","1","",""
"","feedback","","html-keyboard-response","422","563151","0.0-1.0-564.0-0.0","0","0","46896","","null","","","null","62","","","","","","","","","","","","","","","",""
"","ITI","","html-keyboard-response","423","564157","0.0-1.0-567.0","0","0","46896","","null","","","null","62","","","","","","","","","","","","","","","NaN",""
"","S1","","html-keyboard-response","424","564312","0.0-1.0-569.0","0","0","46896","","null","","","null","63","","","","","","","","","","","","","","","",""
"","ISI","","html-keyboard-response","425","566319","0.0-1.0-570.0","0","0","46896","","null","","","null","63","NaN","","","","","","","","","","","","","","",""
"","S2","","html-keyboard-response","426","566475","0.0-1.0-571.0","0","0","46896","","null","","","null","63","","NaN","","","","","","","","","","","","","",""
"","response","","html-keyboard-response","427","567217","0.0-1.0-572.0-0.0","0","0","46896","","737","","","75","63","","","2","63","training","adjacent","ED","5","4","N.jpg","L.jpg","0","0","1","",""
"","feedback","","html-keyboard-response","428","568224","0.0-1.0-573.0-0.0","0","0","46896","","null","","","null","63","","","","","","","","","","","","","","","",""
"","ITI","","html-keyboard-response","429","569230","0.0-1.0-576.0","0","0","46896","","null","","","null","63","","","","","","","","","","","","","","","NaN",""
"","S1","","html-keyboard-response","430","569385","0.0-1.0-578.0","0","0","46896","","null","","","null","64","","","","","","","","","","","","","","","",""
"","ISI","","html-keyboard-response","431","571391","0.0-1.0-579.0","0","0","46896","","null","","","null","64","NaN","","","","","","","","","","","","","","",""
"","S2","","html-keyboard-response","432","571551","0.0-1.0-580.0","0","0","46896","","null","","","null","64","","NaN","","","","","","","","","","","","","",""
"","response","","html-keyboard-response","433","572051","0.0-1.0-581.0-0.0","0","0","46896","","494","","","68","64","","","2","64","training","adjacent","DC","4","3","L.jpg","P.jpg","1","0","0","",""
"","feedback","","html-keyboard-response","434","573059","0.0-1.0-582.0-0.0","0","0","46896","","null","","","null","64","","","","","","","","","","","","","","","",""
"","time_out","","html-keyboard-response","435","575064","0.0-1.0-584.0-0.0","0","0","46896","","null","","","null","64","","","","","","","","","","","","","","","",""
"","ITI","","html-keyboard-response","436","576073","0.0-1.0-585.0","0","0","46896","","null","","","null","64","","","","","","","","","","","","","","","NaN",""
"","S1","","html-keyboard-response","437","576230","0.0-1.0-587.0","0","0","46896","","null","","","null","65","","","","","","","","","","","","","","","",""
"","ISI","","html-keyboard-response","438","578237","0.0-1.0-588.0","0","0","46896","","null","","","null","65","NaN","","","","","","","","","","","","","","",""
"","S2","","html-keyboard-response","439","578394","0.0-1.0-589.0","0","0","46896","","null","","","null","65","","NaN","","","","","","","","","","","","","",""
"","response","","html-keyboard-response","440","579083","0.0-1.0-590.0-0.0","0","0","46896","","683","","","75","65","","","2","65","training","adjacent","BC","2","3","R.jpg","P.jpg","0","1","0","",""
"","feedback","","html-keyboard-response","441","580090","0.0-1.0-591.0-0.0","0","0","46896","","null","","","null","65","","","","","","","","","","","","","","","",""
"","time_out","","html-keyboard-response","442","582096","0.0-1.0-593.0-0.0","0","0","46896","","null","","","null","65","","","","","","","","","","","","","","","",""
"","ITI","","html-keyboard-response","443","583103","0.0-1.0-594.0","0","0","46896","","null","","","null","65","","","","","","","","","","","","","","","NaN",""
"","S1","","html-keyboard-response","444","583258","0.0-1.0-596.0","0","0","46896","","null","","","null","66","","","","","","","","","","","","","","","",""
"","ISI","","html-keyboard-response","445","585264","0.0-1.0-597.0","0","0","46896","","null","","","null","66","NaN","","","","","","","","","","","","","","",""
"","S2","","html-keyboard-response","446","585421","0.0-1.0-598.0","0","0","46896","","null","","","null","66","","NaN","","","","","","","","","","","","","",""
"","response","","html-keyboard-response","447","586187","0.0-1.0-599.0-0.0","0","0","46896","","761","","","75","66","","","2","66","training","adjacent","BC","2","3","R.jpg","P.jpg","0","1","0","",""
"","feedback","","html-keyboard-response","448","587195","0.0-1.0-600.0-0.0","0","0","46896","","null","","","null","66","","","","","","","","","","","","","","","",""
"","time_out","","html-keyboard-response","449","589203","0.0-1.0-602.0-0.0","0","0","46896","","null","","","null","66","","","","","","","","","","","","","","","",""
"","ITI","","html-keyboard-response","450","590210","0.0-1.0-603.0","0","0","46896","","null","","","null","66","","","","","","","","","","","","","","","NaN",""
"","S1","","html-keyboard-response","451","590367","0.0-1.0-605.0","0","0","46896","","null","","","null","67","","","","","","","","","","","","","","","",""
"","ISI","","html-keyboard-response","452","592372","0.0-1.0-606.0","0","0","46896","","null","","","null","67","NaN","","","","","","","","","","","","","","",""
"","S2","","html-keyboard-response","453","592528","0.0-1.0-607.0","0","0","46896","","null","","","null","67","","NaN","","","","","","","","","","","","","",""
"","response","","html-keyboard-response","454","592859","0.0-1.0-608.0-0.0","0","0","46896","","325","","","68","67","","","2","67","training","adjacent","BA","2","1","R.jpg","O.jpg","1","0","0","",""
"","feedback","","html-keyboard-response","455","593867","0.0-1.0-609.0-0.0","0","0","46896","","null","","","null","67","","","","","","","","","","","","","","","",""
"","time_out","","html-keyboard-response","456","595874","0.0-1.0-611.0-0.0","0","0","46896","","null","","","null","67","","","","","","","","","","","","","","","",""
"","ITI","","html-keyboard-response","457","596880","0.0-1.0-612.0","0","0","46896","","null","","","null","67","","","","","","","","","","","","","","","NaN",""
"","S1","","html-keyboard-response","458","597036","0.0-1.0-614.0","0","0","46896","","null","","","null","68","","","","","","","","","","","","","","","",""
"","ISI","","html-keyboard-response","459","599042","0.0-1.0-615.0","0","0","46896","","null","","","null","68","NaN","","","","","","","","","","","","","","",""
"","S2","","html-keyboard-response","460","599199","0.0-1.0-616.0","0","0","46896","","null","","","null","68","","NaN","","","","","","","","","","","","","",""
"","response","","html-keyboard-response","461","599715","0.0-1.0-617.0-0.0","0","0","46896","","510","","","75","68","","","2","68","training","adjacent","CD","3","4","P.jpg","L.jpg","0","1","0","",""
"","feedback","","html-keyboard-response","462","600723","0.0-1.0-618.0-0.0","0","0","46896","","null","","","null","68","","","","","","","","","","","","","","","",""
"","time_out","","html-keyboard-response","463","602728","0.0-1.0-620.0-0.0","0","0","46896","","null","","","null","68","","","","","","","","","","","","","","","",""
"","ITI","","html-keyboard-response","464","603735","0.0-1.0-621.0","0","0","46896","","null","","","null","68","","","","","","","","","","","","","","","NaN",""
"","S1","","html-keyboard-response","465","603891","0.0-1.0-623.0","0","0","46896","","null","","","null","69","","","","","","","","","","","","","","","",""
"","ISI","","html-keyboard-response","466","605896","0.0-1.0-624.0","0","0","46896","","null","","","null","69","NaN","","","","","","","","","","","","","","",""
"","S2","","html-keyboard-response","467","606052","0.0-1.0-625.0","0","0","46896","","null","","","null","69","","NaN","","","","","","","","","","","","","",""
"","response","","html-keyboard-response","468","606476","0.0-1.0-626.0-0.0","0","0","46896","","419","","","68","69","","","2","69","training","adjacent","GF","7","6","M.jpg","Q.jpg","1","0","0","",""
"","feedback","","html-keyboard-response","469","607483","0.0-1.0-627.0-0.0","0","0","46896","","null","","","null","69","","","","","","","","","","","","","","","",""
"","time_out","","html-keyboard-response","470","609489","0.0-1.0-629.0-0.0","0","0","46896","","null","","","null","69","","","","","","","","","","","","","","","",""
"","ITI","","html-keyboard-response","471","610496","0.0-1.0-630.0","0","0","46896","","null","","","null","69","","","","","","","","","","","","","","","NaN",""
"","S1","","html-keyboard-response","472","610653","0.0-1.0-632.0","0","0","46896","","null","","","null","70","","","","","","","","","","","","","","","",""
"","ISI","","html-keyboard-response","473","612659","0.0-1.0-633.0","0","0","46896","","null","","","null","70","NaN","","","","","","","","","","","","","","",""
"","S2","","html-keyboard-response","474","612817","0.0-1.0-634.0","0","0","46896","","null","","","null","70","","NaN","","","","","","","","","","","","","",""
"","response","","html-keyboard-response","475","613651","0.0-1.0-635.0-0.0","0","0","46896","","828","","","75","70","","","2","70","training","adjacent","DE","4","5","L.jpg","N.jpg","0","1","0","",""
"","feedback","","html-keyboard-response","476","614658","0.0-1.0-636.0-0.0","0","0","46896","","null","","","null","70","","","","","","","","","","","","","","","",""
"","time_out","","html-keyboard-response","477","616666","0.0-1.0-638.0-0.0","0","0","46896","","null","","","null","70","","","","","","","","","","","","","","","",""
"","ITI","","html-keyboard-response","478","617671","0.0-1.0-639.0","0","0","46896","","null","","","null","70","","","","","","","","","","","","","","","NaN",""
"","S1","","html-keyboard-response","479","617827","0.0-1.0-641.0","0","0","46896","","null","","","null","71","","","","","","","","","","","","","","","",""
"","ISI","","html-keyboard-response","480","619833","0.0-1.0-642.0","0","0","46896","","301","","","68","71","d","","","","","","","","","","","","","","",""
"","S2","","html-keyboard-response","481","619991","0.0-1.0-643.0","0","0","46896","","null","","","null","71","","NaN","","","","","","","","","","","","","",""
"","response","","html-keyboard-response","482","620448","0.0-1.0-644.0-0.0","0","0","46896","","451","","","68","71","","","2","71","training","adjacent","GF","7","6","M.jpg","Q.jpg","1","0","0","",""
"","feedback","","html-keyboard-response","483","621458","0.0-1.0-645.0-0.0","0","0","46896","","null","","","null","71","","","","","","","","","","","","","","","",""
"","time_out","","html-keyboard-response","484","623465","0.0-1.0-647.0-0.0","0","0","46896","","null","","","null","71","","","","","","","","","","","","","","","",""
"","ITI","","html-keyboard-response","485","624471","0.0-1.0-648.0","0","0","46896","","null","","","null","71","","","","","","","","","","","","","","","NaN",""
"","S1","","html-keyboard-response","486","624629","0.0-1.0-650.0","0","0","46896","","null","","","null","72","","","","","","","","","","","","","","","",""
"","ISI","","html-keyboard-response","487","626635","0.0-1.0-651.0","0","0","46896","","null","","","null","72","NaN","","","","","","","","","","","","","","",""
"","S2","","html-keyboard-response","488","626792","0.0-1.0-652.0","0","0","46896","","null","","","null","72","","NaN","","","","","","","","","","","","","",""
"","response","","html-keyboard-response","489","627097","0.0-1.0-653.0-0.0","0","0","46896","","298","","","75","72","","","2","72","training","adjacent","FE","6","5","Q.jpg","N.jpg","0","0","1","",""
"","feedback","","html-keyboard-response","490","628113","0.0-1.0-654.0-0.0","0","0","46896","","null","","","null","72","","","","","","","","","","","","","","","",""
"","ITI","","html-keyboard-response","491","629120","0.0-1.0-657.0","0","0","46896","","null","","","null","72","","","","","","","","","","","","","","","NaN",""
"","S1","","html-keyboard-response","492","629278","0.0-1.0-659.0","0","0","46896","","null","","","null","73","","","","","","","","","","","","","","","",""
"","ISI","","html-keyboard-response","493","631285","0.0-1.0-660.0","0","0","46896","","null","","","null","73","NaN","","","","","","","","","","","","","","",""
"","S2","","html-keyboard-response","494","631443","0.0-1.0-661.0","0","0","46896","","null","","","null","73","","NaN","","","","","","","","","","","","","",""
"","response","","html-keyboard-response","495","632024","0.0-1.0-662.0-0.0","0","0","46896","","575","","","68","73","","","2","73","training","adjacent","CD","3","4","P.jpg","L.jpg","1","1","1","",""
"","feedback","","html-keyboard-response","496","633033","0.0-1.0-663.0-0.0","0","0","46896","","null","","","null","73","","","","","","","","","","","","","","","",""
"","ITI","","html-keyboard-response","497","634040","0.0-1.0-666.0","0","0","46896","","null","","","null","73","","","","","","","","","","","","","","","NaN",""
"","S1","","html-keyboard-response","498","634196","0.0-1.0-668.0","0","0","46896","","null","","","null","74","","","","","","","","","","","","","","","",""
"","ISI","","html-keyboard-response","499","636211","0.0-1.0-669.0","0","0","46896","","null","","","null","74","NaN","","","","","","","","","","","","","","",""
"","S2","","html-keyboard-response","500","636366","0.0-1.0-670.0","0","0","46896","","null","","","null","74","","NaN","","","","","","","","","","","","","",""
"","response","","html-keyboard-response","501","636787","0.0-1.0-671.0-0.0","0","0","46896","","416","","","68","74","","","2","74","training","adjacent","BC","2","3","R.jpg","P.jpg","1","1","1","",""
"","feedback","","html-keyboard-response","502","637796","0.0-1.0-672.0-0.0","0","0","46896","","null","","","null","74","","","","","","","","","","","","","","","",""
"","ITI","","html-keyboard-response","503","638803","0.0-1.0-675.0","0","0","46896","","null","","","null","74","","","","","","","","","","","","","","","NaN",""
"","S1","","html-keyboard-response","504","638958","0.0-1.0-677.0","0","0","46896","","null","","","null","75","","","","","","","","","","","","","","","",""
"","ISI","","html-keyboard-response","505","640963","0.0-1.0-678.0","0","0","46896","","null","","","null","75","NaN","","","","","","","","","","","","","","",""
"","S2","","html-keyboard-response","506","641121","0.0-1.0-679.0","0","0","46896","","null","","","null","75","","NaN","","","","","","","","","","","","","",""
"","response","","html-keyboard-response","507","641478","0.0-1.0-680.0-0.0","0","0","46896","","351","","","75","75","","","2","75","training","adjacent","CB","3","2","P.jpg","R.jpg","0","0","1","",""
"","feedback","","html-keyboard-response","508","642485","0.0-1.0-681.0-0.0","0","0","46896","","null","","","null","75","","","","","","","","","","","","","","","",""
"","ITI","","html-keyboard-response","509","643492","0.0-1.0-684.0","0","0","46896","","null","","","null","75","","","","","","","","","","","","","","","NaN",""
"","S1","","html-keyboard-response","510","643648","0.0-1.0-686.0","0","0","46896","","null","","","null","76","","","","","","","","","","","","","","","",""
"","ISI","","html-keyboard-response","511","645654","0.0-1.0-687.0","0","0","46896","","null","","","null","76","NaN","","","","","","","","","","","","","","",""
"","S2","","html-keyboard-response","512","645810","0.0-1.0-688.0","0","0","46896","","null","","","null","76","","NaN","","","","","","","","","","","","","",""
"","response","","html-keyboard-response","513","646288","0.0-1.0-689.0-0.0","0","0","46896","","474","","","68","76","","","2","76","training","adjacent","EF","5","6","N.jpg","Q.jpg","1","1","1","",""
"","feedback","","html-keyboard-response","514","647294","0.0-1.0-690.0-0.0","0","0","46896","","null","","","null","76","","","","","","","","","","","","","","","",""
"","ITI","","html-keyboard-response","515","648310","0.0-1.0-693.0","0","0","46896","","null","","","null","76","","","","","","","","","","","","","","","NaN",""
"","S1","","html-keyboard-response","516","648466","0.0-1.0-695.0","0","0","46896","","null","","","null","77","","","","","","","","","","","","","","","",""
"","ISI","","html-keyboard-response","517","650472","0.0-1.0-696.0","0","0","46896","","null","","","null","77","NaN","","","","","","","","","","","","","","",""
"","S2","","html-keyboard-response","518","650630","0.0-1.0-697.0","0","0","46896","","null","","","null","77","","NaN","","","","","","","","","","","","","",""
"","response","","html-keyboard-response","519","651232","0.0-1.0-698.0-0.0","0","0","46896","","596","","","68","77","","","2","77","training","adjacent","EF","5","6","N.jpg","Q.jpg","1","1","1","",""
"","feedback","","html-keyboard-response","520","652240","0.0-1.0-699.0-0.0","0","0","46896","","null","","","null","77","","","","","","","","","","","","","","","",""
"","ITI","","html-keyboard-response","521","653248","0.0-1.0-702.0","0","0","46896","","null","","","null","77","","","","","","","","","","","","","","","NaN",""
"","S1","","html-keyboard-response","522","653405","0.0-1.0-704.0","0","0","46896","","null","","","null","78","","","","","","","","","","","","","","","",""
"","ISI","","html-keyboard-response","523","655412","0.0-1.0-705.0","0","0","46896","","null","","","null","78","NaN","","","","","","","","","","","","","","",""
"","S2","","html-keyboard-response","524","655570","0.0-1.0-706.0","0","0","46896","","null","","","null","78","","NaN","","","","","","","","","","","","","",""
"","response","","html-keyboard-response","525","655996","0.0-1.0-707.0-0.0","0","0","46896","","420","","","75","78","","","2","78","training","adjacent","FE","6","5","Q.jpg","N.jpg","0","0","1","",""
"","feedback","","html-keyboard-response","526","657003","0.0-1.0-708.0-0.0","0","0","46896","","null","","","null","78","","","","","","","","","","","","","","","",""
"","ITI","","html-keyboard-response","527","658010","0.0-1.0-711.0","0","0","46896","","null","","","null","78","","","","","","","","","","","","","","","NaN",""
"","S1","","html-keyboard-response","528","658170","0.0-1.0-713.0","0","0","46896","","null","","","null","79","","","","","","","","","","","","","","","",""
"","ISI","","html-keyboard-response","529","660178","0.0-1.0-714.0","0","0","46896","","null","","","null","79","NaN","","","","","","","","","","","","","","",""
"","S2","","html-keyboard-response","530","660336","0.0-1.0-715.0","0","0","46896","","null","","","null","79","","NaN","","","","","","","","","","","","","",""
"","response","","html-keyboard-response","531","660818","0.0-1.0-716.0-0.0","0","0","46896","","476","","","68","79","","","2","79","training","adjacent","CD","3","4","P.jpg","L.jpg","1","1","1","",""
"","feedback","","html-keyboard-response","532","661825","0.0-1.0-717.0-0.0","0","0","46896","","null","","","null","79","","","","","","","","","","","","","","","",""
"","ITI","","html-keyboard-response","533","662831","0.0-1.0-720.0","0","0","46896","","null","","","null","79","","","","","","","","","","","","","","","NaN",""
"","S1","","html-keyboard-response","534","662987","0.0-1.0-722.0","0","0","46896","","null","","","null","80","","","","","","","","","","","","","","","",""
"","ISI","","html-keyboard-response","535","664992","0.0-1.0-723.0","0","0","46896","","null","","","null","80","NaN","","","","","","","","","","","","","","",""
"","S2","","html-keyboard-response","536","665150","0.0-1.0-724.0","0","0","46896","","null","","","null","80","","NaN","","","","","","","","","","","","","",""
"","response","","html-keyboard-response","537","665715","0.0-1.0-725.0-0.0","0","0","46896","","558","","","75","80","","","2","80","training","adjacent","FG","6","7","Q.jpg","M.jpg","0","1","0","",""
"","feedback","","html-keyboard-response","538","666720","0.0-1.0-726.0-0.0","0","0","46896","","null","","","null","80","","","","","","","","","","","","","","","",""
"","time_out","","html-keyboard-response","539","668725","0.0-1.0-728.0-0.0","0","0","46896","","null","","","null","80","","","","","","","","","","","","","","","",""
"","ITI","","html-keyboard-response","540","669731","0.0-1.0-729.0","0","0","46896","","null","","","null","80","","","","","","","","","","","","","","","NaN",""
"","S1","","html-keyboard-response","541","669886","0.0-1.0-731.0","0","0","46896","","null","","","null","81","","","","","","","","","","","","","","","",""
"","ISI","","html-keyboard-response","542","671893","0.0-1.0-732.0","0","0","46896","","null","","","null","81","NaN","","","","","","","","","","","","","","",""
"","S2","","html-keyboard-response","543","672049","0.0-1.0-733.0","0","0","46896","","null","","","null","81","","NaN","","","","","","","","","","","","","",""
"","response","","html-keyboard-response","544","672883","0.0-1.0-734.0-0.0","0","0","46896","","827","","","68","81","","","2","81","training","adjacent","BA","2","1","R.jpg","O.jpg","1","0","0","",""
"","feedback","","html-keyboard-response","545","673892","0.0-1.0-735.0-0.0","0","0","46896","","null","","","null","81","","","","","","","","","","","","","","","",""
"","time_out","","html-keyboard-response","546","675900","0.0-1.0-737.0-0.0","0","0","46896","","null","","","null","81","","","","","","","","","","","","","","","",""
"","ITI","","html-keyboard-response","547","676906","0.0-1.0-738.0","0","0","46896","","null","","","null","81","","","","","","","","","","","","","","","NaN",""
"","S1","","html-keyboard-response","548","677062","0.0-1.0-740.0","0","0","46896","","null","","","null","82","","","","","","","","","","","","","","","",""
"","ISI","","html-keyboard-response","549","679068","0.0-1.0-741.0","0","0","46896","","null","","","null","82","NaN","","","","","","","","","","","","","","",""
"","S2","","html-keyboard-response","550","679223","0.0-1.0-742.0","0","0","46896","","null","","","null","82","","NaN","","","","","","","","","","","","","",""
"","response","","html-keyboard-response","551","679798","0.0-1.0-743.0-0.0","0","0","46896","","568","","","75","82","","","2","82","training","adjacent","DC","4","3","L.jpg","P.jpg","0","0","1","",""
"","feedback","","html-keyboard-response","552","680807","0.0-1.0-744.0-0.0","0","0","46896","","null","","","null","82","","","","","","","","","","","","","","","",""
"","ITI","","html-keyboard-response","553","681814","0.0-1.0-747.0","0","0","46896","","null","","","null","82","","","","","","","","","","","","","","","NaN",""
"","S1","","html-keyboard-response","554","681972","0.0-1.0-749.0","0","0","46896","","null","","","null","83","","","","","","","","","","","","","","","",""
"","ISI","","html-keyboard-response","555","683978","0.0-1.0-750.0","0","0","46896","","null","","","null","83","NaN","","","","","","","","","","","","","","",""
"","S2","","html-keyboard-response","556","684134","0.0-1.0-751.0","0","0","46896","","null","","","null","83","","NaN","","","","","","","","","","","","","",""
"","response","","html-keyboard-response","557","684417","0.0-1.0-752.0-0.0","0","0","46896","","277","","","75","83","","","2","83","training","adjacent","GF","7","6","M.jpg","Q.jpg","0","0","1","",""
"","feedback","","html-keyboard-response","558","685426","0.0-1.0-753.0-0.0","0","0","46896","","null","","","null","83","","","","","","","","","","","","","","","",""
"","ITI","","html-keyboard-response","559","686432","0.0-1.0-756.0","0","0","46896","","null","","","null","83","","","","","","","","","","","","","","","NaN",""
"","S1","","html-keyboard-response","560","686591","0.0-1.0-758.0","0","0","46896","","null","","","null","84","","","","","","","","","","","","","","","",""
"","ISI","","html-keyboard-response","561","688610","0.0-1.0-759.0","0","0","46896","","null","","","null","84","NaN","","","","","","","","","","","","","","",""
"","S2","","html-keyboard-response","562","688765","0.0-1.0-760.0","0","0","46896","","null","","","null","84","","NaN","","","","","","","","","","","","","",""
"","response","","html-keyboard-response","563","689255","0.0-1.0-761.0-0.0","0","0","46896","","484","","","68","84","","","2","84","training","adjacent","CB","3","2","P.jpg","R.jpg","1","0","0","",""
"","feedback","","html-keyboard-response","564","690262","0.0-1.0-762.0-0.0","0","0","46896","","null","","","null","84","","","","","","","","","","","","","","","",""
"","time_out","","html-keyboard-response","565","692270","0.0-1.0-764.0-0.0","0","0","46896","","null","","","null","84","","","","","","","","","","","","","","","",""
"","ITI","","html-keyboard-response","566","693277","0.0-1.0-765.0","0","0","46896","","null","","","null","84","","","","","","","","","","","","","","","NaN",""
"","S1","","html-keyboard-response","567","693431","0.0-1.0-767.0","0","0","46896","","null","","","null","85","","","","","","","","","","","","","","","",""
"","ISI","","html-keyboard-response","568","695442","0.0-1.0-768.0","0","0","46896","","null","","","null","85","NaN","","","","","","","","","","","","","","",""
"","S2","","html-keyboard-response","569","695597","0.0-1.0-769.0","0","0","46896","","null","","","null","85","","NaN","","","","","","","","","","","","","",""
"","response","","html-keyboard-response","570","696228","0.0-1.0-770.0-0.0","0","0","46896","","625","","","75","85","","","2","85","training","adjacent","ED","5","4","N.jpg","L.jpg","0","0","1","",""
"","feedback","","html-keyboard-response","571","697235","0.0-1.0-771.0-0.0","0","0","46896","","null","","","null","85","","","","","","","","","","","","","","","",""
"","ITI","","html-keyboard-response","572","698241","0.0-1.0-774.0","0","0","46896","","null","","","null","85","","","","","","","","","","","","","","","NaN",""
"","S1","","html-keyboard-response","573","698397","0.0-1.0-776.0","0","0","46896","","null","","","null","86","","","","","","","","","","","","","","","",""
"","ISI","","html-keyboard-response","574","700402","0.0-1.0-777.0","0","0","46896","","null","","","null","86","NaN","","","","","","","","","","","","","","",""
"","S2","","html-keyboard-response","575","700559","0.0-1.0-778.0","0","0","46896","","null","","","null","86","","NaN","","","","","","","","","","","","","",""
"","response","","html-keyboard-response","576","700821","0.0-1.0-779.0-0.0","0","0","46896","","255","","","68","86","","","2","86","training","adjacent","CD","3","4","P.jpg","L.jpg","1","1","1","",""
"","feedback","","html-keyboard-response","577","701830","0.0-1.0-780.0-0.0","0","0","46896","","null","","","null","86","","","","","","","","","","","","","","","",""
"","ITI","","html-keyboard-response","578","702838","0.0-1.0-783.0","0","0","46896","","null","","","null","86","","","","","","","","","","","","","","","NaN",""
"","S1","","html-keyboard-response","579","702993","0.0-1.0-785.0","0","0","46896","","null","","","null","87","","","","","","","","","","","","","","","",""
"","ISI","","html-keyboard-response","580","704999","0.0-1.0-786.0","0","0","46896","","null","","","null","87","NaN","","","","","","","","","","","","","","",""
