"success","ttype","start_time","trial_type","trial_index","time_elapsed","internal_node_id","warning","missed_checkup","PID","view_history","rt","responses","repeat_instructions","key_press","index","keypress_isi","keypress_S2","block","trial_num","phase","group_type","pair_type","S1_stim","S2_stim","S1_img","S2_img","S1_chosen","S1_higher","accuracy","keypress_iti","total_bonus_tally"
"true","full_screen","d04142023hr1852","fullscreen","0","10286","0.0-0.0","0","0","71384","","","","","","","","","","","","","","","","","","","","","",""
"","instructions","","instructions","1","37374","0.0-1.0-0.0-0.0","0","0","71384","[{""page_index"":0,""viewing_time"":4384},{""page_index"":1,""viewing_time"":14826},{""page_index"":2,""viewing_time"":6667},{""page_index"":3,""viewing_time"":1210}]","27087","","","","","","","","","","","","","","","","","","","",""
"","comprehension_check","","survey-multi-choice","2","71435","0.0-1.0-0.0-1.0","0","0","71384","","34058","{""Q0"":""True"",""Q1"":""D"",""Q2"":""Once the second image appears and while the screen 'MAKE A CHOICE' is shown"",""Q3"":""Green mark"",""Q4"":""either D or K""}","0","","","","","","","","","","","","","","","","","",""
"","start_exp","","html-keyboard-response","3","72902","0.0-1.0-1.0","0","0","71384","","1465","","","32","","","","","","","","","","","","","","","","",""
"","S1","","html-keyboard-response","4","73154","0.0-1.0-2.0","0","0","71384","","null","","","null","0","","","","","","","","","","","","","","","",""
"","ISI","","html-keyboard-response","5","74156","0.0-1.0-3.0","0","0","71384","","null","","","null","0","NaN","","","","","","","","","","","","","","",""
"","S2","","html-keyboard-response","6","74408","0.0-1.0-4.0","0","0","71384","","null","","","null","0","","NaN","","","","","","","","","","","","","",""
"","response","","html-keyboard-response","7","74791","0.0-1.0-5.0-0.0","0","0","71384","","381","","","68","0","","","1","0","training","adjacent","ED","5","4","L.jpg","O.jpg","1","0","0","",""
"","feedback","","html-keyboard-response","8","75793","0.0-1.0-6.0-0.0","0","0","71384","","null","","","null","0","","","","","","","","","","","","","","","",""
"","time_out","","html-keyboard-response","9","77796","0.0-1.0-8.0-0.0","0","0","71384","","null","","","null","0","","","","","","","","","","","","","","","",""
"","ITI","","html-keyboard-response","10","78799","0.0-1.0-9.0","0","0","71384","","null","","","null","0","","","","","","","","","","","","","","","NaN",""
"","S1","","html-keyboard-response","11","79052","0.0-1.0-11.0","0","0","71384","","null","","","null","1","","","","","","","","","","","","","","","",""
"","ISI","","html-keyboard-response","12","80054","0.0-1.0-12.0","0","0","71384","","null","","","null","1","NaN","","","","","","","","","","","","","","",""
"","S2","","html-keyboard-response","13","80306","0.0-1.0-13.0","0","0","71384","","null","","","null","1","","NaN","","","","","","","","","","","","","",""
"","response","","html-keyboard-response","14","80897","0.0-1.0-14.0-0.0","0","0","71384","","590","","","75","1","","","1","1","training","adjacent","BC","2","3","R.jpg","P.jpg","0","1","0","",""
"","feedback","","html-keyboard-response","15","81900","0.0-1.0-15.0-0.0","0","0","71384","","null","","","null","1","","","","","","","","","","","","","","","",""
"","time_out","","html-keyboard-response","16","83902","0.0-1.0-17.0-0.0","0","0","71384","","null","","","null","1","","","","","","","","","","","","","","","",""
"","ITI","","html-keyboard-response","17","84904","0.0-1.0-18.0","0","0","71384","","null","","","null","1","","","","","","","","","","","","","","","NaN",""
"","S1","","html-keyboard-response","18","85157","0.0-1.0-20.0","0","0","71384","","null","","","null","2","","","","","","","","","","","","","","","",""
"","ISI","","html-keyboard-response","19","86158","0.0-1.0-21.0","0","0","71384","","null","","","null","2","NaN","","","","","","","","","","","","","","",""
"","S2","","html-keyboard-response","20","86412","0.0-1.0-22.0","0","0","71384","","null","","","null","2","","NaN","","","","","","","","","","","","","",""
"","response","","html-keyboard-response","21","86966","0.0-1.0-23.0-0.0","0","0","71384","","553","","","75","2","","","1","2","training","adjacent","DC","4","3","O.jpg","P.jpg","0","0","1","",""
"","feedback","","html-keyboard-response","22","87968","0.0-1.0-24.0-0.0","0","0","71384","","null","","","null","2","","","","","","","","","","","","","","","",""
"","ITI","","html-keyboard-response","23","88972","0.0-1.0-27.0","0","0","71384","","null","","","null","2","","","","","","","","","","","","","","","NaN",""
"","S1","","html-keyboard-response","24","89225","0.0-1.0-29.0","0","0","71384","","null","","","null","3","","","","","","","","","","","","","","","",""
"","ISI","","html-keyboard-response","25","90228","0.0-1.0-30.0","0","0","71384","","null","","","null","3","NaN","","","","","","","","","","","","","","",""
"","S2","","html-keyboard-response","26","90483","0.0-1.0-31.0","0","0","71384","","null","","","null","3","","NaN","","","","","","","","","","","","","",""
"","response","","html-keyboard-response","27","90860","0.0-1.0-32.0-0.0","0","0","71384","","375","","","75","3","","","1","3","training","adjacent","FG","6","7","N.jpg","M.jpg","0","1","0","",""
"","feedback","","html-keyboard-response","28","91862","0.0-1.0-33.0-0.0","0","0","71384","","null","","","null","3","","","","","","","","","","","","","","","",""
"","time_out","","html-keyboard-response","29","93864","0.0-1.0-35.0-0.0","0","0","71384","","null","","","null","3","","","","","","","","","","","","","","","",""
"","ITI","","html-keyboard-response","30","94866","0.0-1.0-36.0","0","0","71384","","null","","","null","3","","","","","","","","","","","","","","","NaN",""
"","S1","","html-keyboard-response","31","95118","0.0-1.0-38.0","0","0","71384","","null","","","null","4","","","","","","","","","","","","","","","",""
"","ISI","","html-keyboard-response","32","96120","0.0-1.0-39.0","0","0","71384","","null","","","null","4","NaN","","","","","","","","","","","","","","",""
"","S2","","html-keyboard-response","33","96372","0.0-1.0-40.0","0","0","71384","","null","","","null","4","","NaN","","","","","","","","","","","","","",""
"","response","","html-keyboard-response","34","96954","0.0-1.0-41.0-0.0","0","0","71384","","581","","","68","4","","","1","4","training","adjacent","CD","3","4","P.jpg","O.jpg","1","1","1","",""
"","feedback","","html-keyboard-response","35","97967","0.0-1.0-42.0-0.0","0","0","71384","","null","","","null","4","","","","","","","","","","","","","","","",""
"","ITI","","html-keyboard-response","36","98981","0.0-1.0-45.0","0","0","71384","","null","","","null","4","","","","","","","","","","","","","","","NaN",""
"","S1","","html-keyboard-response","37","99233","0.0-1.0-47.0","0","0","71384","","null","","","null","5","","","","","","","","","","","","","","","",""
"","ISI","","html-keyboard-response","38","100234","0.0-1.0-48.0","0","0","71384","","null","","","null","5","NaN","","","","","","","","","","","","","","",""
"","S2","","html-keyboard-response","39","100489","0.0-1.0-49.0","0","0","71384","","null","","","null","5","","NaN","","","","","","","","","","","","","",""
"","response","","html-keyboard-response","40","101119","0.0-1.0-50.0-0.0","0","0","71384","","629","","","68","5","","","1","5","training","adjacent","GF","7","6","M.jpg","N.jpg","1","0","0","",""
"","feedback","","html-keyboard-response","41","102121","0.0-1.0-51.0-0.0","0","0","71384","","null","","","null","5","","","","","","","","","","","","","","","",""
"","time_out","","html-keyboard-response","42","104122","0.0-1.0-53.0-0.0","0","0","71384","","null","","","null","5","","","","","","","","","","","","","","","",""
"","ITI","","html-keyboard-response","43","105123","0.0-1.0-54.0","0","0","71384","","null","","","null","5","","","","","","","","","","","","","","","NaN",""
"","S1","","html-keyboard-response","44","105376","0.0-1.0-56.0","0","0","71384","","null","","","null","6","","","","","","","","","","","","","","","",""
"","ISI","","html-keyboard-response","45","106380","0.0-1.0-57.0","0","0","71384","","null","","","null","6","NaN","","","","","","","","","","","","","","",""
"","S2","","html-keyboard-response","46","106634","0.0-1.0-58.0","0","0","71384","","null","","","null","6","","NaN","","","","","","","","","","","","","",""
"","response","","html-keyboard-response","47","107329","0.0-1.0-59.0-0.0","0","0","71384","","694","","","68","6","","","1","6","training","adjacent","CD","3","4","P.jpg","O.jpg","1","1","1","",""
"","feedback","","html-keyboard-response","48","108339","0.0-1.0-60.0-0.0","0","0","71384","","null","","","null","6","","","","","","","","","","","","","","","",""
"","ITI","","html-keyboard-response","49","109341","0.0-1.0-63.0","0","0","71384","","null","","","null","6","","","","","","","","","","","","","","","NaN",""
"","S1","","html-keyboard-response","50","109596","0.0-1.0-65.0","0","0","71384","","null","","","null","7","","","","","","","","","","","","","","","",""
"","ISI","","html-keyboard-response","51","110598","0.0-1.0-66.0","0","0","71384","","null","","","null","7","NaN","","","","","","","","","","","","","","",""
"","S2","","html-keyboard-response","52","110850","0.0-1.0-67.0","0","0","71384","","null","","","null","7","","NaN","","","","","","","","","","","","","",""
"","response","","html-keyboard-response","53","111268","0.0-1.0-68.0-0.0","0","0","71384","","416","","","75","7","","","1","7","training","adjacent","DC","4","3","O.jpg","P.jpg","0","0","1","",""
"","feedback","","html-keyboard-response","54","112271","0.0-1.0-69.0-0.0","0","0","71384","","null","","","null","7","","","","","","","","","","","","","","","",""
"","ITI","","html-keyboard-response","55","113275","0.0-1.0-72.0","0","0","71384","","null","","","null","7","","","","","","","","","","","","","","","NaN",""
"","S1","","html-keyboard-response","56","113530","0.0-1.0-74.0","0","0","71384","","null","","","null","8","","","","","","","","","","","","","","","",""
"","ISI","","html-keyboard-response","57","114535","0.0-1.0-75.0","0","0","71384","","null","","","null","8","NaN","","","","","","","","","","","","","","",""
"","S2","","html-keyboard-response","58","114789","0.0-1.0-76.0","0","0","71384","","null","","","null","8","","NaN","","","","","","","","","","","","","",""
"","response","","html-keyboard-response","59","115120","0.0-1.0-77.0-0.0","0","0","71384","","329","","","75","8","","","1","8","training","adjacent","DE","4","5","O.jpg","L.jpg","0","1","0","",""
"","feedback","","html-keyboard-response","60","116122","0.0-1.0-78.0-0.0","0","0","71384","","null","","","null","8","","","","","","","","","","","","","","","",""
"","time_out","","html-keyboard-response","61","118124","0.0-1.0-80.0-0.0","0","0","71384","","null","","","null","8","","","","","","","","","","","","","","","",""
"","ITI","","html-keyboard-response","62","119126","0.0-1.0-81.0","0","0","71384","","null","","","null","8","","","","","","","","","","","","","","","NaN",""
"","S1","","html-keyboard-response","63","119378","0.0-1.0-83.0","0","0","71384","","null","","","null","9","","","","","","","","","","","","","","","",""
"","ISI","","html-keyboard-response","64","120380","0.0-1.0-84.0","0","0","71384","","null","","","null","9","NaN","","","","","","","","","","","","","","",""
"","S2","","html-keyboard-response","65","120633","0.0-1.0-85.0","0","0","71384","","null","","","null","9","","NaN","","","","","","","","","","","","","",""
"","response","","html-keyboard-response","66","121347","0.0-1.0-86.0-0.0","0","0","71384","","713","","","75","9","","","1","9","training","adjacent","BA","2","1","R.jpg","Q.jpg","0","0","1","",""
"","feedback","","html-keyboard-response","67","122351","0.0-1.0-87.0-0.0","0","0","71384","","null","","","null","9","","","","","","","","","","","","","","","",""
"","ITI","","html-keyboard-response","68","123354","0.0-1.0-90.0","0","0","71384","","null","","","null","9","","","","","","","","","","","","","","","NaN",""
"","S1","","html-keyboard-response","69","123606","0.0-1.0-92.0","0","0","71384","","null","","","null","10","","","","","","","","","","","","","","","",""
"","ISI","","html-keyboard-response","70","124610","0.0-1.0-93.0","0","0","71384","","null","","","null","10","NaN","","","","","","","","","","","","","","",""
"","S2","","html-keyboard-response","71","124863","0.0-1.0-94.0","0","0","71384","","null","","","null","10","","NaN","","","","","","","","","","","","","",""
"","response","","html-keyboard-response","72","125377","0.0-1.0-95.0-0.0","0","0","71384","","512","","","75","10","","","1","10","training","adjacent","FG","6","7","N.jpg","M.jpg","0","1","0","",""
"","feedback","","html-keyboard-response","73","126379","0.0-1.0-96.0-0.0","0","0","71384","","null","","","null","10","","","","","","","","","","","","","","","",""
"","time_out","","html-keyboard-response","74","128381","0.0-1.0-98.0-0.0","0","0","71384","","null","","","null","10","","","","","","","","","","","","","","","",""
"","ITI","","html-keyboard-response","75","129382","0.0-1.0-99.0","0","0","71384","","null","","","null","10","","","","","","","","","","","","","","","NaN",""
"","S1","","html-keyboard-response","76","129635","0.0-1.0-101.0","0","0","71384","","null","","","null","11","","","","","","","","","","","","","","","",""
"","ISI","","html-keyboard-response","77","130637","0.0-1.0-102.0","0","0","71384","","null","","","null","11","NaN","","","","","","","","","","","","","","",""
"","S2","","html-keyboard-response","78","130889","0.0-1.0-103.0","0","0","71384","","null","","","null","11","","NaN","","","","","","","","","","","","","",""
"","response","","html-keyboard-response","79","131381","0.0-1.0-104.0-0.0","0","0","71384","","491","","","68","11","","","1","11","training","adjacent","CB","3","2","P.jpg","R.jpg","1","0","0","",""
"","feedback","","html-keyboard-response","80","132382","0.0-1.0-105.0-0.0","0","0","71384","","null","","","null","11","","","","","","","","","","","","","","","",""
"","time_out","","html-keyboard-response","81","134384","0.0-1.0-107.0-0.0","0","0","71384","","null","","","null","11","","","","","","","","","","","","","","","",""
"","ITI","","html-keyboard-response","82","135387","0.0-1.0-108.0","0","0","71384","","null","","","null","11","","","","","","","","","","","","","","","NaN",""
"","S1","","html-keyboard-response","83","135640","0.0-1.0-110.0","0","0","71384","","null","","","null","12","","","","","","","","","","","","","","","",""
"","ISI","","html-keyboard-response","84","136642","0.0-1.0-111.0","0","0","71384","","null","","","null","12","NaN","","","","","","","","","","","","","","",""
"","S2","","html-keyboard-response","85","136894","0.0-1.0-112.0","0","0","71384","","null","","","null","12","","NaN","","","","","","","","","","","","","",""
"","response","","html-keyboard-response","86","137882","0.0-1.0-113.0-0.0","0","0","71384","","987","","","68","12","","","1","12","training","adjacent","ED","5","4","L.jpg","O.jpg","1","0","0","",""
"","feedback","","html-keyboard-response","87","138885","0.0-1.0-114.0-0.0","0","0","71384","","null","","","null","12","","","","","","","","","","","","","","","",""
"","time_out","","html-keyboard-response","88","140887","0.0-1.0-116.0-0.0","0","0","71384","","null","","","null","12","","","","","","","","","","","","","","","",""
"","ITI","","html-keyboard-response","89","141888","0.0-1.0-117.0","0","0","71384","","null","","","null","12","","","","","","","","","","","","","","","NaN",""
"","S1","","html-keyboard-response","90","142140","0.0-1.0-119.0","0","0","71384","","null","","","null","13","","","","","","","","","","","","","","","",""
"","ISI","","html-keyboard-response","91","143142","0.0-1.0-120.0","0","0","71384","","null","","","null","13","NaN","","","","","","","","","","","","","","",""
"","S2","","html-keyboard-response","92","143394","0.0-1.0-121.0","0","0","71384","","null","","","null","13","","NaN","","","","","","","","","","","","","",""
"","response","","html-keyboard-response","93","144092","0.0-1.0-122.0-0.0","0","0","71384","","697","","","75","13","","","1","13","training","adjacent","FE","6","5","N.jpg","L.jpg","0","0","1","",""
"","feedback","","html-keyboard-response","94","145096","0.0-1.0-123.0-0.0","0","0","71384","","null","","","null","13","","","","","","","","","","","","","","","",""
"","ITI","","html-keyboard-response","95","146098","0.0-1.0-126.0","0","0","71384","","null","","","null","13","","","","","","","","","","","","","","","NaN",""
"","S1","","html-keyboard-response","96","146364","0.0-1.0-128.0","0","0","71384","","null","","","null","14","","","","","","","","","","","","","","","",""
"","ISI","","html-keyboard-response","97","147366","0.0-1.0-129.0","0","0","71384","","null","","","null","14","NaN","","","","","","","","","","","","","","",""
"","S2","","html-keyboard-response","98","147618","0.0-1.0-130.0","0","0","71384","","null","","","null","14","","NaN","","","","","","","","","","","","","",""
"","response","","html-keyboard-response","99","148628","0.0-1.0-131.0-0.0","0","0","71384","","1009","","","68","14","","","1","14","training","adjacent","EF","5","6","L.jpg","N.jpg","1","1","1","",""
"","feedback","","html-keyboard-response","100","149631","0.0-1.0-132.0-0.0","0","0","71384","","null","","","null","14","","","","","","","","","","","","","","","",""
"","ITI","","html-keyboard-response","101","150634","0.0-1.0-135.0","0","0","71384","","null","","","null","14","","","","","","","","","","","","","","","NaN",""
"","S1","","html-keyboard-response","102","150886","0.0-1.0-137.0","0","0","71384","","null","","","null","15","","","","","","","","","","","","","","","",""
"","ISI","","html-keyboard-response","103","151889","0.0-1.0-138.0","0","0","71384","","null","","","null","15","NaN","","","","","","","","","","","","","","",""
"","S2","","html-keyboard-response","104","152141","0.0-1.0-139.0","0","0","71384","","null","","","null","15","","NaN","","","","","","","","","","","","","",""
"","response","","html-keyboard-response","105","152728","0.0-1.0-140.0-0.0","0","0","71384","","587","","","75","15","","","1","15","training","adjacent","GF","7","6","M.jpg","N.jpg","0","0","1","",""
"","feedback","","html-keyboard-response","106","153730","0.0-1.0-141.0-0.0","0","0","71384","","null","","","null","15","","","","","","","","","","","","","","","",""
"","ITI","","html-keyboard-response","107","154732","0.0-1.0-144.0","0","0","71384","","null","","","null","15","","","","","","","","","","","","","","","NaN",""
"","S1","","html-keyboard-response","108","154986","0.0-1.0-146.0","0","0","71384","","null","","","null","16","","","","","","","","","","","","","","","",""
"","ISI","","html-keyboard-response","109","155989","0.0-1.0-147.0","0","0","71384","","null","","","null","16","NaN","","","","","","","","","","","","","","",""
"","S2","","html-keyboard-response","110","156241","0.0-1.0-148.0","0","0","71384","","null","","","null","16","","NaN","","","","","","","","","","","","","",""
"","response","","html-keyboard-response","111","156822","0.0-1.0-149.0-0.0","0","0","71384","","579","","","75","16","","","1","16","training","adjacent","GF","7","6","M.jpg","N.jpg","0","0","1","",""
"","feedback","","html-keyboard-response","112","157824","0.0-1.0-150.0-0.0","0","0","71384","","null","","","null","16","","","","","","","","","","","","","","","",""
"","ITI","","html-keyboard-response","113","158828","0.0-1.0-153.0","0","0","71384","","null","","","null","16","","","","","","","","","","","","","","","NaN",""
"","S1","","html-keyboard-response","114","159080","0.0-1.0-155.0","0","0","71384","","null","","","null","17","","","","","","","","","","","","","","","",""
"","ISI","","html-keyboard-response","115","160083","0.0-1.0-156.0","0","0","71384","","null","","","null","17","NaN","","","","","","","","","","","","","","",""
"","S2","","html-keyboard-response","116","160334","0.0-1.0-157.0","0","0","71384","","null","","","null","17","","NaN","","","","","","","","","","","","","",""
"","response","","html-keyboard-response","117","161093","0.0-1.0-158.0-0.0","0","0","71384","","757","","","75","17","","","1","17","training","adjacent","BA","2","1","R.jpg","Q.jpg","0","0","1","",""
"","feedback","","html-keyboard-response","118","162096","0.0-1.0-159.0-0.0","0","0","71384","","null","","","null","17","","","","","","","","","","","","","","","",""
"","ITI","","html-keyboard-response","119","163098","0.0-1.0-162.0","0","0","71384","","null","","","null","17","","","","","","","","","","","","","","","NaN",""
"","S1","","html-keyboard-response","120","163349","0.0-1.0-164.0","0","0","71384","","null","","","null","18","","","","","","","","","","","","","","","",""
"","ISI","","html-keyboard-response","121","164351","0.0-1.0-165.0","0","0","71384","","null","","","null","18","NaN","","","","","","","","","","","","","","",""
"","S2","","html-keyboard-response","122","164603","0.0-1.0-166.0","0","0","71384","","null","","","null","18","","NaN","","","","","","","","","","","","","",""
"","response","","html-keyboard-response","123","165658","0.0-1.0-167.0-0.0","0","0","71384","","1054","","","68","18","","","1","18","training","adjacent","ED","5","4","L.jpg","O.jpg","1","0","0","",""
"","feedback","","html-keyboard-response","124","166660","0.0-1.0-168.0-0.0","0","0","71384","","null","","","null","18","","","","","","","","","","","","","","","",""
"","time_out","","html-keyboard-response","125","168663","0.0-1.0-170.0-0.0","0","0","71384","","null","","","null","18","","","","","","","","","","","","","","","",""
"","ITI","","html-keyboard-response","126","169665","0.0-1.0-171.0","0","0","71384","","null","","","null","18","","","","","","","","","","","","","","","NaN",""
"","S1","","html-keyboard-response","127","169917","0.0-1.0-173.0","0","0","71384","","null","","","null","19","","","","","","","","","","","","","","","",""
"","ISI","","html-keyboard-response","128","170920","0.0-1.0-174.0","0","0","71384","","null","","","null","19","NaN","","","","","","","","","","","","","","",""
"","S2","","html-keyboard-response","129","171173","0.0-1.0-175.0","0","0","71384","","null","","","null","19","","NaN","","","","","","","","","","","","","",""
"","response","","html-keyboard-response","130","171810","0.0-1.0-176.0-0.0","0","0","71384","","635","","","68","19","","","1","19","training","adjacent","DE","4","5","O.jpg","L.jpg","1","1","1","",""
"","feedback","","html-keyboard-response","131","172812","0.0-1.0-177.0-0.0","0","0","71384","","null","","","null","19","","","","","","","","","","","","","","","",""
"","ITI","","html-keyboard-response","132","173814","0.0-1.0-180.0","0","0","71384","","null","","","null","19","","","","","","","","","","","","","","","NaN",""
"","S1","","html-keyboard-response","133","174066","0.0-1.0-182.0","0","0","71384","","null","","","null","20","","","","","","","","","","","","","","","",""
"","ISI","","html-keyboard-response","134","175068","0.0-1.0-183.0","0","0","71384","","null","","","null","20","NaN","","","","","","","","","","","","","","",""
"","S2","","html-keyboard-response","135","175330","0.0-1.0-184.0","0","0","71384","","null","","","null","20","","NaN","","","","","","","","","","","","","",""
"","response","","html-keyboard-response","136","175612","0.0-1.0-185.0-0.0","0","0","71384","","281","","","68","20","","","1","20","training","adjacent","AB","1","2","Q.jpg","R.jpg","1","1","1","",""
"","feedback","","html-keyboard-response","137","176615","0.0-1.0-186.0-0.0","0","0","71384","","null","","","null","20","","","","","","","","","","","","","","","",""
"","ITI","","html-keyboard-response","138","177619","0.0-1.0-189.0","0","0","71384","","null","","","null","20","","","","","","","","","","","","","","","NaN",""
"","S1","","html-keyboard-response","139","177871","0.0-1.0-191.0","0","0","71384","","null","","","null","21","","","","","","","","","","","","","","","",""
"","ISI","","html-keyboard-response","140","178872","0.0-1.0-192.0","0","0","71384","","null","","","null","21","NaN","","","","","","","","","","","","","","",""
"","S2","","html-keyboard-response","141","179125","0.0-1.0-193.0","0","0","71384","","null","","","null","21","","NaN","","","","","","","","","","","","","",""
"","response","","html-keyboard-response","142","179436","0.0-1.0-194.0-0.0","0","0","71384","","309","","","68","21","","","1","21","training","adjacent","AB","1","2","Q.jpg","R.jpg","1","1","1","",""
"","feedback","","html-keyboard-response","143","180440","0.0-1.0-195.0-0.0","0","0","71384","","null","","","null","21","","","","","","","","","","","","","","","",""
"","ITI","","html-keyboard-response","144","181444","0.0-1.0-198.0","0","0","71384","","null","","","null","21","","","","","","","","","","","","","","","NaN",""
"","S1","","html-keyboard-response","145","181699","0.0-1.0-200.0","0","0","71384","","null","","","null","22","","","","","","","","","","","","","","","",""
"","ISI","","html-keyboard-response","146","182711","0.0-1.0-201.0","0","0","71384","","null","","","null","22","NaN","","","","","","","","","","","","","","",""
"","S2","","html-keyboard-response","147","182962","0.0-1.0-202.0","0","0","71384","","null","","","null","22","","NaN","","","","","","","","","","","","","",""
"","response","","html-keyboard-response","148","183703","0.0-1.0-203.0-0.0","0","0","71384","","740","","","75","22","","","1","22","training","adjacent","FG","6","7","N.jpg","M.jpg","0","1","0","",""
"","feedback","","html-keyboard-response","149","184708","0.0-1.0-204.0-0.0","0","0","71384","","null","","","null","22","","","","","","","","","","","","","","","",""
"","time_out","","html-keyboard-response","150","186710","0.0-1.0-206.0-0.0","0","0","71384","","null","","","null","22","","","","","","","","","","","","","","","",""
"","ITI","","html-keyboard-response","151","187712","0.0-1.0-207.0","0","0","71384","","null","","","null","22","","","","","","","","","","","","","","","NaN",""
"","S1","","html-keyboard-response","152","187967","0.0-1.0-209.0","0","0","71384","","null","","","null","23","","","","","","","","","","","","","","","",""
"","ISI","","html-keyboard-response","153","188970","0.0-1.0-210.0","0","0","71384","","null","","","null","23","NaN","","","","","","","","","","","","","","",""
"","S2","","html-keyboard-response","154","189223","0.0-1.0-211.0","0","0","71384","","null","","","null","23","","NaN","","","","","","","","","","","","","",""
"","response","","html-keyboard-response","155","189821","0.0-1.0-212.0-0.0","0","0","71384","","597","","","75","23","","","1","23","training","adjacent","FE","6","5","N.jpg","L.jpg","0","0","1","",""
"","feedback","","html-keyboard-response","156","190822","0.0-1.0-213.0-0.0","0","0","71384","","null","","","null","23","","","","","","","","","","","","","","","",""
"","ITI","","html-keyboard-response","157","191824","0.0-1.0-216.0","0","0","71384","","null","","","null","23","","","","","","","","","","","","","","","NaN",""
"","S1","","html-keyboard-response","158","192077","0.0-1.0-218.0","0","0","71384","","null","","","null","24","","","","","","","","","","","","","","","",""
"","ISI","","html-keyboard-response","159","193091","0.0-1.0-219.0","0","0","71384","","null","","","null","24","NaN","","","","","","","","","","","","","","",""
"","S2","","html-keyboard-response","160","193343","0.0-1.0-220.0","0","0","71384","","null","","","null","24","","NaN","","","","","","","","","","","","","",""
"","response","","html-keyboard-response","161","193896","0.0-1.0-221.0-0.0","0","0","71384","","552","","","75","24","","","1","24","training","adjacent","BC","2","3","R.jpg","P.jpg","0","1","0","",""
"","feedback","","html-keyboard-response","162","194899","0.0-1.0-222.0-0.0","0","0","71384","","null","","","null","24","","","","","","","","","","","","","","","",""
"","time_out","","html-keyboard-response","163","196902","0.0-1.0-224.0-0.0","0","0","71384","","null","","","null","24","","","","","","","","","","","","","","","",""
"","ITI","","html-keyboard-response","164","197904","0.0-1.0-225.0","0","0","71384","","null","","","null","24","","","","","","","","","","","","","","","NaN",""
"","S1","","html-keyboard-response","165","198155","0.0-1.0-227.0","0","0","71384","","null","","","null","25","","","","","","","","","","","","","","","",""
"","ISI","","html-keyboard-response","166","199158","0.0-1.0-228.0","0","0","71384","","null","","","null","25","NaN","","","","","","","","","","","","","","",""
"","S2","","html-keyboard-response","167","199413","0.0-1.0-229.0","0","0","71384","","null","","","null","25","","NaN","","","","","","","","","","","","","",""
"","response","","html-keyboard-response","168","199952","0.0-1.0-230.0-0.0","0","0","71384","","537","","","68","25","","","1","25","training","adjacent","CB","3","2","P.jpg","R.jpg","1","0","0","",""
"","feedback","","html-keyboard-response","169","200954","0.0-1.0-231.0-0.0","0","0","71384","","null","","","null","25","","","","","","","","","","","","","","","",""
"","time_out","","html-keyboard-response","170","202956","0.0-1.0-233.0-0.0","0","0","71384","","null","","","null","25","","","","","","","","","","","","","","","",""
"","ITI","","html-keyboard-response","171","203959","0.0-1.0-234.0","0","0","71384","","null","","","null","25","","","","","","","","","","","","","","","NaN",""
"","S1","","html-keyboard-response","172","204212","0.0-1.0-236.0","0","0","71384","","null","","","null","26","","","","","","","","","","","","","","","",""
"","ISI","","html-keyboard-response","173","205215","0.0-1.0-237.0","0","0","71384","","null","","","null","26","NaN","","","","","","","","","","","","","","",""
"","S2","","html-keyboard-response","174","205469","0.0-1.0-238.0","0","0","71384","","null","","","null","26","","NaN","","","","","","","","","","","","","",""
"","response","","html-keyboard-response","175","206451","0.0-1.0-239.0-0.0","0","0","71384","","980","","","68","26","","","1","26","training","adjacent","BC","2","3","R.jpg","P.jpg","1","1","1","",""
"","feedback","","html-keyboard-response","176","207452","0.0-1.0-240.0-0.0","0","0","71384","","null","","","null","26","","","","","","","","","","","","","","","",""
"","ITI","","html-keyboard-response","177","208453","0.0-1.0-243.0","0","0","71384","","null","","","null","26","","","","","","","","","","","","","","","NaN",""
"","S1","","html-keyboard-response","178","208705","0.0-1.0-245.0","0","0","71384","","null","","","null","27","","","","","","","","","","","","","","","",""
"","ISI","","html-keyboard-response","179","209709","0.0-1.0-246.0","0","0","71384","","null","","","null","27","NaN","","","","","","","","","","","","","","",""
"","S2","","html-keyboard-response","180","209961","0.0-1.0-247.0","0","0","71384","","null","","","null","27","","NaN","","","","","","","","","","","","","",""
"","response","","html-keyboard-response","181","210416","0.0-1.0-248.0-0.0","0","0","71384","","455","","","68","27","","","1","27","training","adjacent","EF","5","6","L.jpg","N.jpg","1","1","1","",""
"","feedback","","html-keyboard-response","182","211418","0.0-1.0-249.0-0.0","0","0","71384","","null","","","null","27","","","","","","","","","","","","","","","",""
"","ITI","","html-keyboard-response","183","212423","0.0-1.0-252.0","0","0","71384","","null","","","null","27","","","","","","","","","","","","","","","NaN",""
"","S1","","html-keyboard-response","184","212675","0.0-1.0-254.0","0","0","71384","","null","","","null","28","","","","","","","","","","","","","","","",""
"","ISI","","html-keyboard-response","185","213678","0.0-1.0-255.0","0","0","71384","","null","","","null","28","NaN","","","","","","","","","","","","","","",""
"","S2","","html-keyboard-response","186","213930","0.0-1.0-256.0","0","0","71384","","null","","","null","28","","NaN","","","","","","","","","","","","","",""
"","response","","html-keyboard-response","187","214532","0.0-1.0-257.0-0.0","0","0","71384","","602","","","68","28","","","1","28","training","adjacent","DC","4","3","O.jpg","P.jpg","1","0","0","",""
"","feedback","","html-keyboard-response","188","215535","0.0-1.0-258.0-0.0","0","0","71384","","null","","","null","28","","","","","","","","","","","","","","","",""
"","time_out","","html-keyboard-response","189","217538","0.0-1.0-260.0-0.0","0","0","71384","","null","","","null","28","","","","","","","","","","","","","","","",""
"","ITI","","html-keyboard-response","190","218543","0.0-1.0-261.0","0","0","71384","","null","","","null","28","","","","","","","","","","","","","","","NaN",""
"","S1","","html-keyboard-response","191","218797","0.0-1.0-263.0","0","0","71384","","null","","","null","29","","","","","","","","","","","","","","","",""
"","ISI","","html-keyboard-response","192","219799","0.0-1.0-264.0","0","0","71384","","null","","","null","29","NaN","","","","","","","","","","","","","","",""
"","S2","","html-keyboard-response","193","220052","0.0-1.0-265.0","0","0","71384","","null","","","null","29","","NaN","","","","","","","","","","","","","",""
"","response","","html-keyboard-response","194","220324","0.0-1.0-266.0-0.0","0","0","71384","","271","","","68","29","","","1","29","training","adjacent","AB","1","2","Q.jpg","R.jpg","1","1","1","",""
"","feedback","","html-keyboard-response","195","221327","0.0-1.0-267.0-0.0","0","0","71384","","null","","","null","29","","","","","","","","","","","","","","","",""
"","ITI","","html-keyboard-response","196","222330","0.0-1.0-270.0","0","0","71384","","null","","","null","29","","","","","","","","","","","","","","","NaN",""
"","S1","","html-keyboard-response","197","222584","0.0-1.0-272.0","0","0","71384","","null","","","null","30","","","","","","","","","","","","","","","",""
"","ISI","","html-keyboard-response","198","223588","0.0-1.0-273.0","0","0","71384","","null","","","null","30","NaN","","","","","","","","","","","","","","",""
"","S2","","html-keyboard-response","199","223841","0.0-1.0-274.0","0","0","71384","","null","","","null","30","","NaN","","","","","","","","","","","","","",""
"","response","","html-keyboard-response","200","224729","0.0-1.0-275.0-0.0","0","0","71384","","887","","","68","30","","","1","30","training","adjacent","FG","6","7","N.jpg","M.jpg","1","1","1","",""
"","feedback","","html-keyboard-response","201","225732","0.0-1.0-276.0-0.0","0","0","71384","","null","","","null","30","","","","","","","","","","","","","","","",""
"","ITI","","html-keyboard-response","202","226734","0.0-1.0-279.0","0","0","71384","","null","","","null","30","","","","","","","","","","","","","","","NaN",""
"","S1","","html-keyboard-response","203","226985","0.0-1.0-281.0","0","0","71384","","null","","","null","31","","","","","","","","","","","","","","","",""
"","ISI","","html-keyboard-response","204","227988","0.0-1.0-282.0","0","0","71384","","null","","","null","31","NaN","","","","","","","","","","","","","","",""
"","S2","","html-keyboard-response","205","228241","0.0-1.0-283.0","0","0","71384","","null","","","null","31","","NaN","","","","","","","","","","","","","",""
"","response","","html-keyboard-response","206","229075","0.0-1.0-284.0-0.0","0","0","71384","","833","","","68","31","","","1","31","training","adjacent","CB","3","2","P.jpg","R.jpg","1","0","0","",""
"","feedback","","html-keyboard-response","207","230078","0.0-1.0-285.0-0.0","0","0","71384","","null","","","null","31","","","","","","","","","","","","","","","",""
"","time_out","","html-keyboard-response","208","232079","0.0-1.0-287.0-0.0","0","0","71384","","null","","","null","31","","","","","","","","","","","","","","","",""
"","ITI","","html-keyboard-response","209","233081","0.0-1.0-288.0","0","0","71384","","null","","","null","31","","","","","","","","","","","","","","","NaN",""
"","S1","","html-keyboard-response","210","233332","0.0-1.0-290.0","0","0","71384","","null","","","null","32","","","","","","","","","","","","","","","",""
"","ISI","","html-keyboard-response","211","234336","0.0-1.0-291.0","0","0","71384","","null","","","null","32","NaN","","","","","","","","","","","","","","",""
"","S2","","html-keyboard-response","212","234589","0.0-1.0-292.0","0","0","71384","","null","","","null","32","","NaN","","","","","","","","","","","","","",""
"","response","","html-keyboard-response","213","234919","0.0-1.0-293.0-0.0","0","0","71384","","329","","","75","32","","","1","32","training","adjacent","BA","2","1","R.jpg","Q.jpg","0","0","1","",""
"","feedback","","html-keyboard-response","214","235921","0.0-1.0-294.0-0.0","0","0","71384","","null","","","null","32","","","","","","","","","","","","","","","",""
"","ITI","","html-keyboard-response","215","236925","0.0-1.0-297.0","0","0","71384","","null","","","null","32","","","","","","","","","","","","","","","NaN",""
"","S1","","html-keyboard-response","216","237179","0.0-1.0-299.0","0","0","71384","","null","","","null","33","","","","","","","","","","","","","","","",""
"","ISI","","html-keyboard-response","217","238180","0.0-1.0-300.0","0","0","71384","","null","","","null","33","NaN","","","","","","","","","","","","","","",""
"","S2","","html-keyboard-response","218","238432","0.0-1.0-301.0","0","0","71384","","null","","","null","33","","NaN","","","","","","","","","","","","","",""
"","response","","html-keyboard-response","219","239049","0.0-1.0-302.0-0.0","0","0","71384","","616","","","75","33","","","1","33","training","adjacent","CD","3","4","P.jpg","O.jpg","0","1","0","",""
"","feedback","","html-keyboard-response","220","240058","0.0-1.0-303.0-0.0","0","0","71384","","null","","","null","33","","","","","","","","","","","","","","","",""
"","time_out","","html-keyboard-response","221","242060","0.0-1.0-305.0-0.0","0","0","71384","","null","","","null","33","","","","","","","","","","","","","","","",""
"","ITI","","html-keyboard-response","222","243062","0.0-1.0-306.0","0","0","71384","","null","","","null","33","","","","","","","","","","","","","","","NaN",""
"","S1","","html-keyboard-response","223","243314","0.0-1.0-308.0","0","0","71384","","null","","","null","34","","","","","","","","","","","","","","","",""
"","ISI","","html-keyboard-response","224","244316","0.0-1.0-309.0","0","0","71384","","null","","","null","34","NaN","","","","","","","","","","","","","","",""
"","S2","","html-keyboard-response","225","244568","0.0-1.0-310.0","0","0","71384","","null","","","null","34","","NaN","","","","","","","","","","","","","",""
"","response","","html-keyboard-response","226","245013","0.0-1.0-311.0-0.0","0","0","71384","","444","","","75","34","","","1","34","training","adjacent","DE","4","5","O.jpg","L.jpg","0","1","0","",""
"","feedback","","html-keyboard-response","227","246014","0.0-1.0-312.0-0.0","0","0","71384","","null","","","null","34","","","","","","","","","","","","","","","",""
"","time_out","","html-keyboard-response","228","248016","0.0-1.0-314.0-0.0","0","0","71384","","null","","","null","34","","","","","","","","","","","","","","","",""
"","ITI","","html-keyboard-response","229","249018","0.0-1.0-315.0","0","0","71384","","null","","","null","34","","","","","","","","","","","","","","","NaN",""
"","S1","","html-keyboard-response","230","249271","0.0-1.0-317.0","0","0","71384","","null","","","null","35","","","","","","","","","","","","","","","",""
"","ISI","","html-keyboard-response","231","250272","0.0-1.0-318.0","0","0","71384","","null","","","null","35","NaN","","","","","","","","","","","","","","",""
"","S2","","html-keyboard-response","232","250525","0.0-1.0-319.0","0","0","71384","","null","","","null","35","","NaN","","","","","","","","","","","","","",""
"","response","","html-keyboard-response","233","250816","0.0-1.0-320.0-0.0","0","0","71384","","291","","","68","35","","","1","35","training","adjacent","AB","1","2","Q.jpg","R.jpg","1","1","1","",""
"","feedback","","html-keyboard-response","234","251818","0.0-1.0-321.0-0.0","0","0","71384","","null","","","null","35","","","","","","","","","","","","","","","",""
"","ITI","","html-keyboard-response","235","252820","0.0-1.0-324.0","0","0","71384","","null","","","null","35","","","","","","","","","","","","","","","NaN",""
"","S1","","html-keyboard-response","236","253073","0.0-1.0-326.0","0","0","71384","","null","","","null","36","","","","","","","","","","","","","","","",""
"","ISI","","html-keyboard-response","237","254075","0.0-1.0-327.0","0","0","71384","","null","","","null","36","NaN","","","","","","","","","","","","","","",""
"","S2","","html-keyboard-response","238","254327","0.0-1.0-328.0","0","0","71384","","null","","","null","36","","NaN","","","","","","","","","","","","","",""
"","response","","html-keyboard-response","239","255116","0.0-1.0-329.0-0.0","0","0","71384","","789","","","75","36","","","1","36","training","adjacent","EF","5","6","L.jpg","N.jpg","0","1","0","",""
"","feedback","","html-keyboard-response","240","256131","0.0-1.0-330.0-0.0","0","0","71384","","null","","","null","36","","","","","","","","","","","","","","","",""
"","time_out","","html-keyboard-response","241","258133","0.0-1.0-332.0-0.0","0","0","71384","","null","","","null","36","","","","","","","","","","","","","","","",""
"","ITI","","html-keyboard-response","242","259135","0.0-1.0-333.0","0","0","71384","","null","","","null","36","","","","","","","","","","","","","","","NaN",""
"","S1","","html-keyboard-response","243","259387","0.0-1.0-335.0","0","0","71384","","null","","","null","37","","","","","","","","","","","","","","","",""
"","ISI","","html-keyboard-response","244","260389","0.0-1.0-336.0","0","0","71384","","null","","","null","37","NaN","","","","","","","","","","","","","","",""
"","S2","","html-keyboard-response","245","260642","0.0-1.0-337.0","0","0","71384","","null","","","null","37","","NaN","","","","","","","","","","","","","",""
"","response","","html-keyboard-response","246","261267","0.0-1.0-338.0-0.0","0","0","71384","","625","","","75","37","","","1","37","training","adjacent","DE","4","5","O.jpg","L.jpg","0","1","0","",""
"","feedback","","html-keyboard-response","247","262271","0.0-1.0-339.0-0.0","0","0","71384","","null","","","null","37","","","","","","","","","","","","","","","",""
"","time_out","","html-keyboard-response","248","264275","0.0-1.0-341.0-0.0","0","0","71384","","null","","","null","37","","","","","","","","","","","","","","","",""
"","ITI","","html-keyboard-response","249","265278","0.0-1.0-342.0","0","0","71384","","null","","","null","37","","","","","","","","","","","","","","","NaN",""
"","S1","","html-keyboard-response","250","265532","0.0-1.0-344.0","0","0","71384","","null","","","null","38","","","","","","","","","","","","","","","",""
"","ISI","","html-keyboard-response","251","266535","0.0-1.0-345.0","0","0","71384","","null","","","null","38","NaN","","","","","","","","","","","","","","",""
"","S2","","html-keyboard-response","252","266789","0.0-1.0-346.0","0","0","71384","","null","","","null","38","","NaN","","","","","","","","","","","","","",""
"","response","","html-keyboard-response","253","267581","0.0-1.0-347.0-0.0","0","0","71384","","791","","","75","38","","","1","38","training","adjacent","CD","3","4","P.jpg","O.jpg","0","1","0","",""
"","feedback","","html-keyboard-response","254","268583","0.0-1.0-348.0-0.0","0","0","71384","","null","","","null","38","","","","","","","","","","","","","","","",""
"","time_out","","html-keyboard-response","255","270584","0.0-1.0-350.0-0.0","0","0","71384","","null","","","null","38","","","","","","","","","","","","","","","",""
"","ITI","","html-keyboard-response","256","271586","0.0-1.0-351.0","0","0","71384","","null","","","null","38","","","","","","","","","","","","","","","NaN",""
"","S1","","html-keyboard-response","257","271839","0.0-1.0-353.0","0","0","71384","","null","","","null","39","","","","","","","","","","","","","","","",""
"","ISI","","html-keyboard-response","258","272841","0.0-1.0-354.0","0","0","71384","","null","","","null","39","NaN","","","","","","","","","","","","","","",""
"","S2","","html-keyboard-response","259","273093","0.0-1.0-355.0","0","0","71384","","null","","","null","39","","NaN","","","","","","","","","","","","","",""
"","response","","html-keyboard-response","260","273631","0.0-1.0-356.0-0.0","0","0","71384","","537","","","75","39","","","1","39","training","adjacent","FE","6","5","N.jpg","L.jpg","0","0","1","",""
"","feedback","","html-keyboard-response","261","274633","0.0-1.0-357.0-0.0","0","0","71384","","null","","","null","39","","","","","","","","","","","","","","","",""
"","ITI","","html-keyboard-response","262","275637","0.0-1.0-360.0","0","0","71384","","null","","","null","39","","","","","","","","","","","","","","","NaN",""
"","S1","","html-keyboard-response","263","275891","0.0-1.0-362.0","0","0","71384","","null","","","null","40","","","","","","","","","","","","","","","",""
"","ISI","","html-keyboard-response","264","276893","0.0-1.0-363.0","0","0","71384","","null","","","null","40","NaN","","","","","","","","","","","","","","",""
"","S2","","html-keyboard-response","265","277145","0.0-1.0-364.0","0","0","71384","","null","","","null","40","","NaN","","","","","","","","","","","","","",""
"","response","","html-keyboard-response","266","278066","0.0-1.0-365.0-0.0","0","0","71384","","921","","","75","40","","","1","40","training","adjacent","CB","3","2","P.jpg","R.jpg","0","0","1","",""
"","feedback","","html-keyboard-response","267","279070","0.0-1.0-366.0-0.0","0","0","71384","","null","","","null","40","","","","","","","","","","","","","","","",""
"","ITI","","html-keyboard-response","268","280073","0.0-1.0-369.0","0","0","71384","","null","","","null","40","","","","","","","","","","","","","","","NaN",""
"","S1","","html-keyboard-response","269","280325","0.0-1.0-371.0","0","0","71384","","null","","","null","41","","","","","","","","","","","","","","","",""
"","ISI","","html-keyboard-response","270","281329","0.0-1.0-372.0","0","0","71384","","null","","","null","41","NaN","","","","","","","","","","","","","","",""
"","S2","","html-keyboard-response","271","281582","0.0-1.0-373.0","0","0","71384","","null","","","null","41","","NaN","","","","","","","","","","","","","",""
"","response","","html-keyboard-response","272","281911","0.0-1.0-374.0-0.0","0","0","71384","","327","","","75","41","","","1","41","training","adjacent","BA","2","1","R.jpg","Q.jpg","0","0","1","",""
"","feedback","","html-keyboard-response","273","282913","0.0-1.0-375.0-0.0","0","0","71384","","null","","","null","41","","","","","","","","","","","","","","","",""
"","ITI","","html-keyboard-response","274","283916","0.0-1.0-378.0","0","0","71384","","null","","","null","41","","","","","","","","","","","","","","","NaN",""
"","S1","","html-keyboard-response","275","284169","0.0-1.0-380.0","0","0","71384","","null","","","null","42","","","","","","","","","","","","","","","",""
"","ISI","","html-keyboard-response","276","285178","0.0-1.0-381.0","0","0","71384","","null","","","null","42","NaN","","","","","","","","","","","","","","",""
"","S2","","html-keyboard-response","277","285444","0.0-1.0-382.0","0","0","71384","","null","","","null","42","","NaN","","","","","","","","","","","","","",""
"","response","","html-keyboard-response","278","286047","0.0-1.0-383.0-0.0","0","0","71384","","601","","","75","42","","","1","42","training","adjacent","GF","7","6","M.jpg","N.jpg","0","0","1","",""
"","feedback","","html-keyboard-response","279","287051","0.0-1.0-384.0-0.0","0","0","71384","","null","","","null","42","","","","","","","","","","","","","","","",""
"","ITI","","html-keyboard-response","280","288054","0.0-1.0-387.0","0","0","71384","","null","","","null","42","","","","","","","","","","","","","","","NaN",""
"","S1","","html-keyboard-response","281","288306","0.0-1.0-389.0","0","0","71384","","null","","","null","43","","","","","","","","","","","","","","","",""
"","ISI","","html-keyboard-response","282","289308","0.0-1.0-390.0","0","0","71384","","null","","","null","43","NaN","","","","","","","","","","","","","","",""
"","S2","","html-keyboard-response","283","289563","0.0-1.0-391.0","0","0","71384","","null","","","null","43","","NaN","","","","","","","","","","","","","",""
"","response","","html-keyboard-response","284","290460","0.0-1.0-392.0-0.0","0","0","71384","","897","","","75","43","","","1","43","training","adjacent","ED","5","4","L.jpg","O.jpg","0","0","1","",""
"","feedback","","html-keyboard-response","285","291462","0.0-1.0-393.0-0.0","0","0","71384","","null","","","null","43","","","","","","","","","","","","","","","",""
"","ITI","","html-keyboard-response","286","292466","0.0-1.0-396.0","0","0","71384","","null","","","null","43","","","","","","","","","","","","","","","NaN",""
"","S1","","html-keyboard-response","287","292720","0.0-1.0-398.0","0","0","71384","","null","","","null","44","","","","","","","","","","","","","","","",""
"","ISI","","html-keyboard-response","288","293723","0.0-1.0-399.0","0","0","71384","","null","","","null","44","NaN","","","","","","","","","","","","","","",""
"","S2","","html-keyboard-response","289","293977","0.0-1.0-400.0","0","0","71384","","null","","","null","44","","NaN","","","","","","","","","","","","","",""
"","response","","html-keyboard-response","290","294671","0.0-1.0-401.0-0.0","0","0","71384","","692","","","68","44","","","1","44","training","adjacent","FE","6","5","N.jpg","L.jpg","1","0","0","",""
"","feedback","","html-keyboard-response","291","295674","0.0-1.0-402.0-0.0","0","0","71384","","null","","","null","44","","","","","","","","","","","","","","","",""
"","time_out","","html-keyboard-response","292","297684","0.0-1.0-404.0-0.0","0","0","71384","","null","","","null","44","","","","","","","","","","","","","","","",""
"","ITI","","html-keyboard-response","293","298688","0.0-1.0-405.0","0","0","71384","","null","","","null","44","","","","","","","","","","","","","","","NaN",""
"","S1","","html-keyboard-response","294","298941","0.0-1.0-407.0","0","0","71384","","null","","","null","45","","","","","","","","","","","","","","","",""
"","ISI","","html-keyboard-response","295","299942","0.0-1.0-408.0","0","0","71384","","null","","","null","45","NaN","","","","","","","","","","","","","","",""
"","S2","","html-keyboard-response","296","300196","0.0-1.0-409.0","0","0","71384","","null","","","null","45","","NaN","","","","","","","","","","","","","",""
"","response","","html-keyboard-response","297","300952","0.0-1.0-410.0-0.0","0","0","71384","","754","","","75","45","","","1","45","training","adjacent","DC","4","3","O.jpg","P.jpg","0","0","1","",""
"","feedback","","html-keyboard-response","298","301955","0.0-1.0-411.0-0.0","0","0","71384","","null","","","null","45","","","","","","","","","","","","","","","",""
"","ITI","","html-keyboard-response","299","302959","0.0-1.0-414.0","0","0","71384","","null","","","null","45","","","","","","","","","","","","","","","NaN",""
"","S1","","html-keyboard-response","300","303211","0.0-1.0-416.0","0","0","71384","","null","","","null","46","","","","","","","","","","","","","","","",""
"","ISI","","html-keyboard-response","301","304212","0.0-1.0-417.0","0","0","71384","","null","","","null","46","NaN","","","","","","","","","","","","","","",""
"","S2","","html-keyboard-response","302","304465","0.0-1.0-418.0","0","0","71384","","null","","","null","46","","NaN","","","","","","","","","","","","","",""
"","response","","html-keyboard-response","303","305076","0.0-1.0-419.0-0.0","0","0","71384","","610","","","75","46","","","1","46","training","adjacent","BC","2","3","R.jpg","P.jpg","0","1","0","",""
"","feedback","","html-keyboard-response","304","306078","0.0-1.0-420.0-0.0","0","0","71384","","null","","","null","46","","","","","","","","","","","","","","","",""
"","time_out","","html-keyboard-response","305","308080","0.0-1.0-422.0-0.0","0","0","71384","","null","","","null","46","","","","","","","","","","","","","","","",""
"","ITI","","html-keyboard-response","306","309084","0.0-1.0-423.0","0","0","71384","","null","","","null","46","","","","","","","","","","","","","","","NaN",""
"","S1","","html-keyboard-response","307","309337","0.0-1.0-425.0","0","0","71384","","null","","","null","47","","","","","","","","","","","","","","","",""
"","ISI","","html-keyboard-response","308","310345","0.0-1.0-426.0","0","0","71384","","null","","","null","47","NaN","","","","","","","","","","","","","","",""
"","S2","","html-keyboard-response","309","310597","0.0-1.0-427.0","0","0","71384","","null","","","null","47","","NaN","","","","","","","","","","","","","",""
"","response","","html-keyboard-response","310","311366","0.0-1.0-428.0-0.0","0","0","71384","","767","","","75","47","","","1","47","training","adjacent","EF","5","6","L.jpg","N.jpg","0","1","0","",""
"","feedback","","html-keyboard-response","311","312368","0.0-1.0-429.0-0.0","0","0","71384","","null","","","null","47","","","","","","","","","","","","","","","",""
"","time_out","","html-keyboard-response","312","314372","0.0-1.0-431.0-0.0","0","0","71384","","null","","","null","47","","","","","","","","","","","","","","","",""
"","ITI","","html-keyboard-response","313","315374","0.0-1.0-432.0","0","0","71384","","null","","","null","47","","","","","","","","","","","","","","","NaN",""
"","block_over","","html-keyboard-response","314","320880","0.0-1.0-433.0-0.0","0","0","71384","","5505","","","32","47","","","","","","","","","","","","","","","",""
"","S1","","html-keyboard-response","315","321134","0.0-1.0-434.0","0","0","71384","","null","","","null","48","","","","","","","","","","","","","","","",""
"","ISI","","html-keyboard-response","316","322136","0.0-1.0-435.0","0","0","71384","","null","","","null","48","NaN","","","","","","","","","","","","","","",""
"","S2","","html-keyboard-response","317","322388","0.0-1.0-436.0","0","0","71384","","null","","","null","48","","NaN","","","","","","","","","","","","","",""
"","response","","html-keyboard-response","318","323091","0.0-1.0-437.0-0.0","0","0","71384","","702","","","75","48","","","2","48","training","adjacent","FG","6","7","N.jpg","M.jpg","0","1","0","",""
"","feedback","","html-keyboard-response","319","324093","0.0-1.0-438.0-0.0","0","0","71384","","null","","","null","48","","","","","","","","","","","","","","","",""
"","time_out","","html-keyboard-response","320","326100","0.0-1.0-440.0-0.0","0","0","71384","","null","","","null","48","","","","","","","","","","","","","","","",""
"","ITI","","html-keyboard-response","321","327103","0.0-1.0-441.0","0","0","71384","","null","","","null","48","","","","","","","","","","","","","","","NaN",""
"","S1","","html-keyboard-response","322","327357","0.0-1.0-443.0","0","0","71384","","null","","","null","49","","","","","","","","","","","","","","","",""
"","ISI","","html-keyboard-response","323","328361","0.0-1.0-444.0","0","0","71384","","null","","","null","49","NaN","","","","","","","","","","","","","","",""
"","S2","","html-keyboard-response","324","328613","0.0-1.0-445.0","0","0","71384","","null","","","null","49","","NaN","","","","","","","","","","","","","",""
"","response","","html-keyboard-response","325","328977","0.0-1.0-446.0-0.0","0","0","71384","","364","","","75","49","","","2","49","training","adjacent","GF","7","6","M.jpg","N.jpg","0","0","1","",""
"","feedback","","html-keyboard-response","326","329980","0.0-1.0-447.0-0.0","0","0","71384","","null","","","null","49","","","","","","","","","","","","","","","",""
"","ITI","","html-keyboard-response","327","330981","0.0-1.0-450.0","0","0","71384","","null","","","null","49","","","","","","","","","","","","","","","NaN",""
"","S1","","html-keyboard-response","328","331235","0.0-1.0-452.0","0","0","71384","","null","","","null","50","","","","","","","","","","","","","","","",""
"","ISI","","html-keyboard-response","329","332239","0.0-1.0-453.0","0","0","71384","","null","","","null","50","NaN","","","","","","","","","","","","","","",""
"","S2","","html-keyboard-response","330","332492","0.0-1.0-454.0","0","0","71384","","null","","","null","50","","NaN","","","","","","","","","","","","","",""
"","response","","html-keyboard-response","331","333193","0.0-1.0-455.0-0.0","0","0","71384","","700","","","75","50","","","2","50","training","adjacent","ED","5","4","L.jpg","O.jpg","0","0","1","",""
"","feedback","","html-keyboard-response","332","334196","0.0-1.0-456.0-0.0","0","0","71384","","null","","","null","50","","","","","","","","","","","","","","","",""
"","ITI","","html-keyboard-response","333","335199","0.0-1.0-459.0","0","0","71384","","null","","","null","50","","","","","","","","","","","","","","","NaN",""
"","S1","","html-keyboard-response","334","335454","0.0-1.0-461.0","0","0","71384","","null","","","null","51","","","","","","","","","","","","","","","",""
"","ISI","","html-keyboard-response","335","336459","0.0-1.0-462.0","0","0","71384","","null","","","null","51","NaN","","","","","","","","","","","","","","",""
"","S2","","html-keyboard-response","336","336712","0.0-1.0-463.0","0","0","71384","","null","","","null","51","","NaN","","","","","","","","","","","","","",""
"","response","","html-keyboard-response","337","337519","0.0-1.0-464.0-0.0","0","0","71384","","806","","","75","51","","","2","51","training","adjacent","CD","3","4","P.jpg","O.jpg","0","1","0","",""
"","feedback","","html-keyboard-response","338","338522","0.0-1.0-465.0-0.0","0","0","71384","","null","","","null","51","","","","","","","","","","","","","","","",""
"","time_out","","html-keyboard-response","339","340524","0.0-1.0-467.0-0.0","0","0","71384","","null","","","null","51","","","","","","","","","","","","","","","",""
"","ITI","","html-keyboard-response","340","341527","0.0-1.0-468.0","0","0","71384","","null","","","null","51","","","","","","","","","","","","","","","NaN",""
"","S1","","html-keyboard-response","341","341780","0.0-1.0-470.0","0","0","71384","","null","","","null","52","","","","","","","","","","","","","","","",""
"","ISI","","html-keyboard-response","342","342784","0.0-1.0-471.0","0","0","71384","","null","","","null","52","NaN","","","","","","","","","","","","","","",""
"","S2","","html-keyboard-response","343","343041","0.0-1.0-472.0","0","0","71384","","null","","","null","52","","NaN","","","","","","","","","","","","","",""
"","response","","html-keyboard-response","344","343404","0.0-1.0-473.0-0.0","0","0","71384","","361","","","75","52","","","2","52","training","adjacent","BA","2","1","R.jpg","Q.jpg","0","0","1","",""
"","feedback","","html-keyboard-response","345","344407","0.0-1.0-474.0-0.0","0","0","71384","","null","","","null","52","","","","","","","","","","","","","","","",""
"","ITI","","html-keyboard-response","346","345411","0.0-1.0-477.0","0","0","71384","","null","","","null","52","","","","","","","","","","","","","","","NaN",""
"","S1","","html-keyboard-response","347","345663","0.0-1.0-479.0","0","0","71384","","null","","","null","53","","","","","","","","","","","","","","","",""
"","ISI","","html-keyboard-response","348","346666","0.0-1.0-480.0","0","0","71384","","null","","","null","53","NaN","","","","","","","","","","","","","","",""
"","S2","","html-keyboard-response","349","346919","0.0-1.0-481.0","0","0","71384","","null","","","null","53","","NaN","","","","","","","","","","","","","",""
"","response","","html-keyboard-response","350","347512","0.0-1.0-482.0-0.0","0","0","71384","","592","","","75","53","","","2","53","training","adjacent","DE","4","5","O.jpg","L.jpg","0","1","0","",""
"","feedback","","html-keyboard-response","351","348514","0.0-1.0-483.0-0.0","0","0","71384","","null","","","null","53","","","","","","","","","","","","","","","",""
"","time_out","","html-keyboard-response","352","350517","0.0-1.0-485.0-0.0","0","0","71384","","null","","","null","53","","","","","","","","","","","","","","","",""
"","ITI","","html-keyboard-response","353","351518","0.0-1.0-486.0","0","0","71384","","null","","","null","53","","","","","","","","","","","","","","","NaN",""
"","S1","","html-keyboard-response","354","351775","0.0-1.0-488.0","0","0","71384","","null","","","null","54","","","","","","","","","","","","","","","",""
"","ISI","","html-keyboard-response","355","352780","0.0-1.0-489.0","0","0","71384","","null","","","null","54","NaN","","","","","","","","","","","","","","",""
"","S2","","html-keyboard-response","356","353035","0.0-1.0-490.0","0","0","71384","","null","","","null","54","","NaN","","","","","","","","","","","","","",""
"","response","","html-keyboard-response","357","353211","0.0-1.0-491.0-0.0","0","0","71384","","174","","","75","54","","","2","54","training","adjacent","BA","2","1","R.jpg","Q.jpg","0","0","1","",""
"","feedback","","html-keyboard-response","358","354212","0.0-1.0-492.0-0.0","0","0","71384","","null","","","null","54","","","","","","","","","","","","","","","",""
"","ITI","","html-keyboard-response","359","355215","0.0-1.0-495.0","0","0","71384","","null","","","null","54","","","","","","","","","","","","","","","NaN",""
"","S1","","html-keyboard-response","360","355467","0.0-1.0-497.0","0","0","71384","","null","","","null","55","","","","","","","","","","","","","","","",""
"","ISI","","html-keyboard-response","361","356470","0.0-1.0-498.0","0","0","71384","","null","","","null","55","NaN","","","","","","","","","","","","","","",""
"","S2","","html-keyboard-response","362","356722","0.0-1.0-499.0","0","0","71384","","null","","","null","55","","NaN","","","","","","","","","","","","","",""
"","response","","html-keyboard-response","363","357409","0.0-1.0-500.0-0.0","0","0","71384","","685","","","68","55","","","2","55","training","adjacent","EF","5","6","L.jpg","N.jpg","1","1","1","",""
"","feedback","","html-keyboard-response","364","358412","0.0-1.0-501.0-0.0","0","0","71384","","null","","","null","55","","","","","","","","","","","","","","","",""
"","ITI","","html-keyboard-response","365","359415","0.0-1.0-504.0","0","0","71384","","null","","","null","55","","","","","","","","","","","","","","","NaN",""
"","S1","","html-keyboard-response","366","359670","0.0-1.0-506.0","0","0","71384","","null","","","null","56","","","","","","","","","","","","","","","",""
"","ISI","","html-keyboard-response","367","360673","0.0-1.0-507.0","0","0","71384","","null","","","null","56","NaN","","","","","","","","","","","","","","",""
"","S2","","html-keyboard-response","368","360925","0.0-1.0-508.0","0","0","71384","","null","","","null","56","","NaN","","","","","","","","","","","","","",""
"","response","","html-keyboard-response","369","361655","0.0-1.0-509.0-0.0","0","0","71384","","729","","","75","56","","","2","56","training","adjacent","BC","2","3","R.jpg","P.jpg","0","1","0","",""
"","feedback","","html-keyboard-response","370","362670","0.0-1.0-510.0-0.0","0","0","71384","","null","","","null","56","","","","","","","","","","","","","","","",""
"","time_out","","html-keyboard-response","371","364674","0.0-1.0-512.0-0.0","0","0","71384","","null","","","null","56","","","","","","","","","","","","","","","",""
"","ITI","","html-keyboard-response","372","365676","0.0-1.0-513.0","0","0","71384","","null","","","null","56","","","","","","","","","","","","","","","NaN",""
"","S1","","html-keyboard-response","373","365930","0.0-1.0-515.0","0","0","71384","","null","","","null","57","","","","","","","","","","","","","","","",""
"","ISI","","html-keyboard-response","374","366934","0.0-1.0-516.0","0","0","71384","","null","","","null","57","NaN","","","","","","","","","","","","","","",""
"","S2","","html-keyboard-response","375","367185","0.0-1.0-517.0","0","0","71384","","null","","","null","57","","NaN","","","","","","","","","","","","","",""
"","response","","html-keyboard-response","376","367581","0.0-1.0-518.0-0.0","0","0","71384","","394","","","75","57","","","2","57","training","adjacent","GF","7","6","M.jpg","N.jpg","0","0","1","",""
"","feedback","","html-keyboard-response","377","368585","0.0-1.0-519.0-0.0","0","0","71384","","null","","","null","57","","","","","","","","","","","","","","","",""
"","ITI","","html-keyboard-response","378","369586","0.0-1.0-522.0","0","0","71384","","null","","","null","57","","","","","","","","","","","","","","","NaN",""
"","S1","","html-keyboard-response","379","369839","0.0-1.0-524.0","0","0","71384","","null","","","null","58","","","","","","","","","","","","","","","",""
"","ISI","","html-keyboard-response","380","370841","0.0-1.0-525.0","0","0","71384","","null","","","null","58","NaN","","","","","","","","","","","","","","",""
"","S2","","html-keyboard-response","381","371093","0.0-1.0-526.0","0","0","71384","","null","","","null","58","","NaN","","","","","","","","","","","","","",""
"","response","","html-keyboard-response","382","371756","0.0-1.0-527.0-0.0","0","0","71384","","662","","","75","58","","","2","58","training","adjacent","BC","2","3","R.jpg","P.jpg","0","1","0","",""
"","feedback","","html-keyboard-response","383","372757","0.0-1.0-528.0-0.0","0","0","71384","","null","","","null","58","","","","","","","","","","","","","","","",""
"","time_out","","html-keyboard-response","384","374762","0.0-1.0-530.0-0.0","0","0","71384","","null","","","null","58","","","","","","","","","","","","","","","",""
"","ITI","","html-keyboard-response","385","375764","0.0-1.0-531.0","0","0","71384","","null","","","null","58","","","","","","","","","","","","","","","NaN",""
"","S1","","html-keyboard-response","386","376017","0.0-1.0-533.0","0","0","71384","","null","","","null","59","","","","","","","","","","","","","","","",""
"","ISI","","html-keyboard-response","387","377021","0.0-1.0-534.0","0","0","71384","","null","","","null","59","NaN","","","","","","","","","","","","","","",""
"","S2","","html-keyboard-response","388","377274","0.0-1.0-535.0","0","0","71384","","null","","","null","59","","NaN","","","","","","","","","","","","","",""
"","response","","html-keyboard-response","389","378031","0.0-1.0-536.0-0.0","0","0","71384","","755","","","75","59","","","2","59","training","adjacent","CD","3","4","P.jpg","O.jpg","0","1","0","",""
"","feedback","","html-keyboard-response","390","379034","0.0-1.0-537.0-0.0","0","0","71384","","null","","","null","59","","","","","","","","","","","","","","","",""
"","time_out","","html-keyboard-response","391","381038","0.0-1.0-539.0-0.0","0","0","71384","","null","","","null","59","","","","","","","","","","","","","","","",""
"","ITI","","html-keyboard-response","392","382043","0.0-1.0-540.0","0","0","71384","","null","","","null","59","","","","","","","","","","","","","","","NaN",""
"","S1","","html-keyboard-response","393","382298","0.0-1.0-542.0","0","0","71384","","null","","","null","60","","","","","","","","","","","","","","","",""
"","ISI","","html-keyboard-response","394","383301","0.0-1.0-543.0","0","0","71384","","null","","","null","60","NaN","","","","","","","","","","","","","","",""
"","S2","","html-keyboard-response","395","383552","0.0-1.0-544.0","0","0","71384","","null","","","null","60","","NaN","","","","","","","","","","","","","",""
"","response","","html-keyboard-response","396","384260","0.0-1.0-545.0-0.0","0","0","71384","","706","","","75","60","","","2","60","training","adjacent","BC","2","3","R.jpg","P.jpg","0","1","0","",""
"","feedback","","html-keyboard-response","397","385266","0.0-1.0-546.0-0.0","0","0","71384","","null","","","null","60","","","","","","","","","","","","","","","",""
"","time_out","","html-keyboard-response","398","387270","0.0-1.0-548.0-0.0","0","0","71384","","null","","","null","60","","","","","","","","","","","","","","","",""
"","ITI","","html-keyboard-response","399","388273","0.0-1.0-549.0","0","0","71384","","null","","","null","60","","","","","","","","","","","","","","","NaN",""
"","S1","","html-keyboard-response","400","388527","0.0-1.0-551.0","0","0","71384","","null","","","null","61","","","","","","","","","","","","","","","",""
"","ISI","","html-keyboard-response","401","389529","0.0-1.0-552.0","0","0","71384","","null","","","null","61","NaN","","","","","","","","","","","","","","",""
"","S2","","html-keyboard-response","402","389781","0.0-1.0-553.0","0","0","71384","","null","","","null","61","","NaN","","","","","","","","","","","","","",""
"","response","","html-keyboard-response","403","390841","0.0-1.0-554.0-0.0","0","0","71384","","1058","","","68","61","","","2","61","training","adjacent","CD","3","4","P.jpg","O.jpg","1","1","1","",""
"","feedback","","html-keyboard-response","404","391843","0.0-1.0-555.0-0.0","0","0","71384","","null","","","null","61","","","","","","","","","","","","","","","",""
"","ITI","","html-keyboard-response","405","392845","0.0-1.0-558.0","0","0","71384","","null","","","null","61","","","","","","","","","","","","","","","NaN",""
"","S1","","html-keyboard-response","406","393099","0.0-1.0-560.0","0","0","71384","","null","","","null","62","","","","","","","","","","","","","","","",""
"","ISI","","html-keyboard-response","407","394101","0.0-1.0-561.0","0","0","71384","","null","","","null","62","NaN","","","","","","","","","","","","","","",""
"","S2","","html-keyboard-response","408","394353","0.0-1.0-562.0","0","0","71384","","null","","","null","62","","NaN","","","","","","","","","","","","","",""
"","response","","html-keyboard-response","409","394960","0.0-1.0-563.0-0.0","0","0","71384","","606","","","75","62","","","2","62","training","adjacent","CB","3","2","P.jpg","R.jpg","0","0","1","",""
"","feedback","","html-keyboard-response","410","395963","0.0-1.0-564.0-0.0","0","0","71384","","null","","","null","62","","","","","","","","","","","","","","","",""
"","ITI","","html-keyboard-response","411","396969","0.0-1.0-567.0","0","0","71384","","null","","","null","62","","","","","","","","","","","","","","","NaN",""
"","S1","","html-keyboard-response","412","397223","0.0-1.0-569.0","0","0","71384","","null","","","null","63","","","","","","","","","","","","","","","",""
"","ISI","","html-keyboard-response","413","398225","0.0-1.0-570.0","0","0","71384","","null","","","null","63","NaN","","","","","","","","","","","","","","",""
"","S2","","html-keyboard-response","414","398479","0.0-1.0-571.0","0","0","71384","","null","","","null","63","","NaN","","","","","","","","","","","","","",""
"","response","","html-keyboard-response","415","399286","0.0-1.0-572.0-0.0","0","0","71384","","805","","","68","63","","","2","63","training","adjacent","CD","3","4","P.jpg","O.jpg","1","1","1","",""
"","feedback","","html-keyboard-response","416","400289","0.0-1.0-573.0-0.0","0","0","71384","","null","","","null","63","","","","","","","","","","","","","","","",""
"","ITI","","html-keyboard-response","417","401292","0.0-1.0-576.0","0","0","71384","","null","","","null","63","","","","","","","","","","","","","","","NaN",""
"","S1","","html-keyboard-response","418","401544","0.0-1.0-578.0","0","0","71384","","null","","","null","64","","","","","","","","","","","","","","","",""
"","ISI","","html-keyboard-response","419","402548","0.0-1.0-579.0","0","0","71384","","null","","","null","64","NaN","","","","","","","","","","","","","","",""
"","S2","","html-keyboard-response","420","402802","0.0-1.0-580.0","0","0","71384","","null","","","null","64","","NaN","","","","","","","","","","","","","",""
"","response","","html-keyboard-response","421","403268","0.0-1.0-581.0-0.0","0","0","71384","","465","","","75","64","","","2","64","training","adjacent","FE","6","5","N.jpg","L.jpg","0","0","1","",""
"","feedback","","html-keyboard-response","422","404270","0.0-1.0-582.0-0.0","0","0","71384","","null","","","null","64","","","","","","","","","","","","","","","",""
"","ITI","","html-keyboard-response","423","405272","0.0-1.0-585.0","0","0","71384","","null","","","null","64","","","","","","","","","","","","","","","NaN",""
"","S1","","html-keyboard-response","424","405527","0.0-1.0-587.0","0","0","71384","","null","","","null","65","","","","","","","","","","","","","","","",""
"","ISI","","html-keyboard-response","425","406531","0.0-1.0-588.0","0","0","71384","","null","","","null","65","NaN","","","","","","","","","","","","","","",""
"","S2","","html-keyboard-response","426","406783","0.0-1.0-589.0","0","0","71384","","null","","","null","65","","NaN","","","","","","","","","","","","","",""
"","response","","html-keyboard-response","427","407227","0.0-1.0-590.0-0.0","0","0","71384","","443","","","75","65","","","2","65","training","adjacent","GF","7","6","M.jpg","N.jpg","0","0","1","",""
"","feedback","","html-keyboard-response","428","408229","0.0-1.0-591.0-0.0","0","0","71384","","null","","","null","65","","","","","","","","","","","","","","","",""
"","ITI","","html-keyboard-response","429","409232","0.0-1.0-594.0","0","0","71384","","null","","","null","65","","","","","","","","","","","","","","","NaN",""
"","S1","","html-keyboard-response","430","409485","0.0-1.0-596.0","0","0","71384","","null","","","null","66","","","","","","","","","","","","","","","",""
"","ISI","","html-keyboard-response","431","410487","0.0-1.0-597.0","0","0","71384","","null","","","null","66","NaN","","","","","","","","","","","","","","",""
"","S2","","html-keyboard-response","432","410739","0.0-1.0-598.0","0","0","71384","","null","","","null","66","","NaN","","","","","","","","","","","","","",""
"","response","","html-keyboard-response","433","411366","0.0-1.0-599.0-0.0","0","0","71384","","627","","","75","66","","","2","66","training","adjacent","DE","4","5","O.jpg","L.jpg","0","1","0","",""
"","feedback","","html-keyboard-response","434","412369","0.0-1.0-600.0-0.0","0","0","71384","","null","","","null","66","","","","","","","","","","","","","","","",""
"","time_out","","html-keyboard-response","435","414372","0.0-1.0-602.0-0.0","0","0","71384","","null","","","null","66","","","","","","","","","","","","","","","",""
"","ITI","","html-keyboard-response","436","415376","0.0-1.0-603.0","0","0","71384","","null","","","null","66","","","","","","","","","","","","","","","NaN",""
"","S1","","html-keyboard-response","437","415630","0.0-1.0-605.0","0","0","71384","","null","","","null","67","","","","","","","","","","","","","","","",""
"","ISI","","html-keyboard-response","438","416635","0.0-1.0-606.0","0","0","71384","","null","","","null","67","NaN","","","","","","","","","","","","","","",""
"","S2","","html-keyboard-response","439","416888","0.0-1.0-607.0","0","0","71384","","null","","","null","67","","NaN","","","","","","","","","","","","","",""
"","response","","html-keyboard-response","440","417387","0.0-1.0-608.0-0.0","0","0","71384","","498","","","75","67","","","2","67","training","adjacent","CB","3","2","P.jpg","R.jpg","0","0","1","",""
"","feedback","","html-keyboard-response","441","418389","0.0-1.0-609.0-0.0","0","0","71384","","null","","","null","67","","","","","","","","","","","","","","","",""
"","ITI","","html-keyboard-response","442","419391","0.0-1.0-612.0","0","0","71384","","null","","","null","67","","","","","","","","","","","","","","","NaN",""
"","S1","","html-keyboard-response","443","419644","0.0-1.0-614.0","0","0","71384","","null","","","null","68","","","","","","","","","","","","","","","",""
"","ISI","","html-keyboard-response","444","420646","0.0-1.0-615.0","0","0","71384","","null","","","null","68","NaN","","","","","","","","","","","","","","",""
"","S2","","html-keyboard-response","445","420900","0.0-1.0-616.0","0","0","71384","","null","","","null","68","","NaN","","","","","","","","","","","","","",""
"","response","","html-keyboard-response","446","421542","0.0-1.0-617.0-0.0","0","0","71384","","639","","","75","68","","","2","68","training","adjacent","FE","6","5","N.jpg","L.jpg","0","0","1","",""
"","feedback","","html-keyboard-response","447","422544","0.0-1.0-618.0-0.0","0","0","71384","","null","","","null","68","","","","","","","","","","","","","","","",""
"","ITI","","html-keyboard-response","448","423548","0.0-1.0-621.0","0","0","71384","","null","","","null","68","","","","","","","","","","","","","","","NaN",""
"","S1","","html-keyboard-response","449","423803","0.0-1.0-623.0","0","0","71384","","null","","","null","69","","","","","","","","","","","","","","","",""
"","ISI","","html-keyboard-response","450","424805","0.0-1.0-624.0","0","0","71384","","null","","","null","69","NaN","","","","","","","","","","","","","","",""
"","S2","","html-keyboard-response","451","425059","0.0-1.0-625.0","0","0","71384","","null","","","null","69","","NaN","","","","","","","","","","","","","",""
"","response","","html-keyboard-response","452","425510","0.0-1.0-626.0-0.0","0","0","71384","","450","","","75","69","","","2","69","training","adjacent","CB","3","2","P.jpg","R.jpg","0","0","1","",""
"","feedback","","html-keyboard-response","453","426513","0.0-1.0-627.0-0.0","0","0","71384","","null","","","null","69","","","","","","","","","","","","","","","",""
"","ITI","","html-keyboard-response","454","427515","0.0-1.0-630.0","0","0","71384","","null","","","null","69","","","","","","","","","","","","","","","NaN",""
"","S1","","html-keyboard-response","455","427768","0.0-1.0-632.0","0","0","71384","","null","","","null","70","","","","","","","","","","","","","","","",""
"","ISI","","html-keyboard-response","456","428772","0.0-1.0-633.0","0","0","71384","","null","","","null","70","NaN","","","","","","","","","","","","","","",""
"","S2","","html-keyboard-response","457","429023","0.0-1.0-634.0","0","0","71384","","null","","","null","70","","NaN","","","","","","","","","","","","","",""
"","response","","html-keyboard-response","458","429424","0.0-1.0-635.0-0.0","0","0","71384","","399","","","75","70","","","2","70","training","adjacent","ED","5","4","L.jpg","O.jpg","0","0","1","",""
"","feedback","","html-keyboard-response","459","430428","0.0-1.0-636.0-0.0","0","0","71384","","null","","","null","70","","","","","","","","","","","","","","","",""
"","ITI","","html-keyboard-response","460","431431","0.0-1.0-639.0","0","0","71384","","null","","","null","70","","","","","","","","","","","","","","","NaN",""
"","S1","","html-keyboard-response","461","431683","0.0-1.0-641.0","0","0","71384","","null","","","null","71","","","","","","","","","","","","","","","",""
"","ISI","","html-keyboard-response","462","432685","0.0-1.0-642.0","0","0","71384","","null","","","null","71","NaN","","","","","","","","","","","","","","",""
"","S2","","html-keyboard-response","463","432938","0.0-1.0-643.0","0","0","71384","","null","","","null","71","","NaN","","","","","","","","","","","","","",""
"","response","","html-keyboard-response","464","434005","0.0-1.0-644.0-0.0","0","0","71384","","1065","","","68","71","","","2","71","training","adjacent","FG","6","7","N.jpg","M.jpg","1","1","1","",""
"","feedback","","html-keyboard-response","465","435007","0.0-1.0-645.0-0.0","0","0","71384","","null","","","null","71","","","","","","","","","","","","","","","",""
"","ITI","","html-keyboard-response","466","436010","0.0-1.0-648.0","0","0","71384","","null","","","null","71","","","","","","","","","","","","","","","NaN",""
"","S1","","html-keyboard-response","467","436265","0.0-1.0-650.0","0","0","71384","","null","","","null","72","","","","","","","","","","","","","","","",""
"","ISI","","html-keyboard-response","468","437268","0.0-1.0-651.0","0","0","71384","","null","","","null","72","NaN","","","","","","","","","","","","","","",""
"","S2","","html-keyboard-response","469","437520","0.0-1.0-652.0","0","0","71384","","null","","","null","72","","NaN","","","","","","","","","","","","","",""
"","response","","html-keyboard-response","470","438140","0.0-1.0-653.0-0.0","0","0","71384","","619","","","75","72","","","2","72","training","adjacent","EF","5","6","L.jpg","N.jpg","0","1","0","",""
"","feedback","","html-keyboard-response","471","439156","0.0-1.0-654.0-0.0","0","0","71384","","null","","","null","72","","","","","","","","","","","","","","","",""
"","time_out","","html-keyboard-response","472","441158","0.0-1.0-656.0-0.0","0","0","71384","","null","","","null","72","","","","","","","","","","","","","","","",""
"","ITI","","html-keyboard-response","473","442160","0.0-1.0-657.0","0","0","71384","","null","","","null","72","","","","","","","","","","","","","","","NaN",""
"","S1","","html-keyboard-response","474","442412","0.0-1.0-659.0","0","0","71384","","null","","","null","73","","","","","","","","","","","","","","","",""
"","ISI","","html-keyboard-response","475","443415","0.0-1.0-660.0","0","0","71384","","null","","","null","73","NaN","","","","","","","","","","","","","","",""
"","S2","","html-keyboard-response","476","443670","0.0-1.0-661.0","0","0","71384","","null","","","null","73","","NaN","","","","","","","","","","","","","",""
"","response","","html-keyboard-response","477","444376","0.0-1.0-662.0-0.0","0","0","71384","","704","","","68","73","","","2","73","training","adjacent","FE","6","5","N.jpg","L.jpg","1","0","0","",""
"","feedback","","html-keyboard-response","478","445378","0.0-1.0-663.0-0.0","0","0","71384","","null","","","null","73","","","","","","","","","","","","","","","",""
"","time_out","","html-keyboard-response","479","447382","0.0-1.0-665.0-0.0","0","0","71384","","null","","","null","73","","","","","","","","","","","","","","","",""
"","ITI","","html-keyboard-response","480","448387","0.0-1.0-666.0","0","0","71384","","null","","","null","73","","","","","","","","","","","","","","","NaN",""
"","S1","","html-keyboard-response","481","448640","0.0-1.0-668.0","0","0","71384","","null","","","null","74","","","","","","","","","","","","","","","",""
"","ISI","","html-keyboard-response","482","449642","0.0-1.0-669.0","0","0","71384","","null","","","null","74","NaN","","","","","","","","","","","","","","",""
"","S2","","html-keyboard-response","483","449896","0.0-1.0-670.0","0","0","71384","","null","","","null","74","","NaN","","","","","","","","","","","","","",""
"","response","","html-keyboard-response","484","450270","0.0-1.0-671.0-0.0","0","0","71384","","373","","","68","74","","","2","74","training","adjacent","AB","1","2","Q.jpg","R.jpg","1","1","1","",""
"","feedback","","html-keyboard-response","485","451274","0.0-1.0-672.0-0.0","0","0","71384","","null","","","null","74","","","","","","","","","","","","","","","",""
"","ITI","","html-keyboard-response","486","452279","0.0-1.0-675.0","0","0","71384","","null","","","null","74","","","","","","","","","","","","","","","NaN",""
"","S1","","html-keyboard-response","487","452532","0.0-1.0-677.0","0","0","71384","","null","","","null","75","","","","","","","","","","","","","","","",""
"","ISI","","html-keyboard-response","488","453535","0.0-1.0-678.0","0","0","71384","","null","","","null","75","NaN","","","","","","","","","","","","","","",""
"","S2","","html-keyboard-response","489","453788","0.0-1.0-679.0","0","0","71384","","null","","","null","75","","NaN","","","","","","","","","","","","","",""
"","response","","html-keyboard-response","490","454838","0.0-1.0-680.0-0.0","0","0","71384","","1047","","","68","75","","","2","75","training","adjacent","FG","6","7","N.jpg","M.jpg","1","1","1","",""
"","feedback","","html-keyboard-response","491","455843","0.0-1.0-681.0-0.0","0","0","71384","","null","","","null","75","","","","","","","","","","","","","","","",""
"","ITI","","html-keyboard-response","492","456846","0.0-1.0-684.0","0","0","71384","","null","","","null","75","","","","","","","","","","","","","","","NaN",""
"","S1","","html-keyboard-response","493","457111","0.0-1.0-686.0","0","0","71384","","null","","","null","76","","","","","","","","","","","","","","","",""
"","ISI","","html-keyboard-response","494","458115","0.0-1.0-687.0","0","0","71384","","null","","","null","76","NaN","","","","","","","","","","","","","","",""
"","S2","","html-keyboard-response","495","458370","0.0-1.0-688.0","0","0","71384","","null","","","null","76","","NaN","","","","","","","","","","","","","",""
"","response","","html-keyboard-response","496","458609","0.0-1.0-689.0-0.0","0","0","71384","","237","","","68","76","","","2","76","training","adjacent","AB","1","2","Q.jpg","R.jpg","1","1","1","",""
"","feedback","","html-keyboard-response","497","459611","0.0-1.0-690.0-0.0","0","0","71384","","null","","","null","76","","","","","","","","","","","","","","","",""
"","ITI","","html-keyboard-response","498","460614","0.0-1.0-693.0","0","0","71384","","null","","","null","76","","","","","","","","","","","","","","","NaN",""
"","S1","","html-keyboard-response","499","460865","0.0-1.0-695.0","0","0","71384","","null","","","null","77","","","","","","","","","","","","","","","",""
"","ISI","","html-keyboard-response","500","461867","0.0-1.0-696.0","0","0","71384","","null","","","null","77","NaN","","","","","","","","","","","","","","",""
"","S2","","html-keyboard-response","501","462119","0.0-1.0-697.0","0","0","71384","","null","","","null","77","","NaN","","","","","","","","","","","","","",""
"","response","","html-keyboard-response","502","462714","0.0-1.0-698.0-0.0","0","0","71384","","594","","","75","77","","","2","77","training","adjacent","BC","2","3","R.jpg","P.jpg","0","1","0","",""
"","feedback","","html-keyboard-response","503","463716","0.0-1.0-699.0-0.0","0","0","71384","","null","","","null","77","","","","","","","","","","","","","","","",""
"","time_out","","html-keyboard-response","504","465718","0.0-1.0-701.0-0.0","0","0","71384","","null","","","null","77","","","","","","","","","","","","","","","",""
"","ITI","","html-keyboard-response","505","466721","0.0-1.0-702.0","0","0","71384","","null","","","null","77","","","","","","","","","","","","","","","NaN",""
"","S1","","html-keyboard-response","506","466973","0.0-1.0-704.0","0","0","71384","","null","","","null","78","","","","","","","","","","","","","","","",""
"","ISI","","html-keyboard-response","507","467976","0.0-1.0-705.0","0","0","71384","","null","","","null","78","NaN","","","","","","","","","","","","","","",""
"","S2","","html-keyboard-response","508","468237","0.0-1.0-706.0","0","0","71384","","null","","","null","78","","NaN","","","","","","","","","","","","","",""
"","response","","html-keyboard-response","509","469068","0.0-1.0-707.0-0.0","0","0","71384","","831","","","68","78","","","2","78","training","adjacent","EF","5","6","L.jpg","N.jpg","1","1","1","",""
"","feedback","","html-keyboard-response","510","470071","0.0-1.0-708.0-0.0","0","0","71384","","null","","","null","78","","","","","","","","","","","","","","","",""
"","ITI","","html-keyboard-response","511","471074","0.0-1.0-711.0","0","0","71384","","null","","","null","78","","","","","","","","","","","","","","","NaN",""
"","S1","","html-keyboard-response","512","471328","0.0-1.0-713.0","0","0","71384","","null","","","null","79","","","","","","","","","","","","","","","",""
"","ISI","","html-keyboard-response","513","472330","0.0-1.0-714.0","0","0","71384","","null","","","null","79","NaN","","","","","","","","","","","","","","",""
"","S2","","html-keyboard-response","514","472582","0.0-1.0-715.0","0","0","71384","","null","","","null","79","","NaN","","","","","","","","","","","","","",""
"","response","","html-keyboard-response","515","473504","0.0-1.0-716.0-0.0","0","0","71384","","922","","","75","79","","","2","79","training","adjacent","DC","4","3","O.jpg","P.jpg","0","0","1","",""
"","feedback","","html-keyboard-response","516","474506","0.0-1.0-717.0-0.0","0","0","71384","","null","","","null","79","","","","","","","","","","","","","","","",""
"","ITI","","html-keyboard-response","517","475507","0.0-1.0-720.0","0","0","71384","","null","","","null","79","","","","","","","","","","","","","","","NaN",""
"","S1","","html-keyboard-response","518","475760","0.0-1.0-722.0","0","0","71384","","null","","","null","80","","","","","","","","","","","","","","","",""
"","ISI","","html-keyboard-response","519","476765","0.0-1.0-723.0","0","0","71384","","null","","","null","80","NaN","","","","","","","","","","","","","","",""
"","S2","","html-keyboard-response","520","477017","0.0-1.0-724.0","0","0","71384","","null","","","null","80","","NaN","","","","","","","","","","","","","",""
"","response","","html-keyboard-response","521","477721","0.0-1.0-725.0-0.0","0","0","71384","","702","","","75","80","","","2","80","training","adjacent","FE","6","5","N.jpg","L.jpg","0","0","1","",""
"","feedback","","html-keyboard-response","522","478725","0.0-1.0-726.0-0.0","0","0","71384","","null","","","null","80","","","","","","","","","","","","","","","",""
"","ITI","","html-keyboard-response","523","479728","0.0-1.0-729.0","0","0","71384","","null","","","null","80","","","","","","","","","","","","","","","NaN",""
"","S1","","html-keyboard-response","524","479982","0.0-1.0-731.0","0","0","71384","","null","","","null","81","","","","","","","","","","","","","","","",""
"","ISI","","html-keyboard-response","525","480986","0.0-1.0-732.0","0","0","71384","","null","","","null","81","NaN","","","","","","","","","","","","","","",""
"","S2","","html-keyboard-response","526","481252","0.0-1.0-733.0","0","0","71384","","null","","","null","81","","NaN","","","","","","","","","","","","","",""
"","response","","html-keyboard-response","527","482060","0.0-1.0-734.0-0.0","0","0","71384","","806","","","68","81","","","2","81","training","adjacent","ED","5","4","L.jpg","O.jpg","1","0","0","",""
"","feedback","","html-keyboard-response","528","483065","0.0-1.0-735.0-0.0","0","0","71384","","null","","","null","81","","","","","","","","","","","","","","","",""
"","time_out","","html-keyboard-response","529","485066","0.0-1.0-737.0-0.0","0","0","71384","","null","","","null","81","","","","","","","","","","","","","","","",""
"","ITI","","html-keyboard-response","530","486068","0.0-1.0-738.0","0","0","71384","","null","","","null","81","","","","","","","","","","","","","","","NaN",""
"","S1","","html-keyboard-response","531","486320","0.0-1.0-740.0","0","0","71384","","null","","","null","82","","","","","","","","","","","","","","","",""
"","ISI","","html-keyboard-response","532","487322","0.0-1.0-741.0","0","0","71384","","null","","","null","82","NaN","","","","","","","","","","","","","","",""
"","S2","","html-keyboard-response","533","487576","0.0-1.0-742.0","0","0","71384","","null","","","null","82","","NaN","","","","","","","","","","","","","",""
"","response","","html-keyboard-response","534","488605","0.0-1.0-743.0-0.0","0","0","71384","","1028","","","68","82","","","2","82","training","adjacent","ED","5","4","L.jpg","O.jpg","1","0","0","",""
"","feedback","","html-keyboard-response","535","489609","0.0-1.0-744.0-0.0","0","0","71384","","null","","","null","82","","","","","","","","","","","","","","","",""
"","time_out","","html-keyboard-response","536","491611","0.0-1.0-746.0-0.0","0","0","71384","","null","","","null","82","","","","","","","","","","","","","","","",""
"","ITI","","html-keyboard-response","537","492613","0.0-1.0-747.0","0","0","71384","","null","","","null","82","","","","","","","","","","","","","","","NaN",""
"","S1","","html-keyboard-response","538","492865","0.0-1.0-749.0","0","0","71384","","null","","","null","83","","","","","","","","","","","","","","","",""
"","ISI","","html-keyboard-response","539","493868","0.0-1.0-750.0","0","0","71384","","null","","","null","83","NaN","","","","","","","","","","","","","","",""
"","S2","","html-keyboard-response","540","494121","0.0-1.0-751.0","0","0","71384","","null","","","null","83","","NaN","","","","","","","","","","","","","",""
"","response","","html-keyboard-response","541","494620","0.0-1.0-752.0-0.0","0","0","71384","","497","","","75","83","","","2","83","training","adjacent","CB","3","2","P.jpg","R.jpg","0","0","1","",""
"","feedback","","html-keyboard-response","542","495622","0.0-1.0-753.0-0.0","0","0","71384","","null","","","null","83","","","","","","","","","","","","","","","",""
"","ITI","","html-keyboard-response","543","496624","0.0-1.0-756.0","0","0","71384","","null","","","null","83","","","","","","","","","","","","","","","NaN",""
"","S1","","html-keyboard-response","544","496878","0.0-1.0-758.0","0","0","71384","","null","","","null","84","","","","","","","","","","","","","","","",""
"","ISI","","html-keyboard-response","545","497883","0.0-1.0-759.0","0","0","71384","","null","","","null","84","NaN","","","","","","","","","","","","","","",""
"","S2","","html-keyboard-response","546","498136","0.0-1.0-760.0","0","0","71384","","null","","","null","84","","NaN","","","","","","","","","","","","","",""
"","response","","html-keyboard-response","547","499052","0.0-1.0-761.0-0.0","0","0","71384","","915","","","68","84","","","2","84","training","adjacent","DC","4","3","O.jpg","P.jpg","1","0","0","",""
"","feedback","","html-keyboard-response","548","500053","0.0-1.0-762.0-0.0","0","0","71384","","null","","","null","84","","","","","","","","","","","","","","","",""
"","time_out","","html-keyboard-response","549","502066","0.0-1.0-764.0-0.0","0","0","71384","","null","","","null","84","","","","","","","","","","","","","","","",""
"","ITI","","html-keyboard-response","550","503068","0.0-1.0-765.0","0","0","71384","","null","","","null","84","","","","","","","","","","","","","","","NaN",""
"","S1","","html-keyboard-response","551","503320","0.0-1.0-767.0","0","0","71384","","null","","","null","85","","","","","","","","","","","","","","","",""
"","ISI","","html-keyboard-response","552","504322","0.0-1.0-768.0","0","0","71384","","null","","","null","85","NaN","","","","","","","","","","","","","","",""
"","S2","","html-keyboard-response","553","504575","0.0-1.0-769.0","0","0","71384","","null","","","null","85","","NaN","","","","","","","","","","","","","",""
"","response","","html-keyboard-response","554","505625","0.0-1.0-770.0-0.0","0","0","71384","","1047","","","68","85","","","2","85","training","adjacent","DE","4","5","O.jpg","L.jpg","1","1","1","",""
"","feedback","","html-keyboard-response","555","506630","0.0-1.0-771.0-0.0","0","0","71384","","null","","","null","85","","","","","","","","","","","","","","","",""
"","ITI","","html-keyboard-response","556","507633","0.0-1.0-774.0","0","0","71384","","null","","","null","85","","","","","","","","","","","","","","","NaN",""
"","S1","","html-keyboard-response","557","507886","0.0-1.0-776.0","0","0","71384","","null","","","null","86","","","","","","","","","","","","","","","",""
"","ISI","","html-keyboard-response","558","508888","0.0-1.0-777.0","0","0","71384","","null","","","null","86","NaN","","","","","","","","","","","","","","",""
"","S2","","html-keyboard-response","559","509142","0.0-1.0-778.0","0","0","71384","","null","","","null","86","","NaN","","","","","","","","","","","","","",""
"","response","","html-keyboard-response","560","509443","0.0-1.0-779.0-0.0","0","0","71384","","300","","","75","86","","","2","86","training","adjacent","BA","2","1","R.jpg","Q.jpg","0","0","1","",""
"","feedback","","html-keyboard-response","561","510447","0.0-1.0-780.0-0.0","0","0","71384","","null","","","null","86","","","","","","","","","","","","","","","",""
"","ITI","","html-keyboard-response","562","511452","0.0-1.0-783.0","0","0","71384","","null","","","null","86","","","","","","","","","","","","","","","NaN",""
"","S1","","html-keyboard-response","563","511704","0.0-1.0-785.0","0","0","71384","","null","","","null","87","","","","","","","","","","","","","","","",""
"","ISI","","html-keyboard-response","564","512706","0.0-1.0-786.0","0","0","71384","","null","","","null","87","NaN","","","","","","","","","","","","","","",""
"","S2","","html-keyboard-response","565","512960","0.0-1.0-787.0","0","0","71384","","null","","","null","87","","NaN","","","","","","","","","","","","","",""
"","response","","html-keyboard-response","566","514110","0.0-1.0-788.0-0.0","0","0","71384","","1149","","","75","87","","","2","87","training","adjacent","FG","6","7","N.jpg","M.jpg","0","1","0","",""
"","feedback","","html-keyboard-response","567","515112","0.0-1.0-789.0-0.0","0","0","71384","","null","","","null","87","","","","","","","","","","","","","","","",""
"","time_out","","html-keyboard-response","568","517116","0.0-1.0-791.0-0.0","0","0","71384","","null","","","null","87","","","","","","","","","","","","","","","",""
"","ITI","","html-keyboard-response","569","518119","0.0-1.0-792.0","0","0","71384","","null","","","null","87","","","","","","","","","","","","","","","NaN",""
"","S1","","html-keyboard-response","570","518372","0.0-1.0-794.0","0","0","71384","","null","","","null","88","","","","","","","","","","","","","","","",""
"","ISI","","html-keyboard-response","571","519375","0.0-1.0-795.0","0","0","71384","","null","","","null","88","NaN","","","","","","","","","","","","","","",""
"","S2","","html-keyboard-response","572","519628","0.0-1.0-796.0","0","0","71384","","null","","","null","88","","NaN","","","","","","","","","","","","","",""
"","response","","html-keyboard-response","573","519843","0.0-1.0-797.0-0.0","0","0","71384","","214","","","75","88","","","2","88","training","adjacent","BA","2","1","R.jpg","Q.jpg","0","0","1","",""
"","feedback","","html-keyboard-response","574","520847","0.0-1.0-798.0-0.0","0","0","71384","","null","","","null","88","","","","","","","","","","","","","","","",""
"","ITI","","html-keyboard-response","575","521849","0.0-1.0-801.0","0","0","71384","","null","","","null","88","","","","","","","","","","","","","","","NaN",""
"","S1","","html-keyboard-response","576","522102","0.0-1.0-803.0","0","0","71384","","null","","","null","89","","","","","","","","","","","","","","","",""
"","ISI","","html-keyboard-response","577","523104","0.0-1.0-804.0","0","0","71384","","null","","","null","89","NaN","","","","","","","","","","","","","","",""
"","S2","","html-keyboard-response","578","523366","0.0-1.0-805.0","0","0","71384","","null","","","null","89","","NaN","","","","","","","","","","","","","",""
"","response","","html-keyboard-response","579","524074","0.0-1.0-806.0-0.0","0","0","71384","","707","","","75","89","","","2","89","training","adjacent","DC","4","3","O.jpg","P.jpg","0","0","1","",""
"","feedback","","html-keyboard-response","580","525077","0.0-1.0-807.0-0.0","0","0","71384","","null","","","null","89","","","","","","","","","","","","","","","",""
"","ITI","","html-keyboard-response","581","526079","0.0-1.0-810.0","0","0","71384","","null","","","null","89","","","","","","","","","","","","","","","NaN",""
"","S1","","html-keyboard-response","582","526333","0.0-1.0-812.0","0","0","71384","","null","","","null","90","","","","","","","","","","","","","","","",""
