"success","ttype","start_time","trial_type","trial_index","time_elapsed","internal_node_id","warning","missed_checkup","PID","view_history","rt","responses","repeat_instructions","key_press","index","keypress_isi","keypress_S2","block","trial_num","phase","group_type","pair_type","S1_stim","S2_stim","S1_img","S2_img","S1_chosen","S1_higher","accuracy","keypress_iti","total_bonus_tally"
"true","full_screen","d03032023hr2000","fullscreen","0","13632","0.0-0.0","0","0","22986","","","","","","","","","","","","","","","","","","","","","",""
"","instructions","","instructions","1","158176","0.0-1.0-0.0-0.0","0","0","22986","[{""page_index"":0,""viewing_time"":88235},{""page_index"":1,""viewing_time"":37936},{""page_index"":2,""viewing_time"":15655},{""page_index"":3,""viewing_time"":2713}]","144540","","","","","","","","","","","","","","","","","","","",""
"","comprehension_check","","survey-multi-choice","2","203166","0.0-1.0-0.0-1.0","0","0","22986","","44981","{""Q0"":""True"",""Q1"":""D"",""Q2"":""Once the second image appears and while the screen 'MAKE A CHOICE' is shown"",""Q3"":""Green mark"",""Q4"":""either D or K""}","0","","","","","","","","","","","","","","","","","",""
"","start_exp","","html-keyboard-response","3","212679","0.0-1.0-1.0","0","0","22986","","9508","","","32","","","","","","","","","","","","","","","","",""
"","S1","","html-keyboard-response","4","212932","0.0-1.0-2.0","0","0","22986","","null","","","null","0","","","","","","","","","","","","","","","",""
"","ISI","","html-keyboard-response","5","213434","0.0-1.0-3.0","0","0","22986","","null","","","null","0","NaN","","","","","","","","","","","","","","",""
"","S2","","html-keyboard-response","6","213694","0.0-1.0-4.0","0","0","22986","","null","","","null","0","","NaN","","","","","","","","","","","","","",""
"","response","","html-keyboard-response","7","214245","0.0-1.0-5.0-0.0","0","0","22986","","550","","","75","0","","","1","0","training","adjacent","BC","2","3","O.jpg","M.jpg","0","1","0","",""
"","feedback","","html-keyboard-response","8","215259","0.0-1.0-6.0-0.0","0","0","22986","","null","","","null","0","","","","","","","","","","","","","","","",""
"","time_out","","html-keyboard-response","9","217293","0.0-1.0-8.0-0.0","0","0","22986","","null","","","null","0","","","","","","","","","","","","","","","",""
"","ITI","","html-keyboard-response","10","218295","0.0-1.0-9.0","0","0","22986","","695","","","75","0","","","","","","","","","","","","","","","k",""
"","S1","","html-keyboard-response","11","218567","0.0-1.0-11.0","0","0","22986","","null","","","null","1","","","","","","","","","","","","","","","",""
"","ISI","","html-keyboard-response","12","219080","0.0-1.0-12.0","0","0","22986","","null","","","null","1","NaN","","","","","","","","","","","","","","",""
"","S2","","html-keyboard-response","13","219355","0.0-1.0-13.0","0","0","22986","","null","","","null","1","","NaN","","","","","","","","","","","","","",""
"","response","","html-keyboard-response","14","219445","0.0-1.0-14.0-0.0","0","0","22986","","88","","","75","1","","","1","1","training","adjacent","DC","4","3","R.jpg","M.jpg","0","0","1","",""
"","feedback","","html-keyboard-response","15","220458","0.0-1.0-15.0-0.0","0","0","22986","","null","","","null","1","","","","","","","","","","","","","","","",""
"","ITI","","html-keyboard-response","16","221509","0.0-1.0-18.0","0","0","22986","","null","","","null","1","","","","","","","","","","","","","","","NaN",""
"","S1","","html-keyboard-response","17","221783","0.0-1.0-20.0","0","0","22986","","null","","","null","2","","","","","","","","","","","","","","","",""
"","ISI","","html-keyboard-response","18","222325","0.0-1.0-21.0","0","0","22986","","null","","","null","2","NaN","","","","","","","","","","","","","","",""
"","S2","","html-keyboard-response","19","222662","0.0-1.0-22.0","0","0","22986","","null","","","null","2","","NaN","","","","","","","","","","","","","",""
"","response","","html-keyboard-response","20","222918","0.0-1.0-23.0-0.0","0","0","22986","","253","","","68","2","","","1","2","training","adjacent","DE","4","5","R.jpg","Q.jpg","1","1","1","",""
"","feedback","","html-keyboard-response","21","223920","0.0-1.0-24.0-0.0","0","0","22986","","null","","","null","2","","","","","","","","","","","","","","","",""
"","ITI","","html-keyboard-response","22","224924","0.0-1.0-27.0","0","0","22986","","null","","","null","2","","","","","","","","","","","","","","","NaN",""
"","S1","","html-keyboard-response","23","225177","0.0-1.0-29.0","0","0","22986","","null","","","null","3","","","","","","","","","","","","","","","",""
"","ISI","","html-keyboard-response","24","225715","0.0-1.0-30.0","0","0","22986","","null","","","null","3","NaN","","","","","","","","","","","","","","",""
"","S2","","html-keyboard-response","25","225891","0.0-1.0-31.0","0","0","22986","","175","","","68","3","","d","1","3","training","adjacent","EF","5","6","Q.jpg","L.jpg","1","1","1","",""
"","feedback","","html-keyboard-response","26","226894","0.0-1.0-33.0-0.0","0","0","22986","","null","","","null","3","","","","","","","","","","","","","","","",""
"","ITI","","html-keyboard-response","27","227898","0.0-1.0-36.0","0","0","22986","","null","","","null","3","","","","","","","","","","","","","","","NaN",""
"","S1","","html-keyboard-response","28","228150","0.0-1.0-38.0","0","0","22986","","null","","","null","4","","","","","","","","","","","","","","","",""
"","ISI","","html-keyboard-response","29","228653","0.0-1.0-39.0","0","0","22986","","null","","","null","4","NaN","","","","","","","","","","","","","","",""
"","S2","","html-keyboard-response","30","228906","0.0-1.0-40.0","0","0","22986","","null","","","null","4","","NaN","","","","","","","","","","","","","",""
"","response","","html-keyboard-response","31","228931","0.0-1.0-41.0-0.0","0","0","22986","","22","","","75","4","","","1","4","training","adjacent","CB","3","2","M.jpg","O.jpg","0","0","1","",""
"","feedback","","html-keyboard-response","32","229933","0.0-1.0-42.0-0.0","0","0","22986","","null","","","null","4","","","","","","","","","","","","","","","",""
"","ITI","","html-keyboard-response","33","230937","0.0-1.0-45.0","0","0","22986","","null","","","null","4","","","","","","","","","","","","","","","NaN",""
"","S1","","html-keyboard-response","34","231201","0.0-1.0-47.0","0","0","22986","","null","","","null","5","","","","","","","","","","","","","","","",""
"","ISI","","html-keyboard-response","35","231702","0.0-1.0-48.0","0","0","22986","","null","","","null","5","NaN","","","","","","","","","","","","","","",""
"","S2","","html-keyboard-response","36","231954","0.0-1.0-49.0","0","0","22986","","null","","","null","5","","NaN","","","","","","","","","","","","","",""
"","response","","html-keyboard-response","37","232083","0.0-1.0-50.0-0.0","0","0","22986","","127","","","68","5","","","1","5","training","adjacent","FG","6","7","L.jpg","N.jpg","1","1","1","",""
"","feedback","","html-keyboard-response","38","233085","0.0-1.0-51.0-0.0","0","0","22986","","null","","","null","5","","","","","","","","","","","","","","","",""
"","ITI","","html-keyboard-response","39","234089","0.0-1.0-54.0","0","0","22986","","null","","","null","5","","","","","","","","","","","","","","","NaN",""
"","S1","","html-keyboard-response","40","234342","0.0-1.0-56.0","0","0","22986","","null","","","null","6","","","","","","","","","","","","","","","",""
"","ISI","","html-keyboard-response","41","234845","0.0-1.0-57.0","0","0","22986","","null","","","null","6","NaN","","","","","","","","","","","","","","",""
"","S2","","html-keyboard-response","42","235103","0.0-1.0-58.0","0","0","22986","","null","","","null","6","","NaN","","","","","","","","","","","","","",""
"","response","","html-keyboard-response","43","235112","0.0-1.0-59.0-0.0","0","0","22986","","7","","","75","6","","","1","6","training","adjacent","AB","1","2","P.jpg","O.jpg","0","1","0","",""
"","feedback","","html-keyboard-response","44","236153","0.0-1.0-60.0-0.0","0","0","22986","","null","","","null","6","","","","","","","","","","","","","","","",""
"","time_out","","html-keyboard-response","45","238155","0.0-1.0-62.0-0.0","0","0","22986","","null","","","null","6","","","","","","","","","","","","","","","",""
"","ITI","","html-keyboard-response","46","239159","0.0-1.0-63.0","0","0","22986","","null","","","null","6","","","","","","","","","","","","","","","NaN",""
"","S1","","html-keyboard-response","47","239411","0.0-1.0-65.0","0","0","22986","","null","","","null","7","","","","","","","","","","","","","","","",""
"","ISI","","html-keyboard-response","48","239914","0.0-1.0-66.0","0","0","22986","","null","","","null","7","NaN","","","","","","","","","","","","","","",""
"","S2","","html-keyboard-response","49","240167","0.0-1.0-67.0","0","0","22986","","null","","","null","7","","NaN","","","","","","","","","","","","","",""
"","response","","html-keyboard-response","50","240355","0.0-1.0-68.0-0.0","0","0","22986","","187","","","68","7","","","1","7","training","adjacent","CD","3","4","M.jpg","R.jpg","1","1","1","",""
"","feedback","","html-keyboard-response","51","241358","0.0-1.0-69.0-0.0","0","0","22986","","null","","","null","7","","","","","","","","","","","","","","","",""
"","ITI","","html-keyboard-response","52","242363","0.0-1.0-72.0","0","0","22986","","null","","","null","7","","","","","","","","","","","","","","","NaN",""
"","S1","","html-keyboard-response","53","242621","0.0-1.0-74.0","0","0","22986","","null","","","null","8","","","","","","","","","","","","","","","",""
"","ISI","","html-keyboard-response","54","243123","0.0-1.0-75.0","0","0","22986","","null","","","null","8","NaN","","","","","","","","","","","","","","",""
"","S2","","html-keyboard-response","55","243376","0.0-1.0-76.0","0","0","22986","","null","","","null","8","","NaN","","","","","","","","","","","","","",""
"","response","","html-keyboard-response","56","243412","0.0-1.0-77.0-0.0","0","0","22986","","33","","","75","8","","","1","8","training","adjacent","BA","2","1","O.jpg","P.jpg","0","0","1","",""
"","feedback","","html-keyboard-response","57","244413","0.0-1.0-78.0-0.0","0","0","22986","","null","","","null","8","","","","","","","","","","","","","","","",""
"","ITI","","html-keyboard-response","58","245417","0.0-1.0-81.0","0","0","22986","","null","","","null","8","","","","","","","","","","","","","","","NaN",""
"","S1","","html-keyboard-response","59","245669","0.0-1.0-83.0","0","0","22986","","null","","","null","9","","","","","","","","","","","","","","","",""
"","ISI","","html-keyboard-response","60","246173","0.0-1.0-84.0","0","0","22986","","null","","","null","9","NaN","","","","","","","","","","","","","","",""
"","S2","","html-keyboard-response","61","246434","0.0-1.0-85.0","0","0","22986","","null","","","null","9","","NaN","","","","","","","","","","","","","",""
"","response","","html-keyboard-response","62","246436","0.0-1.0-86.0-0.0","0","0","22986","","0","","","75","9","","","1","9","training","adjacent","DC","4","3","R.jpg","M.jpg","0","0","1","",""
"","feedback","","html-keyboard-response","63","247439","0.0-1.0-87.0-0.0","0","0","22986","","null","","","null","9","","","","","","","","","","","","","","","",""
"","ITI","","html-keyboard-response","64","248443","0.0-1.0-90.0","0","0","22986","","null","","","null","9","","","","","","","","","","","","","","","NaN",""
"","S1","","html-keyboard-response","65","248699","0.0-1.0-92.0","0","0","22986","","null","","","null","10","","","","","","","","","","","","","","","",""
"","ISI","","html-keyboard-response","66","249201","0.0-1.0-93.0","0","0","22986","","null","","","null","10","NaN","","","","","","","","","","","","","","",""
"","S2","","html-keyboard-response","67","249453","0.0-1.0-94.0","0","0","22986","","null","","","null","10","","NaN","","","","","","","","","","","","","",""
"","response","","html-keyboard-response","68","249587","0.0-1.0-95.0-0.0","0","0","22986","","132","","","75","10","","","1","10","training","adjacent","CD","3","4","M.jpg","R.jpg","0","1","0","",""
"","feedback","","html-keyboard-response","69","250590","0.0-1.0-96.0-0.0","0","0","22986","","null","","","null","10","","","","","","","","","","","","","","","",""
"","time_out","","html-keyboard-response","70","252606","0.0-1.0-98.0-0.0","0","0","22986","","null","","","null","10","","","","","","","","","","","","","","","",""
"","ITI","","html-keyboard-response","71","253608","0.0-1.0-99.0","0","0","22986","","null","","","null","10","","","","","","","","","","","","","","","NaN",""
"","S1","","html-keyboard-response","72","253859","0.0-1.0-101.0","0","0","22986","","null","","","null","11","","","","","","","","","","","","","","","",""
"","ISI","","html-keyboard-response","73","254362","0.0-1.0-102.0","0","0","22986","","null","","","null","11","NaN","","","","","","","","","","","","","","",""
"","S2","","html-keyboard-response","74","254595","0.0-1.0-103.0","0","0","22986","","231","","","75","11","","k","1","11","training","adjacent","ED","5","4","Q.jpg","R.jpg","0","0","1","",""
"","feedback","","html-keyboard-response","75","255598","0.0-1.0-105.0-0.0","0","0","22986","","null","","","null","11","","","","","","","","","","","","","","","",""
"","ITI","","html-keyboard-response","76","256680","0.0-1.0-108.0","0","0","22986","","null","","","null","11","","","","","","","","","","","","","","","NaN",""
"","S1","","html-keyboard-response","77","256932","0.0-1.0-110.0","0","0","22986","","null","","","null","12","","","","","","","","","","","","","","","",""
"","ISI","","html-keyboard-response","78","257438","0.0-1.0-111.0","0","0","22986","","null","","","null","12","NaN","","","","","","","","","","","","","","",""
"","S2","","html-keyboard-response","79","257571","0.0-1.0-112.0","0","0","22986","","131","","","68","12","","d","1","12","training","adjacent","DE","4","5","R.jpg","Q.jpg","1","1","1","",""
"","feedback","","html-keyboard-response","80","258574","0.0-1.0-114.0-0.0","0","0","22986","","null","","","null","12","","","","","","","","","","","","","","","",""
"","ITI","","html-keyboard-response","81","259576","0.0-1.0-117.0","0","0","22986","","null","","","null","12","","","","","","","","","","","","","","","NaN",""
"","S1","","html-keyboard-response","82","259829","0.0-1.0-119.0","0","0","22986","","null","","","null","13","","","","","","","","","","","","","","","",""
"","ISI","","html-keyboard-response","83","260331","0.0-1.0-120.0","0","0","22986","","null","","","null","13","NaN","","","","","","","","","","","","","","",""
"","S2","","html-keyboard-response","84","260584","0.0-1.0-121.0","0","0","22986","","null","","","null","13","","NaN","","","","","","","","","","","","","",""
"","response","","html-keyboard-response","85","260627","0.0-1.0-122.0-0.0","0","0","22986","","41","","","75","13","","","1","13","training","adjacent","ED","5","4","Q.jpg","R.jpg","0","0","1","",""
"","feedback","","html-keyboard-response","86","261629","0.0-1.0-123.0-0.0","0","0","22986","","null","","","null","13","","","","","","","","","","","","","","","",""
"","ITI","","html-keyboard-response","87","262632","0.0-1.0-126.0","0","0","22986","","null","","","null","13","","","","","","","","","","","","","","","NaN",""
"","S1","","html-keyboard-response","88","262884","0.0-1.0-128.0","0","0","22986","","null","","","null","14","","","","","","","","","","","","","","","",""
"","ISI","","html-keyboard-response","89","263388","0.0-1.0-129.0","0","0","22986","","null","","","null","14","NaN","","","","","","","","","","","","","","",""
"","S2","","html-keyboard-response","90","263639","0.0-1.0-130.0","0","0","22986","","null","","","null","14","","NaN","","","","","","","","","","","","","",""
"","response","","html-keyboard-response","91","263651","0.0-1.0-131.0-0.0","0","0","22986","","9","","","75","14","","","1","14","training","adjacent","FE","6","5","L.jpg","Q.jpg","0","0","1","",""
"","feedback","","html-keyboard-response","92","264722","0.0-1.0-132.0-0.0","0","0","22986","","null","","","null","14","","","","","","","","","","","","","","","",""
"","ITI","","html-keyboard-response","93","265724","0.0-1.0-135.0","0","0","22986","","null","","","null","14","","","","","","","","","","","","","","","NaN",""
"","S1","","html-keyboard-response","94","265976","0.0-1.0-137.0","0","0","22986","","null","","","null","15","","","","","","","","","","","","","","","",""
"","ISI","","html-keyboard-response","95","266478","0.0-1.0-138.0","0","0","22986","","null","","","null","15","NaN","","","","","","","","","","","","","","",""
"","S2","","html-keyboard-response","96","266627","0.0-1.0-139.0","0","0","22986","","146","","","75","15","","k","1","15","training","adjacent","FG","6","7","L.jpg","N.jpg","0","1","0","",""
"","feedback","","html-keyboard-response","97","267630","0.0-1.0-141.0-0.0","0","0","22986","","null","","","null","15","","","","","","","","","","","","","","","",""
"","time_out","","html-keyboard-response","98","269632","0.0-1.0-143.0-0.0","0","0","22986","","null","","","null","15","","","","","","","","","","","","","","","",""
"","ITI","","html-keyboard-response","99","270636","0.0-1.0-144.0","0","0","22986","","null","","","null","15","","","","","","","","","","","","","","","NaN",""
"","S1","","html-keyboard-response","100","270888","0.0-1.0-146.0","0","0","22986","","null","","","null","16","","","","","","","","","","","","","","","",""
"","ISI","","html-keyboard-response","101","271390","0.0-1.0-147.0","0","0","22986","","null","","","null","16","NaN","","","","","","","","","","","","","","",""
"","S2","","html-keyboard-response","102","271653","0.0-1.0-148.0","0","0","22986","","261","","","75","16","","k","1","16","training","adjacent","FG","6","7","L.jpg","N.jpg","0","1","0","",""
"","feedback","","html-keyboard-response","103","272656","0.0-1.0-150.0-0.0","0","0","22986","","null","","","null","16","","","","","","","","","","","","","","","",""
"","time_out","","html-keyboard-response","104","274659","0.0-1.0-152.0-0.0","0","0","22986","","null","","","null","16","","","","","","","","","","","","","","","",""
"","ITI","","html-keyboard-response","105","275661","0.0-1.0-153.0","0","0","22986","","null","","","null","16","","","","","","","","","","","","","","","NaN",""
"","S1","","html-keyboard-response","106","275920","0.0-1.0-155.0","0","0","22986","","null","","","null","17","","","","","","","","","","","","","","","",""
"","ISI","","html-keyboard-response","107","276422","0.0-1.0-156.0","0","0","22986","","null","","","null","17","NaN","","","","","","","","","","","","","","",""
"","S2","","html-keyboard-response","108","276627","0.0-1.0-157.0","0","0","22986","","203","","","68","17","","d","1","17","training","adjacent","AB","1","2","P.jpg","O.jpg","1","1","1","",""
"","feedback","","html-keyboard-response","109","277630","0.0-1.0-159.0-0.0","0","0","22986","","null","","","null","17","","","","","","","","","","","","","","","",""
"","ITI","","html-keyboard-response","110","278634","0.0-1.0-162.0","0","0","22986","","null","","","null","17","","","","","","","","","","","","","","","NaN",""
"","S1","","html-keyboard-response","111","278886","0.0-1.0-164.0","0","0","22986","","null","","","null","18","","","","","","","","","","","","","","","",""
"","ISI","","html-keyboard-response","112","279389","0.0-1.0-165.0","0","0","22986","","null","","","null","18","NaN","","","","","","","","","","","","","","",""
"","S2","","html-keyboard-response","113","279706","0.0-1.0-166.0","0","0","22986","","314","","","75","18","","k","1","18","training","adjacent","BC","2","3","O.jpg","M.jpg","0","1","0","",""
"","feedback","","html-keyboard-response","114","280708","0.0-1.0-168.0-0.0","0","0","22986","","null","","","null","18","","","","","","","","","","","","","","","",""
"","time_out","","html-keyboard-response","115","282708","0.0-1.0-170.0-0.0","0","0","22986","","null","","","null","18","","","","","","","","","","","","","","","",""
"","ITI","","html-keyboard-response","116","283711","0.0-1.0-171.0","0","0","22986","","null","","","null","18","","","","","","","","","","","","","","","NaN",""
"","S1","","html-keyboard-response","117","283964","0.0-1.0-173.0","0","0","22986","","null","","","null","19","","","","","","","","","","","","","","","",""
"","ISI","","html-keyboard-response","118","284481","0.0-1.0-174.0","0","0","22986","","null","","","null","19","NaN","","","","","","","","","","","","","","",""
"","S2","","html-keyboard-response","119","284705","0.0-1.0-175.0","0","0","22986","","222","","","68","19","","d","1","19","training","adjacent","DE","4","5","R.jpg","Q.jpg","1","1","1","",""
"","feedback","","html-keyboard-response","120","285769","0.0-1.0-177.0-0.0","0","0","22986","","null","","","null","19","","","","","","","","","","","","","","","",""
"","ITI","","html-keyboard-response","121","286772","0.0-1.0-180.0","0","0","22986","","null","","","null","19","","","","","","","","","","","","","","","NaN",""
"","S1","","html-keyboard-response","122","287024","0.0-1.0-182.0","0","0","22986","","null","","","null","20","","","","","","","","","","","","","","","",""
"","ISI","","html-keyboard-response","123","287528","0.0-1.0-183.0","0","0","22986","","null","","","null","20","NaN","","","","","","","","","","","","","","",""
"","S2","","html-keyboard-response","124","287729","0.0-1.0-184.0","0","0","22986","","199","","","68","20","","d","1","20","training","adjacent","GF","7","6","N.jpg","L.jpg","1","0","0","",""
"","feedback","","html-keyboard-response","125","288754","0.0-1.0-186.0-0.0","0","0","22986","","null","","","null","20","","","","","","","","","","","","","","","",""
"","time_out","","html-keyboard-response","126","290757","0.0-1.0-188.0-0.0","0","0","22986","","null","","","null","20","","","","","","","","","","","","","","","",""
"","ITI","","html-keyboard-response","127","291762","0.0-1.0-189.0","0","0","22986","","null","","","null","20","","","","","","","","","","","","","","","NaN",""
"","S1","","html-keyboard-response","128","292013","0.0-1.0-191.0","0","0","22986","","null","","","null","21","","","","","","","","","","","","","","","",""
"","ISI","","html-keyboard-response","129","292516","0.0-1.0-192.0","0","0","22986","","null","","","null","21","NaN","","","","","","","","","","","","","","",""
"","S2","","html-keyboard-response","130","292753","0.0-1.0-193.0","0","0","22986","","234","","","75","21","","k","1","21","training","adjacent","EF","5","6","Q.jpg","L.jpg","0","1","0","",""
"","feedback","","html-keyboard-response","131","293756","0.0-1.0-195.0-0.0","0","0","22986","","null","","","null","21","","","","","","","","","","","","","","","",""
"","time_out","","html-keyboard-response","132","295760","0.0-1.0-197.0-0.0","0","0","22986","","null","","","null","21","","","","","","","","","","","","","","","",""
"","ITI","","html-keyboard-response","133","296763","0.0-1.0-198.0","0","0","22986","","null","","","null","21","","","","","","","","","","","","","","","NaN",""
"","S1","","html-keyboard-response","134","297130","0.0-1.0-200.0","0","0","22986","","null","","","null","22","","","","","","","","","","","","","","","",""
"","ISI","","html-keyboard-response","135","297633","0.0-1.0-201.0","0","0","22986","","null","","","null","22","NaN","","","","","","","","","","","","","","",""
"","S2","","html-keyboard-response","136","297873","0.0-1.0-202.0","0","0","22986","","238","","","75","22","","k","1","22","training","adjacent","FG","6","7","L.jpg","N.jpg","0","1","0","",""
"","feedback","","html-keyboard-response","137","298875","0.0-1.0-204.0-0.0","0","0","22986","","null","","","null","22","","","","","","","","","","","","","","","",""
"","time_out","","html-keyboard-response","138","300877","0.0-1.0-206.0-0.0","0","0","22986","","null","","","null","22","","","","","","","","","","","","","","","",""
"","ITI","","html-keyboard-response","139","301881","0.0-1.0-207.0","0","0","22986","","null","","","null","22","","","","","","","","","","","","","","","NaN",""
"","S1","","html-keyboard-response","140","302134","0.0-1.0-209.0","0","0","22986","","null","","","null","23","","","","","","","","","","","","","","","",""
"","ISI","","html-keyboard-response","141","302636","0.0-1.0-210.0","0","0","22986","","null","","","null","23","NaN","","","","","","","","","","","","","","",""
"","S2","","html-keyboard-response","142","302890","0.0-1.0-211.0","0","0","22986","","null","","","null","23","","NaN","","","","","","","","","","","","","",""
"","response","","html-keyboard-response","143","302900","0.0-1.0-212.0-0.0","0","0","22986","","8","","","75","23","","","1","23","training","adjacent","EF","5","6","Q.jpg","L.jpg","0","1","0","",""
"","feedback","","html-keyboard-response","144","303902","0.0-1.0-213.0-0.0","0","0","22986","","null","","","null","23","","","","","","","","","","","","","","","",""
"","time_out","","html-keyboard-response","145","305914","0.0-1.0-215.0-0.0","0","0","22986","","null","","","null","23","","","","","","","","","","","","","","","",""
"","ITI","","html-keyboard-response","146","306917","0.0-1.0-216.0","0","0","22986","","null","","","null","23","","","","","","","","","","","","","","","NaN",""
"","S1","","html-keyboard-response","147","307210","0.0-1.0-218.0","0","0","22986","","null","","","null","24","","","","","","","","","","","","","","","",""
"","ISI","","html-keyboard-response","148","307711","0.0-1.0-219.0","0","0","22986","","null","","","null","24","NaN","","","","","","","","","","","","","","",""
"","S2","","html-keyboard-response","149","307963","0.0-1.0-220.0","0","0","22986","","null","","","null","24","","NaN","","","","","","","","","","","","","",""
"","response","","html-keyboard-response","150","307971","0.0-1.0-221.0-0.0","0","0","22986","","4","","","75","24","","","1","24","training","adjacent","DC","4","3","R.jpg","M.jpg","0","0","1","",""
"","feedback","","html-keyboard-response","151","308974","0.0-1.0-222.0-0.0","0","0","22986","","null","","","null","24","","","","","","","","","","","","","","","",""
"","ITI","","html-keyboard-response","152","309978","0.0-1.0-225.0","0","0","22986","","null","","","null","24","","","","","","","","","","","","","","","NaN",""
"","S1","","html-keyboard-response","153","310233","0.0-1.0-227.0","0","0","22986","","null","","","null","25","","","","","","","","","","","","","","","",""
"","ISI","","html-keyboard-response","154","310735","0.0-1.0-228.0","0","0","22986","","null","","","null","25","NaN","","","","","","","","","","","","","","",""
"","S2","","html-keyboard-response","155","310988","0.0-1.0-229.0","0","0","22986","","null","","","null","25","","NaN","","","","","","","","","","","","","",""
"","response","","html-keyboard-response","156","311009","0.0-1.0-230.0-0.0","0","0","22986","","18","","","75","25","","","1","25","training","adjacent","AB","1","2","P.jpg","O.jpg","0","1","0","",""
"","feedback","","html-keyboard-response","157","312012","0.0-1.0-231.0-0.0","0","0","22986","","null","","","null","25","","","","","","","","","","","","","","","",""
"","time_out","","html-keyboard-response","158","314015","0.0-1.0-233.0-0.0","0","0","22986","","null","","","null","25","","","","","","","","","","","","","","","",""
"","ITI","","html-keyboard-response","159","315018","0.0-1.0-234.0","0","0","22986","","null","","","null","25","","","","","","","","","","","","","","","NaN",""
"","S1","","html-keyboard-response","160","315292","0.0-1.0-236.0","0","0","22986","","null","","","null","26","","","","","","","","","","","","","","","",""
"","ISI","","html-keyboard-response","161","315795","0.0-1.0-237.0","0","0","22986","","null","","","null","26","NaN","","","","","","","","","","","","","","",""
"","S2","","html-keyboard-response","162","315969","0.0-1.0-238.0","0","0","22986","","171","","","68","26","","d","1","26","training","adjacent","CB","3","2","M.jpg","O.jpg","1","0","0","",""
"","feedback","","html-keyboard-response","163","316971","0.0-1.0-240.0-0.0","0","0","22986","","null","","","null","26","","","","","","","","","","","","","","","",""
"","time_out","","html-keyboard-response","164","318974","0.0-1.0-242.0-0.0","0","0","22986","","null","","","null","26","","","","","","","","","","","","","","","",""
"","ITI","","html-keyboard-response","165","319975","0.0-1.0-243.0","0","0","22986","","null","","","null","26","","","","","","","","","","","","","","","NaN",""
"","S1","","html-keyboard-response","166","320247","0.0-1.0-245.0","0","0","22986","","null","","","null","27","","","","","","","","","","","","","","","",""
"","ISI","","html-keyboard-response","167","320748","0.0-1.0-246.0","0","0","22986","","null","","","null","27","NaN","","","","","","","","","","","","","","",""
"","S2","","html-keyboard-response","168","320961","0.0-1.0-247.0","0","0","22986","","211","","","75","27","","k","1","27","training","adjacent","GF","7","6","N.jpg","L.jpg","0","0","1","",""
"","feedback","","html-keyboard-response","169","321989","0.0-1.0-249.0-0.0","0","0","22986","","null","","","null","27","","","","","","","","","","","","","","","",""
"","ITI","","html-keyboard-response","170","322993","0.0-1.0-252.0","0","0","22986","","null","","","null","27","","","","","","","","","","","","","","","NaN",""
"","S1","","html-keyboard-response","171","323246","0.0-1.0-254.0","0","0","22986","","null","","","null","28","","","","","","","","","","","","","","","",""
"","ISI","","html-keyboard-response","172","323750","0.0-1.0-255.0","0","0","22986","","null","","","null","28","NaN","","","","","","","","","","","","","","",""
"","S2","","html-keyboard-response","173","323922","0.0-1.0-256.0","0","0","22986","","169","","","68","28","","d","1","28","training","adjacent","FE","6","5","L.jpg","Q.jpg","1","0","0","",""
"","feedback","","html-keyboard-response","174","324924","0.0-1.0-258.0-0.0","0","0","22986","","null","","","null","28","","","","","","","","","","","","","","","",""
"","time_out","","html-keyboard-response","175","326958","0.0-1.0-260.0-0.0","0","0","22986","","null","","","null","28","","","","","","","","","","","","","","","",""
"","ITI","","html-keyboard-response","176","327959","0.0-1.0-261.0","0","0","22986","","162","","","68","28","","","","","","","","","","","","","","","d",""
"","S1","","html-keyboard-response","177","328224","0.0-1.0-263.0","0","0","22986","","null","","","null","29","","","","","","","","","","","","","","","",""
"","ISI","","html-keyboard-response","178","328726","0.0-1.0-264.0","0","0","22986","","80","","","68","29","d","","","","","","","","","","","","","","",""
"","S2","","html-keyboard-response","179","328769","0.0-1.0-265.0","0","0","22986","","41","","","68","29","","d","1","29","training","adjacent","AB","1","2","P.jpg","O.jpg","1","1","1","",""
"","feedback","","html-keyboard-response","180","329772","0.0-1.0-267.0-0.0","0","0","22986","","null","","","null","29","","","","","","","","","","","","","","","",""
"","ITI","","html-keyboard-response","181","330789","0.0-1.0-270.0","0","0","22986","","50","","","75","29","","","","","","","","","","","","","","","k",""
"","S1","","html-keyboard-response","182","331051","0.0-1.0-272.0","0","0","22986","","null","","","null","30","","","","","","","","","","","","","","","",""
"","ISI","","html-keyboard-response","183","331554","0.0-1.0-273.0","0","0","22986","","4","","","75","30","k","","","","","","","","","","","","","","",""
"","S2","","html-keyboard-response","184","331649","0.0-1.0-274.0","0","0","22986","","93","","","68","30","","d","1","30","training","adjacent","DC","4","3","R.jpg","M.jpg","1","0","0","",""
"","feedback","","html-keyboard-response","185","332652","0.0-1.0-276.0-0.0","0","0","22986","","null","","","null","30","","","","","","","","","","","","","","","",""
"","time_out","","html-keyboard-response","186","334655","0.0-1.0-278.0-0.0","0","0","22986","","null","","","null","30","","","","","","","","","","","","","","","",""
"","ITI","","html-keyboard-response","187","335668","0.0-1.0-279.0","0","0","22986","","null","","","null","30","","","","","","","","","","","","","","","NaN",""
"","S1","","html-keyboard-response","188","335947","0.0-1.0-281.0","0","0","22986","","null","","","null","31","","","","","","","","","","","","","","","",""
"","ISI","","html-keyboard-response","189","336468","0.0-1.0-282.0","0","0","22986","","179","","","75","31","k","","","","","","","","","","","","","","",""
"","S2","","html-keyboard-response","190","336816","0.0-1.0-283.0","0","0","22986","","null","","","null","31","","NaN","","","","","","","","","","","","","",""
"","response","","html-keyboard-response","191","336849","0.0-1.0-284.0-0.0","0","0","22986","","31","","","68","31","","","1","31","training","adjacent","GF","7","6","N.jpg","L.jpg","1","0","0","",""
"","feedback","","html-keyboard-response","192","337852","0.0-1.0-285.0-0.0","0","0","22986","","null","","","null","31","","","","","","","","","","","","","","","",""
"","time_out","","html-keyboard-response","193","339921","0.0-1.0-287.0-0.0","0","0","22986","","null","","","null","31","","","","","","","","","","","","","","","",""
"","ITI","","html-keyboard-response","194","340925","0.0-1.0-288.0","0","0","22986","","94","","","68","31","","","","","","","","","","","","","","","d",""
"","S1","","html-keyboard-response","195","341179","0.0-1.0-290.0","0","0","22986","","null","","","null","32","","","","","","","","","","","","","","","",""
"","ISI","","html-keyboard-response","196","341682","0.0-1.0-291.0","0","0","22986","","51","","","68","32","d","","","","","","","","","","","","","","",""
"","S2","","html-keyboard-response","197","341713","0.0-1.0-292.0","0","0","22986","","28","","","68","32","","d","1","32","training","adjacent","GF","7","6","N.jpg","L.jpg","1","0","0","",""
"","feedback","","html-keyboard-response","198","342713","0.0-1.0-294.0-0.0","0","0","22986","","null","","","null","32","","","","","","","","","","","","","","","",""
"","time_out","","html-keyboard-response","199","344715","0.0-1.0-296.0-0.0","0","0","22986","","null","","","null","32","","","","","","","","","","","","","","","",""
"","ITI","","html-keyboard-response","200","345719","0.0-1.0-297.0","0","0","22986","","17","","","68","32","","","","","","","","","","","","","","","d",""
"","S1","","html-keyboard-response","201","345971","0.0-1.0-299.0","0","0","22986","","null","","","null","33","","","","","","","","","","","","","","","",""
"","ISI","","html-keyboard-response","202","346474","0.0-1.0-300.0","0","0","22986","","153","","","75","33","k","","","","","","","","","","","","","","",""
"","S2","","html-keyboard-response","203","346543","0.0-1.0-301.0","0","0","22986","","66","","","75","33","","k","1","33","training","adjacent","ED","5","4","Q.jpg","R.jpg","0","0","1","",""
"","feedback","","html-keyboard-response","204","347546","0.0-1.0-303.0-0.0","0","0","22986","","null","","","null","33","","","","","","","","","","","","","","","",""
"","ITI","","html-keyboard-response","205","348550","0.0-1.0-306.0","0","0","22986","","130","","","75","33","","","","","","","","","","","","","","","k",""
"","S1","","html-keyboard-response","206","348801","0.0-1.0-308.0","0","0","22986","","null","","","null","34","","","","","","","","","","","","","","","",""
"","ISI","","html-keyboard-response","207","349318","0.0-1.0-309.0","0","0","22986","","171","","","68","34","d","","","","","","","","","","","","","","",""
"","S2","","html-keyboard-response","208","349396","0.0-1.0-310.0","0","0","22986","","75","","","68","34","","d","1","34","training","adjacent","ED","5","4","Q.jpg","R.jpg","1","0","0","",""
"","feedback","","html-keyboard-response","209","350403","0.0-1.0-312.0-0.0","0","0","22986","","null","","","null","34","","","","","","","","","","","","","","","",""
"","time_out","","html-keyboard-response","210","352406","0.0-1.0-314.0-0.0","0","0","22986","","null","","","null","34","","","","","","","","","","","","","","","",""
"","ITI","","html-keyboard-response","211","353410","0.0-1.0-315.0","0","0","22986","","7","","","68","34","","","","","","","","","","","","","","","d",""
"","S1","","html-keyboard-response","212","353663","0.0-1.0-317.0","0","0","22986","","null","","","null","35","","","","","","","","","","","","","","","",""
"","ISI","","html-keyboard-response","213","354165","0.0-1.0-318.0","0","0","22986","","141","","","75","35","k","","","","","","","","","","","","","","",""
"","S2","","html-keyboard-response","214","354271","0.0-1.0-319.0","0","0","22986","","103","","","68","35","","d","1","35","training","adjacent","FE","6","5","L.jpg","Q.jpg","1","0","0","",""
"","feedback","","html-keyboard-response","215","355273","0.0-1.0-321.0-0.0","0","0","22986","","null","","","null","35","","","","","","","","","","","","","","","",""
"","time_out","","html-keyboard-response","216","357277","0.0-1.0-323.0-0.0","0","0","22986","","null","","","null","35","","","","","","","","","","","","","","","",""
"","ITI","","html-keyboard-response","217","358300","0.0-1.0-324.0","0","0","22986","","240","","","75","35","","","","","","","","","","","","","","","k",""
"","S1","","html-keyboard-response","218","358553","0.0-1.0-326.0","0","0","22986","","null","","","null","36","","","","","","","","","","","","","","","",""
"","ISI","","html-keyboard-response","219","359055","0.0-1.0-327.0","0","0","22986","","132","","","68","36","d","","","","","","","","","","","","","","",""
"","S2","","html-keyboard-response","220","359248","0.0-1.0-328.0","0","0","22986","","190","","","75","36","","k","1","36","training","adjacent","CB","3","2","M.jpg","O.jpg","0","0","1","",""
"","feedback","","html-keyboard-response","221","360250","0.0-1.0-330.0-0.0","0","0","22986","","null","","","null","36","","","","","","","","","","","","","","","",""
"","ITI","","html-keyboard-response","222","361252","0.0-1.0-333.0","0","0","22986","","3","","","75","36","","","","","","","","","","","","","","","k",""
"","S1","","html-keyboard-response","223","361509","0.0-1.0-335.0","0","0","22986","","null","","","null","37","","","","","","","","","","","","","","","",""
"","ISI","","html-keyboard-response","224","362012","0.0-1.0-336.0","0","0","22986","","39","","","68","37","d","","","","","","","","","","","","","","",""
"","S2","","html-keyboard-response","225","362111","0.0-1.0-337.0","0","0","22986","","96","","","75","37","","k","1","37","training","adjacent","BA","2","1","O.jpg","P.jpg","0","0","1","",""
"","feedback","","html-keyboard-response","226","363114","0.0-1.0-339.0-0.0","0","0","22986","","null","","","null","37","","","","","","","","","","","","","","","",""
"","ITI","","html-keyboard-response","227","364118","0.0-1.0-342.0","0","0","22986","","114","","","75","37","","","","","","","","","","","","","","","k",""
"","S1","","html-keyboard-response","228","364370","0.0-1.0-344.0","0","0","22986","","null","","","null","38","","","","","","","","","","","","","","","",""
"","ISI","","html-keyboard-response","229","364887","0.0-1.0-345.0","0","0","22986","","150","","","68","38","d","","","","","","","","","","","","","","",""
"","S2","","html-keyboard-response","230","364911","0.0-1.0-346.0","0","0","22986","","21","","","75","38","","k","1","38","training","adjacent","BA","2","1","O.jpg","P.jpg","0","0","1","",""
"","feedback","","html-keyboard-response","231","365913","0.0-1.0-348.0-0.0","0","0","22986","","null","","","null","38","","","","","","","","","","","","","","","",""
"","ITI","","html-keyboard-response","232","366917","0.0-1.0-351.0","0","0","22986","","115","","","68","38","","","","","","","","","","","","","","","d",""
"","S1","","html-keyboard-response","233","367182","0.0-1.0-353.0","0","0","22986","","null","","","null","39","","","","","","","","","","","","","","","",""
"","ISI","","html-keyboard-response","234","367684","0.0-1.0-354.0","0","0","22986","","1","","","75","39","k","","","","","","","","","","","","","","",""
"","S2","","html-keyboard-response","235","367903","0.0-1.0-355.0","0","0","22986","","217","","","68","39","","d","1","39","training","adjacent","DE","4","5","R.jpg","Q.jpg","1","1","1","",""
"","feedback","","html-keyboard-response","236","368905","0.0-1.0-357.0-0.0","0","0","22986","","null","","","null","39","","","","","","","","","","","","","","","",""
"","ITI","","html-keyboard-response","237","369908","0.0-1.0-360.0","0","0","22986","","67","","","75","39","","","","","","","","","","","","","","","k",""
"","S1","","html-keyboard-response","238","370216","0.0-1.0-362.0","0","0","22986","","null","","","null","40","","","","","","","","","","","","","","","",""
"","ISI","","html-keyboard-response","239","370724","0.0-1.0-363.0","0","0","22986","","5","","","68","40","d","","","","","","","","","","","","","","",""
"","S2","","html-keyboard-response","240","370767","0.0-1.0-364.0","0","0","22986","","40","","","75","40","","k","1","40","training","adjacent","CB","3","2","M.jpg","O.jpg","0","0","1","",""
"","feedback","","html-keyboard-response","241","371770","0.0-1.0-366.0-0.0","0","0","22986","","null","","","null","40","","","","","","","","","","","","","","","",""
"","ITI","","html-keyboard-response","242","372773","0.0-1.0-369.0","0","0","22986","","19","","","75","40","","","","","","","","","","","","","","","k",""
"","S1","","html-keyboard-response","243","373026","0.0-1.0-371.0","0","0","22986","","null","","","null","41","","","","","","","","","","","","","","","",""
"","ISI","","html-keyboard-response","244","373529","0.0-1.0-372.0","0","0","22986","","26","","","75","41","k","","","","","","","","","","","","","","",""
"","S2","","html-keyboard-response","245","373567","0.0-1.0-373.0","0","0","22986","","35","","","75","41","","k","1","41","training","adjacent","FE","6","5","L.jpg","Q.jpg","0","0","1","",""
"","feedback","","html-keyboard-response","246","374569","0.0-1.0-375.0-0.0","0","0","22986","","null","","","null","41","","","","","","","","","","","","","","","",""
"","ITI","","html-keyboard-response","247","375573","0.0-1.0-378.0","0","0","22986","","19","","","75","41","","","","","","","","","","","","","","","k",""
"","S1","","html-keyboard-response","248","375825","0.0-1.0-380.0","0","0","22986","","null","","","null","42","","","","","","","","","","","","","","","",""
"","ISI","","html-keyboard-response","249","376328","0.0-1.0-381.0","0","0","22986","","28","","","75","42","k","","","","","","","","","","","","","","",""
"","S2","","html-keyboard-response","250","376339","0.0-1.0-382.0","0","0","22986","","8","","","75","42","","k","1","42","training","adjacent","EF","5","6","Q.jpg","L.jpg","0","1","0","",""
"","feedback","","html-keyboard-response","251","377342","0.0-1.0-384.0-0.0","0","0","22986","","null","","","null","42","","","","","","","","","","","","","","","",""
"","time_out","","html-keyboard-response","252","379346","0.0-1.0-386.0-0.0","0","0","22986","","null","","","null","42","","","","","","","","","","","","","","","",""
"","ITI","","html-keyboard-response","253","380347","0.0-1.0-387.0","0","0","22986","","348","","","68","42","","","","","","","","","","","","","","","d",""
"","S1","","html-keyboard-response","254","380659","0.0-1.0-389.0","0","0","22986","","null","","","null","43","","","","","","","","","","","","","","","",""
"","ISI","","html-keyboard-response","255","381162","0.0-1.0-390.0","0","0","22986","","45","","","75","43","k","","","","","","","","","","","","","","",""
"","S2","","html-keyboard-response","256","381327","0.0-1.0-391.0","0","0","22986","","162","","","68","43","","d","1","43","training","adjacent","BC","2","3","O.jpg","M.jpg","1","1","1","",""
"","feedback","","html-keyboard-response","257","382339","0.0-1.0-393.0-0.0","0","0","22986","","null","","","null","43","","","","","","","","","","","","","","","",""
"","ITI","","html-keyboard-response","258","383342","0.0-1.0-396.0","0","0","22986","","67","","","75","43","","","","","","","","","","","","","","","k",""
"","S1","","html-keyboard-response","259","383599","0.0-1.0-398.0","0","0","22986","","null","","","null","44","","","","","","","","","","","","","","","",""
"","ISI","","html-keyboard-response","260","384102","0.0-1.0-399.0","0","0","22986","","253","","","75","44","k","","","","","","","","","","","","","","",""
"","S2","","html-keyboard-response","261","384112","0.0-1.0-400.0","0","0","22986","","6","","","75","44","","k","1","44","training","adjacent","CD","3","4","M.jpg","R.jpg","0","1","0","",""
"","feedback","","html-keyboard-response","262","385121","0.0-1.0-402.0-0.0","0","0","22986","","null","","","null","44","","","","","","","","","","","","","","","",""
"","time_out","","html-keyboard-response","263","387128","0.0-1.0-404.0-0.0","0","0","22986","","null","","","null","44","","","","","","","","","","","","","","","",""
"","ITI","","html-keyboard-response","264","388132","0.0-1.0-405.0","0","0","22986","","20","","","75","44","","","","","","","","","","","","","","","k",""
"","S1","","html-keyboard-response","265","388384","0.0-1.0-407.0","0","0","22986","","null","","","null","45","","","","","","","","","","","","","","","",""
"","ISI","","html-keyboard-response","266","388901","0.0-1.0-408.0","0","0","22986","","92","","","68","45","d","","","","","","","","","","","","","","",""
"","S2","","html-keyboard-response","267","389145","0.0-1.0-409.0","0","0","22986","","241","","","75","45","","k","1","45","training","adjacent","BA","2","1","O.jpg","P.jpg","0","0","1","",""
"","feedback","","html-keyboard-response","268","390148","0.0-1.0-411.0-0.0","0","0","22986","","null","","","null","45","","","","","","","","","","","","","","","",""
"","ITI","","html-keyboard-response","269","391216","0.0-1.0-414.0","0","0","22986","","168","","","68","45","","","","","","","","","","","","","","","d",""
"","S1","","html-keyboard-response","270","391563","0.0-1.0-416.0","0","0","22986","","null","","","null","46","","","","","","","","","","","","","","","",""
"","ISI","","html-keyboard-response","271","392066","0.0-1.0-417.0","0","0","22986","","5","","","75","46","k","","","","","","","","","","","","","","",""
"","S2","","html-keyboard-response","272","392127","0.0-1.0-418.0","0","0","22986","","58","","","68","46","","d","1","46","training","adjacent","CD","3","4","M.jpg","R.jpg","1","1","1","",""
"","feedback","","html-keyboard-response","273","393196","0.0-1.0-420.0-0.0","0","0","22986","","null","","","null","46","","","","","","","","","","","","","","","",""
"","ITI","","html-keyboard-response","274","394200","0.0-1.0-423.0","0","0","22986","","16","","","68","46","","","","","","","","","","","","","","","d",""
"","S1","","html-keyboard-response","275","394452","0.0-1.0-425.0","0","0","22986","","null","","","null","47","","","","","","","","","","","","","","","",""
"","ISI","","html-keyboard-response","276","395053","0.0-1.0-426.0","0","0","22986","","138","","","75","47","k","","","","","","","","","","","","","","",""
"","S2","","html-keyboard-response","277","395305","0.0-1.0-427.0","0","0","22986","","null","","","null","47","","NaN","","","","","","","","","","","","","",""
"","response","","html-keyboard-response","278","395316","0.0-1.0-428.0-0.0","0","0","22986","","9","","","75","47","","","1","47","training","adjacent","BC","2","3","O.jpg","M.jpg","0","1","0","",""
"","feedback","","html-keyboard-response","279","396318","0.0-1.0-429.0-0.0","0","0","22986","","null","","","null","47","","","","","","","","","","","","","","","",""
"","time_out","","html-keyboard-response","280","398321","0.0-1.0-431.0-0.0","0","0","22986","","null","","","null","47","","","","","","","","","","","","","","","",""
"","ITI","","html-keyboard-response","281","399324","0.0-1.0-432.0","0","0","22986","","187","","","68","47","","","","","","","","","","","","","","","d",""
"","block_over","","html-keyboard-response","282","421229","0.0-1.0-433.0-0.0","0","0","22986","","21900","","","32","47","","","","","","","","","","","","","","","",""
"","S1","","html-keyboard-response","283","421481","0.0-1.0-434.0","0","0","22986","","null","","","null","48","","","","","","","","","","","","","","","",""
"","ISI","","html-keyboard-response","284","421984","0.0-1.0-435.0","0","0","22986","","null","","","null","48","NaN","","","","","","","","","","","","","","",""
"","S2","","html-keyboard-response","285","422241","0.0-1.0-436.0","0","0","22986","","null","","","null","48","","NaN","","","","","","","","","","","","","",""
"","response","","html-keyboard-response","286","422877","0.0-1.0-437.0-0.0","0","0","22986","","633","","","68","48","","","2","48","training","adjacent","CB","3","2","M.jpg","O.jpg","1","0","0","",""
"","feedback","","html-keyboard-response","287","423880","0.0-1.0-438.0-0.0","0","0","22986","","null","","","null","48","","","","","","","","","","","","","","","",""
"","time_out","","html-keyboard-response","288","425883","0.0-1.0-440.0-0.0","0","0","22986","","null","","","null","48","","","","","","","","","","","","","","","",""
"","ITI","","html-keyboard-response","289","426916","0.0-1.0-441.0","0","0","22986","","null","","","null","48","","","","","","","","","","","","","","","NaN",""
"","S1","","html-keyboard-response","290","427168","0.0-1.0-443.0","0","0","22986","","null","","","null","49","","","","","","","","","","","","","","","",""
"","ISI","","html-keyboard-response","291","427720","0.0-1.0-444.0","0","0","22986","","null","","","null","49","NaN","","","","","","","","","","","","","","",""
"","S2","","html-keyboard-response","292","427972","0.0-1.0-445.0","0","0","22986","","null","","","null","49","","NaN","","","","","","","","","","","","","",""
"","response","","html-keyboard-response","293","427982","0.0-1.0-446.0-0.0","0","0","22986","","8","","","75","49","","","2","49","training","adjacent","BA","2","1","O.jpg","P.jpg","0","0","1","",""
"","feedback","","html-keyboard-response","294","429029","0.0-1.0-447.0-0.0","0","0","22986","","null","","","null","49","","","","","","","","","","","","","","","",""
"","ITI","","html-keyboard-response","295","430032","0.0-1.0-450.0","0","0","22986","","null","","","null","49","","","","","","","","","","","","","","","NaN",""
"","S1","","html-keyboard-response","296","430284","0.0-1.0-452.0","0","0","22986","","null","","","null","50","","","","","","","","","","","","","","","",""
"","ISI","","html-keyboard-response","297","430791","0.0-1.0-453.0","0","0","22986","","null","","","null","50","NaN","","","","","","","","","","","","","","",""
"","S2","","html-keyboard-response","298","431044","0.0-1.0-454.0","0","0","22986","","null","","","null","50","","NaN","","","","","","","","","","","","","",""
"","response","","html-keyboard-response","299","431213","0.0-1.0-455.0-0.0","0","0","22986","","167","","","75","50","","","2","50","training","adjacent","CD","3","4","M.jpg","R.jpg","0","1","0","",""
"","feedback","","html-keyboard-response","300","432222","0.0-1.0-456.0-0.0","0","0","22986","","null","","","null","50","","","","","","","","","","","","","","","",""
"","time_out","","html-keyboard-response","301","434226","0.0-1.0-458.0-0.0","0","0","22986","","null","","","null","50","","","","","","","","","","","","","","","",""
"","ITI","","html-keyboard-response","302","435229","0.0-1.0-459.0","0","0","22986","","null","","","null","50","","","","","","","","","","","","","","","NaN",""
"","S1","","html-keyboard-response","303","435482","0.0-1.0-461.0","0","0","22986","","null","","","null","51","","","","","","","","","","","","","","","",""
"","ISI","","html-keyboard-response","304","436010","0.0-1.0-462.0","0","0","22986","","null","","","null","51","NaN","","","","","","","","","","","","","","",""
"","S2","","html-keyboard-response","305","436253","0.0-1.0-463.0","0","0","22986","","240","","","75","51","","k","2","51","training","adjacent","GF","7","6","N.jpg","L.jpg","0","0","1","",""
"","feedback","","html-keyboard-response","306","437326","0.0-1.0-465.0-0.0","0","0","22986","","null","","","null","51","","","","","","","","","","","","","","","",""
"","ITI","","html-keyboard-response","307","438330","0.0-1.0-468.0","0","0","22986","","null","","","null","51","","","","","","","","","","","","","","","NaN",""
"","S1","","html-keyboard-response","308","438596","0.0-1.0-470.0","0","0","22986","","null","","","null","52","","","","","","","","","","","","","","","",""
"","ISI","","html-keyboard-response","309","439103","0.0-1.0-471.0","0","0","22986","","null","","","null","52","NaN","","","","","","","","","","","","","","",""
"","S2","","html-keyboard-response","310","439197","0.0-1.0-472.0","0","0","22986","","91","","","68","52","","d","2","52","training","adjacent","BA","2","1","O.jpg","P.jpg","1","0","0","",""
"","feedback","","html-keyboard-response","311","440200","0.0-1.0-474.0-0.0","0","0","22986","","null","","","null","52","","","","","","","","","","","","","","","",""
"","time_out","","html-keyboard-response","312","442240","0.0-1.0-476.0-0.0","0","0","22986","","null","","","null","52","","","","","","","","","","","","","","","",""
"","ITI","","html-keyboard-response","313","443243","0.0-1.0-477.0","0","0","22986","","null","","","null","52","","","","","","","","","","","","","","","NaN",""
"","S1","","html-keyboard-response","314","443496","0.0-1.0-479.0","0","0","22986","","null","","","null","53","","","","","","","","","","","","","","","",""
"","ISI","","html-keyboard-response","315","444103","0.0-1.0-480.0","0","0","22986","","null","","","null","53","NaN","","","","","","","","","","","","","","",""
"","S2","","html-keyboard-response","316","444356","0.0-1.0-481.0","0","0","22986","","null","","","null","53","","NaN","","","","","","","","","","","","","",""
"","response","","html-keyboard-response","317","444365","0.0-1.0-482.0-0.0","0","0","22986","","8","","","75","53","","","2","53","training","adjacent","FE","6","5","L.jpg","Q.jpg","0","0","1","",""
"","feedback","","html-keyboard-response","318","445369","0.0-1.0-483.0-0.0","0","0","22986","","null","","","null","53","","","","","","","","","","","","","","","",""
"","ITI","","html-keyboard-response","319","446372","0.0-1.0-486.0","0","0","22986","","null","","","null","53","","","","","","","","","","","","","","","NaN",""
"","S1","","html-keyboard-response","320","446652","0.0-1.0-488.0","0","0","22986","","null","","","null","54","","","","","","","","","","","","","","","",""
"","ISI","","html-keyboard-response","321","447156","0.0-1.0-489.0","0","0","22986","","null","","","null","54","NaN","","","","","","","","","","","","","","",""
"","S2","","html-keyboard-response","322","447405","0.0-1.0-490.0","0","0","22986","","247","","","68","54","","d","2","54","training","adjacent","EF","5","6","Q.jpg","L.jpg","1","1","1","",""
"","feedback","","html-keyboard-response","323","448407","0.0-1.0-492.0-0.0","0","0","22986","","null","","","null","54","","","","","","","","","","","","","","","",""
"","ITI","","html-keyboard-response","324","449411","0.0-1.0-495.0","0","0","22986","","null","","","null","54","","","","","","","","","","","","","","","NaN",""
"","S1","","html-keyboard-response","325","449664","0.0-1.0-497.0","0","0","22986","","null","","","null","55","","","","","","","","","","","","","","","",""
"","ISI","","html-keyboard-response","326","450189","0.0-1.0-498.0","0","0","22986","","null","","","null","55","NaN","","","","","","","","","","","","","","",""
"","S2","","html-keyboard-response","327","450441","0.0-1.0-499.0","0","0","22986","","null","","","null","55","","NaN","","","","","","","","","","","","","",""
"","response","","html-keyboard-response","328","450493","0.0-1.0-500.0-0.0","0","0","22986","","49","","","75","55","","","2","55","training","adjacent","CB","3","2","M.jpg","O.jpg","0","0","1","",""
"","feedback","","html-keyboard-response","329","451498","0.0-1.0-501.0-0.0","0","0","22986","","null","","","null","55","","","","","","","","","","","","","","","",""
"","ITI","","html-keyboard-response","330","452531","0.0-1.0-504.0","0","0","22986","","null","","","null","55","","","","","","","","","","","","","","","NaN",""
"","S1","","html-keyboard-response","331","452784","0.0-1.0-506.0","0","0","22986","","null","","","null","56","","","","","","","","","","","","","","","",""
"","ISI","","html-keyboard-response","332","453287","0.0-1.0-507.0","0","0","22986","","null","","","null","56","NaN","","","","","","","","","","","","","","",""
"","S2","","html-keyboard-response","333","453540","0.0-1.0-508.0","0","0","22986","","null","","","null","56","","NaN","","","","","","","","","","","","","",""
"","response","","html-keyboard-response","334","453551","0.0-1.0-509.0-0.0","0","0","22986","","8","","","75","56","","","2","56","training","adjacent","EF","5","6","Q.jpg","L.jpg","0","1","0","",""
"","feedback","","html-keyboard-response","335","454553","0.0-1.0-510.0-0.0","0","0","22986","","null","","","null","56","","","","","","","","","","","","","","","",""
"","time_out","","html-keyboard-response","336","456555","0.0-1.0-512.0-0.0","0","0","22986","","null","","","null","56","","","","","","","","","","","","","","","",""
"","ITI","","html-keyboard-response","337","457559","0.0-1.0-513.0","0","0","22986","","null","","","null","56","","","","","","","","","","","","","","","NaN",""
"","S1","","html-keyboard-response","338","457811","0.0-1.0-515.0","0","0","22986","","null","","","null","57","","","","","","","","","","","","","","","",""
"","ISI","","html-keyboard-response","339","458314","0.0-1.0-516.0","0","0","22986","","null","","","null","57","NaN","","","","","","","","","","","","","","",""
"","S2","","html-keyboard-response","340","458557","0.0-1.0-517.0","0","0","22986","","240","","","68","57","","d","2","57","training","adjacent","FG","6","7","L.jpg","N.jpg","1","1","1","",""
"","feedback","","html-keyboard-response","341","459573","0.0-1.0-519.0-0.0","0","0","22986","","null","","","null","57","","","","","","","","","","","","","","","",""
"","ITI","","html-keyboard-response","342","460578","0.0-1.0-522.0","0","0","22986","","null","","","null","57","","","","","","","","","","","","","","","NaN",""
"","S1","","html-keyboard-response","343","460831","0.0-1.0-524.0","0","0","22986","","null","","","null","58","","","","","","","","","","","","","","","",""
"","ISI","","html-keyboard-response","344","461345","0.0-1.0-525.0","0","0","22986","","235","","","75","58","k","","","","","","","","","","","","","","",""
"","S2","","html-keyboard-response","345","461604","0.0-1.0-526.0","0","0","22986","","null","","","null","58","","NaN","","","","","","","","","","","","","",""
"","response","","html-keyboard-response","346","461693","0.0-1.0-527.0-0.0","0","0","22986","","86","","","75","58","","","2","58","training","adjacent","FE","6","5","L.jpg","Q.jpg","0","0","1","",""
"","feedback","","html-keyboard-response","347","462737","0.0-1.0-528.0-0.0","0","0","22986","","null","","","null","58","","","","","","","","","","","","","","","",""
"","ITI","","html-keyboard-response","348","463757","0.0-1.0-531.0","0","0","22986","","null","","","null","58","","","","","","","","","","","","","","","NaN",""
"","S1","","html-keyboard-response","349","464008","0.0-1.0-533.0","0","0","22986","","null","","","null","59","","","","","","","","","","","","","","","",""
"","ISI","","html-keyboard-response","350","464610","0.0-1.0-534.0","0","0","22986","","null","","","null","59","NaN","","","","","","","","","","","","","","",""
"","S2","","html-keyboard-response","351","464867","0.0-1.0-535.0","0","0","22986","","254","","","68","59","","d","2","59","training","adjacent","ED","5","4","Q.jpg","R.jpg","1","0","0","",""
"","feedback","","html-keyboard-response","352","465876","0.0-1.0-537.0-0.0","0","0","22986","","null","","","null","59","","","","","","","","","","","","","","","",""
"","time_out","","html-keyboard-response","353","467879","0.0-1.0-539.0-0.0","0","0","22986","","null","","","null","59","","","","","","","","","","","","","","","",""
"","ITI","","html-keyboard-response","354","468883","0.0-1.0-540.0","0","0","22986","","null","","","null","59","","","","","","","","","","","","","","","NaN",""
"","S1","","html-keyboard-response","355","469135","0.0-1.0-542.0","0","0","22986","","null","","","null","60","","","","","","","","","","","","","","","",""
"","ISI","","html-keyboard-response","356","469638","0.0-1.0-543.0","0","0","22986","","null","","","null","60","NaN","","","","","","","","","","","","","","",""
"","S2","","html-keyboard-response","357","469891","0.0-1.0-544.0","0","0","22986","","null","","","null","60","","NaN","","","","","","","","","","","","","",""
"","response","","html-keyboard-response","358","470189","0.0-1.0-545.0-0.0","0","0","22986","","295","","","75","60","","","2","60","training","adjacent","CB","3","2","M.jpg","O.jpg","0","0","1","",""
"","feedback","","html-keyboard-response","359","471192","0.0-1.0-546.0-0.0","0","0","22986","","null","","","null","60","","","","","","","","","","","","","","","",""
"","ITI","","html-keyboard-response","360","472195","0.0-1.0-549.0","0","0","22986","","null","","","null","60","","","","","","","","","","","","","","","NaN",""
"","S1","","html-keyboard-response","361","472447","0.0-1.0-551.0","0","0","22986","","null","","","null","61","","","","","","","","","","","","","","","",""
"","ISI","","html-keyboard-response","362","472949","0.0-1.0-552.0","0","0","22986","","null","","","null","61","NaN","","","","","","","","","","","","","","",""
"","S2","","html-keyboard-response","363","473201","0.0-1.0-553.0","0","0","22986","","249","","","75","61","","k","2","61","training","adjacent","GF","7","6","N.jpg","L.jpg","0","0","1","",""
"","feedback","","html-keyboard-response","364","474202","0.0-1.0-555.0-0.0","0","0","22986","","null","","","null","61","","","","","","","","","","","","","","","",""
"","ITI","","html-keyboard-response","365","475277","0.0-1.0-558.0","0","0","22986","","null","","","null","61","","","","","","","","","","","","","","","NaN",""
"","S1","","html-keyboard-response","366","475763","0.0-1.0-560.0","0","0","22986","","null","","","null","62","","","","","","","","","","","","","","","",""
"","ISI","","html-keyboard-response","367","476264","0.0-1.0-561.0","0","0","22986","","null","","","null","62","NaN","","","","","","","","","","","","","","",""
"","S2","","html-keyboard-response","368","476516","0.0-1.0-562.0","0","0","22986","","null","","","null","62","","NaN","","","","","","","","","","","","","",""
"","response","","html-keyboard-response","369","476749","0.0-1.0-563.0-0.0","0","0","22986","","230","","","75","62","","","2","62","training","adjacent","ED","5","4","Q.jpg","R.jpg","0","0","1","",""
"","feedback","","html-keyboard-response","370","477751","0.0-1.0-564.0-0.0","0","0","22986","","null","","","null","62","","","","","","","","","","","","","","","",""
"","ITI","","html-keyboard-response","371","478753","0.0-1.0-567.0","0","0","22986","","null","","","null","62","","","","","","","","","","","","","","","NaN",""
"","S1","","html-keyboard-response","372","479005","0.0-1.0-569.0","0","0","22986","","null","","","null","63","","","","","","","","","","","","","","","",""
"","ISI","","html-keyboard-response","373","479508","0.0-1.0-570.0","0","0","22986","","null","","","null","63","NaN","","","","","","","","","","","","","","",""
"","S2","","html-keyboard-response","374","479761","0.0-1.0-571.0","0","0","22986","","null","","","null","63","","NaN","","","","","","","","","","","","","",""
"","response","","html-keyboard-response","375","479821","0.0-1.0-572.0-0.0","0","0","22986","","57","","","68","63","","","2","63","training","adjacent","AB","1","2","P.jpg","O.jpg","1","1","1","",""
"","feedback","","html-keyboard-response","376","480823","0.0-1.0-573.0-0.0","0","0","22986","","null","","","null","63","","","","","","","","","","","","","","","",""
"","ITI","","html-keyboard-response","377","481824","0.0-1.0-576.0","0","0","22986","","null","","","null","63","","","","","","","","","","","","","","","NaN",""
"","S1","","html-keyboard-response","378","482076","0.0-1.0-578.0","0","0","22986","","null","","","null","64","","","","","","","","","","","","","","","",""
"","ISI","","html-keyboard-response","379","482608","0.0-1.0-579.0","0","0","22986","","null","","","null","64","NaN","","","","","","","","","","","","","","",""
"","S2","","html-keyboard-response","380","482861","0.0-1.0-580.0","0","0","22986","","null","","","null","64","","NaN","","","","","","","","","","","","","",""
"","response","","html-keyboard-response","381","482923","0.0-1.0-581.0-0.0","0","0","22986","","59","","","75","64","","","2","64","training","adjacent","DC","4","3","R.jpg","M.jpg","0","0","1","",""
"","feedback","","html-keyboard-response","382","483926","0.0-1.0-582.0-0.0","0","0","22986","","null","","","null","64","","","","","","","","","","","","","","","",""
"","ITI","","html-keyboard-response","383","484930","0.0-1.0-585.0","0","0","22986","","null","","","null","64","","","","","","","","","","","","","","","NaN",""
"","S1","","html-keyboard-response","384","485182","0.0-1.0-587.0","0","0","22986","","null","","","null","65","","","","","","","","","","","","","","","",""
"","ISI","","html-keyboard-response","385","485685","0.0-1.0-588.0","0","0","22986","","null","","","null","65","NaN","","","","","","","","","","","","","","",""
"","S2","","html-keyboard-response","386","485938","0.0-1.0-589.0","0","0","22986","","null","","","null","65","","NaN","","","","","","","","","","","","","",""
"","response","","html-keyboard-response","387","486091","0.0-1.0-590.0-0.0","0","0","22986","","150","","","75","65","","","2","65","training","adjacent","ED","5","4","Q.jpg","R.jpg","0","0","1","",""
"","feedback","","html-keyboard-response","388","487093","0.0-1.0-591.0-0.0","0","0","22986","","null","","","null","65","","","","","","","","","","","","","","","",""
"","ITI","","html-keyboard-response","389","488096","0.0-1.0-594.0","0","0","22986","","null","","","null","65","","","","","","","","","","","","","","","NaN",""
"","S1","","html-keyboard-response","390","488348","0.0-1.0-596.0","0","0","22986","","null","","","null","66","","","","","","","","","","","","","","","",""
"","ISI","","html-keyboard-response","391","488849","0.0-1.0-597.0","0","0","22986","","null","","","null","66","NaN","","","","","","","","","","","","","","",""
"","S2","","html-keyboard-response","392","489103","0.0-1.0-598.0","0","0","22986","","null","","","null","66","","NaN","","","","","","","","","","","","","",""
"","response","","html-keyboard-response","393","489258","0.0-1.0-599.0-0.0","0","0","22986","","152","","","68","66","","","2","66","training","adjacent","BC","2","3","O.jpg","M.jpg","1","1","1","",""
"","feedback","","html-keyboard-response","394","490284","0.0-1.0-600.0-0.0","0","0","22986","","null","","","null","66","","","","","","","","","","","","","","","",""
"","ITI","","html-keyboard-response","395","491288","0.0-1.0-603.0","0","0","22986","","null","","","null","66","","","","","","","","","","","","","","","NaN",""
"","S1","","html-keyboard-response","396","491541","0.0-1.0-605.0","0","0","22986","","null","","","null","67","","","","","","","","","","","","","","","",""
"","ISI","","html-keyboard-response","397","492043","0.0-1.0-606.0","0","0","22986","","null","","","null","67","NaN","","","","","","","","","","","","","","",""
"","S2","","html-keyboard-response","398","492297","0.0-1.0-607.0","0","0","22986","","null","","","null","67","","NaN","","","","","","","","","","","","","",""
"","response","","html-keyboard-response","399","492299","0.0-1.0-608.0-0.0","0","0","22986","","0","","","68","67","","","2","67","training","adjacent","AB","1","2","P.jpg","O.jpg","1","1","1","",""
"","feedback","","html-keyboard-response","400","493302","0.0-1.0-609.0-0.0","0","0","22986","","null","","","null","67","","","","","","","","","","","","","","","",""
"","ITI","","html-keyboard-response","401","494304","0.0-1.0-612.0","0","0","22986","","null","","","null","67","","","","","","","","","","","","","","","NaN",""
"","S1","","html-keyboard-response","402","494557","0.0-1.0-614.0","0","0","22986","","null","","","null","68","","","","","","","","","","","","","","","",""
"","ISI","","html-keyboard-response","403","495059","0.0-1.0-615.0","0","0","22986","","null","","","null","68","NaN","","","","","","","","","","","","","","",""
"","S2","","html-keyboard-response","404","495324","0.0-1.0-616.0","0","0","22986","","null","","","null","68","","NaN","","","","","","","","","","","","","",""
"","response","","html-keyboard-response","405","495387","0.0-1.0-617.0-0.0","0","0","22986","","61","","","75","68","","","2","68","training","adjacent","CB","3","2","M.jpg","O.jpg","0","0","1","",""
"","feedback","","html-keyboard-response","406","496400","0.0-1.0-618.0-0.0","0","0","22986","","null","","","null","68","","","","","","","","","","","","","","","",""
"","ITI","","html-keyboard-response","407","497403","0.0-1.0-621.0","0","0","22986","","null","","","null","68","","","","","","","","","","","","","","","NaN",""
"","S1","","html-keyboard-response","408","497688","0.0-1.0-623.0","0","0","22986","","null","","","null","69","","","","","","","","","","","","","","","",""
"","ISI","","html-keyboard-response","409","498192","0.0-1.0-624.0","0","0","22986","","null","","","null","69","NaN","","","","","","","","","","","","","","",""
"","S2","","html-keyboard-response","410","498445","0.0-1.0-625.0","0","0","22986","","null","","","null","69","","NaN","","","","","","","","","","","","","",""
"","response","","html-keyboard-response","411","498490","0.0-1.0-626.0-0.0","0","0","22986","","43","","","68","69","","","2","69","training","adjacent","BC","2","3","O.jpg","M.jpg","1","1","1","",""
"","feedback","","html-keyboard-response","412","499492","0.0-1.0-627.0-0.0","0","0","22986","","null","","","null","69","","","","","","","","","","","","","","","",""
"","ITI","","html-keyboard-response","413","500496","0.0-1.0-630.0","0","0","22986","","null","","","null","69","","","","","","","","","","","","","","","NaN",""
"","S1","","html-keyboard-response","414","500749","0.0-1.0-632.0","0","0","22986","","null","","","null","70","","","","","","","","","","","","","","","",""
"","ISI","","html-keyboard-response","415","501257","0.0-1.0-633.0","0","0","22986","","null","","","null","70","NaN","","","","","","","","","","","","","","",""
"","S2","","html-keyboard-response","416","501544","0.0-1.0-634.0","0","0","22986","","284","","","68","70","","d","2","70","training","adjacent","FE","6","5","L.jpg","Q.jpg","1","0","0","",""
"","feedback","","html-keyboard-response","417","502547","0.0-1.0-636.0-0.0","0","0","22986","","null","","","null","70","","","","","","","","","","","","","","","",""
"","time_out","","html-keyboard-response","418","504550","0.0-1.0-638.0-0.0","0","0","22986","","null","","","null","70","","","","","","","","","","","","","","","",""
"","ITI","","html-keyboard-response","419","505638","0.0-1.0-639.0","0","0","22986","","null","","","null","70","","","","","","","","","","","","","","","NaN",""
"","S1","","html-keyboard-response","420","505890","0.0-1.0-641.0","0","0","22986","","null","","","null","71","","","","","","","","","","","","","","","",""
"","ISI","","html-keyboard-response","421","506393","0.0-1.0-642.0","0","0","22986","","null","","","null","71","NaN","","","","","","","","","","","","","","",""
"","S2","","html-keyboard-response","422","506635","0.0-1.0-643.0","0","0","22986","","239","","","75","71","","k","2","71","training","adjacent","BA","2","1","O.jpg","P.jpg","0","0","1","",""
"","feedback","","html-keyboard-response","423","507638","0.0-1.0-645.0-0.0","0","0","22986","","null","","","null","71","","","","","","","","","","","","","","","",""
"","ITI","","html-keyboard-response","424","508652","0.0-1.0-648.0","0","0","22986","","null","","","null","71","","","","","","","","","","","","","","","NaN",""
"","S1","","html-keyboard-response","425","509000","0.0-1.0-650.0","0","0","22986","","null","","","null","72","","","","","","","","","","","","","","","",""
"","ISI","","html-keyboard-response","426","509502","0.0-1.0-651.0","0","0","22986","","null","","","null","72","NaN","","","","","","","","","","","","","","",""
"","S2","","html-keyboard-response","427","509722","0.0-1.0-652.0","0","0","22986","","218","","","68","72","","d","2","72","training","adjacent","FG","6","7","L.jpg","N.jpg","1","1","1","",""
"","feedback","","html-keyboard-response","428","510739","0.0-1.0-654.0-0.0","0","0","22986","","null","","","null","72","","","","","","","","","","","","","","","",""
"","ITI","","html-keyboard-response","429","511743","0.0-1.0-657.0","0","0","22986","","null","","","null","72","","","","","","","","","","","","","","","NaN",""
"","S1","","html-keyboard-response","430","511995","0.0-1.0-659.0","0","0","22986","","null","","","null","73","","","","","","","","","","","","","","","",""
"","ISI","","html-keyboard-response","431","512498","0.0-1.0-660.0","0","0","22986","","null","","","null","73","NaN","","","","","","","","","","","","","","",""
"","S2","","html-keyboard-response","432","512731","0.0-1.0-661.0","0","0","22986","","230","","","75","73","","k","2","73","training","adjacent","DC","4","3","R.jpg","M.jpg","0","0","1","",""
"","feedback","","html-keyboard-response","433","513734","0.0-1.0-663.0-0.0","0","0","22986","","null","","","null","73","","","","","","","","","","","","","","","",""
"","ITI","","html-keyboard-response","434","514738","0.0-1.0-666.0","0","0","22986","","null","","","null","73","","","","","","","","","","","","","","","NaN",""
"","S1","","html-keyboard-response","435","514990","0.0-1.0-668.0","0","0","22986","","null","","","null","74","","","","","","","","","","","","","","","",""
"","ISI","","html-keyboard-response","436","515496","0.0-1.0-669.0","0","0","22986","","null","","","null","74","NaN","","","","","","","","","","","","","","",""
"","S2","","html-keyboard-response","437","515748","0.0-1.0-670.0","0","0","22986","","null","","","null","74","","NaN","","","","","","","","","","","","","",""
"","response","","html-keyboard-response","438","515834","0.0-1.0-671.0-0.0","0","0","22986","","84","","","75","74","","","2","74","training","adjacent","FG","6","7","L.jpg","N.jpg","0","1","0","",""
"","feedback","","html-keyboard-response","439","516849","0.0-1.0-672.0-0.0","0","0","22986","","null","","","null","74","","","","","","","","","","","","","","","",""
"","time_out","","html-keyboard-response","440","518851","0.0-1.0-674.0-0.0","0","0","22986","","null","","","null","74","","","","","","","","","","","","","","","",""
"","ITI","","html-keyboard-response","441","519854","0.0-1.0-675.0","0","0","22986","","null","","","null","74","","","","","","","","","","","","","","","NaN",""
"","S1","","html-keyboard-response","442","520107","0.0-1.0-677.0","0","0","22986","","null","","","null","75","","","","","","","","","","","","","","","",""
"","ISI","","html-keyboard-response","443","520610","0.0-1.0-678.0","0","0","22986","","null","","","null","75","NaN","","","","","","","","","","","","","","",""
"","S2","","html-keyboard-response","444","520862","0.0-1.0-679.0","0","0","22986","","null","","","null","75","","NaN","","","","","","","","","","","","","",""
"","response","","html-keyboard-response","445","520923","0.0-1.0-680.0-0.0","0","0","22986","","58","","","75","75","","","2","75","training","adjacent","DE","4","5","R.jpg","Q.jpg","0","1","0","",""
"","feedback","","html-keyboard-response","446","521926","0.0-1.0-681.0-0.0","0","0","22986","","null","","","null","75","","","","","","","","","","","","","","","",""
"","time_out","","html-keyboard-response","447","523929","0.0-1.0-683.0-0.0","0","0","22986","","null","","","null","75","","","","","","","","","","","","","","","",""
"","ITI","","html-keyboard-response","448","524931","0.0-1.0-684.0","0","0","22986","","null","","","null","75","","","","","","","","","","","","","","","NaN",""
"","S1","","html-keyboard-response","449","525184","0.0-1.0-686.0","0","0","22986","","null","","","null","76","","","","","","","","","","","","","","","",""
"","ISI","","html-keyboard-response","450","525686","0.0-1.0-687.0","0","0","22986","","null","","","null","76","NaN","","","","","","","","","","","","","","",""
"","S2","","html-keyboard-response","451","525930","0.0-1.0-688.0","0","0","22986","","242","","","75","76","","k","2","76","training","adjacent","DC","4","3","R.jpg","M.jpg","0","0","1","",""
"","feedback","","html-keyboard-response","452","526933","0.0-1.0-690.0-0.0","0","0","22986","","null","","","null","76","","","","","","","","","","","","","","","",""
"","ITI","","html-keyboard-response","453","527937","0.0-1.0-693.0","0","0","22986","","null","","","null","76","","","","","","","","","","","","","","","NaN",""
"","S1","","html-keyboard-response","454","528189","0.0-1.0-695.0","0","0","22986","","null","","","null","77","","","","","","","","","","","","","","","",""
"","ISI","","html-keyboard-response","455","528692","0.0-1.0-696.0","0","0","22986","","null","","","null","77","NaN","","","","","","","","","","","","","","",""
"","S2","","html-keyboard-response","456","528945","0.0-1.0-697.0","0","0","22986","","null","","","null","77","","NaN","","","","","","","","","","","","","",""
"","response","","html-keyboard-response","457","528955","0.0-1.0-698.0-0.0","0","0","22986","","8","","","68","77","","","2","77","training","adjacent","AB","1","2","P.jpg","O.jpg","1","1","1","",""
"","feedback","","html-keyboard-response","458","529959","0.0-1.0-699.0-0.0","0","0","22986","","null","","","null","77","","","","","","","","","","","","","","","",""
"","ITI","","html-keyboard-response","459","530963","0.0-1.0-702.0","0","0","22986","","null","","","null","77","","","","","","","","","","","","","","","NaN",""
"","S1","","html-keyboard-response","460","531218","0.0-1.0-704.0","0","0","22986","","null","","","null","78","","","","","","","","","","","","","","","",""
"","ISI","","html-keyboard-response","461","531720","0.0-1.0-705.0","0","0","22986","","null","","","null","78","NaN","","","","","","","","","","","","","","",""
"","S2","","html-keyboard-response","462","531972","0.0-1.0-706.0","0","0","22986","","null","","","null","78","","NaN","","","","","","","","","","","","","",""
"","response","","html-keyboard-response","463","532010","0.0-1.0-707.0-0.0","0","0","22986","","36","","","75","78","","","2","78","training","adjacent","AB","1","2","P.jpg","O.jpg","0","1","0","",""
"","feedback","","html-keyboard-response","464","533050","0.0-1.0-708.0-0.0","0","0","22986","","null","","","null","78","","","","","","","","","","","","","","","",""
"","time_out","","html-keyboard-response","465","535083","0.0-1.0-710.0-0.0","0","0","22986","","null","","","null","78","","","","","","","","","","","","","","","",""
"","ITI","","html-keyboard-response","466","536086","0.0-1.0-711.0","0","0","22986","","null","","","null","78","","","","","","","","","","","","","","","NaN",""
"","S1","","html-keyboard-response","467","536359","0.0-1.0-713.0","0","0","22986","","null","","","null","79","","","","","","","","","","","","","","","",""
"","ISI","","html-keyboard-response","468","536876","0.0-1.0-714.0","0","0","22986","","null","","","null","79","NaN","","","","","","","","","","","","","","",""
"","S2","","html-keyboard-response","469","537129","0.0-1.0-715.0","0","0","22986","","null","","","null","79","","NaN","","","","","","","","","","","","","",""
"","response","","html-keyboard-response","470","537131","0.0-1.0-716.0-0.0","0","0","22986","","0","","","75","79","","","2","79","training","adjacent","EF","5","6","Q.jpg","L.jpg","0","1","0","",""
"","feedback","","html-keyboard-response","471","538133","0.0-1.0-717.0-0.0","0","0","22986","","null","","","null","79","","","","","","","","","","","","","","","",""
"","time_out","","html-keyboard-response","472","540135","0.0-1.0-719.0-0.0","0","0","22986","","null","","","null","79","","","","","","","","","","","","","","","",""
"","ITI","","html-keyboard-response","473","541139","0.0-1.0-720.0","0","0","22986","","null","","","null","79","","","","","","","","","","","","","","","NaN",""
"","S1","","html-keyboard-response","474","541392","0.0-1.0-722.0","0","0","22986","","null","","","null","80","","","","","","","","","","","","","","","",""
"","ISI","","html-keyboard-response","475","541893","0.0-1.0-723.0","0","0","22986","","null","","","null","80","NaN","","","","","","","","","","","","","","",""
"","S2","","html-keyboard-response","476","542156","0.0-1.0-724.0","0","0","22986","","260","","","75","80","","k","2","80","training","adjacent","DE","4","5","R.jpg","Q.jpg","0","1","0","",""
"","feedback","","html-keyboard-response","477","543158","0.0-1.0-726.0-0.0","0","0","22986","","null","","","null","80","","","","","","","","","","","","","","","",""
"","time_out","","html-keyboard-response","478","545161","0.0-1.0-728.0-0.0","0","0","22986","","null","","","null","80","","","","","","","","","","","","","","","",""
"","ITI","","html-keyboard-response","479","546165","0.0-1.0-729.0","0","0","22986","","null","","","null","80","","","","","","","","","","","","","","","NaN",""
"","S1","","html-keyboard-response","480","546441","0.0-1.0-731.0","0","0","22986","","null","","","null","81","","","","","","","","","","","","","","","",""
"","ISI","","html-keyboard-response","481","546943","0.0-1.0-732.0","0","0","22986","","null","","","null","81","NaN","","","","","","","","","","","","","","",""
"","S2","","html-keyboard-response","482","547192","0.0-1.0-733.0","0","0","22986","","247","","","75","81","","k","2","81","training","adjacent","DE","4","5","R.jpg","Q.jpg","0","1","0","",""
"","feedback","","html-keyboard-response","483","548213","0.0-1.0-735.0-0.0","0","0","22986","","null","","","null","81","","","","","","","","","","","","","","","",""
"","time_out","","html-keyboard-response","484","550217","0.0-1.0-737.0-0.0","0","0","22986","","null","","","null","81","","","","","","","","","","","","","","","",""
"","ITI","","html-keyboard-response","485","551220","0.0-1.0-738.0","0","0","22986","","null","","","null","81","","","","","","","","","","","","","","","NaN",""
"","S1","","html-keyboard-response","486","551472","0.0-1.0-740.0","0","0","22986","","null","","","null","82","","","","","","","","","","","","","","","",""
"","ISI","","html-keyboard-response","487","552014","0.0-1.0-741.0","0","0","22986","","null","","","null","82","NaN","","","","","","","","","","","","","","",""
"","S2","","html-keyboard-response","488","552266","0.0-1.0-742.0","0","0","22986","","null","","","null","82","","NaN","","","","","","","","","","","","","",""
"","response","","html-keyboard-response","489","552344","0.0-1.0-743.0-0.0","0","0","22986","","76","","","75","82","","","2","82","training","adjacent","FG","6","7","L.jpg","N.jpg","0","1","0","",""
"","feedback","","html-keyboard-response","490","553347","0.0-1.0-744.0-0.0","0","0","22986","","null","","","null","82","","","","","","","","","","","","","","","",""
"","time_out","","html-keyboard-response","491","555351","0.0-1.0-746.0-0.0","0","0","22986","","null","","","null","82","","","","","","","","","","","","","","","",""
"","ITI","","html-keyboard-response","492","556353","0.0-1.0-747.0","0","0","22986","","null","","","null","82","","","","","","","","","","","","","","","NaN",""
"","S1","","html-keyboard-response","493","556606","0.0-1.0-749.0","0","0","22986","","null","","","null","83","","","","","","","","","","","","","","","",""
"","ISI","","html-keyboard-response","494","557108","0.0-1.0-750.0","0","0","22986","","null","","","null","83","NaN","","","","","","","","","","","","","","",""
"","S2","","html-keyboard-response","495","557336","0.0-1.0-751.0","0","0","22986","","226","","","75","83","","k","2","83","training","adjacent","DE","4","5","R.jpg","Q.jpg","0","1","0","",""
"","feedback","","html-keyboard-response","496","558350","0.0-1.0-753.0-0.0","0","0","22986","","null","","","null","83","","","","","","","","","","","","","","","",""
"","time_out","","html-keyboard-response","497","560370","0.0-1.0-755.0-0.0","0","0","22986","","null","","","null","83","","","","","","","","","","","","","","","",""
"","ITI","","html-keyboard-response","498","561375","0.0-1.0-756.0","0","0","22986","","null","","","null","83","","","","","","","","","","","","","","","NaN",""
"","S1","","html-keyboard-response","499","561628","0.0-1.0-758.0","0","0","22986","","null","","","null","84","","","","","","","","","","","","","","","",""
"","ISI","","html-keyboard-response","500","562130","0.0-1.0-759.0","0","0","22986","","null","","","null","84","NaN","","","","","","","","","","","","","","",""
"","S2","","html-keyboard-response","501","562398","0.0-1.0-760.0","0","0","22986","","null","","","null","84","","NaN","","","","","","","","","","","","","",""
"","response","","html-keyboard-response","502","562408","0.0-1.0-761.0-0.0","0","0","22986","","8","","","75","84","","","2","84","training","adjacent","BA","2","1","O.jpg","P.jpg","0","0","1","",""
"","feedback","","html-keyboard-response","503","563412","0.0-1.0-762.0-0.0","0","0","22986","","null","","","null","84","","","","","","","","","","","","","","","",""
"","ITI","","html-keyboard-response","504","564419","0.0-1.0-765.0","0","0","22986","","null","","","null","84","","","","","","","","","","","","","","","NaN",""
"","S1","","html-keyboard-response","505","564671","0.0-1.0-767.0","0","0","22986","","null","","","null","85","","","","","","","","","","","","","","","",""
"","ISI","","html-keyboard-response","506","565191","0.0-1.0-768.0","0","0","22986","","null","","","null","85","NaN","","","","","","","","","","","","","","",""
"","S2","","html-keyboard-response","507","565448","0.0-1.0-769.0","0","0","22986","","null","","","null","85","","NaN","","","","","","","","","","","","","",""
"","response","","html-keyboard-response","508","565609","0.0-1.0-770.0-0.0","0","0","22986","","158","","","75","85","","","2","85","training","adjacent","DC","4","3","R.jpg","M.jpg","0","0","1","",""
"","feedback","","html-keyboard-response","509","566612","0.0-1.0-771.0-0.0","0","0","22986","","null","","","null","85","","","","","","","","","","","","","","","",""
"","ITI","","html-keyboard-response","510","567616","0.0-1.0-774.0","0","0","22986","","null","","","null","85","","","","","","","","","","","","","","","NaN",""
"","S1","","html-keyboard-response","511","567869","0.0-1.0-776.0","0","0","22986","","null","","","null","86","","","","","","","","","","","","","","","",""
"","ISI","","html-keyboard-response","512","568372","0.0-1.0-777.0","0","0","22986","","null","","","null","86","NaN","","","","","","","","","","","","","","",""
"","S2","","html-keyboard-response","513","568625","0.0-1.0-778.0","0","0","22986","","null","","","null","86","","NaN","","","","","","","","","","","","","",""
"","response","","html-keyboard-response","514","568664","0.0-1.0-779.0-0.0","0","0","22986","","34","","","75","86","","","2","86","training","adjacent","ED","5","4","Q.jpg","R.jpg","0","0","1","",""
"","feedback","","html-keyboard-response","515","569727","0.0-1.0-780.0-0.0","0","0","22986","","null","","","null","86","","","","","","","","","","","","","","","",""
"","ITI","","html-keyboard-response","516","570731","0.0-1.0-783.0","0","0","22986","","null","","","null","86","","","","","","","","","","","","","","","NaN",""
"","S1","","html-keyboard-response","517","570985","0.0-1.0-785.0","0","0","22986","","null","","","null","87","","","","","","","","","","","","","","","",""
"","ISI","","html-keyboard-response","518","571490","0.0-1.0-786.0","0","0","22986","","null","","","null","87","NaN","","","","","","","","","","","","","","",""
"","S2","","html-keyboard-response","519","571743","0.0-1.0-787.0","0","0","22986","","null","","","null","87","","NaN","","","","","","","","","","","","","",""
"","response","","html-keyboard-response","520","571752","0.0-1.0-788.0-0.0","0","0","22986","","8","","","75","87","","","2","87","training","adjacent","CD","3","4","M.jpg","R.jpg","0","1","0","",""
"","feedback","","html-keyboard-response","521","572755","0.0-1.0-789.0-0.0","0","0","22986","","null","","","null","87","","","","","","","","","","","","","","","",""
"","time_out","","html-keyboard-response","522","574758","0.0-1.0-791.0-0.0","0","0","22986","","null","","","null","87","","","","","","","","","","","","","","","",""
"","ITI","","html-keyboard-response","523","575792","0.0-1.0-792.0","0","0","22986","","385","","","75","87","","","","","","","","","","","","","","","k",""
"","S1","","html-keyboard-response","524","576045","0.0-1.0-794.0","0","0","22986","","null","","","null","88","","","","","","","","","","","","","","","",""
"","ISI","","html-keyboard-response","525","576548","0.0-1.0-795.0","0","0","22986","","9","","","75","88","k","","","","","","","","","","","","","","",""
"","S2","","html-keyboard-response","526","576584","0.0-1.0-796.0","0","0","22986","","34","","","75","88","","k","2","88","training","adjacent","BC","2","3","O.jpg","M.jpg","0","1","0","",""
"","feedback","","html-keyboard-response","527","577634","0.0-1.0-798.0-0.0","0","0","22986","","null","","","null","88","","","","","","","","","","","","","","","",""
"","time_out","","html-keyboard-response","528","579637","0.0-1.0-800.0-0.0","0","0","22986","","null","","","null","88","","","","","","","","","","","","","","","",""
"","ITI","","html-keyboard-response","529","580640","0.0-1.0-801.0","0","0","22986","","17","","","75","88","","","","","","","","","","","","","","","k",""
"","S1","","html-keyboard-response","530","580893","0.0-1.0-803.0","0","0","22986","","null","","","null","89","","","","","","","","","","","","","","","",""
"","ISI","","html-keyboard-response","531","581396","0.0-1.0-804.0","0","0","22986","","57","","","68","89","d","","","","","","","","","","","","","","",""
"","S2","","html-keyboard-response","532","581581","0.0-1.0-805.0","0","0","22986","","183","","","75","89","","k","2","89","training","adjacent","GF","7","6","N.jpg","L.jpg","0","0","1","",""
"","feedback","","html-keyboard-response","533","582584","0.0-1.0-807.0-0.0","0","0","22986","","null","","","null","89","","","","","","","","","","","","","","","",""
"","ITI","","html-keyboard-response","534","583588","0.0-1.0-810.0","0","0","22986","","94","","","68","89","","","","","","","","","","","","","","","d",""
"","S1","","html-keyboard-response","535","583840","0.0-1.0-812.0","0","0","22986","","null","","","null","90","","","","","","","","","","","","","","","",""
"","ISI","","html-keyboard-response","536","584343","0.0-1.0-813.0","0","0","22986","","54","","","75","90","k","","","","","","","","","","","","","","",""
"","S2","","html-keyboard-response","537","584424","0.0-1.0-814.0","0","0","22986","","79","","","68","90","","d","2","90","training","adjacent","CD","3","4","M.jpg","R.jpg","1","1","1","",""
"","feedback","","html-keyboard-response","538","585430","0.0-1.0-816.0-0.0","0","0","22986","","null","","","null","90","","","","","","","","","","","","","","","",""
"","ITI","","html-keyboard-response","539","586433","0.0-1.0-819.0","0","0","22986","","99","","","68","90","","","","","","","","","","","","","","","d",""
"","S1","","html-keyboard-response","540","586685","0.0-1.0-821.0","0","0","22986","","null","","","null","91","","","","","","","","","","","","","","","",""
"","ISI","","html-keyboard-response","541","587191","0.0-1.0-822.0","0","0","22986","","57","","","75","91","k","","","","","","","","","","","","","","",""
"","S2","","html-keyboard-response","542","587222","0.0-1.0-823.0","0","0","22986","","29","","","75","91","","k","2","91","training","adjacent","FE","6","5","L.jpg","Q.jpg","0","0","1","",""
"","feedback","","html-keyboard-response","543","588226","0.0-1.0-825.0-0.0","0","0","22986","","null","","","null","91","","","","","","","","","","","","","","","",""
"","ITI","","html-keyboard-response","544","589237","0.0-1.0-828.0","0","0","22986","","148","","","68","91","","","","","","","","","","","","","","","d",""
"","S1","","html-keyboard-response","545","589490","0.0-1.0-830.0","0","0","22986","","null","","","null","92","","","","","","","","","","","","","","","",""
"","ISI","","html-keyboard-response","546","589993","0.0-1.0-831.0","0","0","22986","","196","","","75","92","k","","","","","","","","","","","","","","",""
"","S2","","html-keyboard-response","547","590105","0.0-1.0-832.0","0","0","22986","","109","","","75","92","","k","2","92","training","adjacent","EF","5","6","Q.jpg","L.jpg","0","1","0","",""
"","feedback","","html-keyboard-response","548","591110","0.0-1.0-834.0-0.0","0","0","22986","","null","","","null","92","","","","","","","","","","","","","","","",""
"","time_out","","html-keyboard-response","549","593130","0.0-1.0-836.0-0.0","0","0","22986","","null","","","null","92","","","","","","","","","","","","","","","",""
"","ITI","","html-keyboard-response","550","594135","0.0-1.0-837.0","0","0","22986","","null","","","null","92","","","","","","","","","","","","","","","NaN",""
"","S1","","html-keyboard-response","551","594386","0.0-1.0-839.0","0","0","22986","","null","","","null","93","","","","","","","","","","","","","","","",""
"","ISI","","html-keyboard-response","552","594889","0.0-1.0-840.0","0","0","22986","","null","","","null","93","NaN","","","","","","","","","","","","","","",""
"","S2","","html-keyboard-response","553","595154","0.0-1.0-841.0","0","0","22986","","262","","","75","93","","k","2","93","training","adjacent","CD","3","4","M.jpg","R.jpg","0","1","0","",""
"","feedback","","html-keyboard-response","554","596157","0.0-1.0-843.0-0.0","0","0","22986","","null","","","null","93","","","","","","","","","","","","","","","",""
"","time_out","","html-keyboard-response","555","598160","0.0-1.0-845.0-0.0","0","0","22986","","null","","","null","93","","","","","","","","","","","","","","","",""
"","ITI","","html-keyboard-response","556","599164","0.0-1.0-846.0","0","0","22986","","null","","","null","93","","","","","","","","","","","","","","","NaN",""
"","S1","","html-keyboard-response","557","599415","0.0-1.0-848.0","0","0","22986","","null","","","null","94","","","","","","","","","","","","","","","",""
"","ISI","","html-keyboard-response","558","599918","0.0-1.0-849.0","0","0","22986","","127","","","68","94","d","","","","","","","","","","","","","","",""
"","S2","","html-keyboard-response","559","600104","0.0-1.0-850.0","0","0","22986","","183","","","68","94","","d","2","94","training","adjacent","GF","7","6","N.jpg","L.jpg","1","0","0","",""
"","feedback","","html-keyboard-response","560","601107","0.0-1.0-852.0-0.0","0","0","22986","","null","","","null","94","","","","","","","","","","","","","","","",""
"","time_out","","html-keyboard-response","561","603108","0.0-1.0-854.0-0.0","0","0","22986","","null","","","null","94","","","","","","","","","","","","","","","",""
"","ITI","","html-keyboard-response","562","604112","0.0-1.0-855.0","0","0","22986","","57","","","68","94","","","","","","","","","","","","","","","d",""
"","S1","","html-keyboard-response","563","604365","0.0-1.0-857.0","0","0","22986","","null","","","null","95","","","","","","","","","","","","","","","",""
"","ISI","","html-keyboard-response","564","604868","0.0-1.0-858.0","0","0","22986","","104","","","68","95","d","","","","","","","","","","","","","","",""
"","S2","","html-keyboard-response","565","604951","0.0-1.0-859.0","0","0","22986","","81","","","68","95","","d","2","95","training","adjacent","BC","2","3","O.jpg","M.jpg","1","1","1","",""
"","feedback","","html-keyboard-response","566","605953","0.0-1.0-861.0-0.0","0","0","22986","","null","","","null","95","","","","","","","","","","","","","","","",""
"","ITI","","html-keyboard-response","567","606956","0.0-1.0-864.0","0","0","22986","","36","","","68","95","","","","","","","","","","","","","","","d",""
"","block_over","","html-keyboard-response","568","611400","0.0-1.0-865.0-0.0","0","0","22986","","4441","","","32","95","","","","","","","","","","","","","","","",""
"","S1","","html-keyboard-response","569","611652","0.0-1.0-866.0","0","0","22986","","null","","","null","96","","","","","","","","","","","","","","","",""
"","ISI","","html-keyboard-response","570","612154","0.0-1.0-867.0","0","0","22986","","null","","","null","96","NaN","","","","","","","","","","","","","","",""
"","S2","","html-keyboard-response","571","612407","0.0-1.0-868.0","0","0","22986","","null","","","null","96","","NaN","","","","","","","","","","","","","",""
"","response","","html-keyboard-response","572","612583","0.0-1.0-869.0-0.0","0","0","22986","","173","","","75","96","","","3","96","training","adjacent","CD","3","4","M.jpg","R.jpg","0","1","0","",""
"","feedback","","html-keyboard-response","573","613585","0.0-1.0-870.0-0.0","0","0","22986","","null","","","null","96","","","","","","","","","","","","","","","",""
"","time_out","","html-keyboard-response","574","615589","0.0-1.0-872.0-0.0","0","0","22986","","null","","","null","96","","","","","","","","","","","","","","","",""
"","ITI","","html-keyboard-response","575","616590","0.0-1.0-873.0","0","0","22986","","null","","","null","96","","","","","","","","","","","","","","","NaN",""
"","S1","","html-keyboard-response","576","616843","0.0-1.0-875.0","0","0","22986","","null","","","null","97","","","","","","","","","","","","","","","",""
"","ISI","","html-keyboard-response","577","617346","0.0-1.0-876.0","0","0","22986","","null","","","null","97","NaN","","","","","","","","","","","","","","",""
"","S2","","html-keyboard-response","578","617690","0.0-1.0-877.0","0","0","22986","","341","","","75","97","","k","3","97","training","adjacent","EF","5","6","Q.jpg","L.jpg","0","1","0","",""
"","feedback","","html-keyboard-response","579","618694","0.0-1.0-879.0-0.0","0","0","22986","","null","","","null","97","","","","","","","","","","","","","","","",""
"","time_out","","html-keyboard-response","580","620696","0.0-1.0-881.0-0.0","0","0","22986","","null","","","null","97","","","","","","","","","","","","","","","",""
"","ITI","","html-keyboard-response","581","621700","0.0-1.0-882.0","0","0","22986","","204","","","68","97","","","","","","","","","","","","","","","d",""
"","S1","","html-keyboard-response","582","621951","0.0-1.0-884.0","0","0","22986","","null","","","null","98","","","","","","","","","","","","","","","",""
"","ISI","","html-keyboard-response","583","622454","0.0-1.0-885.0","0","0","22986","","85","","","68","98","d","","","","","","","","","","","","","","",""
"","S2","","html-keyboard-response","584","622487","0.0-1.0-886.0","0","0","22986","","30","","","68","98","","d","3","98","training","adjacent","GF","7","6","N.jpg","L.jpg","1","0","0","",""
"","feedback","","html-keyboard-response","585","623491","0.0-1.0-888.0-0.0","0","0","22986","","null","","","null","98","","","","","","","","","","","","","","","",""
