"success","ttype","start_time","trial_type","trial_index","time_elapsed","internal_node_id","warning","missed_checkup","PID","view_history","rt","responses","repeat_instructions","key_press","index","keypress_isi","keypress_S2","block","trial_num","phase","group_type","pair_type","S1_stim","S2_stim","S1_img","S2_img","S1_chosen","S1_higher","accuracy","keypress_iti","total_bonus_tally"
"true","full_screen","d04132023hr1439","fullscreen","0","13578","0.0-0.0","0","0","48284","","","","","","","","","","","","","","","","","","","","","",""
"","instructions","","instructions","1","33034","0.0-1.0-0.0-0.0","0","0","48284","[{""page_index"":0,""viewing_time"":5020},{""page_index"":1,""viewing_time"":7385},{""page_index"":2,""viewing_time"":5332},{""page_index"":3,""viewing_time"":1715}]","19453","","","","","","","","","","","","","","","","","","","",""
"","comprehension_check","","survey-multi-choice","2","50235","0.0-1.0-0.0-1.0","0","0","48284","","17195","{""Q0"":""True"",""Q1"":""D"",""Q2"":""Only when the screen 'MAKE A CHOICE' is shown"",""Q3"":""Green mark"",""Q4"":""either D or K""}","1","","","","","","","","","","","","","","","","","",""
"","missed_instruction_checkup","","html-keyboard-response","3","53015","0.0-1.0-0.0-2.0-0.0","0","1","48284","","2775","","","32","","","","","","","","","","","","","","","","",""
"","instructions","","instructions","4","81269","0.0-1.0-0.1-0.1","0","0","48284","[{""page_index"":0,""viewing_time"":1962},{""page_index"":1,""viewing_time"":14574},{""page_index"":2,""viewing_time"":10793},{""page_index"":3,""viewing_time"":921}]","28251","","","","","","","","","","","","","","","","","","","",""
"","comprehension_check","","survey-multi-choice","5","134436","0.0-1.0-0.1-1.1","0","0","48284","","53160","{""Q0"":""True"",""Q1"":""D"",""Q2"":""Once the second image appears and while the screen 'MAKE A CHOICE' is shown"",""Q3"":""Green mark"",""Q4"":""either D or K""}","0","","","","","","","","","","","","","","","","","",""
"","start_exp","","html-keyboard-response","6","137062","0.0-1.0-1.0","0","0","48284","","2623","","","32","","","","","","","","","","","","","","","","",""
"","S1","","html-keyboard-response","7","137326","0.0-1.0-2.0","0","0","48284","","null","","","null","0","","","","","","","","","","","","","","","",""
"","ISI","","html-keyboard-response","8","138336","0.0-1.0-3.0","0","0","48284","","null","","","null","0","NaN","","","","","","","","","","","","","","",""
"","S2","","html-keyboard-response","9","138598","0.0-1.0-4.0","0","0","48284","","null","","","null","0","","NaN","","","","","","","","","","","","","",""
"","response","","html-keyboard-response","10","139027","0.0-1.0-5.0-0.0","0","0","48284","","423","","","68","0","","","1","0","training","adjacent","GF","7","6","N.jpg","O.jpg","1","0","0","",""
"","feedback","","html-keyboard-response","11","140035","0.0-1.0-6.0-0.0","0","0","48284","","null","","","null","0","","","","","","","","","","","","","","","",""
"","time_out","","html-keyboard-response","12","142046","0.0-1.0-8.0-0.0","0","0","48284","","null","","","null","0","","","","","","","","","","","","","","","",""
"","ITI","","html-keyboard-response","13","143056","0.0-1.0-9.0","0","0","48284","","null","","","null","0","","","","","","","","","","","","","","","NaN",""
"","S1","","html-keyboard-response","14","143317","0.0-1.0-11.0","0","0","48284","","null","","","null","1","","","","","","","","","","","","","","","",""
"","ISI","","html-keyboard-response","15","144328","0.0-1.0-12.0","0","0","48284","","null","","","null","1","NaN","","","","","","","","","","","","","","",""
"","S2","","html-keyboard-response","16","144589","0.0-1.0-13.0","0","0","48284","","null","","","null","1","","NaN","","","","","","","","","","","","","",""
"","response","","html-keyboard-response","17","145052","0.0-1.0-14.0-0.0","0","0","48284","","459","","","75","1","","","1","1","training","adjacent","BC","2","3","P.jpg","M.jpg","0","1","0","",""
"","feedback","","html-keyboard-response","18","146063","0.0-1.0-15.0-0.0","0","0","48284","","null","","","null","1","","","","","","","","","","","","","","","",""
"","time_out","","html-keyboard-response","19","148070","0.0-1.0-17.0-0.0","0","0","48284","","null","","","null","1","","","","","","","","","","","","","","","",""
"","ITI","","html-keyboard-response","20","149081","0.0-1.0-18.0","0","0","48284","","null","","","null","1","","","","","","","","","","","","","","","NaN",""
"","S1","","html-keyboard-response","21","149342","0.0-1.0-20.0","0","0","48284","","null","","","null","2","","","","","","","","","","","","","","","",""
"","ISI","","html-keyboard-response","22","150352","0.0-1.0-21.0","0","0","48284","","null","","","null","2","NaN","","","","","","","","","","","","","","",""
"","S2","","html-keyboard-response","23","150614","0.0-1.0-22.0","0","0","48284","","null","","","null","2","","NaN","","","","","","","","","","","","","",""
"","response","","html-keyboard-response","24","150749","0.0-1.0-23.0-0.0","0","0","48284","","131","","","68","2","","","1","2","training","adjacent","DE","4","5","L.jpg","R.jpg","1","1","1","",""
"","feedback","","html-keyboard-response","25","151757","0.0-1.0-24.0-0.0","0","0","48284","","null","","","null","2","","","","","","","","","","","","","","","",""
"","ITI","","html-keyboard-response","26","152766","0.0-1.0-27.0","0","0","48284","","null","","","null","2","","","","","","","","","","","","","","","NaN",""
"","S1","","html-keyboard-response","27","153029","0.0-1.0-29.0","0","0","48284","","null","","","null","3","","","","","","","","","","","","","","","",""
"","ISI","","html-keyboard-response","28","154039","0.0-1.0-30.0","0","0","48284","","null","","","null","3","NaN","","","","","","","","","","","","","","",""
"","S2","","html-keyboard-response","29","154301","0.0-1.0-31.0","0","0","48284","","null","","","null","3","","NaN","","","","","","","","","","","","","",""
"","response","","html-keyboard-response","30","154640","0.0-1.0-32.0-0.0","0","0","48284","","335","","","75","3","","","1","3","training","adjacent","BA","2","1","P.jpg","Q.jpg","0","0","1","",""
"","feedback","","html-keyboard-response","31","155652","0.0-1.0-33.0-0.0","0","0","48284","","null","","","null","3","","","","","","","","","","","","","","","",""
"","ITI","","html-keyboard-response","32","156662","0.0-1.0-36.0","0","0","48284","","null","","","null","3","","","","","","","","","","","","","","","NaN",""
"","S1","","html-keyboard-response","33","156926","0.0-1.0-38.0","0","0","48284","","null","","","null","4","","","","","","","","","","","","","","","",""
"","ISI","","html-keyboard-response","34","157933","0.0-1.0-39.0","0","0","48284","","null","","","null","4","NaN","","","","","","","","","","","","","","",""
"","S2","","html-keyboard-response","35","158200","0.0-1.0-40.0","0","0","48284","","null","","","null","4","","NaN","","","","","","","","","","","","","",""
"","response","","html-keyboard-response","36","158256","0.0-1.0-41.0-0.0","0","0","48284","","53","","","68","4","","","1","4","training","adjacent","DE","4","5","L.jpg","R.jpg","1","1","1","",""
"","feedback","","html-keyboard-response","37","159269","0.0-1.0-42.0-0.0","0","0","48284","","null","","","null","4","","","","","","","","","","","","","","","",""
"","ITI","","html-keyboard-response","38","160279","0.0-1.0-45.0","0","0","48284","","null","","","null","4","","","","","","","","","","","","","","","NaN",""
"","S1","","html-keyboard-response","39","160542","0.0-1.0-47.0","0","0","48284","","null","","","null","5","","","","","","","","","","","","","","","",""
"","ISI","","html-keyboard-response","40","161549","0.0-1.0-48.0","0","0","48284","","null","","","null","5","NaN","","","","","","","","","","","","","","",""
"","S2","","html-keyboard-response","41","161817","0.0-1.0-49.0","0","0","48284","","null","","","null","5","","NaN","","","","","","","","","","","","","",""
"","response","","html-keyboard-response","42","162290","0.0-1.0-50.0-0.0","0","0","48284","","468","","","75","5","","","1","5","training","adjacent","DC","4","3","L.jpg","M.jpg","0","0","1","",""
"","feedback","","html-keyboard-response","43","163303","0.0-1.0-51.0-0.0","0","0","48284","","null","","","null","5","","","","","","","","","","","","","","","",""
"","ITI","","html-keyboard-response","44","164309","0.0-1.0-54.0","0","0","48284","","null","","","null","5","","","","","","","","","","","","","","","NaN",""
"","S1","","html-keyboard-response","45","164575","0.0-1.0-56.0","0","0","48284","","null","","","null","6","","","","","","","","","","","","","","","",""
"","ISI","","html-keyboard-response","46","165584","0.0-1.0-57.0","0","0","48284","","null","","","null","6","NaN","","","","","","","","","","","","","","",""
"","S2","","html-keyboard-response","47","165845","0.0-1.0-58.0","0","0","48284","","null","","","null","6","","NaN","","","","","","","","","","","","","",""
"","response","","html-keyboard-response","48","165966","0.0-1.0-59.0-0.0","0","0","48284","","116","","","75","6","","","1","6","training","adjacent","GF","7","6","N.jpg","O.jpg","0","0","1","",""
"","feedback","","html-keyboard-response","49","166973","0.0-1.0-60.0-0.0","0","0","48284","","null","","","null","6","","","","","","","","","","","","","","","",""
"","ITI","","html-keyboard-response","50","167981","0.0-1.0-63.0","0","0","48284","","null","","","null","6","","","","","","","","","","","","","","","NaN",""
"","S1","","html-keyboard-response","51","168248","0.0-1.0-65.0","0","0","48284","","null","","","null","7","","","","","","","","","","","","","","","",""
"","ISI","","html-keyboard-response","52","169265","0.0-1.0-66.0","0","0","48284","","null","","","null","7","NaN","","","","","","","","","","","","","","",""
"","S2","","html-keyboard-response","53","169523","0.0-1.0-67.0","0","0","48284","","null","","","null","7","","NaN","","","","","","","","","","","","","",""
"","response","","html-keyboard-response","54","169793","0.0-1.0-68.0-0.0","0","0","48284","","266","","","68","7","","","1","7","training","adjacent","DE","4","5","L.jpg","R.jpg","1","1","1","",""
"","feedback","","html-keyboard-response","55","170808","0.0-1.0-69.0-0.0","0","0","48284","","null","","","null","7","","","","","","","","","","","","","","","",""
"","ITI","","html-keyboard-response","56","171823","0.0-1.0-72.0","0","0","48284","","null","","","null","7","","","","","","","","","","","","","","","NaN",""
"","S1","","html-keyboard-response","57","172085","0.0-1.0-74.0","0","0","48284","","null","","","null","8","","","","","","","","","","","","","","","",""
"","ISI","","html-keyboard-response","58","173096","0.0-1.0-75.0","0","0","48284","","null","","","null","8","NaN","","","","","","","","","","","","","","",""
"","S2","","html-keyboard-response","59","173356","0.0-1.0-76.0","0","0","48284","","null","","","null","8","","NaN","","","","","","","","","","","","","",""
"","response","","html-keyboard-response","60","173685","0.0-1.0-77.0-0.0","0","0","48284","","326","","","75","8","","","1","8","training","adjacent","BA","2","1","P.jpg","Q.jpg","0","0","1","",""
"","feedback","","html-keyboard-response","61","174690","0.0-1.0-78.0-0.0","0","0","48284","","null","","","null","8","","","","","","","","","","","","","","","",""
"","ITI","","html-keyboard-response","62","175702","0.0-1.0-81.0","0","0","48284","","null","","","null","8","","","","","","","","","","","","","","","NaN",""
"","S1","","html-keyboard-response","63","175965","0.0-1.0-83.0","0","0","48284","","null","","","null","9","","","","","","","","","","","","","","","",""
"","ISI","","html-keyboard-response","64","176973","0.0-1.0-84.0","0","0","48284","","null","","","null","9","NaN","","","","","","","","","","","","","","",""
"","S2","","html-keyboard-response","65","177237","0.0-1.0-85.0","0","0","48284","","null","","","null","9","","NaN","","","","","","","","","","","","","",""
"","response","","html-keyboard-response","66","177541","0.0-1.0-86.0-0.0","0","0","48284","","301","","","68","9","","","1","9","training","adjacent","FE","6","5","O.jpg","R.jpg","1","0","0","",""
"","feedback","","html-keyboard-response","67","178552","0.0-1.0-87.0-0.0","0","0","48284","","null","","","null","9","","","","","","","","","","","","","","","",""
"","time_out","","html-keyboard-response","68","180567","0.0-1.0-89.0-0.0","0","0","48284","","null","","","null","9","","","","","","","","","","","","","","","",""
"","ITI","","html-keyboard-response","69","181572","0.0-1.0-90.0","0","0","48284","","null","","","null","9","","","","","","","","","","","","","","","NaN",""
"","S1","","html-keyboard-response","70","181838","0.0-1.0-92.0","0","0","48284","","null","","","null","10","","","","","","","","","","","","","","","",""
"","ISI","","html-keyboard-response","71","182848","0.0-1.0-93.0","0","0","48284","","null","","","null","10","NaN","","","","","","","","","","","","","","",""
"","S2","","html-keyboard-response","72","183109","0.0-1.0-94.0","0","0","48284","","null","","","null","10","","NaN","","","","","","","","","","","","","",""
"","response","","html-keyboard-response","73","183547","0.0-1.0-95.0-0.0","0","0","48284","","435","","","68","10","","","1","10","training","adjacent","FG","6","7","O.jpg","N.jpg","1","1","1","",""
"","feedback","","html-keyboard-response","74","184560","0.0-1.0-96.0-0.0","0","0","48284","","null","","","null","10","","","","","","","","","","","","","","","",""
"","ITI","","html-keyboard-response","75","185576","0.0-1.0-99.0","0","0","48284","","null","","","null","10","","","","","","","","","","","","","","","NaN",""
"","S1","","html-keyboard-response","76","185837","0.0-1.0-101.0","0","0","48284","","null","","","null","11","","","","","","","","","","","","","","","",""
"","ISI","","html-keyboard-response","77","186847","0.0-1.0-102.0","0","0","48284","","null","","","null","11","NaN","","","","","","","","","","","","","","",""
"","S2","","html-keyboard-response","78","187108","0.0-1.0-103.0","0","0","48284","","null","","","null","11","","NaN","","","","","","","","","","","","","",""
"","response","","html-keyboard-response","79","187436","0.0-1.0-104.0-0.0","0","0","48284","","323","","","75","11","","","1","11","training","adjacent","BA","2","1","P.jpg","Q.jpg","0","0","1","",""
"","feedback","","html-keyboard-response","80","188444","0.0-1.0-105.0-0.0","0","0","48284","","null","","","null","11","","","","","","","","","","","","","","","",""
"","ITI","","html-keyboard-response","81","189454","0.0-1.0-108.0","0","0","48284","","null","","","null","11","","","","","","","","","","","","","","","NaN",""
"","S1","","html-keyboard-response","82","189716","0.0-1.0-110.0","0","0","48284","","null","","","null","12","","","","","","","","","","","","","","","",""
"","ISI","","html-keyboard-response","83","190724","0.0-1.0-111.0","0","0","48284","","null","","","null","12","NaN","","","","","","","","","","","","","","",""
"","S2","","html-keyboard-response","84","190979","0.0-1.0-112.0","0","0","48284","","null","","","null","12","","NaN","","","","","","","","","","","","","",""
"","response","","html-keyboard-response","85","191311","0.0-1.0-113.0-0.0","0","0","48284","","328","","","75","12","","","1","12","training","adjacent","CD","3","4","M.jpg","L.jpg","0","1","0","",""
"","feedback","","html-keyboard-response","86","192327","0.0-1.0-114.0-0.0","0","0","48284","","null","","","null","12","","","","","","","","","","","","","","","",""
"","time_out","","html-keyboard-response","87","194342","0.0-1.0-116.0-0.0","0","0","48284","","null","","","null","12","","","","","","","","","","","","","","","",""
"","ITI","","html-keyboard-response","88","195352","0.0-1.0-117.0","0","0","48284","","null","","","null","12","","","","","","","","","","","","","","","NaN",""
"","S1","","html-keyboard-response","89","195612","0.0-1.0-119.0","0","0","48284","","null","","","null","13","","","","","","","","","","","","","","","",""
"","ISI","","html-keyboard-response","90","196623","0.0-1.0-120.0","0","0","48284","","null","","","null","13","NaN","","","","","","","","","","","","","","",""
"","S2","","html-keyboard-response","91","196884","0.0-1.0-121.0","0","0","48284","","null","","","null","13","","NaN","","","","","","","","","","","","","",""
"","response","","html-keyboard-response","92","197290","0.0-1.0-122.0-0.0","0","0","48284","","401","","","68","13","","","1","13","training","adjacent","AB","1","2","Q.jpg","P.jpg","1","1","1","",""
"","feedback","","html-keyboard-response","93","198299","0.0-1.0-123.0-0.0","0","0","48284","","null","","","null","13","","","","","","","","","","","","","","","",""
"","ITI","","html-keyboard-response","94","199305","0.0-1.0-126.0","0","0","48284","","null","","","null","13","","","","","","","","","","","","","","","NaN",""
"","S1","","html-keyboard-response","95","199566","0.0-1.0-128.0","0","0","48284","","null","","","null","14","","","","","","","","","","","","","","","",""
"","ISI","","html-keyboard-response","96","200575","0.0-1.0-129.0","0","0","48284","","null","","","null","14","NaN","","","","","","","","","","","","","","",""
"","S2","","html-keyboard-response","97","200837","0.0-1.0-130.0","0","0","48284","","null","","","null","14","","NaN","","","","","","","","","","","","","",""
"","response","","html-keyboard-response","98","201209","0.0-1.0-131.0-0.0","0","0","48284","","369","","","68","14","","","1","14","training","adjacent","FE","6","5","O.jpg","R.jpg","1","0","0","",""
"","feedback","","html-keyboard-response","99","202220","0.0-1.0-132.0-0.0","0","0","48284","","null","","","null","14","","","","","","","","","","","","","","","",""
"","time_out","","html-keyboard-response","100","204226","0.0-1.0-134.0-0.0","0","0","48284","","null","","","null","14","","","","","","","","","","","","","","","",""
"","ITI","","html-keyboard-response","101","205238","0.0-1.0-135.0","0","0","48284","","null","","","null","14","","","","","","","","","","","","","","","NaN",""
"","S1","","html-keyboard-response","102","205500","0.0-1.0-137.0","0","0","48284","","null","","","null","15","","","","","","","","","","","","","","","",""
"","ISI","","html-keyboard-response","103","206508","0.0-1.0-138.0","0","0","48284","","null","","","null","15","NaN","","","","","","","","","","","","","","",""
"","S2","","html-keyboard-response","104","206775","0.0-1.0-139.0","0","0","48284","","null","","","null","15","","NaN","","","","","","","","","","","","","",""
"","response","","html-keyboard-response","105","206861","0.0-1.0-140.0-0.0","0","0","48284","","81","","","75","15","","","1","15","training","adjacent","FE","6","5","O.jpg","R.jpg","0","0","1","",""
"","feedback","","html-keyboard-response","106","207878","0.0-1.0-141.0-0.0","0","0","48284","","null","","","null","15","","","","","","","","","","","","","","","",""
"","ITI","","html-keyboard-response","107","208894","0.0-1.0-144.0","0","0","48284","","null","","","null","15","","","","","","","","","","","","","","","NaN",""
"","S1","","html-keyboard-response","108","209155","0.0-1.0-146.0","0","0","48284","","null","","","null","16","","","","","","","","","","","","","","","",""
"","ISI","","html-keyboard-response","109","210165","0.0-1.0-147.0","0","0","48284","","null","","","null","16","NaN","","","","","","","","","","","","","","",""
"","S2","","html-keyboard-response","110","210427","0.0-1.0-148.0","0","0","48284","","null","","","null","16","","NaN","","","","","","","","","","","","","",""
"","response","","html-keyboard-response","111","210510","0.0-1.0-149.0-0.0","0","0","48284","","80","","","68","16","","","1","16","training","adjacent","DE","4","5","L.jpg","R.jpg","1","1","1","",""
"","feedback","","html-keyboard-response","112","211524","0.0-1.0-150.0-0.0","0","0","48284","","null","","","null","16","","","","","","","","","","","","","","","",""
"","ITI","","html-keyboard-response","113","212533","0.0-1.0-153.0","0","0","48284","","null","","","null","16","","","","","","","","","","","","","","","NaN",""
"","S1","","html-keyboard-response","114","212794","0.0-1.0-155.0","0","0","48284","","null","","","null","17","","","","","","","","","","","","","","","",""
"","ISI","","html-keyboard-response","115","213805","0.0-1.0-156.0","0","0","48284","","null","","","null","17","NaN","","","","","","","","","","","","","","",""
"","S2","","html-keyboard-response","116","214067","0.0-1.0-157.0","0","0","48284","","null","","","null","17","","NaN","","","","","","","","","","","","","",""
"","response","","html-keyboard-response","117","214104","0.0-1.0-158.0-0.0","0","0","48284","","34","","","75","17","","","1","17","training","adjacent","CD","3","4","M.jpg","L.jpg","0","1","0","",""
"","feedback","","html-keyboard-response","118","215115","0.0-1.0-159.0-0.0","0","0","48284","","null","","","null","17","","","","","","","","","","","","","","","",""
"","time_out","","html-keyboard-response","119","217125","0.0-1.0-161.0-0.0","0","0","48284","","null","","","null","17","","","","","","","","","","","","","","","",""
"","ITI","","html-keyboard-response","120","218135","0.0-1.0-162.0","0","0","48284","","null","","","null","17","","","","","","","","","","","","","","","NaN",""
"","S1","","html-keyboard-response","121","218396","0.0-1.0-164.0","0","0","48284","","null","","","null","18","","","","","","","","","","","","","","","",""
"","ISI","","html-keyboard-response","122","219407","0.0-1.0-165.0","0","0","48284","","null","","","null","18","NaN","","","","","","","","","","","","","","",""
"","S2","","html-keyboard-response","123","219667","0.0-1.0-166.0","0","0","48284","","null","","","null","18","","NaN","","","","","","","","","","","","","",""
"","response","","html-keyboard-response","124","220069","0.0-1.0-167.0-0.0","0","0","48284","","399","","","75","18","","","1","18","training","adjacent","CD","3","4","M.jpg","L.jpg","0","1","0","",""
"","feedback","","html-keyboard-response","125","221085","0.0-1.0-168.0-0.0","0","0","48284","","null","","","null","18","","","","","","","","","","","","","","","",""
"","time_out","","html-keyboard-response","126","223092","0.0-1.0-170.0-0.0","0","0","48284","","null","","","null","18","","","","","","","","","","","","","","","",""
"","ITI","","html-keyboard-response","127","224102","0.0-1.0-171.0","0","0","48284","","null","","","null","18","","","","","","","","","","","","","","","NaN",""
"","S1","","html-keyboard-response","128","224363","0.0-1.0-173.0","0","0","48284","","null","","","null","19","","","","","","","","","","","","","","","",""
"","ISI","","html-keyboard-response","129","225374","0.0-1.0-174.0","0","0","48284","","null","","","null","19","NaN","","","","","","","","","","","","","","",""
"","S2","","html-keyboard-response","130","225635","0.0-1.0-175.0","0","0","48284","","null","","","null","19","","NaN","","","","","","","","","","","","","",""
"","response","","html-keyboard-response","131","225906","0.0-1.0-176.0-0.0","0","0","48284","","267","","","75","19","","","1","19","training","adjacent","CB","3","2","M.jpg","P.jpg","0","0","1","",""
"","feedback","","html-keyboard-response","132","226918","0.0-1.0-177.0-0.0","0","0","48284","","null","","","null","19","","","","","","","","","","","","","","","",""
"","ITI","","html-keyboard-response","133","227934","0.0-1.0-180.0","0","0","48284","","null","","","null","19","","","","","","","","","","","","","","","NaN",""
"","S1","","html-keyboard-response","134","228193","0.0-1.0-182.0","0","0","48284","","null","","","null","20","","","","","","","","","","","","","","","",""
"","ISI","","html-keyboard-response","135","229205","0.0-1.0-183.0","0","0","48284","","null","","","null","20","NaN","","","","","","","","","","","","","","",""
"","S2","","html-keyboard-response","136","229467","0.0-1.0-184.0","0","0","48284","","null","","","null","20","","NaN","","","","","","","","","","","","","",""
"","response","","html-keyboard-response","137","229471","0.0-1.0-185.0-0.0","0","0","48284","","2","","","75","20","","","1","20","training","adjacent","ED","5","4","R.jpg","L.jpg","0","0","1","",""
"","feedback","","html-keyboard-response","138","230481","0.0-1.0-186.0-0.0","0","0","48284","","null","","","null","20","","","","","","","","","","","","","","","",""
"","ITI","","html-keyboard-response","139","231491","0.0-1.0-189.0","0","0","48284","","null","","","null","20","","","","","","","","","","","","","","","NaN",""
"","S1","","html-keyboard-response","140","231755","0.0-1.0-191.0","0","0","48284","","null","","","null","21","","","","","","","","","","","","","","","",""
"","ISI","","html-keyboard-response","141","232763","0.0-1.0-192.0","0","0","48284","","null","","","null","21","NaN","","","","","","","","","","","","","","",""
"","S2","","html-keyboard-response","142","233030","0.0-1.0-193.0","0","0","48284","","null","","","null","21","","NaN","","","","","","","","","","","","","",""
"","response","","html-keyboard-response","143","233322","0.0-1.0-194.0-0.0","0","0","48284","","287","","","75","21","","","1","21","training","adjacent","GF","7","6","N.jpg","O.jpg","0","0","1","",""
"","feedback","","html-keyboard-response","144","234331","0.0-1.0-195.0-0.0","0","0","48284","","null","","","null","21","","","","","","","","","","","","","","","",""
"","ITI","","html-keyboard-response","145","235341","0.0-1.0-198.0","0","0","48284","","null","","","null","21","","","","","","","","","","","","","","","NaN",""
"","S1","","html-keyboard-response","146","235602","0.0-1.0-200.0","0","0","48284","","null","","","null","22","","","","","","","","","","","","","","","",""
"","ISI","","html-keyboard-response","147","236612","0.0-1.0-201.0","0","0","48284","","null","","","null","22","NaN","","","","","","","","","","","","","","",""
"","S2","","html-keyboard-response","148","236875","0.0-1.0-202.0","0","0","48284","","null","","","null","22","","NaN","","","","","","","","","","","","","",""
"","response","","html-keyboard-response","149","237121","0.0-1.0-203.0-0.0","0","0","48284","","241","","","68","22","","","1","22","training","adjacent","FE","6","5","O.jpg","R.jpg","1","0","0","",""
"","feedback","","html-keyboard-response","150","238133","0.0-1.0-204.0-0.0","0","0","48284","","null","","","null","22","","","","","","","","","","","","","","","",""
"","time_out","","html-keyboard-response","151","240141","0.0-1.0-206.0-0.0","0","0","48284","","null","","","null","22","","","","","","","","","","","","","","","",""
"","ITI","","html-keyboard-response","152","241157","0.0-1.0-207.0","0","0","48284","","null","","","null","22","","","","","","","","","","","","","","","NaN",""
"","S1","","html-keyboard-response","153","241418","0.0-1.0-209.0","0","0","48284","","null","","","null","23","","","","","","","","","","","","","","","",""
"","ISI","","html-keyboard-response","154","242438","0.0-1.0-210.0","0","0","48284","","null","","","null","23","NaN","","","","","","","","","","","","","","",""
"","S2","","html-keyboard-response","155","242701","0.0-1.0-211.0","0","0","48284","","null","","","null","23","","NaN","","","","","","","","","","","","","",""
"","response","","html-keyboard-response","156","242957","0.0-1.0-212.0-0.0","0","0","48284","","252","","","75","23","","","1","23","training","adjacent","CB","3","2","M.jpg","P.jpg","0","0","1","",""
"","feedback","","html-keyboard-response","157","243972","0.0-1.0-213.0-0.0","0","0","48284","","null","","","null","23","","","","","","","","","","","","","","","",""
"","ITI","","html-keyboard-response","158","244979","0.0-1.0-216.0","0","0","48284","","null","","","null","23","","","","","","","","","","","","","","","NaN",""
"","S1","","html-keyboard-response","159","245244","0.0-1.0-218.0","0","0","48284","","null","","","null","24","","","","","","","","","","","","","","","",""
"","ISI","","html-keyboard-response","160","246253","0.0-1.0-219.0","0","0","48284","","null","","","null","24","NaN","","","","","","","","","","","","","","",""
"","S2","","html-keyboard-response","161","246514","0.0-1.0-220.0","0","0","48284","","null","","","null","24","","NaN","","","","","","","","","","","","","",""
"","response","","html-keyboard-response","162","246839","0.0-1.0-221.0-0.0","0","0","48284","","320","","","68","24","","","1","24","training","adjacent","EF","5","6","R.jpg","O.jpg","1","1","1","",""
"","feedback","","html-keyboard-response","163","247850","0.0-1.0-222.0-0.0","0","0","48284","","null","","","null","24","","","","","","","","","","","","","","","",""
"","ITI","","html-keyboard-response","164","248860","0.0-1.0-225.0","0","0","48284","","null","","","null","24","","","","","","","","","","","","","","","NaN",""
"","S1","","html-keyboard-response","165","249121","0.0-1.0-227.0","0","0","48284","","null","","","null","25","","","","","","","","","","","","","","","",""
"","ISI","","html-keyboard-response","166","250130","0.0-1.0-228.0","0","0","48284","","null","","","null","25","NaN","","","","","","","","","","","","","","",""
"","S2","","html-keyboard-response","167","250394","0.0-1.0-229.0","0","0","48284","","null","","","null","25","","NaN","","","","","","","","","","","","","",""
"","response","","html-keyboard-response","168","250408","0.0-1.0-230.0-0.0","0","0","48284","","11","","","75","25","","","1","25","training","adjacent","ED","5","4","R.jpg","L.jpg","0","0","1","",""
"","feedback","","html-keyboard-response","169","251420","0.0-1.0-231.0-0.0","0","0","48284","","null","","","null","25","","","","","","","","","","","","","","","",""
"","ITI","","html-keyboard-response","170","252436","0.0-1.0-234.0","0","0","48284","","null","","","null","25","","","","","","","","","","","","","","","NaN",""
"","S1","","html-keyboard-response","171","252698","0.0-1.0-236.0","0","0","48284","","null","","","null","26","","","","","","","","","","","","","","","",""
"","ISI","","html-keyboard-response","172","253707","0.0-1.0-237.0","0","0","48284","","null","","","null","26","NaN","","","","","","","","","","","","","","",""
"","S2","","html-keyboard-response","173","253974","0.0-1.0-238.0","0","0","48284","","null","","","null","26","","NaN","","","","","","","","","","","","","",""
"","response","","html-keyboard-response","174","254228","0.0-1.0-239.0-0.0","0","0","48284","","249","","","68","26","","","1","26","training","adjacent","BC","2","3","P.jpg","M.jpg","1","1","1","",""
"","feedback","","html-keyboard-response","175","255232","0.0-1.0-240.0-0.0","0","0","48284","","null","","","null","26","","","","","","","","","","","","","","","",""
"","ITI","","html-keyboard-response","176","256244","0.0-1.0-243.0","0","0","48284","","null","","","null","26","","","","","","","","","","","","","","","NaN",""
"","S1","","html-keyboard-response","177","256502","0.0-1.0-245.0","0","0","48284","","null","","","null","27","","","","","","","","","","","","","","","",""
"","ISI","","html-keyboard-response","178","257516","0.0-1.0-246.0","0","0","48284","","null","","","null","27","NaN","","","","","","","","","","","","","","",""
"","S2","","html-keyboard-response","179","257782","0.0-1.0-247.0","0","0","48284","","null","","","null","27","","NaN","","","","","","","","","","","","","",""
"","response","","html-keyboard-response","180","257787","0.0-1.0-248.0-0.0","0","0","48284","","2","","","75","27","","","1","27","training","adjacent","BC","2","3","P.jpg","M.jpg","0","1","0","",""
"","feedback","","html-keyboard-response","181","258798","0.0-1.0-249.0-0.0","0","0","48284","","null","","","null","27","","","","","","","","","","","","","","","",""
"","time_out","","html-keyboard-response","182","260812","0.0-1.0-251.0-0.0","0","0","48284","","null","","","null","27","","","","","","","","","","","","","","","",""
"","ITI","","html-keyboard-response","183","261828","0.0-1.0-252.0","0","0","48284","","null","","","null","27","","","","","","","","","","","","","","","NaN",""
"","S1","","html-keyboard-response","184","262089","0.0-1.0-254.0","0","0","48284","","null","","","null","28","","","","","","","","","","","","","","","",""
"","ISI","","html-keyboard-response","185","263099","0.0-1.0-255.0","0","0","48284","","null","","","null","28","NaN","","","","","","","","","","","","","","",""
"","S2","","html-keyboard-response","186","263361","0.0-1.0-256.0","0","0","48284","","null","","","null","28","","NaN","","","","","","","","","","","","","",""
"","response","","html-keyboard-response","187","263534","0.0-1.0-257.0-0.0","0","0","48284","","168","","","68","28","","","1","28","training","adjacent","DC","4","3","L.jpg","M.jpg","1","0","0","",""
"","feedback","","html-keyboard-response","188","264543","0.0-1.0-258.0-0.0","0","0","48284","","null","","","null","28","","","","","","","","","","","","","","","",""
"","time_out","","html-keyboard-response","189","266553","0.0-1.0-260.0-0.0","0","0","48284","","null","","","null","28","","","","","","","","","","","","","","","",""
"","ITI","","html-keyboard-response","190","267561","0.0-1.0-261.0","0","0","48284","","null","","","null","28","","","","","","","","","","","","","","","NaN",""
"","S1","","html-keyboard-response","191","267826","0.0-1.0-263.0","0","0","48284","","null","","","null","29","","","","","","","","","","","","","","","",""
"","ISI","","html-keyboard-response","192","268834","0.0-1.0-264.0","0","0","48284","","null","","","null","29","NaN","","","","","","","","","","","","","","",""
"","S2","","html-keyboard-response","193","269101","0.0-1.0-265.0","0","0","48284","","null","","","null","29","","NaN","","","","","","","","","","","","","",""
"","response","","html-keyboard-response","194","269190","0.0-1.0-266.0-0.0","0","0","48284","","86","","","68","29","","","1","29","training","adjacent","FG","6","7","O.jpg","N.jpg","1","1","1","",""
"","feedback","","html-keyboard-response","195","270204","0.0-1.0-267.0-0.0","0","0","48284","","null","","","null","29","","","","","","","","","","","","","","","",""
"","ITI","","html-keyboard-response","196","271220","0.0-1.0-270.0","0","0","48284","","null","","","null","29","","","","","","","","","","","","","","","NaN",""
"","S1","","html-keyboard-response","197","271482","0.0-1.0-272.0","0","0","48284","","null","","","null","30","","","","","","","","","","","","","","","",""
"","ISI","","html-keyboard-response","198","272492","0.0-1.0-273.0","0","0","48284","","null","","","null","30","NaN","","","","","","","","","","","","","","",""
"","S2","","html-keyboard-response","199","272750","0.0-1.0-274.0","0","0","48284","","null","","","null","30","","NaN","","","","","","","","","","","","","",""
"","response","","html-keyboard-response","200","273040","0.0-1.0-275.0-0.0","0","0","48284","","286","","","68","30","","","1","30","training","adjacent","AB","1","2","Q.jpg","P.jpg","1","1","1","",""
"","feedback","","html-keyboard-response","201","274053","0.0-1.0-276.0-0.0","0","0","48284","","null","","","null","30","","","","","","","","","","","","","","","",""
"","ITI","","html-keyboard-response","202","275069","0.0-1.0-279.0","0","0","48284","","null","","","null","30","","","","","","","","","","","","","","","NaN",""
"","S1","","html-keyboard-response","203","275330","0.0-1.0-281.0","0","0","48284","","null","","","null","31","","","","","","","","","","","","","","","",""
"","ISI","","html-keyboard-response","204","276340","0.0-1.0-282.0","0","0","48284","","null","","","null","31","NaN","","","","","","","","","","","","","","",""
"","S2","","html-keyboard-response","205","276599","0.0-1.0-283.0","0","0","48284","","null","","","null","31","","NaN","","","","","","","","","","","","","",""
"","response","","html-keyboard-response","206","276867","0.0-1.0-284.0-0.0","0","0","48284","","265","","","68","31","","","1","31","training","adjacent","FG","6","7","O.jpg","N.jpg","1","1","1","",""
"","feedback","","html-keyboard-response","207","277874","0.0-1.0-285.0-0.0","0","0","48284","","null","","","null","31","","","","","","","","","","","","","","","",""
"","ITI","","html-keyboard-response","208","278883","0.0-1.0-288.0","0","0","48284","","null","","","null","31","","","","","","","","","","","","","","","NaN",""
"","S1","","html-keyboard-response","209","279146","0.0-1.0-290.0","0","0","48284","","null","","","null","32","","","","","","","","","","","","","","","",""
"","ISI","","html-keyboard-response","210","280154","0.0-1.0-291.0","0","0","48284","","null","","","null","32","NaN","","","","","","","","","","","","","","",""
"","S2","","html-keyboard-response","211","280421","0.0-1.0-292.0","0","0","48284","","null","","","null","32","","NaN","","","","","","","","","","","","","",""
"","response","","html-keyboard-response","212","281033","0.0-1.0-293.0-0.0","0","0","48284","","607","","","75","32","","","1","32","training","adjacent","CB","3","2","M.jpg","P.jpg","0","0","1","",""
"","feedback","","html-keyboard-response","213","282040","0.0-1.0-294.0-0.0","0","0","48284","","null","","","null","32","","","","","","","","","","","","","","","",""
"","ITI","","html-keyboard-response","214","283050","0.0-1.0-297.0","0","0","48284","","null","","","null","32","","","","","","","","","","","","","","","NaN",""
"","S1","","html-keyboard-response","215","283314","0.0-1.0-299.0","0","0","48284","","null","","","null","33","","","","","","","","","","","","","","","",""
"","ISI","","html-keyboard-response","216","284321","0.0-1.0-300.0","0","0","48284","","null","","","null","33","NaN","","","","","","","","","","","","","","",""
"","S2","","html-keyboard-response","217","284577","0.0-1.0-301.0","0","0","48284","","null","","","null","33","","NaN","","","","","","","","","","","","","",""
"","response","","html-keyboard-response","218","284992","0.0-1.0-302.0-0.0","0","0","48284","","410","","","75","33","","","1","33","training","adjacent","CB","3","2","M.jpg","P.jpg","0","0","1","",""
"","feedback","","html-keyboard-response","219","286005","0.0-1.0-303.0-0.0","0","0","48284","","null","","","null","33","","","","","","","","","","","","","","","",""
"","ITI","","html-keyboard-response","220","287021","0.0-1.0-306.0","0","0","48284","","null","","","null","33","","","","","","","","","","","","","","","NaN",""
"","S1","","html-keyboard-response","221","287282","0.0-1.0-308.0","0","0","48284","","null","","","null","34","","","","","","","","","","","","","","","",""
"","ISI","","html-keyboard-response","222","288292","0.0-1.0-309.0","0","0","48284","","null","","","null","34","NaN","","","","","","","","","","","","","","",""
"","S2","","html-keyboard-response","223","288553","0.0-1.0-310.0","0","0","48284","","null","","","null","34","","NaN","","","","","","","","","","","","","",""
"","response","","html-keyboard-response","224","288637","0.0-1.0-311.0-0.0","0","0","48284","","80","","","75","34","","","1","34","training","adjacent","EF","5","6","R.jpg","O.jpg","0","1","0","",""
"","feedback","","html-keyboard-response","225","289645","0.0-1.0-312.0-0.0","0","0","48284","","null","","","null","34","","","","","","","","","","","","","","","",""
"","time_out","","html-keyboard-response","226","291649","0.0-1.0-314.0-0.0","0","0","48284","","null","","","null","34","","","","","","","","","","","","","","","",""
"","ITI","","html-keyboard-response","227","292657","0.0-1.0-315.0","0","0","48284","","null","","","null","34","","","","","","","","","","","","","","","NaN",""
"","S1","","html-keyboard-response","228","292924","0.0-1.0-317.0","0","0","48284","","null","","","null","35","","","","","","","","","","","","","","","",""
"","ISI","","html-keyboard-response","229","293940","0.0-1.0-318.0","0","0","48284","","null","","","null","35","NaN","","","","","","","","","","","","","","",""
"","S2","","html-keyboard-response","230","294201","0.0-1.0-319.0","0","0","48284","","null","","","null","35","","NaN","","","","","","","","","","","","","",""
"","response","","html-keyboard-response","231","294313","0.0-1.0-320.0-0.0","0","0","48284","","108","","","68","35","","","1","35","training","adjacent","AB","1","2","Q.jpg","P.jpg","1","1","1","",""
"","feedback","","html-keyboard-response","232","295321","0.0-1.0-321.0-0.0","0","0","48284","","null","","","null","35","","","","","","","","","","","","","","","",""
"","ITI","","html-keyboard-response","233","296332","0.0-1.0-324.0","0","0","48284","","null","","","null","35","","","","","","","","","","","","","","","NaN",""
"","S1","","html-keyboard-response","234","296593","0.0-1.0-326.0","0","0","48284","","null","","","null","36","","","","","","","","","","","","","","","",""
"","ISI","","html-keyboard-response","235","297603","0.0-1.0-327.0","0","0","48284","","null","","","null","36","NaN","","","","","","","","","","","","","","",""
"","S2","","html-keyboard-response","236","297864","0.0-1.0-328.0","0","0","48284","","null","","","null","36","","NaN","","","","","","","","","","","","","",""
"","response","","html-keyboard-response","237","297999","0.0-1.0-329.0-0.0","0","0","48284","","130","","","75","36","","","1","36","training","adjacent","GF","7","6","N.jpg","O.jpg","0","0","1","",""
"","feedback","","html-keyboard-response","238","299008","0.0-1.0-330.0-0.0","0","0","48284","","null","","","null","36","","","","","","","","","","","","","","","",""
"","ITI","","html-keyboard-response","239","300018","0.0-1.0-333.0","0","0","48284","","null","","","null","36","","","","","","","","","","","","","","","NaN",""
"","S1","","html-keyboard-response","240","300281","0.0-1.0-335.0","0","0","48284","","null","","","null","37","","","","","","","","","","","","","","","",""
"","ISI","","html-keyboard-response","241","301289","0.0-1.0-336.0","0","0","48284","","null","","","null","37","NaN","","","","","","","","","","","","","","",""
"","S2","","html-keyboard-response","242","301557","0.0-1.0-337.0","0","0","48284","","null","","","null","37","","NaN","","","","","","","","","","","","","",""
"","response","","html-keyboard-response","243","301852","0.0-1.0-338.0-0.0","0","0","48284","","292","","","75","37","","","1","37","training","adjacent","ED","5","4","R.jpg","L.jpg","0","0","1","",""
"","feedback","","html-keyboard-response","244","302868","0.0-1.0-339.0-0.0","0","0","48284","","null","","","null","37","","","","","","","","","","","","","","","",""
"","ITI","","html-keyboard-response","245","303884","0.0-1.0-342.0","0","0","48284","","null","","","null","37","","","","","","","","","","","","","","","NaN",""
"","S1","","html-keyboard-response","246","304145","0.0-1.0-344.0","0","0","48284","","null","","","null","38","","","","","","","","","","","","","","","",""
"","ISI","","html-keyboard-response","247","305154","0.0-1.0-345.0","0","0","48284","","null","","","null","38","NaN","","","","","","","","","","","","","","",""
"","S2","","html-keyboard-response","248","305416","0.0-1.0-346.0","0","0","48284","","null","","","null","38","","NaN","","","","","","","","","","","","","",""
"","response","","html-keyboard-response","249","305688","0.0-1.0-347.0-0.0","0","0","48284","","267","","","75","38","","","1","38","training","adjacent","EF","5","6","R.jpg","O.jpg","0","1","0","",""
"","feedback","","html-keyboard-response","250","306699","0.0-1.0-348.0-0.0","0","0","48284","","null","","","null","38","","","","","","","","","","","","","","","",""
"","time_out","","html-keyboard-response","251","308714","0.0-1.0-350.0-0.0","0","0","48284","","null","","","null","38","","","","","","","","","","","","","","","",""
"","ITI","","html-keyboard-response","252","309723","0.0-1.0-351.0","0","0","48284","","null","","","null","38","","","","","","","","","","","","","","","NaN",""
"","S1","","html-keyboard-response","253","309985","0.0-1.0-353.0","0","0","48284","","null","","","null","39","","","","","","","","","","","","","","","",""
"","ISI","","html-keyboard-response","254","310995","0.0-1.0-354.0","0","0","48284","","null","","","null","39","NaN","","","","","","","","","","","","","","",""
"","S2","","html-keyboard-response","255","311256","0.0-1.0-355.0","0","0","48284","","null","","","null","39","","NaN","","","","","","","","","","","","","",""
"","response","","html-keyboard-response","256","311428","0.0-1.0-356.0-0.0","0","0","48284","","167","","","68","39","","","1","39","training","adjacent","EF","5","6","R.jpg","O.jpg","1","1","1","",""
"","feedback","","html-keyboard-response","257","312439","0.0-1.0-357.0-0.0","0","0","48284","","null","","","null","39","","","","","","","","","","","","","","","",""
"","ITI","","html-keyboard-response","258","313450","0.0-1.0-360.0","0","0","48284","","null","","","null","39","","","","","","","","","","","","","","","NaN",""
"","S1","","html-keyboard-response","259","313712","0.0-1.0-362.0","0","0","48284","","null","","","null","40","","","","","","","","","","","","","","","",""
"","ISI","","html-keyboard-response","260","314722","0.0-1.0-363.0","0","0","48284","","null","","","null","40","NaN","","","","","","","","","","","","","","",""
"","S2","","html-keyboard-response","261","314985","0.0-1.0-364.0","0","0","48284","","null","","","null","40","","NaN","","","","","","","","","","","","","",""
"","response","","html-keyboard-response","262","315318","0.0-1.0-365.0-0.0","0","0","48284","","329","","","75","40","","","1","40","training","adjacent","ED","5","4","R.jpg","L.jpg","0","0","1","",""
"","feedback","","html-keyboard-response","263","316330","0.0-1.0-366.0-0.0","0","0","48284","","null","","","null","40","","","","","","","","","","","","","","","",""
"","ITI","","html-keyboard-response","264","317339","0.0-1.0-369.0","0","0","48284","","null","","","null","40","","","","","","","","","","","","","","","NaN",""
"","S1","","html-keyboard-response","265","317600","0.0-1.0-371.0","0","0","48284","","null","","","null","41","","","","","","","","","","","","","","","",""
"","ISI","","html-keyboard-response","266","318611","0.0-1.0-372.0","0","0","48284","","null","","","null","41","NaN","","","","","","","","","","","","","","",""
"","S2","","html-keyboard-response","267","318871","0.0-1.0-373.0","0","0","48284","","null","","","null","41","","NaN","","","","","","","","","","","","","",""
"","response","","html-keyboard-response","268","319092","0.0-1.0-374.0-0.0","0","0","48284","","216","","","75","41","","","1","41","training","adjacent","BA","2","1","P.jpg","Q.jpg","0","0","1","",""
"","feedback","","html-keyboard-response","269","320105","0.0-1.0-375.0-0.0","0","0","48284","","null","","","null","41","","","","","","","","","","","","","","","",""
"","ITI","","html-keyboard-response","270","321110","0.0-1.0-378.0","0","0","48284","","null","","","null","41","","","","","","","","","","","","","","","NaN",""
"","S1","","html-keyboard-response","271","321368","0.0-1.0-380.0","0","0","48284","","null","","","null","42","","","","","","","","","","","","","","","",""
"","ISI","","html-keyboard-response","272","322378","0.0-1.0-381.0","0","0","48284","","null","","","null","42","NaN","","","","","","","","","","","","","","",""
"","S2","","html-keyboard-response","273","322639","0.0-1.0-382.0","0","0","48284","","null","","","null","42","","NaN","","","","","","","","","","","","","",""
"","response","","html-keyboard-response","274","322913","0.0-1.0-383.0-0.0","0","0","48284","","269","","","68","42","","","1","42","training","adjacent","BC","2","3","P.jpg","M.jpg","1","1","1","",""
"","feedback","","html-keyboard-response","275","323922","0.0-1.0-384.0-0.0","0","0","48284","","null","","","null","42","","","","","","","","","","","","","","","",""
"","ITI","","html-keyboard-response","276","324925","0.0-1.0-387.0","0","0","48284","","null","","","null","42","","","","","","","","","","","","","","","NaN",""
"","S1","","html-keyboard-response","277","325187","0.0-1.0-389.0","0","0","48284","","null","","","null","43","","","","","","","","","","","","","","","",""
"","ISI","","html-keyboard-response","278","326203","0.0-1.0-390.0","0","0","48284","","null","","","null","43","NaN","","","","","","","","","","","","","","",""
"","S2","","html-keyboard-response","279","326464","0.0-1.0-391.0","0","0","48284","","null","","","null","43","","NaN","","","","","","","","","","","","","",""
"","response","","html-keyboard-response","280","326695","0.0-1.0-392.0-0.0","0","0","48284","","228","","","68","43","","","1","43","training","adjacent","FG","6","7","O.jpg","N.jpg","1","1","1","",""
"","feedback","","html-keyboard-response","281","327707","0.0-1.0-393.0-0.0","0","0","48284","","null","","","null","43","","","","","","","","","","","","","","","",""
"","ITI","","html-keyboard-response","282","328723","0.0-1.0-396.0","0","0","48284","","null","","","null","43","","","","","","","","","","","","","","","NaN",""
"","S1","","html-keyboard-response","283","328981","0.0-1.0-398.0","0","0","48284","","null","","","null","44","","","","","","","","","","","","","","","",""
"","ISI","","html-keyboard-response","284","329994","0.0-1.0-399.0","0","0","48284","","null","","","null","44","NaN","","","","","","","","","","","","","","",""
"","S2","","html-keyboard-response","285","330255","0.0-1.0-400.0","0","0","48284","","null","","","null","44","","NaN","","","","","","","","","","","","","",""
"","response","","html-keyboard-response","286","330472","0.0-1.0-401.0-0.0","0","0","48284","","213","","","75","44","","","1","44","training","adjacent","DC","4","3","L.jpg","M.jpg","0","0","1","",""
"","feedback","","html-keyboard-response","287","331480","0.0-1.0-402.0-0.0","0","0","48284","","null","","","null","44","","","","","","","","","","","","","","","",""
"","ITI","","html-keyboard-response","288","332490","0.0-1.0-405.0","0","0","48284","","null","","","null","44","","","","","","","","","","","","","","","NaN",""
"","S1","","html-keyboard-response","289","332751","0.0-1.0-407.0","0","0","48284","","null","","","null","45","","","","","","","","","","","","","","","",""
"","ISI","","html-keyboard-response","290","333762","0.0-1.0-408.0","0","0","48284","","null","","","null","45","NaN","","","","","","","","","","","","","","",""
"","S2","","html-keyboard-response","291","334024","0.0-1.0-409.0","0","0","48284","","null","","","null","45","","NaN","","","","","","","","","","","","","",""
"","response","","html-keyboard-response","292","334187","0.0-1.0-410.0-0.0","0","0","48284","","160","","","68","45","","","1","45","training","adjacent","CD","3","4","M.jpg","L.jpg","1","1","1","",""
"","feedback","","html-keyboard-response","293","335201","0.0-1.0-411.0-0.0","0","0","48284","","null","","","null","45","","","","","","","","","","","","","","","",""
"","ITI","","html-keyboard-response","294","336210","0.0-1.0-414.0","0","0","48284","","null","","","null","45","","","","","","","","","","","","","","","NaN",""
"","S1","","html-keyboard-response","295","336472","0.0-1.0-416.0","0","0","48284","","null","","","null","46","","","","","","","","","","","","","","","",""
"","ISI","","html-keyboard-response","296","337482","0.0-1.0-417.0","0","0","48284","","null","","","null","46","NaN","","","","","","","","","","","","","","",""
"","S2","","html-keyboard-response","297","337744","0.0-1.0-418.0","0","0","48284","","null","","","null","46","","NaN","","","","","","","","","","","","","",""
"","response","","html-keyboard-response","298","337907","0.0-1.0-419.0-0.0","0","0","48284","","158","","","68","46","","","1","46","training","adjacent","AB","1","2","Q.jpg","P.jpg","1","1","1","",""
"","feedback","","html-keyboard-response","299","338922","0.0-1.0-420.0-0.0","0","0","48284","","null","","","null","46","","","","","","","","","","","","","","","",""
"","ITI","","html-keyboard-response","300","339937","0.0-1.0-423.0","0","0","48284","","null","","","null","46","","","","","","","","","","","","","","","NaN",""
"","S1","","html-keyboard-response","301","340199","0.0-1.0-425.0","0","0","48284","","null","","","null","47","","","","","","","","","","","","","","","",""
"","ISI","","html-keyboard-response","302","341209","0.0-1.0-426.0","0","0","48284","","null","","","null","47","NaN","","","","","","","","","","","","","","",""
"","S2","","html-keyboard-response","303","341471","0.0-1.0-427.0","0","0","48284","","null","","","null","47","","NaN","","","","","","","","","","","","","",""
"","response","","html-keyboard-response","304","341695","0.0-1.0-428.0-0.0","0","0","48284","","220","","","68","47","","","1","47","training","adjacent","DC","4","3","L.jpg","M.jpg","1","0","0","",""
"","feedback","","html-keyboard-response","305","342705","0.0-1.0-429.0-0.0","0","0","48284","","null","","","null","47","","","","","","","","","","","","","","","",""
"","time_out","","html-keyboard-response","306","344720","0.0-1.0-431.0-0.0","0","0","48284","","null","","","null","47","","","","","","","","","","","","","","","",""
"","ITI","","html-keyboard-response","307","345731","0.0-1.0-432.0","0","0","48284","","null","","","null","47","","","","","","","","","","","","","","","NaN",""
"","block_over","","html-keyboard-response","308","352107","0.0-1.0-433.0-0.0","0","0","48284","","6370","","","32","47","","","","","","","","","","","","","","","",""
"","S1","","html-keyboard-response","309","352368","0.0-1.0-434.0","0","0","48284","","null","","","null","48","","","","","","","","","","","","","","","",""
"","ISI","","html-keyboard-response","310","353373","0.0-1.0-435.0","0","0","48284","","null","","","null","48","NaN","","","","","","","","","","","","","","",""
"","S2","","html-keyboard-response","311","353634","0.0-1.0-436.0","0","0","48284","","null","","","null","48","","NaN","","","","","","","","","","","","","",""
"","response","","html-keyboard-response","312","353819","0.0-1.0-437.0-0.0","0","0","48284","","180","","","75","48","","","2","48","training","adjacent","BC","2","3","P.jpg","M.jpg","0","1","0","",""
"","feedback","","html-keyboard-response","313","354834","0.0-1.0-438.0-0.0","0","0","48284","","null","","","null","48","","","","","","","","","","","","","","","",""
"","time_out","","html-keyboard-response","314","356847","0.0-1.0-440.0-0.0","0","0","48284","","null","","","null","48","","","","","","","","","","","","","","","",""
"","ITI","","html-keyboard-response","315","357856","0.0-1.0-441.0","0","0","48284","","null","","","null","48","","","","","","","","","","","","","","","NaN",""
"","S1","","html-keyboard-response","316","358118","0.0-1.0-443.0","0","0","48284","","null","","","null","49","","","","","","","","","","","","","","","",""
"","ISI","","html-keyboard-response","317","359129","0.0-1.0-444.0","0","0","48284","","null","","","null","49","NaN","","","","","","","","","","","","","","",""
"","S2","","html-keyboard-response","318","359391","0.0-1.0-445.0","0","0","48284","","null","","","null","49","","NaN","","","","","","","","","","","","","",""
"","response","","html-keyboard-response","319","359580","0.0-1.0-446.0-0.0","0","0","48284","","184","","","75","49","","","2","49","training","adjacent","CB","3","2","M.jpg","P.jpg","0","0","1","",""
"","feedback","","html-keyboard-response","320","360591","0.0-1.0-447.0-0.0","0","0","48284","","null","","","null","49","","","","","","","","","","","","","","","",""
"","ITI","","html-keyboard-response","321","361600","0.0-1.0-450.0","0","0","48284","","null","","","null","49","","","","","","","","","","","","","","","NaN",""
"","S1","","html-keyboard-response","322","361862","0.0-1.0-452.0","0","0","48284","","null","","","null","50","","","","","","","","","","","","","","","",""
"","ISI","","html-keyboard-response","323","362873","0.0-1.0-453.0","0","0","48284","","null","","","null","50","NaN","","","","","","","","","","","","","","",""
"","S2","","html-keyboard-response","324","363135","0.0-1.0-454.0","0","0","48284","","null","","","null","50","","NaN","","","","","","","","","","","","","",""
"","response","","html-keyboard-response","325","363214","0.0-1.0-455.0-0.0","0","0","48284","","75","","","68","50","","","2","50","training","adjacent","AB","1","2","Q.jpg","P.jpg","1","1","1","",""
"","feedback","","html-keyboard-response","326","364225","0.0-1.0-456.0-0.0","0","0","48284","","null","","","null","50","","","","","","","","","","","","","","","",""
"","ITI","","html-keyboard-response","327","365241","0.0-1.0-459.0","0","0","48284","","null","","","null","50","","","","","","","","","","","","","","","NaN",""
"","S1","","html-keyboard-response","328","365502","0.0-1.0-461.0","0","0","48284","","null","","","null","51","","","","","","","","","","","","","","","",""
"","ISI","","html-keyboard-response","329","366511","0.0-1.0-462.0","0","0","48284","","null","","","null","51","NaN","","","","","","","","","","","","","","",""
"","S2","","html-keyboard-response","330","366775","0.0-1.0-463.0","0","0","48284","","null","","","null","51","","NaN","","","","","","","","","","","","","",""
"","response","","html-keyboard-response","331","367072","0.0-1.0-464.0-0.0","0","0","48284","","293","","","68","51","","","2","51","training","adjacent","DE","4","5","L.jpg","R.jpg","1","1","1","",""
"","feedback","","html-keyboard-response","332","368079","0.0-1.0-465.0-0.0","0","0","48284","","null","","","null","51","","","","","","","","","","","","","","","",""
"","ITI","","html-keyboard-response","333","369089","0.0-1.0-468.0","0","0","48284","","null","","","null","51","","","","","","","","","","","","","","","NaN",""
"","S1","","html-keyboard-response","334","369350","0.0-1.0-470.0","0","0","48284","","null","","","null","52","","","","","","","","","","","","","","","",""
"","ISI","","html-keyboard-response","335","370360","0.0-1.0-471.0","0","0","48284","","null","","","null","52","NaN","","","","","","","","","","","","","","",""
"","S2","","html-keyboard-response","336","370622","0.0-1.0-472.0","0","0","48284","","null","","","null","52","","NaN","","","","","","","","","","","","","",""
"","response","","html-keyboard-response","337","370703","0.0-1.0-473.0-0.0","0","0","48284","","78","","","75","52","","","2","52","training","adjacent","ED","5","4","R.jpg","L.jpg","0","0","1","",""
"","feedback","","html-keyboard-response","338","371713","0.0-1.0-474.0-0.0","0","0","48284","","null","","","null","52","","","","","","","","","","","","","","","",""
"","ITI","","html-keyboard-response","339","372729","0.0-1.0-477.0","0","0","48284","","null","","","null","52","","","","","","","","","","","","","","","NaN",""
"","S1","","html-keyboard-response","340","372989","0.0-1.0-479.0","0","0","48284","","null","","","null","53","","","","","","","","","","","","","","","",""
"","ISI","","html-keyboard-response","341","373998","0.0-1.0-480.0","0","0","48284","","580","","","68","53","d","","","","","","","","","","","","","","",""
"","S2","","html-keyboard-response","342","374263","0.0-1.0-481.0","0","0","48284","","null","","","null","53","","NaN","","","","","","","","","","","","","",""
"","response","","html-keyboard-response","343","374640","0.0-1.0-482.0-0.0","0","0","48284","","374","","","68","53","","","2","53","training","adjacent","FE","6","5","O.jpg","R.jpg","1","0","0","",""
"","feedback","","html-keyboard-response","344","375649","0.0-1.0-483.0-0.0","0","0","48284","","null","","","null","53","","","","","","","","","","","","","","","",""
"","time_out","","html-keyboard-response","345","377662","0.0-1.0-485.0-0.0","0","0","48284","","null","","","null","53","","","","","","","","","","","","","","","",""
"","ITI","","html-keyboard-response","346","378673","0.0-1.0-486.0","0","0","48284","","null","","","null","53","","","","","","","","","","","","","","","NaN",""
"","S1","","html-keyboard-response","347","378934","0.0-1.0-488.0","0","0","48284","","null","","","null","54","","","","","","","","","","","","","","","",""
"","ISI","","html-keyboard-response","348","379944","0.0-1.0-489.0","0","0","48284","","null","","","null","54","NaN","","","","","","","","","","","","","","",""
"","S2","","html-keyboard-response","349","380206","0.0-1.0-490.0","0","0","48284","","null","","","null","54","","NaN","","","","","","","","","","","","","",""
"","response","","html-keyboard-response","350","380508","0.0-1.0-491.0-0.0","0","0","48284","","298","","","68","54","","","2","54","training","adjacent","FG","6","7","O.jpg","N.jpg","1","1","1","",""
"","feedback","","html-keyboard-response","351","381517","0.0-1.0-492.0-0.0","0","0","48284","","null","","","null","54","","","","","","","","","","","","","","","",""
"","ITI","","html-keyboard-response","352","382527","0.0-1.0-495.0","0","0","48284","","null","","","null","54","","","","","","","","","","","","","","","NaN",""
"","S1","","html-keyboard-response","353","382790","0.0-1.0-497.0","0","0","48284","","null","","","null","55","","","","","","","","","","","","","","","",""
"","ISI","","html-keyboard-response","354","383798","0.0-1.0-498.0","0","0","48284","","null","","","null","55","NaN","","","","","","","","","","","","","","",""
"","S2","","html-keyboard-response","355","384054","0.0-1.0-499.0","0","0","48284","","null","","","null","55","","NaN","","","","","","","","","","","","","",""
"","response","","html-keyboard-response","356","384450","0.0-1.0-500.0-0.0","0","0","48284","","391","","","68","55","","","2","55","training","adjacent","FG","6","7","O.jpg","N.jpg","1","1","1","",""
"","feedback","","html-keyboard-response","357","385464","0.0-1.0-501.0-0.0","0","0","48284","","null","","","null","55","","","","","","","","","","","","","","","",""
"","ITI","","html-keyboard-response","358","386480","0.0-1.0-504.0","0","0","48284","","null","","","null","55","","","","","","","","","","","","","","","NaN",""
"","S1","","html-keyboard-response","359","386742","0.0-1.0-506.0","0","0","48284","","null","","","null","56","","","","","","","","","","","","","","","",""
"","ISI","","html-keyboard-response","360","387751","0.0-1.0-507.0","0","0","48284","","null","","","null","56","NaN","","","","","","","","","","","","","","",""
"","S2","","html-keyboard-response","361","388014","0.0-1.0-508.0","0","0","48284","","null","","","null","56","","NaN","","","","","","","","","","","","","",""
"","response","","html-keyboard-response","362","388581","0.0-1.0-509.0-0.0","0","0","48284","","564","","","75","56","","","2","56","training","adjacent","EF","5","6","R.jpg","O.jpg","0","1","0","",""
"","feedback","","html-keyboard-response","363","389592","0.0-1.0-510.0-0.0","0","0","48284","","null","","","null","56","","","","","","","","","","","","","","","",""
"","time_out","","html-keyboard-response","364","391606","0.0-1.0-512.0-0.0","0","0","48284","","null","","","null","56","","","","","","","","","","","","","","","",""
"","ITI","","html-keyboard-response","365","392616","0.0-1.0-513.0","0","0","48284","","null","","","null","56","","","","","","","","","","","","","","","NaN",""
"","S1","","html-keyboard-response","366","392877","0.0-1.0-515.0","0","0","48284","","null","","","null","57","","","","","","","","","","","","","","","",""
"","ISI","","html-keyboard-response","367","393888","0.0-1.0-516.0","0","0","48284","","null","","","null","57","NaN","","","","","","","","","","","","","","",""
"","S2","","html-keyboard-response","368","394149","0.0-1.0-517.0","0","0","48284","","null","","","null","57","","NaN","","","","","","","","","","","","","",""
"","response","","html-keyboard-response","369","394265","0.0-1.0-518.0-0.0","0","0","48284","","112","","","68","57","","","2","57","training","adjacent","CD","3","4","M.jpg","L.jpg","1","1","1","",""
"","feedback","","html-keyboard-response","370","395280","0.0-1.0-519.0-0.0","0","0","48284","","null","","","null","57","","","","","","","","","","","","","","","",""
"","ITI","","html-keyboard-response","371","396296","0.0-1.0-522.0","0","0","48284","","null","","","null","57","","","","","","","","","","","","","","","NaN",""
"","S1","","html-keyboard-response","372","396558","0.0-1.0-524.0","0","0","48284","","null","","","null","58","","","","","","","","","","","","","","","",""
"","ISI","","html-keyboard-response","373","397568","0.0-1.0-525.0","0","0","48284","","null","","","null","58","NaN","","","","","","","","","","","","","","",""
"","S2","","html-keyboard-response","374","397829","0.0-1.0-526.0","0","0","48284","","null","","","null","58","","NaN","","","","","","","","","","","","","",""
"","response","","html-keyboard-response","375","397877","0.0-1.0-527.0-0.0","0","0","48284","","45","","","75","58","","","2","58","training","adjacent","GF","7","6","N.jpg","O.jpg","0","0","1","",""
"","feedback","","html-keyboard-response","376","398885","0.0-1.0-528.0-0.0","0","0","48284","","null","","","null","58","","","","","","","","","","","","","","","",""
"","ITI","","html-keyboard-response","377","399894","0.0-1.0-531.0","0","0","48284","","null","","","null","58","","","","","","","","","","","","","","","NaN",""
"","S1","","html-keyboard-response","378","400157","0.0-1.0-533.0","0","0","48284","","null","","","null","59","","","","","","","","","","","","","","","",""
"","ISI","","html-keyboard-response","379","401166","0.0-1.0-534.0","0","0","48284","","null","","","null","59","NaN","","","","","","","","","","","","","","",""
"","S2","","html-keyboard-response","380","401429","0.0-1.0-535.0","0","0","48284","","null","","","null","59","","NaN","","","","","","","","","","","","","",""
"","response","","html-keyboard-response","381","401581","0.0-1.0-536.0-0.0","0","0","48284","","147","","","75","59","","","2","59","training","adjacent","BA","2","1","P.jpg","Q.jpg","0","0","1","",""
"","feedback","","html-keyboard-response","382","402589","0.0-1.0-537.0-0.0","0","0","48284","","null","","","null","59","","","","","","","","","","","","","","","",""
"","ITI","","html-keyboard-response","383","403599","0.0-1.0-540.0","0","0","48284","","null","","","null","59","","","","","","","","","","","","","","","NaN",""
"","S1","","html-keyboard-response","384","403861","0.0-1.0-542.0","0","0","48284","","null","","","null","60","","","","","","","","","","","","","","","",""
"","ISI","","html-keyboard-response","385","404870","0.0-1.0-543.0","0","0","48284","","null","","","null","60","NaN","","","","","","","","","","","","","","",""
"","S2","","html-keyboard-response","386","405137","0.0-1.0-544.0","0","0","48284","","null","","","null","60","","NaN","","","","","","","","","","","","","",""
"","response","","html-keyboard-response","387","405280","0.0-1.0-545.0-0.0","0","0","48284","","138","","","68","60","","","2","60","training","adjacent","AB","1","2","Q.jpg","P.jpg","1","1","1","",""
"","feedback","","html-keyboard-response","388","406294","0.0-1.0-546.0-0.0","0","0","48284","","null","","","null","60","","","","","","","","","","","","","","","",""
"","ITI","","html-keyboard-response","389","407301","0.0-1.0-549.0","0","0","48284","","null","","","null","60","","","","","","","","","","","","","","","NaN",""
"","S1","","html-keyboard-response","390","407568","0.0-1.0-551.0","0","0","48284","","null","","","null","61","","","","","","","","","","","","","","","",""
"","ISI","","html-keyboard-response","391","408583","0.0-1.0-552.0","0","0","48284","","null","","","null","61","NaN","","","","","","","","","","","","","","",""
"","S2","","html-keyboard-response","392","408846","0.0-1.0-553.0","0","0","48284","","null","","","null","61","","NaN","","","","","","","","","","","","","",""
"","response","","html-keyboard-response","393","408873","0.0-1.0-554.0-0.0","0","0","48284","","24","","","75","61","","","2","61","training","adjacent","DC","4","3","L.jpg","M.jpg","0","0","1","",""
"","feedback","","html-keyboard-response","394","409883","0.0-1.0-555.0-0.0","0","0","48284","","null","","","null","61","","","","","","","","","","","","","","","",""
"","ITI","","html-keyboard-response","395","410896","0.0-1.0-558.0","0","0","48284","","null","","","null","61","","","","","","","","","","","","","","","NaN",""
"","S1","","html-keyboard-response","396","411157","0.0-1.0-560.0","0","0","48284","","null","","","null","62","","","","","","","","","","","","","","","",""
"","ISI","","html-keyboard-response","397","412167","0.0-1.0-561.0","0","0","48284","","null","","","null","62","NaN","","","","","","","","","","","","","","",""
"","S2","","html-keyboard-response","398","412430","0.0-1.0-562.0","0","0","48284","","null","","","null","62","","NaN","","","","","","","","","","","","","",""
"","response","","html-keyboard-response","399","412592","0.0-1.0-563.0-0.0","0","0","48284","","158","","","68","62","","","2","62","training","adjacent","CD","3","4","M.jpg","L.jpg","1","1","1","",""
"","feedback","","html-keyboard-response","400","413606","0.0-1.0-564.0-0.0","0","0","48284","","null","","","null","62","","","","","","","","","","","","","","","",""
"","ITI","","html-keyboard-response","401","414616","0.0-1.0-567.0","0","0","48284","","null","","","null","62","","","","","","","","","","","","","","","NaN",""
"","S1","","html-keyboard-response","402","414877","0.0-1.0-569.0","0","0","48284","","null","","","null","63","","","","","","","","","","","","","","","",""
"","ISI","","html-keyboard-response","403","415887","0.0-1.0-570.0","0","0","48284","","null","","","null","63","NaN","","","","","","","","","","","","","","",""
"","S2","","html-keyboard-response","404","416149","0.0-1.0-571.0","0","0","48284","","null","","","null","63","","NaN","","","","","","","","","","","","","",""
"","response","","html-keyboard-response","405","416423","0.0-1.0-572.0-0.0","0","0","48284","","269","","","68","63","","","2","63","training","adjacent","EF","5","6","R.jpg","O.jpg","1","1","1","",""
"","feedback","","html-keyboard-response","406","417435","0.0-1.0-573.0-0.0","0","0","48284","","null","","","null","63","","","","","","","","","","","","","","","",""
"","ITI","","html-keyboard-response","407","418448","0.0-1.0-576.0","0","0","48284","","null","","","null","63","","","","","","","","","","","","","","","NaN",""
"","S1","","html-keyboard-response","408","418709","0.0-1.0-578.0","0","0","48284","","null","","","null","64","","","","","","","","","","","","","","","",""
"","ISI","","html-keyboard-response","409","419719","0.0-1.0-579.0","0","0","48284","","null","","","null","64","NaN","","","","","","","","","","","","","","",""
"","S2","","html-keyboard-response","410","419980","0.0-1.0-580.0","0","0","48284","","null","","","null","64","","NaN","","","","","","","","","","","","","",""
"","response","","html-keyboard-response","411","420531","0.0-1.0-581.0-0.0","0","0","48284","","548","","","68","64","","","2","64","training","adjacent","BC","2","3","P.jpg","M.jpg","1","1","1","",""
"","feedback","","html-keyboard-response","412","421541","0.0-1.0-582.0-0.0","0","0","48284","","null","","","null","64","","","","","","","","","","","","","","","",""
"","ITI","","html-keyboard-response","413","422551","0.0-1.0-585.0","0","0","48284","","null","","","null","64","","","","","","","","","","","","","","","NaN",""
"","S1","","html-keyboard-response","414","422813","0.0-1.0-587.0","0","0","48284","","null","","","null","65","","","","","","","","","","","","","","","",""
"","ISI","","html-keyboard-response","415","423823","0.0-1.0-588.0","0","0","48284","","null","","","null","65","NaN","","","","","","","","","","","","","","",""
"","S2","","html-keyboard-response","416","424084","0.0-1.0-589.0","0","0","48284","","null","","","null","65","","NaN","","","","","","","","","","","","","",""
"","response","","html-keyboard-response","417","424438","0.0-1.0-590.0-0.0","0","0","48284","","349","","","75","65","","","2","65","training","adjacent","ED","5","4","R.jpg","L.jpg","0","0","1","",""
"","feedback","","html-keyboard-response","418","425447","0.0-1.0-591.0-0.0","0","0","48284","","null","","","null","65","","","","","","","","","","","","","","","",""
"","ITI","","html-keyboard-response","419","426464","0.0-1.0-594.0","0","0","48284","","null","","","null","65","","","","","","","","","","","","","","","NaN",""
"","S1","","html-keyboard-response","420","426725","0.0-1.0-596.0","0","0","48284","","null","","","null","66","","","","","","","","","","","","","","","",""
"","ISI","","html-keyboard-response","421","427735","0.0-1.0-597.0","0","0","48284","","null","","","null","66","NaN","","","","","","","","","","","","","","",""
"","S2","","html-keyboard-response","422","427996","0.0-1.0-598.0","0","0","48284","","null","","","null","66","","NaN","","","","","","","","","","","","","",""
"","response","","html-keyboard-response","423","428574","0.0-1.0-599.0-0.0","0","0","48284","","572","","","75","66","","","2","66","training","adjacent","DE","4","5","L.jpg","R.jpg","0","1","0","",""
"","feedback","","html-keyboard-response","424","429589","0.0-1.0-600.0-0.0","0","0","48284","","null","","","null","66","","","","","","","","","","","","","","","",""
"","time_out","","html-keyboard-response","425","431596","0.0-1.0-602.0-0.0","0","0","48284","","null","","","null","66","","","","","","","","","","","","","","","",""
"","ITI","","html-keyboard-response","426","432605","0.0-1.0-603.0","0","0","48284","","null","","","null","66","","","","","","","","","","","","","","","NaN",""
"","S1","","html-keyboard-response","427","432869","0.0-1.0-605.0","0","0","48284","","null","","","null","67","","","","","","","","","","","","","","","",""
"","ISI","","html-keyboard-response","428","433877","0.0-1.0-606.0","0","0","48284","","null","","","null","67","NaN","","","","","","","","","","","","","","",""
"","S2","","html-keyboard-response","429","434144","0.0-1.0-607.0","0","0","48284","","null","","","null","67","","NaN","","","","","","","","","","","","","",""
"","response","","html-keyboard-response","430","434774","0.0-1.0-608.0-0.0","0","0","48284","","625","","","75","67","","","2","67","training","adjacent","FE","6","5","O.jpg","R.jpg","0","0","1","",""
"","feedback","","html-keyboard-response","431","435792","0.0-1.0-609.0-0.0","0","0","48284","","null","","","null","67","","","","","","","","","","","","","","","",""
"","ITI","","html-keyboard-response","432","436808","0.0-1.0-612.0","0","0","48284","","null","","","null","67","","","","","","","","","","","","","","","NaN",""
"","S1","","html-keyboard-response","433","437069","0.0-1.0-614.0","0","0","48284","","null","","","null","68","","","","","","","","","","","","","","","",""
"","ISI","","html-keyboard-response","434","438079","0.0-1.0-615.0","0","0","48284","","null","","","null","68","NaN","","","","","","","","","","","","","","",""
"","S2","","html-keyboard-response","435","438340","0.0-1.0-616.0","0","0","48284","","null","","","null","68","","NaN","","","","","","","","","","","","","",""
"","response","","html-keyboard-response","436","438391","0.0-1.0-617.0-0.0","0","0","48284","","45","","","75","68","","","2","68","training","adjacent","GF","7","6","N.jpg","O.jpg","0","0","1","",""
"","feedback","","html-keyboard-response","437","439405","0.0-1.0-618.0-0.0","0","0","48284","","null","","","null","68","","","","","","","","","","","","","","","",""
"","ITI","","html-keyboard-response","438","440413","0.0-1.0-621.0","0","0","48284","","null","","","null","68","","","","","","","","","","","","","","","NaN",""
"","S1","","html-keyboard-response","439","440680","0.0-1.0-623.0","0","0","48284","","null","","","null","69","","","","","","","","","","","","","","","",""
"","ISI","","html-keyboard-response","440","441696","0.0-1.0-624.0","0","0","48284","","null","","","null","69","NaN","","","","","","","","","","","","","","",""
"","S2","","html-keyboard-response","441","441957","0.0-1.0-625.0","0","0","48284","","null","","","null","69","","NaN","","","","","","","","","","","","","",""
"","response","","html-keyboard-response","442","442178","0.0-1.0-626.0-0.0","0","0","48284","","217","","","68","69","","","2","69","training","adjacent","AB","1","2","Q.jpg","P.jpg","1","1","1","",""
"","feedback","","html-keyboard-response","443","443187","0.0-1.0-627.0-0.0","0","0","48284","","null","","","null","69","","","","","","","","","","","","","","","",""
"","ITI","","html-keyboard-response","444","444198","0.0-1.0-630.0","0","0","48284","","null","","","null","69","","","","","","","","","","","","","","","NaN",""
"","S1","","html-keyboard-response","445","444460","0.0-1.0-632.0","0","0","48284","","null","","","null","70","","","","","","","","","","","","","","","",""
"","ISI","","html-keyboard-response","446","445468","0.0-1.0-633.0","0","0","48284","","null","","","null","70","NaN","","","","","","","","","","","","","","",""
"","S2","","html-keyboard-response","447","445736","0.0-1.0-634.0","0","0","48284","","null","","","null","70","","NaN","","","","","","","","","","","","","",""
"","response","","html-keyboard-response","448","445856","0.0-1.0-635.0-0.0","0","0","48284","","116","","","68","70","","","2","70","training","adjacent","CD","3","4","M.jpg","L.jpg","1","1","1","",""
"","feedback","","html-keyboard-response","449","446868","0.0-1.0-636.0-0.0","0","0","48284","","null","","","null","70","","","","","","","","","","","","","","","",""
"","ITI","","html-keyboard-response","450","447878","0.0-1.0-639.0","0","0","48284","","null","","","null","70","","","","","","","","","","","","","","","NaN",""
"","S1","","html-keyboard-response","451","448139","0.0-1.0-641.0","0","0","48284","","null","","","null","71","","","","","","","","","","","","","","","",""
"","ISI","","html-keyboard-response","452","449149","0.0-1.0-642.0","0","0","48284","","null","","","null","71","NaN","","","","","","","","","","","","","","",""
"","S2","","html-keyboard-response","453","449415","0.0-1.0-643.0","0","0","48284","","null","","","null","71","","NaN","","","","","","","","","","","","","",""
"","response","","html-keyboard-response","454","449518","0.0-1.0-644.0-0.0","0","0","48284","","101","","","68","71","","","2","71","training","adjacent","CD","3","4","M.jpg","L.jpg","1","1","1","",""
"","feedback","","html-keyboard-response","455","450532","0.0-1.0-645.0-0.0","0","0","48284","","null","","","null","71","","","","","","","","","","","","","","","",""
"","ITI","","html-keyboard-response","456","451540","0.0-1.0-648.0","0","0","48284","","null","","","null","71","","","","","","","","","","","","","","","NaN",""
"","S1","","html-keyboard-response","457","451804","0.0-1.0-650.0","0","0","48284","","null","","","null","72","","","","","","","","","","","","","","","",""
"","ISI","","html-keyboard-response","458","452812","0.0-1.0-651.0","0","0","48284","","null","","","null","72","NaN","","","","","","","","","","","","","","",""
"","S2","","html-keyboard-response","459","453079","0.0-1.0-652.0","0","0","48284","","null","","","null","72","","NaN","","","","","","","","","","","","","",""
"","response","","html-keyboard-response","460","453705","0.0-1.0-653.0-0.0","0","0","48284","","623","","","75","72","","","2","72","training","adjacent","EF","5","6","R.jpg","O.jpg","0","1","0","",""
"","feedback","","html-keyboard-response","461","454716","0.0-1.0-654.0-0.0","0","0","48284","","null","","","null","72","","","","","","","","","","","","","","","",""
"","time_out","","html-keyboard-response","462","456724","0.0-1.0-656.0-0.0","0","0","48284","","null","","","null","72","","","","","","","","","","","","","","","",""
"","ITI","","html-keyboard-response","463","457735","0.0-1.0-657.0","0","0","48284","","null","","","null","72","","","","","","","","","","","","","","","NaN",""
"","S1","","html-keyboard-response","464","457995","0.0-1.0-659.0","0","0","48284","","null","","","null","73","","","","","","","","","","","","","","","",""
"","ISI","","html-keyboard-response","465","459006","0.0-1.0-660.0","0","0","48284","","null","","","null","73","NaN","","","","","","","","","","","","","","",""
"","S2","","html-keyboard-response","466","459267","0.0-1.0-661.0","0","0","48284","","null","","","null","73","","NaN","","","","","","","","","","","","","",""
"","response","","html-keyboard-response","467","459740","0.0-1.0-662.0-0.0","0","0","48284","","470","","","75","73","","","2","73","training","adjacent","DC","4","3","L.jpg","M.jpg","0","0","1","",""
"","feedback","","html-keyboard-response","468","460748","0.0-1.0-663.0-0.0","0","0","48284","","null","","","null","73","","","","","","","","","","","","","","","",""
"","ITI","","html-keyboard-response","469","461757","0.0-1.0-666.0","0","0","48284","","null","","","null","73","","","","","","","","","","","","","","","NaN",""
"","S1","","html-keyboard-response","470","462019","0.0-1.0-668.0","0","0","48284","","null","","","null","74","","","","","","","","","","","","","","","",""
"","ISI","","html-keyboard-response","471","463028","0.0-1.0-669.0","0","0","48284","","null","","","null","74","NaN","","","","","","","","","","","","","","",""
"","S2","","html-keyboard-response","472","463295","0.0-1.0-670.0","0","0","48284","","null","","","null","74","","NaN","","","","","","","","","","","","","",""
"","response","","html-keyboard-response","473","463569","0.0-1.0-671.0-0.0","0","0","48284","","271","","","75","74","","","2","74","training","adjacent","DC","4","3","L.jpg","M.jpg","0","0","1","",""
"","feedback","","html-keyboard-response","474","464580","0.0-1.0-672.0-0.0","0","0","48284","","null","","","null","74","","","","","","","","","","","","","","","",""
"","ITI","","html-keyboard-response","475","465589","0.0-1.0-675.0","0","0","48284","","null","","","null","74","","","","","","","","","","","","","","","NaN",""
"","S1","","html-keyboard-response","476","465855","0.0-1.0-677.0","0","0","48284","","null","","","null","75","","","","","","","","","","","","","","","",""
"","ISI","","html-keyboard-response","477","466871","0.0-1.0-678.0","0","0","48284","","null","","","null","75","NaN","","","","","","","","","","","","","","",""
"","S2","","html-keyboard-response","478","467131","0.0-1.0-679.0","0","0","48284","","null","","","null","75","","NaN","","","","","","","","","","","","","",""
"","response","","html-keyboard-response","479","467747","0.0-1.0-680.0-0.0","0","0","48284","","613","","","68","75","","","2","75","training","adjacent","BC","2","3","P.jpg","M.jpg","1","1","1","",""
"","feedback","","html-keyboard-response","480","468758","0.0-1.0-681.0-0.0","0","0","48284","","null","","","null","75","","","","","","","","","","","","","","","",""
"","ITI","","html-keyboard-response","481","469774","0.0-1.0-684.0","0","0","48284","","null","","","null","75","","","","","","","","","","","","","","","NaN",""
"","S1","","html-keyboard-response","482","470035","0.0-1.0-686.0","0","0","48284","","null","","","null","76","","","","","","","","","","","","","","","",""
"","ISI","","html-keyboard-response","483","471045","0.0-1.0-687.0","0","0","48284","","null","","","null","76","NaN","","","","","","","","","","","","","","",""
"","S2","","html-keyboard-response","484","471308","0.0-1.0-688.0","0","0","48284","","null","","","null","76","","NaN","","","","","","","","","","","","","",""
"","response","","html-keyboard-response","485","471680","0.0-1.0-689.0-0.0","0","0","48284","","367","","","68","76","","","2","76","training","adjacent","ED","5","4","R.jpg","L.jpg","1","0","0","",""
"","feedback","","html-keyboard-response","486","472693","0.0-1.0-690.0-0.0","0","0","48284","","null","","","null","76","","","","","","","","","","","","","","","",""
"","time_out","","html-keyboard-response","487","474707","0.0-1.0-692.0-0.0","0","0","48284","","null","","","null","76","","","","","","","","","","","","","","","",""
"","ITI","","html-keyboard-response","488","475718","0.0-1.0-693.0","0","0","48284","","null","","","null","76","","","","","","","","","","","","","","","NaN",""
"","S1","","html-keyboard-response","489","475978","0.0-1.0-695.0","0","0","48284","","null","","","null","77","","","","","","","","","","","","","","","",""
"","ISI","","html-keyboard-response","490","476989","0.0-1.0-696.0","0","0","48284","","167","","","75","77","k","","","","","","","","","","","","","","",""
"","S2","","html-keyboard-response","491","477250","0.0-1.0-697.0","0","0","48284","","null","","","null","77","","NaN","","","","","","","","","","","","","",""
"","response","","html-keyboard-response","492","477802","0.0-1.0-698.0-0.0","0","0","48284","","549","","","68","77","","","2","77","training","adjacent","AB","1","2","Q.jpg","P.jpg","1","1","1","",""
"","feedback","","html-keyboard-response","493","478811","0.0-1.0-699.0-0.0","0","0","48284","","null","","","null","77","","","","","","","","","","","","","","","",""
"","ITI","","html-keyboard-response","494","479821","0.0-1.0-702.0","0","0","48284","","null","","","null","77","","","","","","","","","","","","","","","NaN",""
"","S1","","html-keyboard-response","495","480083","0.0-1.0-704.0","0","0","48284","","null","","","null","78","","","","","","","","","","","","","","","",""
"","ISI","","html-keyboard-response","496","481093","0.0-1.0-705.0","0","0","48284","","null","","","null","78","NaN","","","","","","","","","","","","","","",""
"","S2","","html-keyboard-response","497","481354","0.0-1.0-706.0","0","0","48284","","null","","","null","78","","NaN","","","","","","","","","","","","","",""
"","response","","html-keyboard-response","498","481714","0.0-1.0-707.0-0.0","0","0","48284","","358","","","68","78","","","2","78","training","adjacent","DE","4","5","L.jpg","R.jpg","1","1","1","",""
"","feedback","","html-keyboard-response","499","482724","0.0-1.0-708.0-0.0","0","0","48284","","null","","","null","78","","","","","","","","","","","","","","","",""
"","ITI","","html-keyboard-response","500","483734","0.0-1.0-711.0","0","0","48284","","null","","","null","78","","","","","","","","","","","","","","","NaN",""
"","S1","","html-keyboard-response","501","483993","0.0-1.0-713.0","0","0","48284","","null","","","null","79","","","","","","","","","","","","","","","",""
"","ISI","","html-keyboard-response","502","485005","0.0-1.0-714.0","0","0","48284","","null","","","null","79","NaN","","","","","","","","","","","","","","",""
"","S2","","html-keyboard-response","503","485266","0.0-1.0-715.0","0","0","48284","","null","","","null","79","","NaN","","","","","","","","","","","","","",""
"","response","","html-keyboard-response","504","485799","0.0-1.0-716.0-0.0","0","0","48284","","528","","","68","79","","","2","79","training","adjacent","FG","6","7","O.jpg","N.jpg","1","1","1","",""
"","feedback","","html-keyboard-response","505","486810","0.0-1.0-717.0-0.0","0","0","48284","","null","","","null","79","","","","","","","","","","","","","","","",""
"","ITI","","html-keyboard-response","506","487821","0.0-1.0-720.0","0","0","48284","","null","","","null","79","","","","","","","","","","","","","","","NaN",""
"","S1","","html-keyboard-response","507","488082","0.0-1.0-722.0","0","0","48284","","null","","","null","80","","","","","","","","","","","","","","","",""
"","ISI","","html-keyboard-response","508","489092","0.0-1.0-723.0","0","0","48284","","null","","","null","80","NaN","","","","","","","","","","","","","","",""
"","S2","","html-keyboard-response","509","489355","0.0-1.0-724.0","0","0","48284","","null","","","null","80","","NaN","","","","","","","","","","","","","",""
"","response","","html-keyboard-response","510","489705","0.0-1.0-725.0-0.0","0","0","48284","","345","","","68","80","","","2","80","training","adjacent","FE","6","5","O.jpg","R.jpg","1","0","0","",""
"","feedback","","html-keyboard-response","511","490717","0.0-1.0-726.0-0.0","0","0","48284","","null","","","null","80","","","","","","","","","","","","","","","",""
"","time_out","","html-keyboard-response","512","492731","0.0-1.0-728.0-0.0","0","0","48284","","null","","","null","80","","","","","","","","","","","","","","","",""
"","ITI","","html-keyboard-response","513","493739","0.0-1.0-729.0","0","0","48284","","null","","","null","80","","","","","","","","","","","","","","","NaN",""
"","S1","","html-keyboard-response","514","494003","0.0-1.0-731.0","0","0","48284","","null","","","null","81","","","","","","","","","","","","","","","",""
"","ISI","","html-keyboard-response","515","495013","0.0-1.0-732.0","0","0","48284","","null","","","null","81","NaN","","","","","","","","","","","","","","",""
"","S2","","html-keyboard-response","516","495274","0.0-1.0-733.0","0","0","48284","","null","","","null","81","","NaN","","","","","","","","","","","","","",""
"","response","","html-keyboard-response","517","495416","0.0-1.0-734.0-0.0","0","0","48284","","137","","","75","81","","","2","81","training","adjacent","GF","7","6","N.jpg","O.jpg","0","0","1","",""
"","feedback","","html-keyboard-response","518","496429","0.0-1.0-735.0-0.0","0","0","48284","","null","","","null","81","","","","","","","","","","","","","","","",""
"","ITI","","html-keyboard-response","519","497445","0.0-1.0-738.0","0","0","48284","","null","","","null","81","","","","","","","","","","","","","","","NaN",""
"","S1","","html-keyboard-response","520","497709","0.0-1.0-740.0","0","0","48284","","null","","","null","82","","","","","","","","","","","","","","","",""
"","ISI","","html-keyboard-response","521","498722","0.0-1.0-741.0","0","0","48284","","null","","","null","82","NaN","","","","","","","","","","","","","","",""
"","S2","","html-keyboard-response","522","498976","0.0-1.0-742.0","0","0","48284","","null","","","null","82","","NaN","","","","","","","","","","","","","",""
"","response","","html-keyboard-response","523","499412","0.0-1.0-743.0-0.0","0","0","48284","","431","","","75","82","","","2","82","training","adjacent","FE","6","5","O.jpg","R.jpg","0","0","1","",""
"","feedback","","html-keyboard-response","524","500418","0.0-1.0-744.0-0.0","0","0","48284","","null","","","null","82","","","","","","","","","","","","","","","",""
"","ITI","","html-keyboard-response","525","501426","0.0-1.0-747.0","0","0","48284","","null","","","null","82","","","","","","","","","","","","","","","NaN",""
"","S1","","html-keyboard-response","526","501682","0.0-1.0-749.0","0","0","48284","","null","","","null","83","","","","","","","","","","","","","","","",""
"","ISI","","html-keyboard-response","527","502691","0.0-1.0-750.0","0","0","48284","","null","","","null","83","NaN","","","","","","","","","","","","","","",""
"","S2","","html-keyboard-response","528","502954","0.0-1.0-751.0","0","0","48284","","null","","","null","83","","NaN","","","","","","","","","","","","","",""
"","response","","html-keyboard-response","529","503207","0.0-1.0-752.0-0.0","0","0","48284","","249","","","75","83","","","2","83","training","adjacent","BA","2","1","P.jpg","Q.jpg","0","0","1","",""
"","feedback","","html-keyboard-response","530","504218","0.0-1.0-753.0-0.0","0","0","48284","","null","","","null","83","","","","","","","","","","","","","","","",""
"","ITI","","html-keyboard-response","531","505229","0.0-1.0-756.0","0","0","48284","","null","","","null","83","","","","","","","","","","","","","","","NaN",""
"","S1","","html-keyboard-response","532","505493","0.0-1.0-758.0","0","0","48284","","null","","","null","84","","","","","","","","","","","","","","","",""
"","ISI","","html-keyboard-response","533","506509","0.0-1.0-759.0","0","0","48284","","null","","","null","84","NaN","","","","","","","","","","","","","","",""
"","S2","","html-keyboard-response","534","506773","0.0-1.0-760.0","0","0","48284","","null","","","null","84","","NaN","","","","","","","","","","","","","",""
"","response","","html-keyboard-response","535","507339","0.0-1.0-761.0-0.0","0","0","48284","","563","","","68","84","","","2","84","training","adjacent","ED","5","4","R.jpg","L.jpg","1","0","0","",""
"","feedback","","html-keyboard-response","536","508346","0.0-1.0-762.0-0.0","0","0","48284","","null","","","null","84","","","","","","","","","","","","","","","",""
"","time_out","","html-keyboard-response","537","510354","0.0-1.0-764.0-0.0","0","0","48284","","null","","","null","84","","","","","","","","","","","","","","","",""
"","ITI","","html-keyboard-response","538","511364","0.0-1.0-765.0","0","0","48284","","null","","","null","84","","","","","","","","","","","","","","","NaN",""
"","S1","","html-keyboard-response","539","511626","0.0-1.0-767.0","0","0","48284","","null","","","null","85","","","","","","","","","","","","","","","",""
"","ISI","","html-keyboard-response","540","512636","0.0-1.0-768.0","0","0","48284","","null","","","null","85","NaN","","","","","","","","","","","","","","",""
"","S2","","html-keyboard-response","541","512897","0.0-1.0-769.0","0","0","48284","","null","","","null","85","","NaN","","","","","","","","","","","","","",""
"","response","","html-keyboard-response","542","512937","0.0-1.0-770.0-0.0","0","0","48284","","36","","","68","85","","","2","85","training","adjacent","FG","6","7","O.jpg","N.jpg","1","1","1","",""
"","feedback","","html-keyboard-response","543","513947","0.0-1.0-771.0-0.0","0","0","48284","","null","","","null","85","","","","","","","","","","","","","","","",""
"","ITI","","html-keyboard-response","544","514955","0.0-1.0-774.0","0","0","48284","","null","","","null","85","","","","","","","","","","","","","","","NaN",""
"","S1","","html-keyboard-response","545","515220","0.0-1.0-776.0","0","0","48284","","null","","","null","86","","","","","","","","","","","","","","","",""
"","ISI","","html-keyboard-response","546","516229","0.0-1.0-777.0","0","0","48284","","null","","","null","86","NaN","","","","","","","","","","","","","","",""
"","S2","","html-keyboard-response","547","516490","0.0-1.0-778.0","0","0","48284","","null","","","null","86","","NaN","","","","","","","","","","","","","",""
"","response","","html-keyboard-response","548","516893","0.0-1.0-779.0-0.0","0","0","48284","","398","","","75","86","","","2","86","training","adjacent","DE","4","5","L.jpg","R.jpg","0","1","0","",""
"","feedback","","html-keyboard-response","549","517908","0.0-1.0-780.0-0.0","0","0","48284","","null","","","null","86","","","","","","","","","","","","","","","",""
"","time_out","","html-keyboard-response","550","519920","0.0-1.0-782.0-0.0","0","0","48284","","null","","","null","86","","","","","","","","","","","","","","","",""
"","ITI","","html-keyboard-response","551","520932","0.0-1.0-783.0","0","0","48284","","null","","","null","86","","","","","","","","","","","","","","","NaN",""
"","S1","","html-keyboard-response","552","521194","0.0-1.0-785.0","0","0","48284","","null","","","null","87","","","","","","","","","","","","","","","",""
"","ISI","","html-keyboard-response","553","522204","0.0-1.0-786.0","0","0","48284","","null","","","null","87","NaN","","","","","","","","","","","","","","",""
"","S2","","html-keyboard-response","554","522470","0.0-1.0-787.0","0","0","48284","","null","","","null","87","","NaN","","","","","","","","","","","","","",""
"","response","","html-keyboard-response","555","522548","0.0-1.0-788.0-0.0","0","0","48284","","75","","","75","87","","","2","87","training","adjacent","BA","2","1","P.jpg","Q.jpg","0","0","1","",""
"","feedback","","html-keyboard-response","556","523563","0.0-1.0-789.0-0.0","0","0","48284","","null","","","null","87","","","","","","","","","","","","","","","",""
"","ITI","","html-keyboard-response","557","524571","0.0-1.0-792.0","0","0","48284","","null","","","null","87","","","","","","","","","","","","","","","NaN",""
"","S1","","html-keyboard-response","558","524833","0.0-1.0-794.0","0","0","48284","","null","","","null","88","","","","","","","","","","","","","","","",""
"","ISI","","html-keyboard-response","559","525842","0.0-1.0-795.0","0","0","48284","","null","","","null","88","NaN","","","","","","","","","","","","","","",""
"","S2","","html-keyboard-response","560","526109","0.0-1.0-796.0","0","0","48284","","null","","","null","88","","NaN","","","","","","","","","","","","","",""
"","response","","html-keyboard-response","561","526419","0.0-1.0-797.0-0.0","0","0","48284","","305","","","75","88","","","2","88","training","adjacent","GF","7","6","N.jpg","O.jpg","0","0","1","",""
"","feedback","","html-keyboard-response","562","527427","0.0-1.0-798.0-0.0","0","0","48284","","null","","","null","88","","","","","","","","","","","","","","","",""
"","ITI","","html-keyboard-response","563","528443","0.0-1.0-801.0","0","0","48284","","null","","","null","88","","","","","","","","","","","","","","","NaN",""
"","S1","","html-keyboard-response","564","528706","0.0-1.0-803.0","0","0","48284","","null","","","null","89","","","","","","","","","","","","","","","",""
"","ISI","","html-keyboard-response","565","529713","0.0-1.0-804.0","0","0","48284","","null","","","null","89","NaN","","","","","","","","","","","","","","",""
"","S2","","html-keyboard-response","566","529981","0.0-1.0-805.0","0","0","48284","","null","","","null","89","","NaN","","","","","","","","","","","","","",""
"","response","","html-keyboard-response","567","530312","0.0-1.0-806.0-0.0","0","0","48284","","327","","","75","89","","","2","89","training","adjacent","BA","2","1","P.jpg","Q.jpg","0","0","1","",""
"","feedback","","html-keyboard-response","568","531321","0.0-1.0-807.0-0.0","0","0","48284","","null","","","null","89","","","","","","","","","","","","","","","",""
"","ITI","","html-keyboard-response","569","532331","0.0-1.0-810.0","0","0","48284","","null","","","null","89","","","","","","","","","","","","","","","NaN",""
"","S1","","html-keyboard-response","570","532593","0.0-1.0-812.0","0","0","48284","","null","","","null","90","","","","","","","","","","","","","","","",""
"","ISI","","html-keyboard-response","571","533603","0.0-1.0-813.0","0","0","48284","","null","","","null","90","NaN","","","","","","","","","","","","","","",""
"","S2","","html-keyboard-response","572","533865","0.0-1.0-814.0","0","0","48284","","null","","","null","90","","NaN","","","","","","","","","","","","","",""
"","response","","html-keyboard-response","573","534302","0.0-1.0-815.0-0.0","0","0","48284","","433","","","68","90","","","2","90","training","adjacent","EF","5","6","R.jpg","O.jpg","1","1","1","",""
"","feedback","","html-keyboard-response","574","535316","0.0-1.0-816.0-0.0","0","0","48284","","null","","","null","90","","","","","","","","","","","","","","","",""
"","ITI","","html-keyboard-response","575","536331","0.0-1.0-819.0","0","0","48284","","null","","","null","90","","","","","","","","","","","","","","","NaN",""
"","S1","","html-keyboard-response","576","536593","0.0-1.0-821.0","0","0","48284","","null","","","null","91","","","","","","","","","","","","","","","",""
"","ISI","","html-keyboard-response","577","537603","0.0-1.0-822.0","0","0","48284","","null","","","null","91","NaN","","","","","","","","","","","","","","",""
"","S2","","html-keyboard-response","578","537865","0.0-1.0-823.0","0","0","48284","","null","","","null","91","","NaN","","","","","","","","","","","","","",""
"","response","","html-keyboard-response","579","538376","0.0-1.0-824.0-0.0","0","0","48284","","507","","","75","91","","","2","91","training","adjacent","CB","3","2","M.jpg","P.jpg","0","0","1","",""
"","feedback","","html-keyboard-response","580","539385","0.0-1.0-825.0-0.0","0","0","48284","","null","","","null","91","","","","","","","","","","","","","","","",""
