"success","ttype","start_time","trial_type","trial_index","time_elapsed","internal_node_id","warning","missed_checkup","PID","view_history","rt","responses","repeat_instructions","key_press","index","keypress_isi","keypress_S2","block","trial_num","phase","group_type","pair_type","S1_stim","S2_stim","S1_img","S2_img","S1_chosen","S1_higher","accuracy","keypress_iti","total_bonus_tally"
"true","full_screen","d03032023hr1947","fullscreen","0","3254","0.0-0.0","0","0","48375","","","","","","","","","","","","","","","","","","","","","",""
"","instructions","","instructions","1","96988","0.0-1.0-0.0-0.0","0","0","48375","[{""page_index"":0,""viewing_time"":90089},{""page_index"":1,""viewing_time"":1279},{""page_index"":2,""viewing_time"":1154},{""page_index"":3,""viewing_time"":1199}]","93723","","","","","","","","","","","","","","","","","","","",""
"","comprehension_check","","survey-multi-choice","2","139503","0.0-1.0-0.0-1.0","0","0","48375","","42492","{""Q0"":""True"",""Q1"":""K"",""Q2"":""Only when the screen 'MAKE A CHOICE' is shown"",""Q3"":""Green mark"",""Q4"":""either D or K""}","1","","","","","","","","","","","","","","","","","",""
"","missed_instruction_checkup","","html-keyboard-response","3","147501","0.0-1.0-0.0-2.0-0.0","0","1","48375","","7986","","","32","","","","","","","","","","","","","","","","",""
"","instructions","","instructions","4","167358","0.0-1.0-0.1-0.1","0","0","48375","[{""page_index"":0,""viewing_time"":3984},{""page_index"":1,""viewing_time"":2897},{""page_index"":2,""viewing_time"":11725},{""page_index"":3,""viewing_time"":1237}]","19843","","","","","","","","","","","","","","","","","","","",""
"","comprehension_check","","survey-multi-choice","5","178456","0.0-1.0-0.1-1.1","0","0","48375","","11083","{""Q0"":""True"",""Q1"":""K"",""Q2"":""Once the second image appears and while the screen 'MAKE A CHOICE' is shown"",""Q3"":""Green mark"",""Q4"":""either D or K""}","0","","","","","","","","","","","","","","","","","",""
"","start_exp","","html-keyboard-response","6","187277","0.0-1.0-1.0","0","0","48375","","8806","","","32","","","","","","","","","","","","","","","","",""
"","S1","","html-keyboard-response","7","187535","0.0-1.0-2.0","0","0","48375","","null","","","null","0","","","","","","","","","","","","","","","",""
"","ISI","","html-keyboard-response","8","188048","0.0-1.0-3.0","0","0","48375","","null","","","null","0","NaN","","","","","","","","","","","","","","",""
"","S2","","html-keyboard-response","9","188306","0.0-1.0-4.0","0","0","48375","","null","","","null","0","","NaN","","","","","","","","","","","","","",""
"","response","","html-keyboard-response","10","190066","0.0-1.0-5.0-0.0","0","0","48375","","null","","","null","0","","","1","0","training","adjacent","CB","3","2","M.jpg","L.jpg","NaN","0","0","",""
"","too_slow_prompt","","html-keyboard-response","11","191073","0.0-1.0-7.0-0.0","1","0","48375","","null","","","null","","","","","","","","","","","","","","","","",""
"","time_out","","html-keyboard-response","12","193079","0.0-1.0-8.0-0.0","0","0","48375","","null","","","null","0","","","","","","","","","","","","","","","",""
"","ITI","","html-keyboard-response","13","194086","0.0-1.0-9.0","0","0","48375","","954","","","68","0","","","","","","","","","","","","","","","d",""
"","S1","","html-keyboard-response","14","194346","0.0-1.0-11.0","0","0","48375","","null","","","null","1","","","","","","","","","","","","","","","",""
"","ISI","","html-keyboard-response","15","194850","0.0-1.0-12.0","0","0","48375","","350","","","75","1","k","","","","","","","","","","","","","","",""
"","S2","","html-keyboard-response","16","194917","0.0-1.0-13.0","0","0","48375","","61","","","75","1","","k","1","1","training","adjacent","FG","6","7","Q.jpg","O.jpg","1","1","1","",""
"","feedback","","html-keyboard-response","17","195922","0.0-1.0-15.0-0.0","0","0","48375","","null","","","null","1","","","","","","","","","","","","","","","",""
"","ITI","","html-keyboard-response","18","196932","0.0-1.0-18.0","0","0","48375","","538","","","75","1","","","","","","","","","","","","","","","k",""
"","S1","","html-keyboard-response","19","197187","0.0-1.0-20.0","0","0","48375","","null","","","null","2","","","","","","","","","","","","","","","",""
"","ISI","","html-keyboard-response","20","197694","0.0-1.0-21.0","0","0","48375","","118","","","75","2","k","","","","","","","","","","","","","","",""
"","S2","","html-keyboard-response","21","197703","0.0-1.0-22.0","0","0","48375","","5","","","75","2","","k","1","2","training","adjacent","CD","3","4","M.jpg","N.jpg","1","1","1","",""
"","feedback","","html-keyboard-response","22","198709","0.0-1.0-24.0-0.0","0","0","48375","","null","","","null","2","","","","","","","","","","","","","","","",""
"","ITI","","html-keyboard-response","23","199714","0.0-1.0-27.0","0","0","48375","","66","","","75","2","","","","","","","","","","","","","","","k",""
"","S1","","html-keyboard-response","24","199972","0.0-1.0-29.0","0","0","48375","","null","","","null","3","","","","","","","","","","","","","","","",""
"","ISI","","html-keyboard-response","25","200477","0.0-1.0-30.0","0","0","48375","","62","","","68","3","d","","","","","","","","","","","","","","",""
"","S2","","html-keyboard-response","26","200743","0.0-1.0-31.0","0","0","48375","","null","","","null","3","","NaN","","","","","","","","","","","","","",""
"","response","","html-keyboard-response","27","201920","0.0-1.0-32.0-0.0","0","0","48375","","1169","","","68","3","","","1","3","training","adjacent","BA","2","1","L.jpg","P.jpg","0","0","1","",""
"","feedback","","html-keyboard-response","28","202925","0.0-1.0-33.0-0.0","0","0","48375","","null","","","null","3","","","","","","","","","","","","","","","",""
"","ITI","","html-keyboard-response","29","203935","0.0-1.0-36.0","0","0","48375","","188","","","75","3","","","","","","","","","","","","","","","k",""
"","S1","","html-keyboard-response","30","204192","0.0-1.0-38.0","0","0","48375","","null","","","null","4","","","","","","","","","","","","","","","",""
"","ISI","","html-keyboard-response","31","204695","0.0-1.0-39.0","0","0","48375","","71","","","68","4","d","","","","","","","","","","","","","","",""
"","S2","","html-keyboard-response","32","204698","0.0-1.0-40.0","0","0","48375","","0","","","68","4","","d","1","4","training","adjacent","FG","6","7","Q.jpg","O.jpg","0","1","0","",""
"","feedback","","html-keyboard-response","33","205717","0.0-1.0-42.0-0.0","0","0","48375","","null","","","null","4","","","","","","","","","","","","","","","",""
"","time_out","","html-keyboard-response","34","207730","0.0-1.0-44.0-0.0","0","0","48375","","null","","","null","4","","","","","","","","","","","","","","","",""
"","ITI","","html-keyboard-response","35","208733","0.0-1.0-45.0","0","0","48375","","null","","","null","4","","","","","","","","","","","","","","","NaN",""
"","S1","","html-keyboard-response","36","208986","0.0-1.0-47.0","0","0","48375","","null","","","null","5","","","","","","","","","","","","","","","",""
"","ISI","","html-keyboard-response","37","209490","0.0-1.0-48.0","0","0","48375","","252","","","68","5","d","","","","","","","","","","","","","","",""
"","S2","","html-keyboard-response","38","209580","0.0-1.0-49.0","0","0","48375","","85","","","68","5","","d","1","5","training","adjacent","ED","5","4","R.jpg","N.jpg","0","0","1","",""
"","feedback","","html-keyboard-response","39","210623","0.0-1.0-51.0-0.0","0","0","48375","","null","","","null","5","","","","","","","","","","","","","","","",""
"","ITI","","html-keyboard-response","40","211629","0.0-1.0-54.0","0","0","48375","","216","","","68","5","","","","","","","","","","","","","","","d",""
"","S1","","html-keyboard-response","41","211886","0.0-1.0-56.0","0","0","48375","","null","","","null","6","","","","","","","","","","","","","","","",""
"","ISI","","html-keyboard-response","42","212425","0.0-1.0-57.0","0","0","48375","","401","","","68","6","d","","","","","","","","","","","","","","",""
"","S2","","html-keyboard-response","43","212458","0.0-1.0-58.0","0","0","48375","","30","","","75","6","","k","1","6","training","adjacent","DE","4","5","N.jpg","R.jpg","1","1","1","",""
"","feedback","","html-keyboard-response","44","213464","0.0-1.0-60.0-0.0","0","0","48375","","null","","","null","6","","","","","","","","","","","","","","","",""
"","ITI","","html-keyboard-response","45","214475","0.0-1.0-63.0","0","0","48375","","69","","","68","6","","","","","","","","","","","","","","","d",""
"","S1","","html-keyboard-response","46","214729","0.0-1.0-65.0","0","0","48375","","null","","","null","7","","","","","","","","","","","","","","","",""
"","ISI","","html-keyboard-response","47","215233","0.0-1.0-66.0","0","0","48375","","null","","","null","7","NaN","","","","","","","","","","","","","","",""
"","S2","","html-keyboard-response","48","215419","0.0-1.0-67.0","0","0","48375","","180","","","68","7","","d","1","7","training","adjacent","BC","2","3","L.jpg","M.jpg","0","1","0","",""
"","feedback","","html-keyboard-response","49","216425","0.0-1.0-69.0-0.0","0","0","48375","","null","","","null","7","","","","","","","","","","","","","","","",""
"","time_out","","html-keyboard-response","50","218432","0.0-1.0-71.0-0.0","0","0","48375","","null","","","null","7","","","","","","","","","","","","","","","",""
"","ITI","","html-keyboard-response","51","219437","0.0-1.0-72.0","0","0","48375","","null","","","null","7","","","","","","","","","","","","","","","NaN",""
"","S1","","html-keyboard-response","52","219692","0.0-1.0-74.0","0","0","48375","","null","","","null","8","","","","","","","","","","","","","","","",""
"","ISI","","html-keyboard-response","53","220197","0.0-1.0-75.0","0","0","48375","","182","","","68","8","d","","","","","","","","","","","","","","",""
"","S2","","html-keyboard-response","54","220202","0.0-1.0-76.0","0","0","48375","","0","","","75","8","","k","1","8","training","adjacent","FE","6","5","Q.jpg","R.jpg","1","0","0","",""
"","feedback","","html-keyboard-response","55","221207","0.0-1.0-78.0-0.0","0","0","48375","","null","","","null","8","","","","","","","","","","","","","","","",""
"","time_out","","html-keyboard-response","56","223212","0.0-1.0-80.0-0.0","0","0","48375","","null","","","null","8","","","","","","","","","","","","","","","",""
"","ITI","","html-keyboard-response","57","224216","0.0-1.0-81.0","0","0","48375","","52","","","75","8","","","","","","","","","","","","","","","k",""
"","S1","","html-keyboard-response","58","224472","0.0-1.0-83.0","0","0","48375","","null","","","null","9","","","","","","","","","","","","","","","",""
"","ISI","","html-keyboard-response","59","224979","0.0-1.0-84.0","0","0","48375","","141","","","68","9","d","","","","","","","","","","","","","","",""
"","S2","","html-keyboard-response","60","224985","0.0-1.0-85.0","0","0","48375","","2","","","68","9","","d","1","9","training","adjacent","FE","6","5","Q.jpg","R.jpg","0","0","1","",""
"","feedback","","html-keyboard-response","61","226000","0.0-1.0-87.0-0.0","0","0","48375","","null","","","null","9","","","","","","","","","","","","","","","",""
"","ITI","","html-keyboard-response","62","227009","0.0-1.0-90.0","0","0","48375","","2","","","75","9","","","","","","","","","","","","","","","k",""
"","S1","","html-keyboard-response","63","227267","0.0-1.0-92.0","0","0","48375","","null","","","null","10","","","","","","","","","","","","","","","",""
"","ISI","","html-keyboard-response","64","227772","0.0-1.0-93.0","0","0","48375","","72","","","75","10","k","","","","","","","","","","","","","","",""
"","S2","","html-keyboard-response","65","228038","0.0-1.0-94.0","0","0","48375","","null","","","null","10","","NaN","","","","","","","","","","","","","",""
"","response","","html-keyboard-response","66","228044","0.0-1.0-95.0-0.0","0","0","48375","","2","","","68","10","","","1","10","training","adjacent","DE","4","5","N.jpg","R.jpg","0","1","0","",""
"","feedback","","html-keyboard-response","67","229067","0.0-1.0-96.0-0.0","0","0","48375","","null","","","null","10","","","","","","","","","","","","","","","",""
"","time_out","","html-keyboard-response","68","231198","0.0-1.0-98.0-0.0","0","0","48375","","null","","","null","10","","","","","","","","","","","","","","","",""
"","ITI","","html-keyboard-response","69","232203","0.0-1.0-99.0","0","0","48375","","10","","","75","10","","","","","","","","","","","","","","","k",""
"","S1","","html-keyboard-response","70","232456","0.0-1.0-101.0","0","0","48375","","null","","","null","11","","","","","","","","","","","","","","","",""
"","ISI","","html-keyboard-response","71","232960","0.0-1.0-102.0","0","0","48375","","9","","","68","11","d","","","","","","","","","","","","","","",""
"","S2","","html-keyboard-response","72","233098","0.0-1.0-103.0","0","0","48375","","133","","","75","11","","k","1","11","training","adjacent","EF","5","6","R.jpg","Q.jpg","1","1","1","",""
"","feedback","","html-keyboard-response","73","234108","0.0-1.0-105.0-0.0","0","0","48375","","null","","","null","11","","","","","","","","","","","","","","","",""
"","ITI","","html-keyboard-response","74","235116","0.0-1.0-108.0","0","0","48375","","21","","","68","11","","","","","","","","","","","","","","","d",""
"","S1","","html-keyboard-response","75","235374","0.0-1.0-110.0","0","0","48375","","null","","","null","12","","","","","","","","","","","","","","","",""
"","ISI","","html-keyboard-response","76","235878","0.0-1.0-111.0","0","0","48375","","116","","","68","12","d","","","","","","","","","","","","","","",""
"","S2","","html-keyboard-response","77","235932","0.0-1.0-112.0","0","0","48375","","48","","","75","12","","k","1","12","training","adjacent","CB","3","2","M.jpg","L.jpg","1","0","0","",""
"","feedback","","html-keyboard-response","78","236939","0.0-1.0-114.0-0.0","0","0","48375","","null","","","null","12","","","","","","","","","","","","","","","",""
"","time_out","","html-keyboard-response","79","238950","0.0-1.0-116.0-0.0","0","0","48375","","null","","","null","12","","","","","","","","","","","","","","","",""
"","ITI","","html-keyboard-response","80","239967","0.0-1.0-117.0","0","0","48375","","2","","","75","12","","","","","","","","","","","","","","","k",""
"","S1","","html-keyboard-response","81","240248","0.0-1.0-119.0","0","0","48375","","null","","","null","13","","","","","","","","","","","","","","","",""
"","ISI","","html-keyboard-response","82","240755","0.0-1.0-120.0","0","0","48375","","146","","","68","13","d","","","","","","","","","","","","","","",""
"","S2","","html-keyboard-response","83","240893","0.0-1.0-121.0","0","0","48375","","127","","","75","13","","k","1","13","training","adjacent","CB","3","2","M.jpg","L.jpg","1","0","0","",""
"","feedback","","html-keyboard-response","84","241899","0.0-1.0-123.0-0.0","0","0","48375","","null","","","null","13","","","","","","","","","","","","","","","",""
"","time_out","","html-keyboard-response","85","243904","0.0-1.0-125.0-0.0","0","0","48375","","null","","","null","13","","","","","","","","","","","","","","","",""
"","ITI","","html-keyboard-response","86","244909","0.0-1.0-126.0","0","0","48375","","8","","","68","13","","","","","","","","","","","","","","","d",""
"","S1","","html-keyboard-response","87","245169","0.0-1.0-128.0","0","0","48375","","null","","","null","14","","","","","","","","","","","","","","","",""
"","ISI","","html-keyboard-response","88","245674","0.0-1.0-129.0","0","0","48375","","36","","","68","14","d","","","","","","","","","","","","","","",""
"","S2","","html-keyboard-response","89","245872","0.0-1.0-130.0","0","0","48375","","189","","","68","14","","d","1","14","training","adjacent","EF","5","6","R.jpg","Q.jpg","0","1","0","",""
"","feedback","","html-keyboard-response","90","246880","0.0-1.0-132.0-0.0","0","0","48375","","null","","","null","14","","","","","","","","","","","","","","","",""
"","time_out","","html-keyboard-response","91","248887","0.0-1.0-134.0-0.0","0","0","48375","","null","","","null","14","","","","","","","","","","","","","","","",""
"","ITI","","html-keyboard-response","92","249894","0.0-1.0-135.0","0","0","48375","","264","","","68","14","","","","","","","","","","","","","","","d",""
"","S1","","html-keyboard-response","93","250154","0.0-1.0-137.0","0","0","48375","","null","","","null","15","","","","","","","","","","","","","","","",""
"","ISI","","html-keyboard-response","94","250659","0.0-1.0-138.0","0","0","48375","","82","","","68","15","d","","","","","","","","","","","","","","",""
"","S2","","html-keyboard-response","95","250699","0.0-1.0-139.0","0","0","48375","","34","","","68","15","","d","1","15","training","adjacent","CD","3","4","M.jpg","N.jpg","0","1","0","",""
"","feedback","","html-keyboard-response","96","251707","0.0-1.0-141.0-0.0","0","0","48375","","null","","","null","15","","","","","","","","","","","","","","","",""
"","time_out","","html-keyboard-response","97","253720","0.0-1.0-143.0-0.0","0","0","48375","","null","","","null","15","","","","","","","","","","","","","","","",""
"","ITI","","html-keyboard-response","98","254730","0.0-1.0-144.0","0","0","48375","","255","","","68","15","","","","","","","","","","","","","","","d",""
"","S1","","html-keyboard-response","99","254987","0.0-1.0-146.0","0","0","48375","","null","","","null","16","","","","","","","","","","","","","","","",""
"","ISI","","html-keyboard-response","100","255500","0.0-1.0-147.0","0","0","48375","","82","","","68","16","d","","","","","","","","","","","","","","",""
"","S2","","html-keyboard-response","101","255711","0.0-1.0-148.0","0","0","48375","","204","","","68","16","","d","1","16","training","adjacent","FG","6","7","Q.jpg","O.jpg","0","1","0","",""
"","feedback","","html-keyboard-response","102","256717","0.0-1.0-150.0-0.0","0","0","48375","","null","","","null","16","","","","","","","","","","","","","","","",""
"","time_out","","html-keyboard-response","103","258728","0.0-1.0-152.0-0.0","0","0","48375","","null","","","null","16","","","","","","","","","","","","","","","",""
"","ITI","","html-keyboard-response","104","259732","0.0-1.0-153.0","0","0","48375","","35","","","75","16","","","","","","","","","","","","","","","k",""
"","S1","","html-keyboard-response","105","259984","0.0-1.0-155.0","0","0","48375","","null","","","null","17","","","","","","","","","","","","","","","",""
"","ISI","","html-keyboard-response","106","260529","0.0-1.0-156.0","0","0","48375","","79","","","68","17","d","","","","","","","","","","","","","","",""
"","S2","","html-keyboard-response","107","260539","0.0-1.0-157.0","0","0","48375","","6","","","75","17","","k","1","17","training","adjacent","GF","7","6","O.jpg","Q.jpg","1","0","0","",""
"","feedback","","html-keyboard-response","108","261546","0.0-1.0-159.0-0.0","0","0","48375","","null","","","null","17","","","","","","","","","","","","","","","",""
"","time_out","","html-keyboard-response","109","263553","0.0-1.0-161.0-0.0","0","0","48375","","null","","","null","17","","","","","","","","","","","","","","","",""
"","ITI","","html-keyboard-response","110","264559","0.0-1.0-162.0","0","0","48375","","80","","","68","17","","","","","","","","","","","","","","","d",""
"","S1","","html-keyboard-response","111","264814","0.0-1.0-164.0","0","0","48375","","null","","","null","18","","","","","","","","","","","","","","","",""
"","ISI","","html-keyboard-response","112","265321","0.0-1.0-165.0","0","0","48375","","111","","","75","18","k","","","","","","","","","","","","","","",""
"","S2","","html-keyboard-response","113","265537","0.0-1.0-166.0","0","0","48375","","212","","","68","18","","d","1","18","training","adjacent","DE","4","5","N.jpg","R.jpg","0","1","0","",""
"","feedback","","html-keyboard-response","114","266543","0.0-1.0-168.0-0.0","0","0","48375","","null","","","null","18","","","","","","","","","","","","","","","",""
"","time_out","","html-keyboard-response","115","268555","0.0-1.0-170.0-0.0","0","0","48375","","null","","","null","18","","","","","","","","","","","","","","","",""
"","ITI","","html-keyboard-response","116","269563","0.0-1.0-171.0","0","0","48375","","119","","","75","18","","","","","","","","","","","","","","","k",""
"","S1","","html-keyboard-response","117","269820","0.0-1.0-173.0","0","0","48375","","null","","","null","19","","","","","","","","","","","","","","","",""
"","ISI","","html-keyboard-response","118","270329","0.0-1.0-174.0","0","0","48375","","45","","","75","19","k","","","","","","","","","","","","","","",""
"","S2","","html-keyboard-response","119","270439","0.0-1.0-175.0","0","0","48375","","102","","","75","19","","k","1","19","training","adjacent","AB","1","2","P.jpg","L.jpg","1","1","1","",""
"","feedback","","html-keyboard-response","120","271445","0.0-1.0-177.0-0.0","0","0","48375","","null","","","null","19","","","","","","","","","","","","","","","",""
"","ITI","","html-keyboard-response","121","272454","0.0-1.0-180.0","0","0","48375","","687","","","75","19","","","","","","","","","","","","","","","k",""
"","S1","","html-keyboard-response","122","272710","0.0-1.0-182.0","0","0","48375","","null","","","null","20","","","","","","","","","","","","","","","",""
"","ISI","","html-keyboard-response","123","273217","0.0-1.0-183.0","0","0","48375","","77","","","75","20","k","","","","","","","","","","","","","","",""
"","S2","","html-keyboard-response","124","273225","0.0-1.0-184.0","0","0","48375","","2","","","68","20","","d","1","20","training","adjacent","FE","6","5","Q.jpg","R.jpg","0","0","1","",""
"","feedback","","html-keyboard-response","125","274232","0.0-1.0-186.0-0.0","0","0","48375","","null","","","null","20","","","","","","","","","","","","","","","",""
"","ITI","","html-keyboard-response","126","275249","0.0-1.0-189.0","0","0","48375","","83","","","75","20","","","","","","","","","","","","","","","k",""
"","S1","","html-keyboard-response","127","275504","0.0-1.0-191.0","0","0","48375","","null","","","null","21","","","","","","","","","","","","","","","",""
"","ISI","","html-keyboard-response","128","276011","0.0-1.0-192.0","0","0","48375","","88","","","75","21","k","","","","","","","","","","","","","","",""
"","S2","","html-keyboard-response","129","276021","0.0-1.0-193.0","0","0","48375","","4","","","68","21","","d","1","21","training","adjacent","BA","2","1","L.jpg","P.jpg","0","0","1","",""
"","feedback","","html-keyboard-response","130","277098","0.0-1.0-195.0-0.0","0","0","48375","","null","","","null","21","","","","","","","","","","","","","","","",""
"","ITI","","html-keyboard-response","131","278106","0.0-1.0-198.0","0","0","48375","","96","","","75","21","","","","","","","","","","","","","","","k",""
"","S1","","html-keyboard-response","132","278362","0.0-1.0-200.0","0","0","48375","","null","","","null","22","","","","","","","","","","","","","","","",""
"","ISI","","html-keyboard-response","133","278872","0.0-1.0-201.0","0","0","48375","","83","","","75","22","k","","","","","","","","","","","","","","",""
"","S2","","html-keyboard-response","134","279036","0.0-1.0-202.0","0","0","48375","","161","","","75","22","","k","1","22","training","adjacent","DC","4","3","N.jpg","M.jpg","1","0","0","",""
"","feedback","","html-keyboard-response","135","280042","0.0-1.0-204.0-0.0","0","0","48375","","null","","","null","22","","","","","","","","","","","","","","","",""
"","time_out","","html-keyboard-response","136","282051","0.0-1.0-206.0-0.0","0","0","48375","","null","","","null","22","","","","","","","","","","","","","","","",""
"","ITI","","html-keyboard-response","137","283062","0.0-1.0-207.0","0","0","48375","","124","","","68","22","","","","","","","","","","","","","","","d",""
"","S1","","html-keyboard-response","138","283319","0.0-1.0-209.0","0","0","48375","","null","","","null","23","","","","","","","","","","","","","","","",""
"","ISI","","html-keyboard-response","139","283827","0.0-1.0-210.0","0","0","48375","","147","","","68","23","d","","","","","","","","","","","","","","",""
"","S2","","html-keyboard-response","140","283929","0.0-1.0-211.0","0","0","48375","","96","","","75","23","","k","1","23","training","adjacent","AB","1","2","P.jpg","L.jpg","1","1","1","",""
"","feedback","","html-keyboard-response","141","284944","0.0-1.0-213.0-0.0","0","0","48375","","null","","","null","23","","","","","","","","","","","","","","","",""
"","ITI","","html-keyboard-response","142","285952","0.0-1.0-216.0","0","0","48375","","29","","","75","23","","","","","","","","","","","","","","","k",""
"","S1","","html-keyboard-response","143","286211","0.0-1.0-218.0","0","0","48375","","null","","","null","24","","","","","","","","","","","","","","","",""
"","ISI","","html-keyboard-response","144","286715","0.0-1.0-219.0","0","0","48375","","221","","","68","24","d","","","","","","","","","","","","","","",""
"","S2","","html-keyboard-response","145","286877","0.0-1.0-220.0","0","0","48375","","158","","","68","24","","d","1","24","training","adjacent","EF","5","6","R.jpg","Q.jpg","0","1","0","",""
"","feedback","","html-keyboard-response","146","287883","0.0-1.0-222.0-0.0","0","0","48375","","null","","","null","24","","","","","","","","","","","","","","","",""
"","time_out","","html-keyboard-response","147","289890","0.0-1.0-224.0-0.0","0","0","48375","","null","","","null","24","","","","","","","","","","","","","","","",""
"","ITI","","html-keyboard-response","148","290898","0.0-1.0-225.0","0","0","48375","","85","","","75","24","","","","","","","","","","","","","","","k",""
"","S1","","html-keyboard-response","149","291153","0.0-1.0-227.0","0","0","48375","","null","","","null","25","","","","","","","","","","","","","","","",""
"","ISI","","html-keyboard-response","150","291658","0.0-1.0-228.0","0","0","48375","","128","","","75","25","k","","","","","","","","","","","","","","",""
"","S2","","html-keyboard-response","151","291666","0.0-1.0-229.0","0","0","48375","","5","","","75","25","","k","1","25","training","adjacent","ED","5","4","R.jpg","N.jpg","1","0","0","",""
"","feedback","","html-keyboard-response","152","292697","0.0-1.0-231.0-0.0","0","0","48375","","null","","","null","25","","","","","","","","","","","","","","","",""
"","time_out","","html-keyboard-response","153","294719","0.0-1.0-233.0-0.0","0","0","48375","","null","","","null","25","","","","","","","","","","","","","","","",""
"","ITI","","html-keyboard-response","154","295723","0.0-1.0-234.0","0","0","48375","","54","","","68","25","","","","","","","","","","","","","","","d",""
"","S1","","html-keyboard-response","155","295977","0.0-1.0-236.0","0","0","48375","","null","","","null","26","","","","","","","","","","","","","","","",""
"","ISI","","html-keyboard-response","156","296488","0.0-1.0-237.0","0","0","48375","","34","","","68","26","d","","","","","","","","","","","","","","",""
"","S2","","html-keyboard-response","157","296597","0.0-1.0-238.0","0","0","48375","","103","","","75","26","","k","1","26","training","adjacent","GF","7","6","O.jpg","Q.jpg","1","0","0","",""
"","feedback","","html-keyboard-response","158","297604","0.0-1.0-240.0-0.0","0","0","48375","","null","","","null","26","","","","","","","","","","","","","","","",""
"","time_out","","html-keyboard-response","159","299610","0.0-1.0-242.0-0.0","0","0","48375","","null","","","null","26","","","","","","","","","","","","","","","",""
"","ITI","","html-keyboard-response","160","300619","0.0-1.0-243.0","0","0","48375","","45","","","68","26","","","","","","","","","","","","","","","d",""
"","S1","","html-keyboard-response","161","300879","0.0-1.0-245.0","0","0","48375","","null","","","null","27","","","","","","","","","","","","","","","",""
"","ISI","","html-keyboard-response","162","301386","0.0-1.0-246.0","0","0","48375","","35","","","75","27","k","","","","","","","","","","","","","","",""
"","S2","","html-keyboard-response","163","301457","0.0-1.0-247.0","0","0","48375","","64","","","75","27","","k","1","27","training","adjacent","AB","1","2","P.jpg","L.jpg","1","1","1","",""
"","feedback","","html-keyboard-response","164","302463","0.0-1.0-249.0-0.0","0","0","48375","","null","","","null","27","","","","","","","","","","","","","","","",""
"","ITI","","html-keyboard-response","165","303470","0.0-1.0-252.0","0","0","48375","","192","","","75","27","","","","","","","","","","","","","","","k",""
"","S1","","html-keyboard-response","166","303726","0.0-1.0-254.0","0","0","48375","","null","","","null","28","","","","","","","","","","","","","","","",""
"","ISI","","html-keyboard-response","167","304234","0.0-1.0-255.0","0","0","48375","","368","","","68","28","d","","","","","","","","","","","","","","",""
"","S2","","html-keyboard-response","168","304328","0.0-1.0-256.0","0","0","48375","","89","","","68","28","","d","1","28","training","adjacent","DC","4","3","N.jpg","M.jpg","0","0","1","",""
"","feedback","","html-keyboard-response","169","305333","0.0-1.0-258.0-0.0","0","0","48375","","null","","","null","28","","","","","","","","","","","","","","","",""
"","ITI","","html-keyboard-response","170","306343","0.0-1.0-261.0","0","0","48375","","193","","","68","28","","","","","","","","","","","","","","","d",""
"","S1","","html-keyboard-response","171","306599","0.0-1.0-263.0","0","0","48375","","null","","","null","29","","","","","","","","","","","","","","","",""
"","ISI","","html-keyboard-response","172","307106","0.0-1.0-264.0","0","0","48375","","226","","","68","29","d","","","","","","","","","","","","","","",""
"","S2","","html-keyboard-response","173","307364","0.0-1.0-265.0","0","0","48375","","null","","","null","29","","NaN","","","","","","","","","","","","","",""
"","response","","html-keyboard-response","174","307426","0.0-1.0-266.0-0.0","0","0","48375","","58","","","68","29","","","1","29","training","adjacent","FE","6","5","Q.jpg","R.jpg","0","0","1","",""
"","feedback","","html-keyboard-response","175","308432","0.0-1.0-267.0-0.0","0","0","48375","","null","","","null","29","","","","","","","","","","","","","","","",""
"","ITI","","html-keyboard-response","176","309436","0.0-1.0-270.0","0","0","48375","","134","","","68","29","","","","","","","","","","","","","","","d",""
"","S1","","html-keyboard-response","177","309735","0.0-1.0-272.0","0","0","48375","","null","","","null","30","","","","","","","","","","","","","","","",""
"","ISI","","html-keyboard-response","178","310244","0.0-1.0-273.0","0","0","48375","","5","","","68","30","d","","","","","","","","","","","","","","",""
"","S2","","html-keyboard-response","179","310253","0.0-1.0-274.0","0","0","48375","","2","","","75","30","","k","1","30","training","adjacent","DC","4","3","N.jpg","M.jpg","1","0","0","",""
"","feedback","","html-keyboard-response","180","311256","0.0-1.0-276.0-0.0","0","0","48375","","null","","","null","30","","","","","","","","","","","","","","","",""
"","time_out","","html-keyboard-response","181","313262","0.0-1.0-278.0-0.0","0","0","48375","","null","","","null","30","","","","","","","","","","","","","","","",""
"","ITI","","html-keyboard-response","182","314268","0.0-1.0-279.0","0","0","48375","","11","","","68","30","","","","","","","","","","","","","","","d",""
"","S1","","html-keyboard-response","183","314525","0.0-1.0-281.0","0","0","48375","","null","","","null","31","","","","","","","","","","","","","","","",""
"","ISI","","html-keyboard-response","184","315030","0.0-1.0-282.0","0","0","48375","","18","","","68","31","d","","","","","","","","","","","","","","",""
"","S2","","html-keyboard-response","185","315067","0.0-1.0-283.0","0","0","48375","","30","","","68","31","","d","1","31","training","adjacent","BC","2","3","L.jpg","M.jpg","0","1","0","",""
"","feedback","","html-keyboard-response","186","316072","0.0-1.0-285.0-0.0","0","0","48375","","null","","","null","31","","","","","","","","","","","","","","","",""
"","time_out","","html-keyboard-response","187","318084","0.0-1.0-287.0-0.0","0","0","48375","","null","","","null","31","","","","","","","","","","","","","","","",""
"","ITI","","html-keyboard-response","188","319095","0.0-1.0-288.0","0","0","48375","","90","","","75","31","","","","","","","","","","","","","","","k",""
"","S1","","html-keyboard-response","189","319349","0.0-1.0-290.0","0","0","48375","","null","","","null","32","","","","","","","","","","","","","","","",""
"","ISI","","html-keyboard-response","190","319860","0.0-1.0-291.0","0","0","48375","","152","","","75","32","k","","","","","","","","","","","","","","",""
"","S2","","html-keyboard-response","191","319874","0.0-1.0-292.0","0","0","48375","","7","","","75","32","","k","1","32","training","adjacent","ED","5","4","R.jpg","N.jpg","1","0","0","",""
"","feedback","","html-keyboard-response","192","320879","0.0-1.0-294.0-0.0","0","0","48375","","null","","","null","32","","","","","","","","","","","","","","","",""
"","time_out","","html-keyboard-response","193","322885","0.0-1.0-296.0-0.0","0","0","48375","","null","","","null","32","","","","","","","","","","","","","","","",""
"","ITI","","html-keyboard-response","194","323890","0.0-1.0-297.0","0","0","48375","","49","","","68","32","","","","","","","","","","","","","","","d",""
"","S1","","html-keyboard-response","195","324146","0.0-1.0-299.0","0","0","48375","","null","","","null","33","","","","","","","","","","","","","","","",""
"","ISI","","html-keyboard-response","196","324660","0.0-1.0-300.0","0","0","48375","","128","","","75","33","k","","","","","","","","","","","","","","",""
"","S2","","html-keyboard-response","197","324670","0.0-1.0-301.0","0","0","48375","","4","","","75","33","","k","1","33","training","adjacent","AB","1","2","P.jpg","L.jpg","1","1","1","",""
"","feedback","","html-keyboard-response","198","325825","0.0-1.0-303.0-0.0","0","0","48375","","null","","","null","33","","","","","","","","","","","","","","","",""
"","ITI","","html-keyboard-response","199","326830","0.0-1.0-306.0","0","0","48375","","75","","","75","33","","","","","","","","","","","","","","","k",""
"","S1","","html-keyboard-response","200","327088","0.0-1.0-308.0","0","0","48375","","null","","","null","34","","","","","","","","","","","","","","","",""
"","ISI","","html-keyboard-response","201","327611","0.0-1.0-309.0","0","0","48375","","null","","","null","34","NaN","","","","","","","","","","","","","","",""
"","S2","","html-keyboard-response","202","327659","0.0-1.0-310.0","0","0","48375","","37","","","75","34","","k","1","34","training","adjacent","DC","4","3","N.jpg","M.jpg","1","0","0","",""
"","feedback","","html-keyboard-response","203","328667","0.0-1.0-312.0-0.0","0","0","48375","","null","","","null","34","","","","","","","","","","","","","","","",""
"","time_out","","html-keyboard-response","204","330707","0.0-1.0-314.0-0.0","0","0","48375","","null","","","null","34","","","","","","","","","","","","","","","",""
"","ITI","","html-keyboard-response","205","331714","0.0-1.0-315.0","0","0","48375","","500","","","68","34","","","","","","","","","","","","","","","d",""
"","S1","","html-keyboard-response","206","331970","0.0-1.0-317.0","0","0","48375","","null","","","null","35","","","","","","","","","","","","","","","",""
"","ISI","","html-keyboard-response","207","332476","0.0-1.0-318.0","0","0","48375","","255","","","75","35","k","","","","","","","","","","","","","","",""
"","S2","","html-keyboard-response","208","332651","0.0-1.0-319.0","0","0","48375","","168","","","75","35","","k","1","35","training","adjacent","CD","3","4","M.jpg","N.jpg","1","1","1","",""
"","feedback","","html-keyboard-response","209","333658","0.0-1.0-321.0-0.0","0","0","48375","","null","","","null","35","","","","","","","","","","","","","","","",""
"","ITI","","html-keyboard-response","210","334667","0.0-1.0-324.0","0","0","48375","","528","","","75","35","","","","","","","","","","","","","","","k",""
"","S1","","html-keyboard-response","211","334927","0.0-1.0-326.0","0","0","48375","","null","","","null","36","","","","","","","","","","","","","","","",""
"","ISI","","html-keyboard-response","212","335432","0.0-1.0-327.0","0","0","48375","","166","","","75","36","k","","","","","","","","","","","","","","",""
"","S2","","html-keyboard-response","213","335685","0.0-1.0-328.0","0","0","48375","","null","","","null","36","","NaN","","","","","","","","","","","","","",""
"","response","","html-keyboard-response","214","335904","0.0-1.0-329.0-0.0","0","0","48375","","212","","","68","36","","","1","36","training","adjacent","DE","4","5","N.jpg","R.jpg","0","1","0","",""
"","feedback","","html-keyboard-response","215","336916","0.0-1.0-330.0-0.0","0","0","48375","","null","","","null","36","","","","","","","","","","","","","","","",""
"","time_out","","html-keyboard-response","216","338951","0.0-1.0-332.0-0.0","0","0","48375","","null","","","null","36","","","","","","","","","","","","","","","",""
"","ITI","","html-keyboard-response","217","339959","0.0-1.0-333.0","0","0","48375","","32","","","68","36","","","","","","","","","","","","","","","d",""
"","S1","","html-keyboard-response","218","340222","0.0-1.0-335.0","0","0","48375","","null","","","null","37","","","","","","","","","","","","","","","",""
"","ISI","","html-keyboard-response","219","340727","0.0-1.0-336.0","0","0","48375","","282","","","68","37","d","","","","","","","","","","","","","","",""
"","S2","","html-keyboard-response","220","340833","0.0-1.0-337.0","0","0","48375","","99","","","68","37","","d","1","37","training","adjacent","GF","7","6","O.jpg","Q.jpg","0","0","1","",""
"","feedback","","html-keyboard-response","221","341842","0.0-1.0-339.0-0.0","0","0","48375","","null","","","null","37","","","","","","","","","","","","","","","",""
"","ITI","","html-keyboard-response","222","342850","0.0-1.0-342.0","0","0","48375","","151","","","68","37","","","","","","","","","","","","","","","d",""
"","S1","","html-keyboard-response","223","343107","0.0-1.0-344.0","0","0","48375","","null","","","null","38","","","","","","","","","","","","","","","",""
"","ISI","","html-keyboard-response","224","343609","0.0-1.0-345.0","0","0","48375","","18","","","75","38","k","","","","","","","","","","","","","","",""
"","S2","","html-keyboard-response","225","343866","0.0-1.0-346.0","0","0","48375","","null","","","null","38","","NaN","","","","","","","","","","","","","",""
"","response","","html-keyboard-response","226","345431","0.0-1.0-347.0-0.0","0","0","48375","","1557","","","68","38","","","1","38","training","adjacent","GF","7","6","O.jpg","Q.jpg","0","0","1","",""
"","feedback","","html-keyboard-response","227","346438","0.0-1.0-348.0-0.0","0","0","48375","","null","","","null","38","","","","","","","","","","","","","","","",""
"","ITI","","html-keyboard-response","228","347445","0.0-1.0-351.0","0","0","48375","","0","","","68","38","","","","","","","","","","","","","","","d",""
"","S1","","html-keyboard-response","229","347703","0.0-1.0-353.0","0","0","48375","","null","","","null","39","","","","","","","","","","","","","","","",""
"","ISI","","html-keyboard-response","230","348208","0.0-1.0-354.0","0","0","48375","","1","","","75","39","k","","","","","","","","","","","","","","",""
"","S2","","html-keyboard-response","231","348248","0.0-1.0-355.0","0","0","48375","","33","","","68","39","","d","1","39","training","adjacent","BA","2","1","L.jpg","P.jpg","0","0","1","",""
"","feedback","","html-keyboard-response","232","349257","0.0-1.0-357.0-0.0","0","0","48375","","null","","","null","39","","","","","","","","","","","","","","","",""
"","ITI","","html-keyboard-response","233","350263","0.0-1.0-360.0","0","0","48375","","89","","","68","39","","","","","","","","","","","","","","","d",""
"","S1","","html-keyboard-response","234","350518","0.0-1.0-362.0","0","0","48375","","null","","","null","40","","","","","","","","","","","","","","","",""
"","ISI","","html-keyboard-response","235","351022","0.0-1.0-363.0","0","0","48375","","168","","","68","40","d","","","","","","","","","","","","","","",""
"","S2","","html-keyboard-response","236","351227","0.0-1.0-364.0","0","0","48375","","199","","","68","40","","d","1","40","training","adjacent","EF","5","6","R.jpg","Q.jpg","0","1","0","",""
"","feedback","","html-keyboard-response","237","352233","0.0-1.0-366.0-0.0","0","0","48375","","null","","","null","40","","","","","","","","","","","","","","","",""
"","time_out","","html-keyboard-response","238","354241","0.0-1.0-368.0-0.0","0","0","48375","","null","","","null","40","","","","","","","","","","","","","","","",""
"","ITI","","html-keyboard-response","239","355249","0.0-1.0-369.0","0","0","48375","","422","","","75","40","","","","","","","","","","","","","","","k",""
"","S1","","html-keyboard-response","240","355505","0.0-1.0-371.0","0","0","48375","","null","","","null","41","","","","","","","","","","","","","","","",""
"","ISI","","html-keyboard-response","241","356014","0.0-1.0-372.0","0","0","48375","","16","","","75","41","k","","","","","","","","","","","","","","",""
"","S2","","html-keyboard-response","242","356109","0.0-1.0-373.0","0","0","48375","","91","","","68","41","","d","1","41","training","adjacent","FG","6","7","Q.jpg","O.jpg","0","1","0","",""
"","feedback","","html-keyboard-response","243","357122","0.0-1.0-375.0-0.0","0","0","48375","","null","","","null","41","","","","","","","","","","","","","","","",""
"","time_out","","html-keyboard-response","244","359130","0.0-1.0-377.0-0.0","0","0","48375","","null","","","null","41","","","","","","","","","","","","","","","",""
"","ITI","","html-keyboard-response","245","360138","0.0-1.0-378.0","0","0","48375","","366","","","75","41","","","","","","","","","","","","","","","k",""
"","S1","","html-keyboard-response","246","360395","0.0-1.0-380.0","0","0","48375","","null","","","null","42","","","","","","","","","","","","","","","",""
"","ISI","","html-keyboard-response","247","360899","0.0-1.0-381.0","0","0","48375","","209","","","68","42","d","","","","","","","","","","","","","","",""
"","S2","","html-keyboard-response","248","361136","0.0-1.0-382.0","0","0","48375","","234","","","68","42","","d","1","42","training","adjacent","BA","2","1","L.jpg","P.jpg","0","0","1","",""
"","feedback","","html-keyboard-response","249","362144","0.0-1.0-384.0-0.0","0","0","48375","","null","","","null","42","","","","","","","","","","","","","","","",""
"","ITI","","html-keyboard-response","250","363149","0.0-1.0-387.0","0","0","48375","","221","","","68","42","","","","","","","","","","","","","","","d",""
"","S1","","html-keyboard-response","251","363403","0.0-1.0-389.0","0","0","48375","","null","","","null","43","","","","","","","","","","","","","","","",""
"","ISI","","html-keyboard-response","252","363910","0.0-1.0-390.0","0","0","48375","","40","","","75","43","k","","","","","","","","","","","","","","",""
"","S2","","html-keyboard-response","253","364031","0.0-1.0-391.0","0","0","48375","","114","","","75","43","","k","1","43","training","adjacent","ED","5","4","R.jpg","N.jpg","1","0","0","",""
"","feedback","","html-keyboard-response","254","365038","0.0-1.0-393.0-0.0","0","0","48375","","null","","","null","43","","","","","","","","","","","","","","","",""
"","time_out","","html-keyboard-response","255","367043","0.0-1.0-395.0-0.0","0","0","48375","","null","","","null","43","","","","","","","","","","","","","","","",""
"","ITI","","html-keyboard-response","256","368048","0.0-1.0-396.0","0","0","48375","","254","","","68","43","","","","","","","","","","","","","","","d",""
"","S1","","html-keyboard-response","257","368304","0.0-1.0-398.0","0","0","48375","","null","","","null","44","","","","","","","","","","","","","","","",""
"","ISI","","html-keyboard-response","258","368808","0.0-1.0-399.0","0","0","48375","","323","","","75","44","k","","","","","","","","","","","","","","",""
"","S2","","html-keyboard-response","259","368836","0.0-1.0-400.0","0","0","48375","","25","","","68","44","","d","1","44","training","adjacent","BC","2","3","L.jpg","M.jpg","0","1","0","",""
"","feedback","","html-keyboard-response","260","370011","0.0-1.0-402.0-0.0","0","0","48375","","null","","","null","44","","","","","","","","","","","","","","","",""
"","time_out","","html-keyboard-response","261","372096","0.0-1.0-404.0-0.0","0","0","48375","","null","","","null","44","","","","","","","","","","","","","","","",""
"","ITI","","html-keyboard-response","262","373104","0.0-1.0-405.0","0","0","48375","","56","","","68","44","","","","","","","","","","","","","","","d",""
"","S1","","html-keyboard-response","263","373357","0.0-1.0-407.0","0","0","48375","","null","","","null","45","","","","","","","","","","","","","","","",""
"","ISI","","html-keyboard-response","264","373860","0.0-1.0-408.0","0","0","48375","","88","","","75","45","k","","","","","","","","","","","","","","",""
"","S2","","html-keyboard-response","265","373972","0.0-1.0-409.0","0","0","48375","","105","","","75","45","","k","1","45","training","adjacent","CD","3","4","M.jpg","N.jpg","1","1","1","",""
"","feedback","","html-keyboard-response","266","374981","0.0-1.0-411.0-0.0","0","0","48375","","null","","","null","45","","","","","","","","","","","","","","","",""
"","ITI","","html-keyboard-response","267","375987","0.0-1.0-414.0","0","0","48375","","3","","","68","45","","","","","","","","","","","","","","","d",""
"","S1","","html-keyboard-response","268","376241","0.0-1.0-416.0","0","0","48375","","null","","","null","46","","","","","","","","","","","","","","","",""
"","ISI","","html-keyboard-response","269","376748","0.0-1.0-417.0","0","0","48375","","73","","","68","46","d","","","","","","","","","","","","","","",""
"","S2","","html-keyboard-response","270","376786","0.0-1.0-418.0","0","0","48375","","29","","","68","46","","d","1","46","training","adjacent","BC","2","3","L.jpg","M.jpg","0","1","0","",""
"","feedback","","html-keyboard-response","271","377791","0.0-1.0-420.0-0.0","0","0","48375","","null","","","null","46","","","","","","","","","","","","","","","",""
"","time_out","","html-keyboard-response","272","379797","0.0-1.0-422.0-0.0","0","0","48375","","null","","","null","46","","","","","","","","","","","","","","","",""
"","ITI","","html-keyboard-response","273","380801","0.0-1.0-423.0","0","0","48375","","106","","","75","46","","","","","","","","","","","","","","","k",""
"","S1","","html-keyboard-response","274","381055","0.0-1.0-425.0","0","0","48375","","null","","","null","47","","","","","","","","","","","","","","","",""
"","ISI","","html-keyboard-response","275","381559","0.0-1.0-426.0","0","0","48375","","9","","","68","47","d","","","","","","","","","","","","","","",""
"","S2","","html-keyboard-response","276","381578","0.0-1.0-427.0","0","0","48375","","5","","","75","47","","k","1","47","training","adjacent","CB","3","2","M.jpg","L.jpg","1","0","0","",""
"","feedback","","html-keyboard-response","277","382585","0.0-1.0-429.0-0.0","0","0","48375","","null","","","null","47","","","","","","","","","","","","","","","",""
"","time_out","","html-keyboard-response","278","384592","0.0-1.0-431.0-0.0","0","0","48375","","null","","","null","47","","","","","","","","","","","","","","","",""
"","ITI","","html-keyboard-response","279","385598","0.0-1.0-432.0","0","0","48375","","56","","","68","47","","","","","","","","","","","","","","","d",""
"","block_over","","html-keyboard-response","280","398521","0.0-1.0-433.0-0.0","0","0","48375","","12909","","","32","47","","","","","","","","","","","","","","","",""
"","S1","","html-keyboard-response","281","398781","0.0-1.0-434.0","0","0","48375","","null","","","null","48","","","","","","","","","","","","","","","",""
"","ISI","","html-keyboard-response","282","399287","0.0-1.0-435.0","0","0","48375","","null","","","null","48","NaN","","","","","","","","","","","","","","",""
"","S2","","html-keyboard-response","283","399545","0.0-1.0-436.0","0","0","48375","","null","","","null","48","","NaN","","","","","","","","","","","","","",""
"","response","","html-keyboard-response","284","400490","0.0-1.0-437.0-0.0","0","0","48375","","937","","","68","48","","","2","48","training","adjacent","ED","5","4","R.jpg","N.jpg","0","0","1","",""
"","feedback","","html-keyboard-response","285","401498","0.0-1.0-438.0-0.0","0","0","48375","","null","","","null","48","","","","","","","","","","","","","","","",""
"","ITI","","html-keyboard-response","286","402506","0.0-1.0-441.0","0","0","48375","","46","","","75","48","","","","","","","","","","","","","","","k",""
"","S1","","html-keyboard-response","287","402817","0.0-1.0-443.0","0","0","48375","","null","","","null","49","","","","","","","","","","","","","","","",""
"","ISI","","html-keyboard-response","288","403321","0.0-1.0-444.0","0","0","48375","","83","","","68","49","d","","","","","","","","","","","","","","",""
"","S2","","html-keyboard-response","289","403440","0.0-1.0-445.0","0","0","48375","","112","","","75","49","","k","2","49","training","adjacent","DE","4","5","N.jpg","R.jpg","1","1","1","",""
"","feedback","","html-keyboard-response","290","404451","0.0-1.0-447.0-0.0","0","0","48375","","null","","","null","49","","","","","","","","","","","","","","","",""
"","ITI","","html-keyboard-response","291","405458","0.0-1.0-450.0","0","0","48375","","166","","","68","49","","","","","","","","","","","","","","","d",""
"","S1","","html-keyboard-response","292","405714","0.0-1.0-452.0","0","0","48375","","null","","","null","50","","","","","","","","","","","","","","","",""
"","ISI","","html-keyboard-response","293","406219","0.0-1.0-453.0","0","0","48375","","58","","","75","50","k","","","","","","","","","","","","","","",""
"","S2","","html-keyboard-response","294","406231","0.0-1.0-454.0","0","0","48375","","6","","","68","50","","d","2","50","training","adjacent","FE","6","5","Q.jpg","R.jpg","0","0","1","",""
"","feedback","","html-keyboard-response","295","407239","0.0-1.0-456.0-0.0","0","0","48375","","null","","","null","50","","","","","","","","","","","","","","","",""
"","ITI","","html-keyboard-response","296","408251","0.0-1.0-459.0","0","0","48375","","21","","","68","50","","","","","","","","","","","","","","","d",""
"","S1","","html-keyboard-response","297","408505","0.0-1.0-461.0","0","0","48375","","null","","","null","51","","","","","","","","","","","","","","","",""
"","ISI","","html-keyboard-response","298","409017","0.0-1.0-462.0","0","0","48375","","null","","","null","51","NaN","","","","","","","","","","","","","","",""
"","S2","","html-keyboard-response","299","409274","0.0-1.0-463.0","0","0","48375","","null","","","null","51","","NaN","","","","","","","","","","","","","",""
"","response","","html-keyboard-response","300","411029","0.0-1.0-464.0-0.0","0","0","48375","","null","","","null","51","","","2","51","training","adjacent","GF","7","6","O.jpg","Q.jpg","NaN","0","0","",""
"","too_slow_prompt","","html-keyboard-response","301","412035","0.0-1.0-466.0-0.0","1","0","48375","","null","","","null","","","","","","","","","","","","","","","","",""
"","time_out","","html-keyboard-response","302","414046","0.0-1.0-467.0-0.0","0","0","48375","","null","","","null","51","","","","","","","","","","","","","","","",""
"","ITI","","html-keyboard-response","303","415055","0.0-1.0-468.0","0","0","48375","","118","","","68","51","","","","","","","","","","","","","","","d",""
"","S1","","html-keyboard-response","304","415316","0.0-1.0-470.0","0","0","48375","","null","","","null","52","","","","","","","","","","","","","","","",""
"","ISI","","html-keyboard-response","305","415825","0.0-1.0-471.0","0","0","48375","","91","","","75","52","k","","","","","","","","","","","","","","",""
"","S2","","html-keyboard-response","306","415948","0.0-1.0-472.0","0","0","48375","","114","","","68","52","","d","2","52","training","adjacent","BA","2","1","L.jpg","P.jpg","0","0","1","",""
"","feedback","","html-keyboard-response","307","416951","0.0-1.0-474.0-0.0","0","0","48375","","null","","","null","52","","","","","","","","","","","","","","","",""
"","ITI","","html-keyboard-response","308","417956","0.0-1.0-477.0","0","0","48375","","112","","","75","52","","","","","","","","","","","","","","","k",""
"","S1","","html-keyboard-response","309","418219","0.0-1.0-479.0","0","0","48375","","null","","","null","53","","","","","","","","","","","","","","","",""
"","ISI","","html-keyboard-response","310","418726","0.0-1.0-480.0","0","0","48375","","27","","","75","53","k","","","","","","","","","","","","","","",""
"","S2","","html-keyboard-response","311","418731","0.0-1.0-481.0","0","0","48375","","1","","","68","53","","d","2","53","training","adjacent","EF","5","6","R.jpg","Q.jpg","0","1","0","",""
"","feedback","","html-keyboard-response","312","419735","0.0-1.0-483.0-0.0","0","0","48375","","null","","","null","53","","","","","","","","","","","","","","","",""
"","time_out","","html-keyboard-response","313","421742","0.0-1.0-485.0-0.0","0","0","48375","","null","","","null","53","","","","","","","","","","","","","","","",""
"","ITI","","html-keyboard-response","314","422754","0.0-1.0-486.0","0","0","48375","","151","","","75","53","","","","","","","","","","","","","","","k",""
"","S1","","html-keyboard-response","315","423010","0.0-1.0-488.0","0","0","48375","","null","","","null","54","","","","","","","","","","","","","","","",""
"","ISI","","html-keyboard-response","316","423516","0.0-1.0-489.0","0","0","48375","","null","","","null","54","NaN","","","","","","","","","","","","","","",""
"","S2","","html-keyboard-response","317","423778","0.0-1.0-490.0","0","0","48375","","null","","","null","54","","NaN","","","","","","","","","","","","","",""
"","response","","html-keyboard-response","318","425485","0.0-1.0-491.0-0.0","0","0","48375","","1697","","","75","54","","","2","54","training","adjacent","EF","5","6","R.jpg","Q.jpg","1","1","1","",""
"","feedback","","html-keyboard-response","319","426495","0.0-1.0-492.0-0.0","0","0","48375","","null","","","null","54","","","","","","","","","","","","","","","",""
"","ITI","","html-keyboard-response","320","427501","0.0-1.0-495.0","0","0","48375","","769","","","68","54","","","","","","","","","","","","","","","d",""
"","S1","","html-keyboard-response","321","427756","0.0-1.0-497.0","0","0","48375","","null","","","null","55","","","","","","","","","","","","","","","",""
"","ISI","","html-keyboard-response","322","428260","0.0-1.0-498.0","0","0","48375","","128","","","68","55","d","","","","","","","","","","","","","","",""
"","S2","","html-keyboard-response","323","428271","0.0-1.0-499.0","0","0","48375","","7","","","68","55","","d","2","55","training","adjacent","CB","3","2","M.jpg","L.jpg","0","0","1","",""
"","feedback","","html-keyboard-response","324","429279","0.0-1.0-501.0-0.0","0","0","48375","","null","","","null","55","","","","","","","","","","","","","","","",""
"","ITI","","html-keyboard-response","325","430330","0.0-1.0-504.0","0","0","48375","","182","","","68","55","","","","","","","","","","","","","","","d",""
"","S1","","html-keyboard-response","326","430585","0.0-1.0-506.0","0","0","48375","","null","","","null","56","","","","","","","","","","","","","","","",""
"","ISI","","html-keyboard-response","327","431105","0.0-1.0-507.0","0","0","48375","","164","","","68","56","d","","","","","","","","","","","","","","",""
"","S2","","html-keyboard-response","328","431342","0.0-1.0-508.0","0","0","48375","","231","","","68","56","","d","2","56","training","adjacent","DC","4","3","N.jpg","M.jpg","0","0","1","",""
"","feedback","","html-keyboard-response","329","432352","0.0-1.0-510.0-0.0","0","0","48375","","null","","","null","56","","","","","","","","","","","","","","","",""
"","ITI","","html-keyboard-response","330","433361","0.0-1.0-513.0","0","0","48375","","165","","","68","56","","","","","","","","","","","","","","","d",""
"","S1","","html-keyboard-response","331","433616","0.0-1.0-515.0","0","0","48375","","null","","","null","57","","","","","","","","","","","","","","","",""
"","ISI","","html-keyboard-response","332","434120","0.0-1.0-516.0","0","0","48375","","351","","","68","57","d","","","","","","","","","","","","","","",""
"","S2","","html-keyboard-response","333","434234","0.0-1.0-517.0","0","0","48375","","108","","","68","57","","d","2","57","training","adjacent","BA","2","1","L.jpg","P.jpg","0","0","1","",""
"","feedback","","html-keyboard-response","334","435261","0.0-1.0-519.0-0.0","0","0","48375","","null","","","null","57","","","","","","","","","","","","","","","",""
"","ITI","","html-keyboard-response","335","436266","0.0-1.0-522.0","0","0","48375","","88","","","75","57","","","","","","","","","","","","","","","k",""
"","S1","","html-keyboard-response","336","436523","0.0-1.0-524.0","0","0","48375","","null","","","null","58","","","","","","","","","","","","","","","",""
"","ISI","","html-keyboard-response","337","437029","0.0-1.0-525.0","0","0","48375","","314","","","75","58","k","","","","","","","","","","","","","","",""
"","S2","","html-keyboard-response","338","437161","0.0-1.0-526.0","0","0","48375","","126","","","68","58","","d","2","58","training","adjacent","FE","6","5","Q.jpg","R.jpg","0","0","1","",""
"","feedback","","html-keyboard-response","339","438167","0.0-1.0-528.0-0.0","0","0","48375","","null","","","null","58","","","","","","","","","","","","","","","",""
"","ITI","","html-keyboard-response","340","439175","0.0-1.0-531.0","0","0","48375","","132","","","75","58","","","","","","","","","","","","","","","k",""
"","S1","","html-keyboard-response","341","439431","0.0-1.0-533.0","0","0","48375","","null","","","null","59","","","","","","","","","","","","","","","",""
"","ISI","","html-keyboard-response","342","439938","0.0-1.0-534.0","0","0","48375","","46","","","68","59","d","","","","","","","","","","","","","","",""
"","S2","","html-keyboard-response","343","439962","0.0-1.0-535.0","0","0","48375","","18","","","68","59","","d","2","59","training","adjacent","ED","5","4","R.jpg","N.jpg","0","0","1","",""
"","feedback","","html-keyboard-response","344","440969","0.0-1.0-537.0-0.0","0","0","48375","","null","","","null","59","","","","","","","","","","","","","","","",""
"","ITI","","html-keyboard-response","345","441978","0.0-1.0-540.0","0","0","48375","","108","","","75","59","","","","","","","","","","","","","","","k",""
"","S1","","html-keyboard-response","346","442234","0.0-1.0-542.0","0","0","48375","","null","","","null","60","","","","","","","","","","","","","","","",""
"","ISI","","html-keyboard-response","347","442739","0.0-1.0-543.0","0","0","48375","","76","","","68","60","d","","","","","","","","","","","","","","",""
"","S2","","html-keyboard-response","348","442773","0.0-1.0-544.0","0","0","48375","","26","","","68","60","","d","2","60","training","adjacent","DC","4","3","N.jpg","M.jpg","0","0","1","",""
"","feedback","","html-keyboard-response","349","443780","0.0-1.0-546.0-0.0","0","0","48375","","null","","","null","60","","","","","","","","","","","","","","","",""
"","ITI","","html-keyboard-response","350","444785","0.0-1.0-549.0","0","0","48375","","71","","","68","60","","","","","","","","","","","","","","","d",""
"","S1","","html-keyboard-response","351","445133","0.0-1.0-551.0","0","0","48375","","null","","","null","61","","","","","","","","","","","","","","","",""
"","ISI","","html-keyboard-response","352","445641","0.0-1.0-552.0","0","0","48375","","17","","","68","61","d","","","","","","","","","","","","","","",""
"","S2","","html-keyboard-response","353","445800","0.0-1.0-553.0","0","0","48375","","154","","","75","61","","k","2","61","training","adjacent","GF","7","6","O.jpg","Q.jpg","1","0","0","",""
"","feedback","","html-keyboard-response","354","446804","0.0-1.0-555.0-0.0","0","0","48375","","null","","","null","61","","","","","","","","","","","","","","","",""
"","time_out","","html-keyboard-response","355","448811","0.0-1.0-557.0-0.0","0","0","48375","","null","","","null","61","","","","","","","","","","","","","","","",""
"","ITI","","html-keyboard-response","356","449816","0.0-1.0-558.0","0","0","48375","","66","","","75","61","","","","","","","","","","","","","","","k",""
"","S1","","html-keyboard-response","357","450071","0.0-1.0-560.0","0","0","48375","","null","","","null","62","","","","","","","","","","","","","","","",""
"","ISI","","html-keyboard-response","358","450576","0.0-1.0-561.0","0","0","48375","","88","","","75","62","k","","","","","","","","","","","","","","",""
"","S2","","html-keyboard-response","359","450614","0.0-1.0-562.0","0","0","48375","","31","","","68","62","","d","2","62","training","adjacent","DE","4","5","N.jpg","R.jpg","0","1","0","",""
"","feedback","","html-keyboard-response","360","451644","0.0-1.0-564.0-0.0","0","0","48375","","null","","","null","62","","","","","","","","","","","","","","","",""
"","time_out","","html-keyboard-response","361","453657","0.0-1.0-566.0-0.0","0","0","48375","","null","","","null","62","","","","","","","","","","","","","","","",""
"","ITI","","html-keyboard-response","362","454701","0.0-1.0-567.0","0","0","48375","","52","","","75","62","","","","","","","","","","","","","","","k",""
"","S1","","html-keyboard-response","363","454958","0.0-1.0-569.0","0","0","48375","","null","","","null","63","","","","","","","","","","","","","","","",""
"","ISI","","html-keyboard-response","364","455470","0.0-1.0-570.0","0","0","48375","","10","","","68","63","d","","","","","","","","","","","","","","",""
"","S2","","html-keyboard-response","365","455723","0.0-1.0-571.0","0","0","48375","","null","","","null","63","","NaN","","","","","","","","","","","","","",""
"","response","","html-keyboard-response","366","455743","0.0-1.0-572.0-0.0","0","0","48375","","13","","","75","63","","","2","63","training","adjacent","DC","4","3","N.jpg","M.jpg","1","0","0","",""
"","feedback","","html-keyboard-response","367","456753","0.0-1.0-573.0-0.0","0","0","48375","","null","","","null","63","","","","","","","","","","","","","","","",""
"","time_out","","html-keyboard-response","368","458797","0.0-1.0-575.0-0.0","0","0","48375","","null","","","null","63","","","","","","","","","","","","","","","",""
"","ITI","","html-keyboard-response","369","459804","0.0-1.0-576.0","0","0","48375","","135","","","75","63","","","","","","","","","","","","","","","k",""
"","S1","","html-keyboard-response","370","460063","0.0-1.0-578.0","0","0","48375","","null","","","null","64","","","","","","","","","","","","","","","",""
"","ISI","","html-keyboard-response","371","460568","0.0-1.0-579.0","0","0","48375","","195","","","68","64","d","","","","","","","","","","","","","","",""
"","S2","","html-keyboard-response","372","460785","0.0-1.0-580.0","0","0","48375","","212","","","75","64","","k","2","64","training","adjacent","CD","3","4","M.jpg","N.jpg","1","1","1","",""
"","feedback","","html-keyboard-response","373","461807","0.0-1.0-582.0-0.0","0","0","48375","","null","","","null","64","","","","","","","","","","","","","","","",""
"","ITI","","html-keyboard-response","374","462813","0.0-1.0-585.0","0","0","48375","","30","","","68","64","","","","","","","","","","","","","","","d",""
"","S1","","html-keyboard-response","375","463069","0.0-1.0-587.0","0","0","48375","","null","","","null","65","","","","","","","","","","","","","","","",""
"","ISI","","html-keyboard-response","376","463577","0.0-1.0-588.0","0","0","48375","","238","","","68","65","d","","","","","","","","","","","","","","",""
"","S2","","html-keyboard-response","377","463813","0.0-1.0-589.0","0","0","48375","","232","","","68","65","","d","2","65","training","adjacent","EF","5","6","R.jpg","Q.jpg","0","1","0","",""
"","feedback","","html-keyboard-response","378","464818","0.0-1.0-591.0-0.0","0","0","48375","","null","","","null","65","","","","","","","","","","","","","","","",""
"","time_out","","html-keyboard-response","379","466825","0.0-1.0-593.0-0.0","0","0","48375","","null","","","null","65","","","","","","","","","","","","","","","",""
"","ITI","","html-keyboard-response","380","467829","0.0-1.0-594.0","0","0","48375","","11","","","68","65","","","","","","","","","","","","","","","d",""
"","S1","","html-keyboard-response","381","468087","0.0-1.0-596.0","0","0","48375","","null","","","null","66","","","","","","","","","","","","","","","",""
"","ISI","","html-keyboard-response","382","468593","0.0-1.0-597.0","0","0","48375","","113","","","68","66","d","","","","","","","","","","","","","","",""
"","S2","","html-keyboard-response","383","468790","0.0-1.0-598.0","0","0","48375","","193","","","68","66","","d","2","66","training","adjacent","CD","3","4","M.jpg","N.jpg","0","1","0","",""
"","feedback","","html-keyboard-response","384","469800","0.0-1.0-600.0-0.0","0","0","48375","","null","","","null","66","","","","","","","","","","","","","","","",""
"","time_out","","html-keyboard-response","385","471802","0.0-1.0-602.0-0.0","0","0","48375","","null","","","null","66","","","","","","","","","","","","","","","",""
"","ITI","","html-keyboard-response","386","472822","0.0-1.0-603.0","0","0","48375","","256","","","75","66","","","","","","","","","","","","","","","k",""
"","S1","","html-keyboard-response","387","473075","0.0-1.0-605.0","0","0","48375","","null","","","null","67","","","","","","","","","","","","","","","",""
"","ISI","","html-keyboard-response","388","473580","0.0-1.0-606.0","0","0","48375","","52","","","75","67","k","","","","","","","","","","","","","","",""
"","S2","","html-keyboard-response","389","473839","0.0-1.0-607.0","0","0","48375","","null","","","null","67","","NaN","","","","","","","","","","","","","",""
"","response","","html-keyboard-response","390","473907","0.0-1.0-608.0-0.0","0","0","48375","","62","","","68","67","","","2","67","training","adjacent","FG","6","7","Q.jpg","O.jpg","0","1","0","",""
"","feedback","","html-keyboard-response","391","474914","0.0-1.0-609.0-0.0","0","0","48375","","null","","","null","67","","","","","","","","","","","","","","","",""
"","time_out","","html-keyboard-response","392","476920","0.0-1.0-611.0-0.0","0","0","48375","","null","","","null","67","","","","","","","","","","","","","","","",""
"","ITI","","html-keyboard-response","393","477927","0.0-1.0-612.0","0","0","48375","","129","","","68","67","","","","","","","","","","","","","","","d",""
"","S1","","html-keyboard-response","394","478183","0.0-1.0-614.0","0","0","48375","","null","","","null","68","","","","","","","","","","","","","","","",""
"","ISI","","html-keyboard-response","395","478689","0.0-1.0-615.0","0","0","48375","","257","","","68","68","d","","","","","","","","","","","","","","",""
"","S2","","html-keyboard-response","396","478726","0.0-1.0-616.0","0","0","48375","","27","","","68","68","","d","2","68","training","adjacent","BC","2","3","L.jpg","M.jpg","0","1","0","",""
"","feedback","","html-keyboard-response","397","479737","0.0-1.0-618.0-0.0","0","0","48375","","null","","","null","68","","","","","","","","","","","","","","","",""
"","time_out","","html-keyboard-response","398","481744","0.0-1.0-620.0-0.0","0","0","48375","","null","","","null","68","","","","","","","","","","","","","","","",""
"","ITI","","html-keyboard-response","399","482761","0.0-1.0-621.0","0","0","48375","","133","","","68","68","","","","","","","","","","","","","","","d",""
"","S1","","html-keyboard-response","400","483021","0.0-1.0-623.0","0","0","48375","","null","","","null","69","","","","","","","","","","","","","","","",""
"","ISI","","html-keyboard-response","401","483526","0.0-1.0-624.0","0","0","48375","","56","","","75","69","k","","","","","","","","","","","","","","",""
"","S2","","html-keyboard-response","402","483614","0.0-1.0-625.0","0","0","48375","","83","","","68","69","","d","2","69","training","adjacent","BC","2","3","L.jpg","M.jpg","0","1","0","",""
"","feedback","","html-keyboard-response","403","484622","0.0-1.0-627.0-0.0","0","0","48375","","null","","","null","69","","","","","","","","","","","","","","","",""
"","time_out","","html-keyboard-response","404","486628","0.0-1.0-629.0-0.0","0","0","48375","","null","","","null","69","","","","","","","","","","","","","","","",""
"","ITI","","html-keyboard-response","405","487647","0.0-1.0-630.0","0","0","48375","","109","","","68","69","","","","","","","","","","","","","","","d",""
"","S1","","html-keyboard-response","406","487901","0.0-1.0-632.0","0","0","48375","","null","","","null","70","","","","","","","","","","","","","","","",""
"","ISI","","html-keyboard-response","407","488406","0.0-1.0-633.0","0","0","48375","","8","","","68","70","d","","","","","","","","","","","","","","",""
"","S2","","html-keyboard-response","408","488552","0.0-1.0-634.0","0","0","48375","","142","","","68","70","","d","2","70","training","adjacent","ED","5","4","R.jpg","N.jpg","0","0","1","",""
"","feedback","","html-keyboard-response","409","489562","0.0-1.0-636.0-0.0","0","0","48375","","null","","","null","70","","","","","","","","","","","","","","","",""
"","ITI","","html-keyboard-response","410","490575","0.0-1.0-639.0","0","0","48375","","59","","","75","70","","","","","","","","","","","","","","","k",""
"","S1","","html-keyboard-response","411","490830","0.0-1.0-641.0","0","0","48375","","null","","","null","71","","","","","","","","","","","","","","","",""
"","ISI","","html-keyboard-response","412","491334","0.0-1.0-642.0","0","0","48375","","198","","","68","71","d","","","","","","","","","","","","","","",""
"","S2","","html-keyboard-response","413","491663","0.0-1.0-643.0","0","0","48375","","null","","","null","71","","NaN","","","","","","","","","","","","","",""
"","response","","html-keyboard-response","414","491701","0.0-1.0-644.0-0.0","0","0","48375","","35","","","68","71","","","2","71","training","adjacent","AB","1","2","P.jpg","L.jpg","0","1","0","",""
"","feedback","","html-keyboard-response","415","492706","0.0-1.0-645.0-0.0","0","0","48375","","null","","","null","71","","","","","","","","","","","","","","","",""
"","time_out","","html-keyboard-response","416","494715","0.0-1.0-647.0-0.0","0","0","48375","","null","","","null","71","","","","","","","","","","","","","","","",""
"","ITI","","html-keyboard-response","417","495729","0.0-1.0-648.0","0","0","48375","","71","","","75","71","","","","","","","","","","","","","","","k",""
"","S1","","html-keyboard-response","418","495988","0.0-1.0-650.0","0","0","48375","","null","","","null","72","","","","","","","","","","","","","","","",""
"","ISI","","html-keyboard-response","419","496492","0.0-1.0-651.0","0","0","48375","","null","","","null","72","NaN","","","","","","","","","","","","","","",""
"","S2","","html-keyboard-response","420","496749","0.0-1.0-652.0","0","0","48375","","null","","","null","72","","NaN","","","","","","","","","","","","","",""
"","response","","html-keyboard-response","421","497984","0.0-1.0-653.0-0.0","0","0","48375","","1229","","","68","72","","","2","72","training","adjacent","FG","6","7","Q.jpg","O.jpg","0","1","0","",""
"","feedback","","html-keyboard-response","422","498989","0.0-1.0-654.0-0.0","0","0","48375","","null","","","null","72","","","","","","","","","","","","","","","",""
"","time_out","","html-keyboard-response","423","501011","0.0-1.0-656.0-0.0","0","0","48375","","null","","","null","72","","","","","","","","","","","","","","","",""
"","ITI","","html-keyboard-response","424","502018","0.0-1.0-657.0","0","0","48375","","null","","","null","72","","","","","","","","","","","","","","","NaN",""
"","S1","","html-keyboard-response","425","502277","0.0-1.0-659.0","0","0","48375","","null","","","null","73","","","","","","","","","","","","","","","",""
"","ISI","","html-keyboard-response","426","502819","0.0-1.0-660.0","0","0","48375","","null","","","null","73","NaN","","","","","","","","","","","","","","",""
"","S2","","html-keyboard-response","427","503105","0.0-1.0-661.0","0","0","48375","","null","","","null","73","","NaN","","","","","","","","","","","","","",""
"","response","","html-keyboard-response","428","504920","0.0-1.0-662.0-0.0","0","0","48375","","null","","","null","73","","","2","73","training","adjacent","CB","3","2","M.jpg","L.jpg","NaN","0","0","",""
"","too_slow_prompt","","html-keyboard-response","429","505929","0.0-1.0-664.0-0.0","1","0","48375","","null","","","null","","","","","","","","","","","","","","","","",""
"","time_out","","html-keyboard-response","430","507936","0.0-1.0-665.0-0.0","0","0","48375","","null","","","null","73","","","","","","","","","","","","","","","",""
"","ITI","","html-keyboard-response","431","508942","0.0-1.0-666.0","0","0","48375","","null","","","null","73","","","","","","","","","","","","","","","NaN",""
"","S1","","html-keyboard-response","432","509197","0.0-1.0-668.0","0","0","48375","","null","","","null","74","","","","","","","","","","","","","","","",""
"","ISI","","html-keyboard-response","433","509702","0.0-1.0-669.0","0","0","48375","","112","","","75","74","k","","","","","","","","","","","","","","",""
"","S2","","html-keyboard-response","434","509813","0.0-1.0-670.0","0","0","48375","","104","","","75","74","","k","2","74","training","adjacent","AB","1","2","P.jpg","L.jpg","1","1","1","",""
"","feedback","","html-keyboard-response","435","510830","0.0-1.0-672.0-0.0","0","0","48375","","null","","","null","74","","","","","","","","","","","","","","","",""
"","ITI","","html-keyboard-response","436","511838","0.0-1.0-675.0","0","0","48375","","86","","","75","74","","","","","","","","","","","","","","","k",""
"","S1","","html-keyboard-response","437","512095","0.0-1.0-677.0","0","0","48375","","null","","","null","75","","","","","","","","","","","","","","","",""
"","ISI","","html-keyboard-response","438","512598","0.0-1.0-678.0","0","0","48375","","24","","","75","75","k","","","","","","","","","","","","","","",""
"","S2","","html-keyboard-response","439","512643","0.0-1.0-679.0","0","0","48375","","42","","","75","75","","k","2","75","training","adjacent","FE","6","5","Q.jpg","R.jpg","1","0","0","",""
"","feedback","","html-keyboard-response","440","513651","0.0-1.0-681.0-0.0","0","0","48375","","null","","","null","75","","","","","","","","","","","","","","","",""
"","time_out","","html-keyboard-response","441","515659","0.0-1.0-683.0-0.0","0","0","48375","","null","","","null","75","","","","","","","","","","","","","","","",""
"","ITI","","html-keyboard-response","442","516664","0.0-1.0-684.0","0","0","48375","","8","","","75","75","","","","","","","","","","","","","","","k",""
"","S1","","html-keyboard-response","443","516919","0.0-1.0-686.0","0","0","48375","","null","","","null","76","","","","","","","","","","","","","","","",""
"","ISI","","html-keyboard-response","444","517426","0.0-1.0-687.0","0","0","48375","","60","","","75","76","k","","","","","","","","","","","","","","",""
"","S2","","html-keyboard-response","445","517581","0.0-1.0-688.0","0","0","48375","","149","","","75","76","","k","2","76","training","adjacent","FE","6","5","Q.jpg","R.jpg","1","0","0","",""
"","feedback","","html-keyboard-response","446","518588","0.0-1.0-690.0-0.0","0","0","48375","","null","","","null","76","","","","","","","","","","","","","","","",""
"","time_out","","html-keyboard-response","447","520603","0.0-1.0-692.0-0.0","0","0","48375","","null","","","null","76","","","","","","","","","","","","","","","",""
"","ITI","","html-keyboard-response","448","521609","0.0-1.0-693.0","0","0","48375","","79","","","75","76","","","","","","","","","","","","","","","k",""
"","S1","","html-keyboard-response","449","521869","0.0-1.0-695.0","0","0","48375","","null","","","null","77","","","","","","","","","","","","","","","",""
"","ISI","","html-keyboard-response","450","522375","0.0-1.0-696.0","0","0","48375","","10","","","68","77","d","","","","","","","","","","","","","","",""
"","S2","","html-keyboard-response","451","522511","0.0-1.0-697.0","0","0","48375","","132","","","75","77","","k","2","77","training","adjacent","GF","7","6","O.jpg","Q.jpg","1","0","0","",""
"","feedback","","html-keyboard-response","452","523517","0.0-1.0-699.0-0.0","0","0","48375","","null","","","null","77","","","","","","","","","","","","","","","",""
"","time_out","","html-keyboard-response","453","525521","0.0-1.0-701.0-0.0","0","0","48375","","null","","","null","77","","","","","","","","","","","","","","","",""
"","ITI","","html-keyboard-response","454","526527","0.0-1.0-702.0","0","0","48375","","null","","","null","77","","","","","","","","","","","","","","","NaN",""
"","S1","","html-keyboard-response","455","526781","0.0-1.0-704.0","0","0","48375","","null","","","null","78","","","","","","","","","","","","","","","",""
"","ISI","","html-keyboard-response","456","527288","0.0-1.0-705.0","0","0","48375","","null","","","null","78","NaN","","","","","","","","","","","","","","",""
"","S2","","html-keyboard-response","457","527472","0.0-1.0-706.0","0","0","48375","","177","","","75","78","","k","2","78","training","adjacent","CB","3","2","M.jpg","L.jpg","1","0","0","",""
"","feedback","","html-keyboard-response","458","528480","0.0-1.0-708.0-0.0","0","0","48375","","null","","","null","78","","","","","","","","","","","","","","","",""
"","time_out","","html-keyboard-response","459","530520","0.0-1.0-710.0-0.0","0","0","48375","","null","","","null","78","","","","","","","","","","","","","","","",""
"","ITI","","html-keyboard-response","460","531528","0.0-1.0-711.0","0","0","48375","","119","","","68","78","","","","","","","","","","","","","","","d",""
"","S1","","html-keyboard-response","461","531783","0.0-1.0-713.0","0","0","48375","","null","","","null","79","","","","","","","","","","","","","","","",""
"","ISI","","html-keyboard-response","462","532293","0.0-1.0-714.0","0","0","48375","","15","","","68","79","d","","","","","","","","","","","","","","",""
"","S2","","html-keyboard-response","463","532450","0.0-1.0-715.0","0","0","48375","","155","","","68","79","","d","2","79","training","adjacent","DE","4","5","N.jpg","R.jpg","0","1","0","",""
"","feedback","","html-keyboard-response","464","533515","0.0-1.0-717.0-0.0","0","0","48375","","null","","","null","79","","","","","","","","","","","","","","","",""
"","time_out","","html-keyboard-response","465","535527","0.0-1.0-719.0-0.0","0","0","48375","","null","","","null","79","","","","","","","","","","","","","","","",""
"","ITI","","html-keyboard-response","466","536602","0.0-1.0-720.0","0","0","48375","","413","","","68","79","","","","","","","","","","","","","","","d",""
"","S1","","html-keyboard-response","467","536856","0.0-1.0-722.0","0","0","48375","","null","","","null","80","","","","","","","","","","","","","","","",""
"","ISI","","html-keyboard-response","468","537363","0.0-1.0-723.0","0","0","48375","","19","","","68","80","d","","","","","","","","","","","","","","",""
"","S2","","html-keyboard-response","469","537461","0.0-1.0-724.0","0","0","48375","","93","","","68","80","","d","2","80","training","adjacent","CD","3","4","M.jpg","N.jpg","0","1","0","",""
"","feedback","","html-keyboard-response","470","538466","0.0-1.0-726.0-0.0","0","0","48375","","null","","","null","80","","","","","","","","","","","","","","","",""
"","time_out","","html-keyboard-response","471","540474","0.0-1.0-728.0-0.0","0","0","48375","","null","","","null","80","","","","","","","","","","","","","","","",""
"","ITI","","html-keyboard-response","472","541479","0.0-1.0-729.0","0","0","48375","","108","","","68","80","","","","","","","","","","","","","","","d",""
"","S1","","html-keyboard-response","473","541733","0.0-1.0-731.0","0","0","48375","","null","","","null","81","","","","","","","","","","","","","","","",""
"","ISI","","html-keyboard-response","474","542236","0.0-1.0-732.0","0","0","48375","","236","","","68","81","d","","","","","","","","","","","","","","",""
"","S2","","html-keyboard-response","475","542260","0.0-1.0-733.0","0","0","48375","","20","","","68","81","","d","2","81","training","adjacent","DE","4","5","N.jpg","R.jpg","0","1","0","",""
"","feedback","","html-keyboard-response","476","543265","0.0-1.0-735.0-0.0","0","0","48375","","null","","","null","81","","","","","","","","","","","","","","","",""
"","time_out","","html-keyboard-response","477","545274","0.0-1.0-737.0-0.0","0","0","48375","","null","","","null","81","","","","","","","","","","","","","","","",""
"","ITI","","html-keyboard-response","478","546281","0.0-1.0-738.0","0","0","48375","","165","","","75","81","","","","","","","","","","","","","","","k",""
"","S1","","html-keyboard-response","479","546539","0.0-1.0-740.0","0","0","48375","","null","","","null","82","","","","","","","","","","","","","","","",""
"","ISI","","html-keyboard-response","480","547052","0.0-1.0-741.0","0","0","48375","","287","","","75","82","k","","","","","","","","","","","","","","",""
"","S2","","html-keyboard-response","481","547071","0.0-1.0-742.0","0","0","48375","","9","","","75","82","","k","2","82","training","adjacent","FG","6","7","Q.jpg","O.jpg","1","1","1","",""
"","feedback","","html-keyboard-response","482","548085","0.0-1.0-744.0-0.0","0","0","48375","","null","","","null","82","","","","","","","","","","","","","","","",""
"","ITI","","html-keyboard-response","483","549090","0.0-1.0-747.0","0","0","48375","","22","","","68","82","","","","","","","","","","","","","","","d",""
"","S1","","html-keyboard-response","484","549344","0.0-1.0-749.0","0","0","48375","","null","","","null","83","","","","","","","","","","","","","","","",""
"","ISI","","html-keyboard-response","485","549880","0.0-1.0-750.0","0","0","48375","","104","","","68","83","d","","","","","","","","","","","","","","",""
"","S2","","html-keyboard-response","486","549994","0.0-1.0-751.0","0","0","48375","","102","","","75","83","","k","2","83","training","adjacent","CB","3","2","M.jpg","L.jpg","1","0","0","",""
"","feedback","","html-keyboard-response","487","551000","0.0-1.0-753.0-0.0","0","0","48375","","null","","","null","83","","","","","","","","","","","","","","","",""
"","time_out","","html-keyboard-response","488","553007","0.0-1.0-755.0-0.0","0","0","48375","","null","","","null","83","","","","","","","","","","","","","","","",""
"","ITI","","html-keyboard-response","489","554022","0.0-1.0-756.0","0","0","48375","","105","","","75","83","","","","","","","","","","","","","","","k",""
"","S1","","html-keyboard-response","490","554284","0.0-1.0-758.0","0","0","48375","","null","","","null","84","","","","","","","","","","","","","","","",""
"","ISI","","html-keyboard-response","491","554788","0.0-1.0-759.0","0","0","48375","","151","","","75","84","k","","","","","","","","","","","","","","",""
"","S2","","html-keyboard-response","492","554824","0.0-1.0-760.0","0","0","48375","","30","","","68","84","","d","2","84","training","adjacent","DC","4","3","N.jpg","M.jpg","0","0","1","",""
"","feedback","","html-keyboard-response","493","555828","0.0-1.0-762.0-0.0","0","0","48375","","null","","","null","84","","","","","","","","","","","","","","","",""
"","ITI","","html-keyboard-response","494","556833","0.0-1.0-765.0","0","0","48375","","20","","","75","84","","","","","","","","","","","","","","","k",""
"","S1","","html-keyboard-response","495","557094","0.0-1.0-767.0","0","0","48375","","null","","","null","85","","","","","","","","","","","","","","","",""
"","ISI","","html-keyboard-response","496","557608","0.0-1.0-768.0","0","0","48375","","129","","","75","85","k","","","","","","","","","","","","","","",""
"","S2","","html-keyboard-response","497","557715","0.0-1.0-769.0","0","0","48375","","103","","","75","85","","k","2","85","training","adjacent","BA","2","1","L.jpg","P.jpg","1","0","0","",""
"","feedback","","html-keyboard-response","498","558721","0.0-1.0-771.0-0.0","0","0","48375","","null","","","null","85","","","","","","","","","","","","","","","",""
"","time_out","","html-keyboard-response","499","560730","0.0-1.0-773.0-0.0","0","0","48375","","null","","","null","85","","","","","","","","","","","","","","","",""
"","ITI","","html-keyboard-response","500","561740","0.0-1.0-774.0","0","0","48375","","88","","","75","85","","","","","","","","","","","","","","","k",""
"","S1","","html-keyboard-response","501","561999","0.0-1.0-776.0","0","0","48375","","null","","","null","86","","","","","","","","","","","","","","","",""
"","ISI","","html-keyboard-response","502","562525","0.0-1.0-777.0","0","0","48375","","179","","","75","86","k","","","","","","","","","","","","","","",""
"","S2","","html-keyboard-response","503","562576","0.0-1.0-778.0","0","0","48375","","38","","","75","86","","k","2","86","training","adjacent","EF","5","6","R.jpg","Q.jpg","1","1","1","",""
"","feedback","","html-keyboard-response","504","563580","0.0-1.0-780.0-0.0","0","0","48375","","null","","","null","86","","","","","","","","","","","","","","","",""
"","ITI","","html-keyboard-response","505","564588","0.0-1.0-783.0","0","0","48375","","167","","","75","86","","","","","","","","","","","","","","","k",""
"","S1","","html-keyboard-response","506","564842","0.0-1.0-785.0","0","0","48375","","null","","","null","87","","","","","","","","","","","","","","","",""
"","ISI","","html-keyboard-response","507","565346","0.0-1.0-786.0","0","0","48375","","22","","","75","87","k","","","","","","","","","","","","","","",""
"","S2","","html-keyboard-response","508","565352","0.0-1.0-787.0","0","0","48375","","1","","","68","87","","d","2","87","training","adjacent","AB","1","2","P.jpg","L.jpg","0","1","0","",""
"","feedback","","html-keyboard-response","509","566361","0.0-1.0-789.0-0.0","0","0","48375","","null","","","null","87","","","","","","","","","","","","","","","",""
"","time_out","","html-keyboard-response","510","568367","0.0-1.0-791.0-0.0","0","0","48375","","null","","","null","87","","","","","","","","","","","","","","","",""
"","ITI","","html-keyboard-response","511","569381","0.0-1.0-792.0","0","0","48375","","21","","","68","87","","","","","","","","","","","","","","","d",""
"","S1","","html-keyboard-response","512","569644","0.0-1.0-794.0","0","0","48375","","null","","","null","88","","","","","","","","","","","","","","","",""
"","ISI","","html-keyboard-response","513","570164","0.0-1.0-795.0","0","0","48375","","23","","","68","88","d","","","","","","","","","","","","","","",""
"","S2","","html-keyboard-response","514","570189","0.0-1.0-796.0","0","0","48375","","8","","","68","88","","d","2","88","training","adjacent","BC","2","3","L.jpg","M.jpg","0","1","0","",""
"","feedback","","html-keyboard-response","515","571199","0.0-1.0-798.0-0.0","0","0","48375","","null","","","null","88","","","","","","","","","","","","","","","",""
"","time_out","","html-keyboard-response","516","573209","0.0-1.0-800.0-0.0","0","0","48375","","null","","","null","88","","","","","","","","","","","","","","","",""
"","ITI","","html-keyboard-response","517","574221","0.0-1.0-801.0","0","0","48375","","66","","","75","88","","","","","","","","","","","","","","","k",""
"","S1","","html-keyboard-response","518","574478","0.0-1.0-803.0","0","0","48375","","null","","","null","89","","","","","","","","","","","","","","","",""
"","ISI","","html-keyboard-response","519","574984","0.0-1.0-804.0","0","0","48375","","69","","","83","89","s","","","","","","","","","","","","","","",""
"","S2","","html-keyboard-response","520","575016","0.0-1.0-805.0","0","0","48375","","26","","","68","89","","d","2","89","training","adjacent","ED","5","4","R.jpg","N.jpg","0","0","1","",""
"","feedback","","html-keyboard-response","521","576025","0.0-1.0-807.0-0.0","0","0","48375","","null","","","null","89","","","","","","","","","","","","","","","",""
"","ITI","","html-keyboard-response","522","577033","0.0-1.0-810.0","0","0","48375","","33","","","75","89","","","","","","","","","","","","","","","k",""
"","S1","","html-keyboard-response","523","577293","0.0-1.0-812.0","0","0","48375","","null","","","null","90","","","","","","","","","","","","","","","",""
"","ISI","","html-keyboard-response","524","577809","0.0-1.0-813.0","0","0","48375","","8","","","68","90","d","","","","","","","","","","","","","","",""
"","S2","","html-keyboard-response","525","577866","0.0-1.0-814.0","0","0","48375","","50","","","68","90","","d","2","90","training","adjacent","GF","7","6","O.jpg","Q.jpg","0","0","1","",""
"","feedback","","html-keyboard-response","526","578889","0.0-1.0-816.0-0.0","0","0","48375","","null","","","null","90","","","","","","","","","","","","","","","",""
"","ITI","","html-keyboard-response","527","579903","0.0-1.0-819.0","0","0","48375","","108","","","75","90","","","","","","","","","","","","","","","k",""
"","S1","","html-keyboard-response","528","580161","0.0-1.0-821.0","0","0","48375","","null","","","null","91","","","","","","","","","","","","","","","",""
"","ISI","","html-keyboard-response","529","580672","0.0-1.0-822.0","0","0","48375","","95","","","75","91","k","","","","","","","","","","","","","","",""
"","S2","","html-keyboard-response","530","580714","0.0-1.0-823.0","0","0","48375","","28","","","75","91","","k","2","91","training","adjacent","FG","6","7","Q.jpg","O.jpg","1","1","1","",""
"","feedback","","html-keyboard-response","531","581721","0.0-1.0-825.0-0.0","0","0","48375","","null","","","null","91","","","","","","","","","","","","","","","",""
"","ITI","","html-keyboard-response","532","582803","0.0-1.0-828.0","0","0","48375","","8","","","68","91","","","","","","","","","","","","","","","d",""
"","S1","","html-keyboard-response","533","583060","0.0-1.0-830.0","0","0","48375","","null","","","null","92","","","","","","","","","","","","","","","",""
"","ISI","","html-keyboard-response","534","583565","0.0-1.0-831.0","0","0","48375","","158","","","75","92","k","","","","","","","","","","","","","","",""
"","S2","","html-keyboard-response","535","583614","0.0-1.0-832.0","0","0","48375","","43","","","75","92","","k","2","92","training","adjacent","BC","2","3","L.jpg","M.jpg","1","1","1","",""
"","feedback","","html-keyboard-response","536","584619","0.0-1.0-834.0-0.0","0","0","48375","","null","","","null","92","","","","","","","","","","","","","","","",""
"","ITI","","html-keyboard-response","537","585626","0.0-1.0-837.0","0","0","48375","","90","","","75","92","","","","","","","","","","","","","","","k",""
"","S1","","html-keyboard-response","538","585880","0.0-1.0-839.0","0","0","48375","","null","","","null","93","","","","","","","","","","","","","","","",""
"","ISI","","html-keyboard-response","539","586387","0.0-1.0-840.0","0","0","48375","","168","","","75","93","k","","","","","","","","","","","","","","",""
"","S2","","html-keyboard-response","540","586418","0.0-1.0-841.0","0","0","48375","","25","","","75","93","","k","2","93","training","adjacent","AB","1","2","P.jpg","L.jpg","1","1","1","",""
"","feedback","","html-keyboard-response","541","587428","0.0-1.0-843.0-0.0","0","0","48375","","null","","","null","93","","","","","","","","","","","","","","","",""
"","ITI","","html-keyboard-response","542","588448","0.0-1.0-846.0","0","0","48375","","100","","","68","93","","","","","","","","","","","","","","","d",""
"","S1","","html-keyboard-response","543","588704","0.0-1.0-848.0","0","0","48375","","null","","","null","94","","","","","","","","","","","","","","","",""
"","ISI","","html-keyboard-response","544","589210","0.0-1.0-849.0","0","0","48375","","34","","","75","94","k","","","","","","","","","","","","","","",""
"","S2","","html-keyboard-response","545","589470","0.0-1.0-850.0","0","0","48375","","null","","","null","94","","NaN","","","","","","","","","","","","","",""
"","response","","html-keyboard-response","546","589633","0.0-1.0-851.0-0.0","0","0","48375","","156","","","75","94","","","2","94","training","adjacent","CD","3","4","M.jpg","N.jpg","1","1","1","",""
"","feedback","","html-keyboard-response","547","590642","0.0-1.0-852.0-0.0","0","0","48375","","null","","","null","94","","","","","","","","","","","","","","","",""
"","ITI","","html-keyboard-response","548","591650","0.0-1.0-855.0","0","0","48375","","13","","","68","94","","","","","","","","","","","","","","","d",""
"","S1","","html-keyboard-response","549","591905","0.0-1.0-857.0","0","0","48375","","null","","","null","95","","","","","","","","","","","","","","","",""
"","ISI","","html-keyboard-response","550","592409","0.0-1.0-858.0","0","0","48375","","112","","","75","95","k","","","","","","","","","","","","","","",""
"","S2","","html-keyboard-response","551","592440","0.0-1.0-859.0","0","0","48375","","27","","","68","95","","d","2","95","training","adjacent","BA","2","1","L.jpg","P.jpg","0","0","1","",""
"","feedback","","html-keyboard-response","552","593445","0.0-1.0-861.0-0.0","0","0","48375","","null","","","null","95","","","","","","","","","","","","","","","",""
"","ITI","","html-keyboard-response","553","594449","0.0-1.0-864.0","0","0","48375","","64","","","75","95","","","","","","","","","","","","","","","k",""
"","block_over","","html-keyboard-response","554","598733","0.0-1.0-865.0-0.0","0","0","48375","","4268","","","32","95","","","","","","","","","","","","","","","",""
"","S1","","html-keyboard-response","555","598992","0.0-1.0-866.0","0","0","48375","","null","","","null","96","","","","","","","","","","","","","","","",""
"","ISI","","html-keyboard-response","556","599498","0.0-1.0-867.0","0","0","48375","","null","","","null","96","NaN","","","","","","","","","","","","","","",""
"","S2","","html-keyboard-response","557","599754","0.0-1.0-868.0","0","0","48375","","null","","","null","96","","NaN","","","","","","","","","","","","","",""
"","response","","html-keyboard-response","558","600141","0.0-1.0-869.0-0.0","0","0","48375","","383","","","75","96","","","3","96","training","adjacent","DE","4","5","N.jpg","R.jpg","1","1","1","",""
"","feedback","","html-keyboard-response","559","601147","0.0-1.0-870.0-0.0","0","0","48375","","null","","","null","96","","","","","","","","","","","","","","","",""
"","ITI","","html-keyboard-response","560","602154","0.0-1.0-873.0","0","0","48375","","30","","","75","96","","","","","","","","","","","","","","","k",""
"","S1","","html-keyboard-response","561","602410","0.0-1.0-875.0","0","0","48375","","null","","","null","97","","","","","","","","","","","","","","","",""
"","ISI","","html-keyboard-response","562","602920","0.0-1.0-876.0","0","0","48375","","109","","","68","97","d","","","","","","","","","","","","","","",""
"","S2","","html-keyboard-response","563","602932","0.0-1.0-877.0","0","0","48375","","7","","","75","97","","k","3","97","training","adjacent","ED","5","4","R.jpg","N.jpg","1","0","0","",""
"","feedback","","html-keyboard-response","564","603941","0.0-1.0-879.0-0.0","0","0","48375","","null","","","null","97","","","","","","","","","","","","","","","",""
"","time_out","","html-keyboard-response","565","605952","0.0-1.0-881.0-0.0","0","0","48375","","null","","","null","97","","","","","","","","","","","","","","","",""
"","ITI","","html-keyboard-response","566","606962","0.0-1.0-882.0","0","0","48375","","75","","","75","97","","","","","","","","","","","","","","","k",""
"","S1","","html-keyboard-response","567","607222","0.0-1.0-884.0","0","0","48375","","null","","","null","98","","","","","","","","","","","","","","","",""
"","ISI","","html-keyboard-response","568","607747","0.0-1.0-885.0","0","0","48375","","66","","","75","98","k","","","","","","","","","","","","","","",""
"","S2","","html-keyboard-response","569","607909","0.0-1.0-886.0","0","0","48375","","154","","","75","98","","k","3","98","training","adjacent","DC","4","3","N.jpg","M.jpg","1","0","0","",""
"","feedback","","html-keyboard-response","570","608916","0.0-1.0-888.0-0.0","0","0","48375","","null","","","null","98","","","","","","","","","","","","","","","",""
"","time_out","","html-keyboard-response","571","610923","0.0-1.0-890.0-0.0","0","0","48375","","null","","","null","98","","","","","","","","","","","","","","","",""
"","ITI","","html-keyboard-response","572","611933","0.0-1.0-891.0","0","0","48375","","264","","","68","98","","","","","","","","","","","","","","","d",""
"","S1","","html-keyboard-response","573","612190","0.0-1.0-893.0","0","0","48375","","null","","","null","99","","","","","","","","","","","","","","","",""
"","ISI","","html-keyboard-response","574","612695","0.0-1.0-894.0","0","0","48375","","11","","","75","99","k","","","","","","","","","","","","","","",""
"","S2","","html-keyboard-response","575","612825","0.0-1.0-895.0","0","0","48375","","124","","","68","99","","d","3","99","training","adjacent","CB","3","2","M.jpg","L.jpg","0","0","1","",""
"","feedback","","html-keyboard-response","576","613833","0.0-1.0-897.0-0.0","0","0","48375","","null","","","null","99","","","","","","","","","","","","","","","",""
"","ITI","","html-keyboard-response","577","614852","0.0-1.0-900.0","0","0","48375","","0","","","68","99","","","","","","","","","","","","","","","d",""
"","S1","","html-keyboard-response","578","615108","0.0-1.0-902.0","0","0","48375","","null","","","null","100","","","","","","","","","","","","","","","",""
"","ISI","","html-keyboard-response","579","615615","0.0-1.0-903.0","0","0","48375","","2","","","68","100","d","","","","","","","","","","","","","","",""
"","S2","","html-keyboard-response","580","615782","0.0-1.0-904.0","0","0","48375","","162","","","75","100","","k","3","100","training","adjacent","EF","5","6","R.jpg","Q.jpg","1","1","1","",""
"","feedback","","html-keyboard-response","581","616791","0.0-1.0-906.0-0.0","0","0","48375","","null","","","null","100","","","","","","","","","","","","","","","",""
"","ITI","","html-keyboard-response","582","617800","0.0-1.0-909.0","0","0","48375","","26","","","75","100","","","","","","","","","","","","","","","k",""
"","S1","","html-keyboard-response","583","618056","0.0-1.0-911.0","0","0","48375","","null","","","null","101","","","","","","","","","","","","","","","",""
"","ISI","","html-keyboard-response","584","618582","0.0-1.0-912.0","0","0","48375","","134","","","75","101","k","","","","","","","","","","","","","","",""
"","S2","","html-keyboard-response","585","618605","0.0-1.0-913.0","0","0","48375","","15","","","75","101","","k","3","101","training","adjacent","GF","7","6","O.jpg","Q.jpg","1","0","0","",""
"","feedback","","html-keyboard-response","586","619615","0.0-1.0-915.0-0.0","0","0","48375","","null","","","null","101","","","","","","","","","","","","","","","",""
"","time_out","","html-keyboard-response","587","621622","0.0-1.0-917.0-0.0","0","0","48375","","null","","","null","101","","","","","","","","","","","","","","","",""
