"success","ttype","start_time","trial_type","trial_index","time_elapsed","internal_node_id","warning","missed_checkup","PID","view_history","rt","responses","repeat_instructions","key_press","index","keypress_isi","keypress_S2","block","trial_num","phase","group_type","pair_type","S1_stim","S2_stim","S1_img","S2_img","S1_chosen","S1_higher","accuracy","keypress_iti","total_bonus_tally"
"true","full_screen","d03042023hr1545","fullscreen","0","13867","0.0-0.0","0","0","54794","","","","","","","","","","","","","","","","","","","","","",""
"","instructions","","instructions","1","75312","0.0-1.0-0.0-0.0","0","0","54794","[{""page_index"":0,""viewing_time"":13809},{""page_index"":1,""viewing_time"":34424},{""page_index"":2,""viewing_time"":11023},{""page_index"":3,""viewing_time"":2184}]","61442","","","","","","","","","","","","","","","","","","","",""
"","comprehension_check","","survey-multi-choice","2","107210","0.0-1.0-0.0-1.0","0","0","54794","","31890","{""Q0"":""True"",""Q1"":""D"",""Q2"":""Once the second image appears and while the screen 'MAKE A CHOICE' is shown"",""Q3"":""Green mark"",""Q4"":""either D or K""}","0","","","","","","","","","","","","","","","","","",""
"","start_exp","","html-keyboard-response","3","109506","0.0-1.0-1.0","0","0","54794","","2290","","","32","","","","","","","","","","","","","","","","",""
"","S1","","html-keyboard-response","4","109770","0.0-1.0-2.0","0","0","54794","","null","","","null","0","","","","","","","","","","","","","","","",""
"","ISI","","html-keyboard-response","5","110280","0.0-1.0-3.0","0","0","54794","","505","","","68","0","d","","","","","","","","","","","","","","",""
"","S2","","html-keyboard-response","6","110538","0.0-1.0-4.0","0","0","54794","","null","","","null","0","","NaN","","","","","","","","","","","","","",""
"","response","","html-keyboard-response","7","111329","0.0-1.0-5.0-0.0","0","0","54794","","788","","","68","0","","","1","0","training","adjacent","DC","4","3","Q.jpg","M.jpg","1","0","0","",""
"","feedback","","html-keyboard-response","8","112342","0.0-1.0-6.0-0.0","0","0","54794","","null","","","null","0","","","","","","","","","","","","","","","",""
"","time_out","","html-keyboard-response","9","114350","0.0-1.0-8.0-0.0","0","0","54794","","null","","","null","0","","","","","","","","","","","","","","","",""
"","ITI","","html-keyboard-response","10","115360","0.0-1.0-9.0","0","0","54794","","null","","","null","0","","","","","","","","","","","","","","","NaN",""
"","S1","","html-keyboard-response","11","115627","0.0-1.0-11.0","0","0","54794","","null","","","null","1","","","","","","","","","","","","","","","",""
"","ISI","","html-keyboard-response","12","116138","0.0-1.0-12.0","0","0","54794","","null","","","null","1","NaN","","","","","","","","","","","","","","",""
"","S2","","html-keyboard-response","13","116399","0.0-1.0-13.0","0","0","54794","","null","","","null","1","","NaN","","","","","","","","","","","","","",""
"","response","","html-keyboard-response","14","116968","0.0-1.0-14.0-0.0","0","0","54794","","562","","","75","1","","","1","1","training","adjacent","AB","1","2","O.jpg","R.jpg","0","1","0","",""
"","feedback","","html-keyboard-response","15","117985","0.0-1.0-15.0-0.0","0","0","54794","","null","","","null","1","","","","","","","","","","","","","","","",""
"","time_out","","html-keyboard-response","16","119998","0.0-1.0-17.0-0.0","0","0","54794","","null","","","null","1","","","","","","","","","","","","","","","",""
"","ITI","","html-keyboard-response","17","121009","0.0-1.0-18.0","0","0","54794","","null","","","null","1","","","","","","","","","","","","","","","NaN",""
"","S1","","html-keyboard-response","18","121270","0.0-1.0-20.0","0","0","54794","","null","","","null","2","","","","","","","","","","","","","","","",""
"","ISI","","html-keyboard-response","19","121787","0.0-1.0-21.0","0","0","54794","","null","","","null","2","NaN","","","","","","","","","","","","","","",""
"","S2","","html-keyboard-response","20","122048","0.0-1.0-22.0","0","0","54794","","null","","","null","2","","NaN","","","","","","","","","","","","","",""
"","response","","html-keyboard-response","21","122539","0.0-1.0-23.0-0.0","0","0","54794","","486","","","68","2","","","1","2","training","adjacent","ED","5","4","N.jpg","Q.jpg","1","0","0","",""
"","feedback","","html-keyboard-response","22","123551","0.0-1.0-24.0-0.0","0","0","54794","","null","","","null","2","","","","","","","","","","","","","","","",""
"","time_out","","html-keyboard-response","23","125559","0.0-1.0-26.0-0.0","0","0","54794","","null","","","null","2","","","","","","","","","","","","","","","",""
"","ITI","","html-keyboard-response","24","126576","0.0-1.0-27.0","0","0","54794","","null","","","null","2","","","","","","","","","","","","","","","NaN",""
"","S1","","html-keyboard-response","25","126842","0.0-1.0-29.0","0","0","54794","","null","","","null","3","","","","","","","","","","","","","","","",""
"","ISI","","html-keyboard-response","26","127353","0.0-1.0-30.0","0","0","54794","","null","","","null","3","NaN","","","","","","","","","","","","","","",""
"","S2","","html-keyboard-response","27","127614","0.0-1.0-31.0","0","0","54794","","null","","","null","3","","NaN","","","","","","","","","","","","","",""
"","response","","html-keyboard-response","28","128066","0.0-1.0-32.0-0.0","0","0","54794","","445","","","68","3","","","1","3","training","adjacent","DC","4","3","Q.jpg","M.jpg","1","0","0","",""
"","feedback","","html-keyboard-response","29","129079","0.0-1.0-33.0-0.0","0","0","54794","","null","","","null","3","","","","","","","","","","","","","","","",""
"","time_out","","html-keyboard-response","30","131086","0.0-1.0-35.0-0.0","0","0","54794","","null","","","null","3","","","","","","","","","","","","","","","",""
"","ITI","","html-keyboard-response","31","132096","0.0-1.0-36.0","0","0","54794","","null","","","null","3","","","","","","","","","","","","","","","NaN",""
"","S1","","html-keyboard-response","32","132363","0.0-1.0-38.0","0","0","54794","","null","","","null","4","","","","","","","","","","","","","","","",""
"","ISI","","html-keyboard-response","33","132872","0.0-1.0-39.0","0","0","54794","","null","","","null","4","NaN","","","","","","","","","","","","","","",""
"","S2","","html-keyboard-response","34","133135","0.0-1.0-40.0","0","0","54794","","null","","","null","4","","NaN","","","","","","","","","","","","","",""
"","response","","html-keyboard-response","35","133582","0.0-1.0-41.0-0.0","0","0","54794","","440","","","75","4","","","1","4","training","adjacent","FE","6","5","P.jpg","N.jpg","0","0","1","",""
"","feedback","","html-keyboard-response","36","134592","0.0-1.0-42.0-0.0","0","0","54794","","null","","","null","4","","","","","","","","","","","","","","","",""
"","ITI","","html-keyboard-response","37","135607","0.0-1.0-45.0","0","0","54794","","null","","","null","4","","","","","","","","","","","","","","","NaN",""
"","S1","","html-keyboard-response","38","135874","0.0-1.0-47.0","0","0","54794","","null","","","null","5","","","","","","","","","","","","","","","",""
"","ISI","","html-keyboard-response","39","136384","0.0-1.0-48.0","0","0","54794","","null","","","null","5","NaN","","","","","","","","","","","","","","",""
"","S2","","html-keyboard-response","40","136647","0.0-1.0-49.0","0","0","54794","","null","","","null","5","","NaN","","","","","","","","","","","","","",""
"","response","","html-keyboard-response","41","137417","0.0-1.0-50.0-0.0","0","0","54794","","766","","","75","5","","","1","5","training","adjacent","BC","2","3","R.jpg","M.jpg","0","1","0","",""
"","feedback","","html-keyboard-response","42","138434","0.0-1.0-51.0-0.0","0","0","54794","","null","","","null","5","","","","","","","","","","","","","","","",""
"","time_out","","html-keyboard-response","43","140449","0.0-1.0-53.0-0.0","0","0","54794","","null","","","null","5","","","","","","","","","","","","","","","",""
"","ITI","","html-keyboard-response","44","141462","0.0-1.0-54.0","0","0","54794","","null","","","null","5","","","","","","","","","","","","","","","NaN",""
"","S1","","html-keyboard-response","45","141726","0.0-1.0-56.0","0","0","54794","","null","","","null","6","","","","","","","","","","","","","","","",""
"","ISI","","html-keyboard-response","46","142242","0.0-1.0-57.0","0","0","54794","","null","","","null","6","NaN","","","","","","","","","","","","","","",""
"","S2","","html-keyboard-response","47","142504","0.0-1.0-58.0","0","0","54794","","null","","","null","6","","NaN","","","","","","","","","","","","","",""
"","response","","html-keyboard-response","48","143011","0.0-1.0-59.0-0.0","0","0","54794","","503","","","68","6","","","1","6","training","adjacent","FG","6","7","P.jpg","L.jpg","1","1","1","",""
"","feedback","","html-keyboard-response","49","144025","0.0-1.0-60.0-0.0","0","0","54794","","null","","","null","6","","","","","","","","","","","","","","","",""
"","ITI","","html-keyboard-response","50","145041","0.0-1.0-63.0","0","0","54794","","null","","","null","6","","","","","","","","","","","","","","","NaN",""
"","S1","","html-keyboard-response","51","145301","0.0-1.0-65.0","0","0","54794","","null","","","null","7","","","","","","","","","","","","","","","",""
"","ISI","","html-keyboard-response","52","145818","0.0-1.0-66.0","0","0","54794","","null","","","null","7","NaN","","","","","","","","","","","","","","",""
"","S2","","html-keyboard-response","53","146080","0.0-1.0-67.0","0","0","54794","","null","","","null","7","","NaN","","","","","","","","","","","","","",""
"","response","","html-keyboard-response","54","146568","0.0-1.0-68.0-0.0","0","0","54794","","486","","","75","7","","","1","7","training","adjacent","GF","7","6","L.jpg","P.jpg","0","0","1","",""
"","feedback","","html-keyboard-response","55","147584","0.0-1.0-69.0-0.0","0","0","54794","","null","","","null","7","","","","","","","","","","","","","","","",""
"","ITI","","html-keyboard-response","56","148600","0.0-1.0-72.0","0","0","54794","","null","","","null","7","","","","","","","","","","","","","","","NaN",""
"","S1","","html-keyboard-response","57","148866","0.0-1.0-74.0","0","0","54794","","null","","","null","8","","","","","","","","","","","","","","","",""
"","ISI","","html-keyboard-response","58","149376","0.0-1.0-75.0","0","0","54794","","null","","","null","8","NaN","","","","","","","","","","","","","","",""
"","S2","","html-keyboard-response","59","149638","0.0-1.0-76.0","0","0","54794","","null","","","null","8","","NaN","","","","","","","","","","","","","",""
"","response","","html-keyboard-response","60","150293","0.0-1.0-77.0-0.0","0","0","54794","","649","","","75","8","","","1","8","training","adjacent","FE","6","5","P.jpg","N.jpg","0","0","1","",""
"","feedback","","html-keyboard-response","61","151303","0.0-1.0-78.0-0.0","0","0","54794","","null","","","null","8","","","","","","","","","","","","","","","",""
"","ITI","","html-keyboard-response","62","152309","0.0-1.0-81.0","0","0","54794","","null","","","null","8","","","","","","","","","","","","","","","NaN",""
"","S1","","html-keyboard-response","63","152566","0.0-1.0-83.0","0","0","54794","","null","","","null","9","","","","","","","","","","","","","","","",""
"","ISI","","html-keyboard-response","64","153080","0.0-1.0-84.0","0","0","54794","","null","","","null","9","NaN","","","","","","","","","","","","","","",""
"","S2","","html-keyboard-response","65","153341","0.0-1.0-85.0","0","0","54794","","null","","","null","9","","NaN","","","","","","","","","","","","","",""
"","response","","html-keyboard-response","66","154066","0.0-1.0-86.0-0.0","0","0","54794","","719","","","75","9","","","1","9","training","adjacent","EF","5","6","N.jpg","P.jpg","0","1","0","",""
"","feedback","","html-keyboard-response","67","155077","0.0-1.0-87.0-0.0","0","0","54794","","null","","","null","9","","","","","","","","","","","","","","","",""
"","time_out","","html-keyboard-response","68","157086","0.0-1.0-89.0-0.0","0","0","54794","","null","","","null","9","","","","","","","","","","","","","","","",""
"","ITI","","html-keyboard-response","69","158096","0.0-1.0-90.0","0","0","54794","","null","","","null","9","","","","","","","","","","","","","","","NaN",""
"","S1","","html-keyboard-response","70","158358","0.0-1.0-92.0","0","0","54794","","null","","","null","10","","","","","","","","","","","","","","","",""
"","ISI","","html-keyboard-response","71","158874","0.0-1.0-93.0","0","0","54794","","null","","","null","10","NaN","","","","","","","","","","","","","","",""
"","S2","","html-keyboard-response","72","159135","0.0-1.0-94.0","0","0","54794","","null","","","null","10","","NaN","","","","","","","","","","","","","",""
"","response","","html-keyboard-response","73","159668","0.0-1.0-95.0-0.0","0","0","54794","","527","","","68","10","","","1","10","training","adjacent","GF","7","6","L.jpg","P.jpg","1","0","0","",""
"","feedback","","html-keyboard-response","74","160680","0.0-1.0-96.0-0.0","0","0","54794","","null","","","null","10","","","","","","","","","","","","","","","",""
"","time_out","","html-keyboard-response","75","162693","0.0-1.0-98.0-0.0","0","0","54794","","null","","","null","10","","","","","","","","","","","","","","","",""
"","ITI","","html-keyboard-response","76","163703","0.0-1.0-99.0","0","0","54794","","null","","","null","10","","","","","","","","","","","","","","","NaN",""
"","S1","","html-keyboard-response","77","163966","0.0-1.0-101.0","0","0","54794","","null","","","null","11","","","","","","","","","","","","","","","",""
"","ISI","","html-keyboard-response","78","164480","0.0-1.0-102.0","0","0","54794","","null","","","null","11","NaN","","","","","","","","","","","","","","",""
"","S2","","html-keyboard-response","79","164743","0.0-1.0-103.0","0","0","54794","","null","","","null","11","","NaN","","","","","","","","","","","","","",""
"","response","","html-keyboard-response","80","165255","0.0-1.0-104.0-0.0","0","0","54794","","508","","","75","11","","","1","11","training","adjacent","CD","3","4","M.jpg","Q.jpg","0","1","0","",""
"","feedback","","html-keyboard-response","81","166268","0.0-1.0-105.0-0.0","0","0","54794","","null","","","null","11","","","","","","","","","","","","","","","",""
"","time_out","","html-keyboard-response","82","168279","0.0-1.0-107.0-0.0","0","0","54794","","null","","","null","11","","","","","","","","","","","","","","","",""
"","ITI","","html-keyboard-response","83","169293","0.0-1.0-108.0","0","0","54794","","null","","","null","11","","","","","","","","","","","","","","","NaN",""
"","S1","","html-keyboard-response","84","169548","0.0-1.0-110.0","0","0","54794","","null","","","null","12","","","","","","","","","","","","","","","",""
"","ISI","","html-keyboard-response","85","170066","0.0-1.0-111.0","0","0","54794","","null","","","null","12","NaN","","","","","","","","","","","","","","",""
"","S2","","html-keyboard-response","86","170328","0.0-1.0-112.0","0","0","54794","","null","","","null","12","","NaN","","","","","","","","","","","","","",""
"","response","","html-keyboard-response","87","170956","0.0-1.0-113.0-0.0","0","0","54794","","623","","","68","12","","","1","12","training","adjacent","DC","4","3","Q.jpg","M.jpg","1","0","0","",""
"","feedback","","html-keyboard-response","88","171970","0.0-1.0-114.0-0.0","0","0","54794","","null","","","null","12","","","","","","","","","","","","","","","",""
"","time_out","","html-keyboard-response","89","173984","0.0-1.0-116.0-0.0","0","0","54794","","null","","","null","12","","","","","","","","","","","","","","","",""
"","ITI","","html-keyboard-response","90","175000","0.0-1.0-117.0","0","0","54794","","null","","","null","12","","","","","","","","","","","","","","","NaN",""
"","S1","","html-keyboard-response","91","175262","0.0-1.0-119.0","0","0","54794","","null","","","null","13","","","","","","","","","","","","","","","",""
"","ISI","","html-keyboard-response","92","175778","0.0-1.0-120.0","0","0","54794","","null","","","null","13","NaN","","","","","","","","","","","","","","",""
"","S2","","html-keyboard-response","93","176037","0.0-1.0-121.0","0","0","54794","","null","","","null","13","","NaN","","","","","","","","","","","","","",""
"","response","","html-keyboard-response","94","176434","0.0-1.0-122.0-0.0","0","0","54794","","389","","","68","13","","","1","13","training","adjacent","FG","6","7","P.jpg","L.jpg","1","1","1","",""
"","feedback","","html-keyboard-response","95","177450","0.0-1.0-123.0-0.0","0","0","54794","","null","","","null","13","","","","","","","","","","","","","","","",""
"","ITI","","html-keyboard-response","96","178466","0.0-1.0-126.0","0","0","54794","","null","","","null","13","","","","","","","","","","","","","","","NaN",""
"","S1","","html-keyboard-response","97","178726","0.0-1.0-128.0","0","0","54794","","null","","","null","14","","","","","","","","","","","","","","","",""
"","ISI","","html-keyboard-response","98","179237","0.0-1.0-129.0","0","0","54794","","null","","","null","14","NaN","","","","","","","","","","","","","","",""
"","S2","","html-keyboard-response","99","179501","0.0-1.0-130.0","0","0","54794","","null","","","null","14","","NaN","","","","","","","","","","","","","",""
"","response","","html-keyboard-response","100","179855","0.0-1.0-131.0-0.0","0","0","54794","","350","","","68","14","","","1","14","training","adjacent","EF","5","6","N.jpg","P.jpg","1","1","1","",""
"","feedback","","html-keyboard-response","101","180873","0.0-1.0-132.0-0.0","0","0","54794","","null","","","null","14","","","","","","","","","","","","","","","",""
"","ITI","","html-keyboard-response","102","181890","0.0-1.0-135.0","0","0","54794","","null","","","null","14","","","","","","","","","","","","","","","NaN",""
"","S1","","html-keyboard-response","103","182151","0.0-1.0-137.0","0","0","54794","","null","","","null","15","","","","","","","","","","","","","","","",""
"","ISI","","html-keyboard-response","104","182662","0.0-1.0-138.0","0","0","54794","","null","","","null","15","NaN","","","","","","","","","","","","","","",""
"","S2","","html-keyboard-response","105","182928","0.0-1.0-139.0","0","0","54794","","null","","","null","15","","NaN","","","","","","","","","","","","","",""
"","response","","html-keyboard-response","106","183417","0.0-1.0-140.0-0.0","0","0","54794","","484","","","68","15","","","1","15","training","adjacent","CB","3","2","M.jpg","R.jpg","1","0","0","",""
"","feedback","","html-keyboard-response","107","184434","0.0-1.0-141.0-0.0","0","0","54794","","null","","","null","15","","","","","","","","","","","","","","","",""
"","time_out","","html-keyboard-response","108","186448","0.0-1.0-143.0-0.0","0","0","54794","","null","","","null","15","","","","","","","","","","","","","","","",""
"","ITI","","html-keyboard-response","109","187463","0.0-1.0-144.0","0","0","54794","","null","","","null","15","","","","","","","","","","","","","","","NaN",""
"","S1","","html-keyboard-response","110","187730","0.0-1.0-146.0","0","0","54794","","null","","","null","16","","","","","","","","","","","","","","","",""
"","ISI","","html-keyboard-response","111","188240","0.0-1.0-147.0","0","0","54794","","null","","","null","16","NaN","","","","","","","","","","","","","","",""
"","S2","","html-keyboard-response","112","188499","0.0-1.0-148.0","0","0","54794","","null","","","null","16","","NaN","","","","","","","","","","","","","",""
"","response","","html-keyboard-response","113","188884","0.0-1.0-149.0-0.0","0","0","54794","","382","","","75","16","","","1","16","training","adjacent","DE","4","5","Q.jpg","N.jpg","0","1","0","",""
"","feedback","","html-keyboard-response","114","189895","0.0-1.0-150.0-0.0","0","0","54794","","null","","","null","16","","","","","","","","","","","","","","","",""
"","time_out","","html-keyboard-response","115","191909","0.0-1.0-152.0-0.0","0","0","54794","","null","","","null","16","","","","","","","","","","","","","","","",""
"","ITI","","html-keyboard-response","116","192919","0.0-1.0-153.0","0","0","54794","","null","","","null","16","","","","","","","","","","","","","","","NaN",""
"","S1","","html-keyboard-response","117","193181","0.0-1.0-155.0","0","0","54794","","null","","","null","17","","","","","","","","","","","","","","","",""
"","ISI","","html-keyboard-response","118","193697","0.0-1.0-156.0","0","0","54794","","null","","","null","17","NaN","","","","","","","","","","","","","","",""
"","S2","","html-keyboard-response","119","193959","0.0-1.0-157.0","0","0","54794","","null","","","null","17","","NaN","","","","","","","","","","","","","",""
"","response","","html-keyboard-response","120","194320","0.0-1.0-158.0-0.0","0","0","54794","","359","","","68","17","","","1","17","training","adjacent","BA","2","1","R.jpg","O.jpg","1","0","0","",""
"","feedback","","html-keyboard-response","121","195333","0.0-1.0-159.0-0.0","0","0","54794","","null","","","null","17","","","","","","","","","","","","","","","",""
"","time_out","","html-keyboard-response","122","197343","0.0-1.0-161.0-0.0","0","0","54794","","null","","","null","17","","","","","","","","","","","","","","","",""
"","ITI","","html-keyboard-response","123","198353","0.0-1.0-162.0","0","0","54794","","null","","","null","17","","","","","","","","","","","","","","","NaN",""
"","S1","","html-keyboard-response","124","198614","0.0-1.0-164.0","0","0","54794","","null","","","null","18","","","","","","","","","","","","","","","",""
"","ISI","","html-keyboard-response","125","199125","0.0-1.0-165.0","0","0","54794","","null","","","null","18","NaN","","","","","","","","","","","","","","",""
"","S2","","html-keyboard-response","126","199392","0.0-1.0-166.0","0","0","54794","","null","","","null","18","","NaN","","","","","","","","","","","","","",""
"","response","","html-keyboard-response","127","199735","0.0-1.0-167.0-0.0","0","0","54794","","340","","","75","18","","","1","18","training","adjacent","CD","3","4","M.jpg","Q.jpg","0","1","0","",""
"","feedback","","html-keyboard-response","128","200751","0.0-1.0-168.0-0.0","0","0","54794","","null","","","null","18","","","","","","","","","","","","","","","",""
"","time_out","","html-keyboard-response","129","202765","0.0-1.0-170.0-0.0","0","0","54794","","null","","","null","18","","","","","","","","","","","","","","","",""
"","ITI","","html-keyboard-response","130","203774","0.0-1.0-171.0","0","0","54794","","null","","","null","18","","","","","","","","","","","","","","","NaN",""
"","S1","","html-keyboard-response","131","204042","0.0-1.0-173.0","0","0","54794","","null","","","null","19","","","","","","","","","","","","","","","",""
"","ISI","","html-keyboard-response","132","204550","0.0-1.0-174.0","0","0","54794","","null","","","null","19","NaN","","","","","","","","","","","","","","",""
"","S2","","html-keyboard-response","133","204813","0.0-1.0-175.0","0","0","54794","","null","","","null","19","","NaN","","","","","","","","","","","","","",""
"","response","","html-keyboard-response","134","205177","0.0-1.0-176.0-0.0","0","0","54794","","361","","","68","19","","","1","19","training","adjacent","EF","5","6","N.jpg","P.jpg","1","1","1","",""
"","feedback","","html-keyboard-response","135","206190","0.0-1.0-177.0-0.0","0","0","54794","","null","","","null","19","","","","","","","","","","","","","","","",""
"","ITI","","html-keyboard-response","136","207201","0.0-1.0-180.0","0","0","54794","","null","","","null","19","","","","","","","","","","","","","","","NaN",""
"","S1","","html-keyboard-response","137","207461","0.0-1.0-182.0","0","0","54794","","null","","","null","20","","","","","","","","","","","","","","","",""
"","ISI","","html-keyboard-response","138","207976","0.0-1.0-183.0","0","0","54794","","null","","","null","20","NaN","","","","","","","","","","","","","","",""
"","S2","","html-keyboard-response","139","208238","0.0-1.0-184.0","0","0","54794","","null","","","null","20","","NaN","","","","","","","","","","","","","",""
"","response","","html-keyboard-response","140","208526","0.0-1.0-185.0-0.0","0","0","54794","","282","","","68","20","","","1","20","training","adjacent","CD","3","4","M.jpg","Q.jpg","1","1","1","",""
"","feedback","","html-keyboard-response","141","209533","0.0-1.0-186.0-0.0","0","0","54794","","null","","","null","20","","","","","","","","","","","","","","","",""
"","ITI","","html-keyboard-response","142","210543","0.0-1.0-189.0","0","0","54794","","null","","","null","20","","","","","","","","","","","","","","","NaN",""
"","S1","","html-keyboard-response","143","210804","0.0-1.0-191.0","0","0","54794","","null","","","null","21","","","","","","","","","","","","","","","",""
"","ISI","","html-keyboard-response","144","211321","0.0-1.0-192.0","0","0","54794","","null","","","null","21","NaN","","","","","","","","","","","","","","",""
"","S2","","html-keyboard-response","145","211583","0.0-1.0-193.0","0","0","54794","","null","","","null","21","","NaN","","","","","","","","","","","","","",""
"","response","","html-keyboard-response","146","212019","0.0-1.0-194.0-0.0","0","0","54794","","430","","","75","21","","","1","21","training","adjacent","CB","3","2","M.jpg","R.jpg","0","0","1","",""
"","feedback","","html-keyboard-response","147","213032","0.0-1.0-195.0-0.0","0","0","54794","","null","","","null","21","","","","","","","","","","","","","","","",""
"","ITI","","html-keyboard-response","148","214050","0.0-1.0-198.0","0","0","54794","","null","","","null","21","","","","","","","","","","","","","","","NaN",""
"","S1","","html-keyboard-response","149","214311","0.0-1.0-200.0","0","0","54794","","null","","","null","22","","","","","","","","","","","","","","","",""
"","ISI","","html-keyboard-response","150","214821","0.0-1.0-201.0","0","0","54794","","null","","","null","22","NaN","","","","","","","","","","","","","","",""
"","S2","","html-keyboard-response","151","215088","0.0-1.0-202.0","0","0","54794","","null","","","null","22","","NaN","","","","","","","","","","","","","",""
"","response","","html-keyboard-response","152","215417","0.0-1.0-203.0-0.0","0","0","54794","","327","","","68","22","","","1","22","training","adjacent","AB","1","2","O.jpg","R.jpg","1","1","1","",""
"","feedback","","html-keyboard-response","153","216430","0.0-1.0-204.0-0.0","0","0","54794","","null","","","null","22","","","","","","","","","","","","","","","",""
"","ITI","","html-keyboard-response","154","217440","0.0-1.0-207.0","0","0","54794","","null","","","null","22","","","","","","","","","","","","","","","NaN",""
"","S1","","html-keyboard-response","155","217697","0.0-1.0-209.0","0","0","54794","","null","","","null","23","","","","","","","","","","","","","","","",""
"","ISI","","html-keyboard-response","156","218205","0.0-1.0-210.0","0","0","54794","","null","","","null","23","NaN","","","","","","","","","","","","","","",""
"","S2","","html-keyboard-response","157","218473","0.0-1.0-211.0","0","0","54794","","null","","","null","23","","NaN","","","","","","","","","","","","","",""
"","response","","html-keyboard-response","158","218774","0.0-1.0-212.0-0.0","0","0","54794","","297","","","68","23","","","1","23","training","adjacent","ED","5","4","N.jpg","Q.jpg","1","0","0","",""
"","feedback","","html-keyboard-response","159","219785","0.0-1.0-213.0-0.0","0","0","54794","","null","","","null","23","","","","","","","","","","","","","","","",""
"","time_out","","html-keyboard-response","160","221800","0.0-1.0-215.0-0.0","0","0","54794","","null","","","null","23","","","","","","","","","","","","","","","",""
"","ITI","","html-keyboard-response","161","222816","0.0-1.0-216.0","0","0","54794","","null","","","null","23","","","","","","","","","","","","","","","NaN",""
"","S1","","html-keyboard-response","162","223077","0.0-1.0-218.0","0","0","54794","","null","","","null","24","","","","","","","","","","","","","","","",""
"","ISI","","html-keyboard-response","163","223593","0.0-1.0-219.0","0","0","54794","","null","","","null","24","NaN","","","","","","","","","","","","","","",""
"","S2","","html-keyboard-response","164","223854","0.0-1.0-220.0","0","0","54794","","null","","","null","24","","NaN","","","","","","","","","","","","","",""
"","response","","html-keyboard-response","165","224184","0.0-1.0-221.0-0.0","0","0","54794","","323","","","68","24","","","1","24","training","adjacent","FE","6","5","P.jpg","N.jpg","1","0","0","",""
"","feedback","","html-keyboard-response","166","225202","0.0-1.0-222.0-0.0","0","0","54794","","null","","","null","24","","","","","","","","","","","","","","","",""
"","time_out","","html-keyboard-response","167","227216","0.0-1.0-224.0-0.0","0","0","54794","","null","","","null","24","","","","","","","","","","","","","","","",""
"","ITI","","html-keyboard-response","168","228231","0.0-1.0-225.0","0","0","54794","","null","","","null","24","","","","","","","","","","","","","","","NaN",""
"","S1","","html-keyboard-response","169","228493","0.0-1.0-227.0","0","0","54794","","null","","","null","25","","","","","","","","","","","","","","","",""
"","ISI","","html-keyboard-response","170","229009","0.0-1.0-228.0","0","0","54794","","null","","","null","25","NaN","","","","","","","","","","","","","","",""
"","S2","","html-keyboard-response","171","229271","0.0-1.0-229.0","0","0","54794","","null","","","null","25","","NaN","","","","","","","","","","","","","",""
"","response","","html-keyboard-response","172","229551","0.0-1.0-230.0-0.0","0","0","54794","","271","","","68","25","","","1","25","training","adjacent","ED","5","4","N.jpg","Q.jpg","1","0","0","",""
"","feedback","","html-keyboard-response","173","230566","0.0-1.0-231.0-0.0","0","0","54794","","null","","","null","25","","","","","","","","","","","","","","","",""
"","time_out","","html-keyboard-response","174","232573","0.0-1.0-233.0-0.0","0","0","54794","","null","","","null","25","","","","","","","","","","","","","","","",""
"","ITI","","html-keyboard-response","175","233584","0.0-1.0-234.0","0","0","54794","","null","","","null","25","","","","","","","","","","","","","","","NaN",""
"","S1","","html-keyboard-response","176","233845","0.0-1.0-236.0","0","0","54794","","null","","","null","26","","","","","","","","","","","","","","","",""
"","ISI","","html-keyboard-response","177","234361","0.0-1.0-237.0","0","0","54794","","null","","","null","26","NaN","","","","","","","","","","","","","","",""
"","S2","","html-keyboard-response","178","234622","0.0-1.0-238.0","0","0","54794","","null","","","null","26","","NaN","","","","","","","","","","","","","",""
"","response","","html-keyboard-response","179","234810","0.0-1.0-239.0-0.0","0","0","54794","","181","","","75","26","","","1","26","training","adjacent","DE","4","5","Q.jpg","N.jpg","0","1","0","",""
"","feedback","","html-keyboard-response","180","235823","0.0-1.0-240.0-0.0","0","0","54794","","null","","","null","26","","","","","","","","","","","","","","","",""
"","time_out","","html-keyboard-response","181","237837","0.0-1.0-242.0-0.0","0","0","54794","","null","","","null","26","","","","","","","","","","","","","","","",""
"","ITI","","html-keyboard-response","182","238848","0.0-1.0-243.0","0","0","54794","","null","","","null","26","","","","","","","","","","","","","","","NaN",""
"","S1","","html-keyboard-response","183","239110","0.0-1.0-245.0","0","0","54794","","null","","","null","27","","","","","","","","","","","","","","","",""
"","ISI","","html-keyboard-response","184","239621","0.0-1.0-246.0","0","0","54794","","null","","","null","27","NaN","","","","","","","","","","","","","","",""
"","S2","","html-keyboard-response","185","239887","0.0-1.0-247.0","0","0","54794","","null","","","null","27","","NaN","","","","","","","","","","","","","",""
"","response","","html-keyboard-response","186","240220","0.0-1.0-248.0-0.0","0","0","54794","","328","","","68","27","","","1","27","training","adjacent","FE","6","5","P.jpg","N.jpg","1","0","0","",""
"","feedback","","html-keyboard-response","187","241228","0.0-1.0-249.0-0.0","0","0","54794","","null","","","null","27","","","","","","","","","","","","","","","",""
"","time_out","","html-keyboard-response","188","243237","0.0-1.0-251.0-0.0","0","0","54794","","null","","","null","27","","","","","","","","","","","","","","","",""
"","ITI","","html-keyboard-response","189","244247","0.0-1.0-252.0","0","0","54794","","null","","","null","27","","","","","","","","","","","","","","","NaN",""
"","S1","","html-keyboard-response","190","244508","0.0-1.0-254.0","0","0","54794","","null","","","null","28","","","","","","","","","","","","","","","",""
"","ISI","","html-keyboard-response","191","245025","0.0-1.0-255.0","0","0","54794","","null","","","null","28","NaN","","","","","","","","","","","","","","",""
"","S2","","html-keyboard-response","192","245286","0.0-1.0-256.0","0","0","54794","","null","","","null","28","","NaN","","","","","","","","","","","","","",""
"","response","","html-keyboard-response","193","245654","0.0-1.0-257.0-0.0","0","0","54794","","363","","","75","28","","","1","28","training","adjacent","CB","3","2","M.jpg","R.jpg","0","0","1","",""
"","feedback","","html-keyboard-response","194","246662","0.0-1.0-258.0-0.0","0","0","54794","","null","","","null","28","","","","","","","","","","","","","","","",""
"","ITI","","html-keyboard-response","195","247671","0.0-1.0-261.0","0","0","54794","","null","","","null","28","","","","","","","","","","","","","","","NaN",""
"","S1","","html-keyboard-response","196","247933","0.0-1.0-263.0","0","0","54794","","null","","","null","29","","","","","","","","","","","","","","","",""
"","ISI","","html-keyboard-response","197","248449","0.0-1.0-264.0","0","0","54794","","null","","","null","29","NaN","","","","","","","","","","","","","","",""
"","S2","","html-keyboard-response","198","248711","0.0-1.0-265.0","0","0","54794","","null","","","null","29","","NaN","","","","","","","","","","","","","",""
"","response","","html-keyboard-response","199","249100","0.0-1.0-266.0-0.0","0","0","54794","","383","","","75","29","","","1","29","training","adjacent","BC","2","3","R.jpg","M.jpg","0","1","0","",""
"","feedback","","html-keyboard-response","200","250110","0.0-1.0-267.0-0.0","0","0","54794","","null","","","null","29","","","","","","","","","","","","","","","",""
"","time_out","","html-keyboard-response","201","252124","0.0-1.0-269.0-0.0","0","0","54794","","null","","","null","29","","","","","","","","","","","","","","","",""
"","ITI","","html-keyboard-response","202","253135","0.0-1.0-270.0","0","0","54794","","null","","","null","29","","","","","","","","","","","","","","","NaN",""
"","S1","","html-keyboard-response","203","253402","0.0-1.0-272.0","0","0","54794","","null","","","null","30","","","","","","","","","","","","","","","",""
"","ISI","","html-keyboard-response","204","253912","0.0-1.0-273.0","0","0","54794","","null","","","null","30","NaN","","","","","","","","","","","","","","",""
"","S2","","html-keyboard-response","205","254173","0.0-1.0-274.0","0","0","54794","","null","","","null","30","","NaN","","","","","","","","","","","","","",""
"","response","","html-keyboard-response","206","254525","0.0-1.0-275.0-0.0","0","0","54794","","346","","","75","30","","","1","30","training","adjacent","GF","7","6","L.jpg","P.jpg","0","0","1","",""
"","feedback","","html-keyboard-response","207","255544","0.0-1.0-276.0-0.0","0","0","54794","","null","","","null","30","","","","","","","","","","","","","","","",""
"","ITI","","html-keyboard-response","208","256560","0.0-1.0-279.0","0","0","54794","","null","","","null","30","","","","","","","","","","","","","","","NaN",""
"","S1","","html-keyboard-response","209","256820","0.0-1.0-281.0","0","0","54794","","null","","","null","31","","","","","","","","","","","","","","","",""
"","ISI","","html-keyboard-response","210","257337","0.0-1.0-282.0","0","0","54794","","null","","","null","31","NaN","","","","","","","","","","","","","","",""
"","S2","","html-keyboard-response","211","257597","0.0-1.0-283.0","0","0","54794","","null","","","null","31","","NaN","","","","","","","","","","","","","",""
"","response","","html-keyboard-response","212","257898","0.0-1.0-284.0-0.0","0","0","54794","","296","","","75","31","","","1","31","training","adjacent","GF","7","6","L.jpg","P.jpg","0","0","1","",""
"","feedback","","html-keyboard-response","213","258910","0.0-1.0-285.0-0.0","0","0","54794","","null","","","null","31","","","","","","","","","","","","","","","",""
"","ITI","","html-keyboard-response","214","259927","0.0-1.0-288.0","0","0","54794","","null","","","null","31","","","","","","","","","","","","","","","NaN",""
"","S1","","html-keyboard-response","215","260193","0.0-1.0-290.0","0","0","54794","","null","","","null","32","","","","","","","","","","","","","","","",""
"","ISI","","html-keyboard-response","216","260704","0.0-1.0-291.0","0","0","54794","","null","","","null","32","NaN","","","","","","","","","","","","","","",""
"","S2","","html-keyboard-response","217","260965","0.0-1.0-292.0","0","0","54794","","null","","","null","32","","NaN","","","","","","","","","","","","","",""
"","response","","html-keyboard-response","218","261312","0.0-1.0-293.0-0.0","0","0","54794","","344","","","75","32","","","1","32","training","adjacent","CB","3","2","M.jpg","R.jpg","0","0","1","",""
"","feedback","","html-keyboard-response","219","262329","0.0-1.0-294.0-0.0","0","0","54794","","null","","","null","32","","","","","","","","","","","","","","","",""
"","ITI","","html-keyboard-response","220","263344","0.0-1.0-297.0","0","0","54794","","null","","","null","32","","","","","","","","","","","","","","","NaN",""
"","S1","","html-keyboard-response","221","263606","0.0-1.0-299.0","0","0","54794","","null","","","null","33","","","","","","","","","","","","","","","",""
"","ISI","","html-keyboard-response","222","264117","0.0-1.0-300.0","0","0","54794","","null","","","null","33","NaN","","","","","","","","","","","","","","",""
"","S2","","html-keyboard-response","223","264384","0.0-1.0-301.0","0","0","54794","","null","","","null","33","","NaN","","","","","","","","","","","","","",""
"","response","","html-keyboard-response","224","264713","0.0-1.0-302.0-0.0","0","0","54794","","325","","","75","33","","","1","33","training","adjacent","DE","4","5","Q.jpg","N.jpg","0","1","0","",""
"","feedback","","html-keyboard-response","225","265726","0.0-1.0-303.0-0.0","0","0","54794","","null","","","null","33","","","","","","","","","","","","","","","",""
"","time_out","","html-keyboard-response","226","267734","0.0-1.0-305.0-0.0","0","0","54794","","null","","","null","33","","","","","","","","","","","","","","","",""
"","ITI","","html-keyboard-response","227","268744","0.0-1.0-306.0","0","0","54794","","null","","","null","33","","","","","","","","","","","","","","","NaN",""
"","S1","","html-keyboard-response","228","269004","0.0-1.0-308.0","0","0","54794","","null","","","null","34","","","","","","","","","","","","","","","",""
"","ISI","","html-keyboard-response","229","269521","0.0-1.0-309.0","0","0","54794","","null","","","null","34","NaN","","","","","","","","","","","","","","",""
"","S2","","html-keyboard-response","230","269783","0.0-1.0-310.0","0","0","54794","","null","","","null","34","","NaN","","","","","","","","","","","","","",""
"","response","","html-keyboard-response","231","270034","0.0-1.0-311.0-0.0","0","0","54794","","247","","","68","34","","","1","34","training","adjacent","BC","2","3","R.jpg","M.jpg","1","1","1","",""
"","feedback","","html-keyboard-response","232","271047","0.0-1.0-312.0-0.0","0","0","54794","","null","","","null","34","","","","","","","","","","","","","","","",""
"","ITI","","html-keyboard-response","233","272064","0.0-1.0-315.0","0","0","54794","","null","","","null","34","","","","","","","","","","","","","","","NaN",""
"","S1","","html-keyboard-response","234","272326","0.0-1.0-317.0","0","0","54794","","null","","","null","35","","","","","","","","","","","","","","","",""
"","ISI","","html-keyboard-response","235","272836","0.0-1.0-318.0","0","0","54794","","null","","","null","35","NaN","","","","","","","","","","","","","","",""
"","S2","","html-keyboard-response","236","273102","0.0-1.0-319.0","0","0","54794","","null","","","null","35","","NaN","","","","","","","","","","","","","",""
"","response","","html-keyboard-response","237","273277","0.0-1.0-320.0-0.0","0","0","54794","","171","","","68","35","","","1","35","training","adjacent","ED","5","4","N.jpg","Q.jpg","1","0","0","",""
"","feedback","","html-keyboard-response","238","274293","0.0-1.0-321.0-0.0","0","0","54794","","null","","","null","35","","","","","","","","","","","","","","","",""
"","time_out","","html-keyboard-response","239","276302","0.0-1.0-323.0-0.0","0","0","54794","","null","","","null","35","","","","","","","","","","","","","","","",""
"","ITI","","html-keyboard-response","240","277318","0.0-1.0-324.0","0","0","54794","","null","","","null","35","","","","","","","","","","","","","","","NaN",""
"","S1","","html-keyboard-response","241","277584","0.0-1.0-326.0","0","0","54794","","null","","","null","36","","","","","","","","","","","","","","","",""
"","ISI","","html-keyboard-response","242","278096","0.0-1.0-327.0","0","0","54794","","null","","","null","36","NaN","","","","","","","","","","","","","","",""
"","S2","","html-keyboard-response","243","278357","0.0-1.0-328.0","0","0","54794","","null","","","null","36","","NaN","","","","","","","","","","","","","",""
"","response","","html-keyboard-response","244","278539","0.0-1.0-329.0-0.0","0","0","54794","","179","","","68","36","","","1","36","training","adjacent","BC","2","3","R.jpg","M.jpg","1","1","1","",""
"","feedback","","html-keyboard-response","245","279553","0.0-1.0-330.0-0.0","0","0","54794","","null","","","null","36","","","","","","","","","","","","","","","",""
"","ITI","","html-keyboard-response","246","280569","0.0-1.0-333.0","0","0","54794","","null","","","null","36","","","","","","","","","","","","","","","NaN",""
"","S1","","html-keyboard-response","247","280829","0.0-1.0-335.0","0","0","54794","","null","","","null","37","","","","","","","","","","","","","","","",""
"","ISI","","html-keyboard-response","248","281341","0.0-1.0-336.0","0","0","54794","","null","","","null","37","NaN","","","","","","","","","","","","","","",""
"","S2","","html-keyboard-response","249","281607","0.0-1.0-337.0","0","0","54794","","null","","","null","37","","NaN","","","","","","","","","","","","","",""
"","response","","html-keyboard-response","250","281987","0.0-1.0-338.0-0.0","0","0","54794","","375","","","75","37","","","1","37","training","adjacent","BA","2","1","R.jpg","O.jpg","0","0","1","",""
"","feedback","","html-keyboard-response","251","283001","0.0-1.0-339.0-0.0","0","0","54794","","null","","","null","37","","","","","","","","","","","","","","","",""
"","ITI","","html-keyboard-response","252","284015","0.0-1.0-342.0","0","0","54794","","null","","","null","37","","","","","","","","","","","","","","","NaN",""
"","S1","","html-keyboard-response","253","284277","0.0-1.0-344.0","0","0","54794","","null","","","null","38","","","","","","","","","","","","","","","",""
"","ISI","","html-keyboard-response","254","284789","0.0-1.0-345.0","0","0","54794","","null","","","null","38","NaN","","","","","","","","","","","","","","",""
"","S2","","html-keyboard-response","255","285056","0.0-1.0-346.0","0","0","54794","","null","","","null","38","","NaN","","","","","","","","","","","","","",""
"","response","","html-keyboard-response","256","285254","0.0-1.0-347.0-0.0","0","0","54794","","194","","","68","38","","","1","38","training","adjacent","FG","6","7","P.jpg","L.jpg","1","1","1","",""
"","feedback","","html-keyboard-response","257","286269","0.0-1.0-348.0-0.0","0","0","54794","","null","","","null","38","","","","","","","","","","","","","","","",""
"","ITI","","html-keyboard-response","258","287280","0.0-1.0-351.0","0","0","54794","","null","","","null","38","","","","","","","","","","","","","","","NaN",""
"","S1","","html-keyboard-response","259","287540","0.0-1.0-353.0","0","0","54794","","null","","","null","39","","","","","","","","","","","","","","","",""
"","ISI","","html-keyboard-response","260","288055","0.0-1.0-354.0","0","0","54794","","null","","","null","39","NaN","","","","","","","","","","","","","","",""
"","S2","","html-keyboard-response","261","288318","0.0-1.0-355.0","0","0","54794","","null","","","null","39","","NaN","","","","","","","","","","","","","",""
"","response","","html-keyboard-response","262","288573","0.0-1.0-356.0-0.0","0","0","54794","","250","","","68","39","","","1","39","training","adjacent","EF","5","6","N.jpg","P.jpg","1","1","1","",""
"","feedback","","html-keyboard-response","263","289584","0.0-1.0-357.0-0.0","0","0","54794","","null","","","null","39","","","","","","","","","","","","","","","",""
"","ITI","","html-keyboard-response","264","290600","0.0-1.0-360.0","0","0","54794","","null","","","null","39","","","","","","","","","","","","","","","NaN",""
"","S1","","html-keyboard-response","265","290860","0.0-1.0-362.0","0","0","54794","","null","","","null","40","","","","","","","","","","","","","","","",""
"","ISI","","html-keyboard-response","266","291376","0.0-1.0-363.0","0","0","54794","","null","","","null","40","NaN","","","","","","","","","","","","","","",""
"","S2","","html-keyboard-response","267","291638","0.0-1.0-364.0","0","0","54794","","null","","","null","40","","NaN","","","","","","","","","","","","","",""
"","response","","html-keyboard-response","268","291985","0.0-1.0-365.0-0.0","0","0","54794","","341","","","68","40","","","1","40","training","adjacent","BA","2","1","R.jpg","O.jpg","1","0","0","",""
"","feedback","","html-keyboard-response","269","292997","0.0-1.0-366.0-0.0","0","0","54794","","null","","","null","40","","","","","","","","","","","","","","","",""
"","time_out","","html-keyboard-response","270","295006","0.0-1.0-368.0-0.0","0","0","54794","","null","","","null","40","","","","","","","","","","","","","","","",""
"","ITI","","html-keyboard-response","271","296015","0.0-1.0-369.0","0","0","54794","","null","","","null","40","","","","","","","","","","","","","","","NaN",""
"","S1","","html-keyboard-response","272","296277","0.0-1.0-371.0","0","0","54794","","null","","","null","41","","","","","","","","","","","","","","","",""
"","ISI","","html-keyboard-response","273","296790","0.0-1.0-372.0","0","0","54794","","null","","","null","41","NaN","","","","","","","","","","","","","","",""
"","S2","","html-keyboard-response","274","297055","0.0-1.0-373.0","0","0","54794","","null","","","null","41","","NaN","","","","","","","","","","","","","",""
"","response","","html-keyboard-response","275","297311","0.0-1.0-374.0-0.0","0","0","54794","","249","","","75","41","","","1","41","training","adjacent","BA","2","1","R.jpg","O.jpg","0","0","1","",""
"","feedback","","html-keyboard-response","276","298325","0.0-1.0-375.0-0.0","0","0","54794","","null","","","null","41","","","","","","","","","","","","","","","",""
"","ITI","","html-keyboard-response","277","299336","0.0-1.0-378.0","0","0","54794","","null","","","null","41","","","","","","","","","","","","","","","NaN",""
"","S1","","html-keyboard-response","278","299597","0.0-1.0-380.0","0","0","54794","","null","","","null","42","","","","","","","","","","","","","","","",""
"","ISI","","html-keyboard-response","279","300108","0.0-1.0-381.0","0","0","54794","","null","","","null","42","NaN","","","","","","","","","","","","","","",""
"","S2","","html-keyboard-response","280","300371","0.0-1.0-382.0","0","0","54794","","null","","","null","42","","NaN","","","","","","","","","","","","","",""
"","response","","html-keyboard-response","281","300609","0.0-1.0-383.0-0.0","0","0","54794","","233","","","68","42","","","1","42","training","adjacent","AB","1","2","O.jpg","R.jpg","1","1","1","",""
"","feedback","","html-keyboard-response","282","301621","0.0-1.0-384.0-0.0","0","0","54794","","null","","","null","42","","","","","","","","","","","","","","","",""
"","ITI","","html-keyboard-response","283","302639","0.0-1.0-387.0","0","0","54794","","null","","","null","42","","","","","","","","","","","","","","","NaN",""
"","S1","","html-keyboard-response","284","302899","0.0-1.0-389.0","0","0","54794","","null","","","null","43","","","","","","","","","","","","","","","",""
"","ISI","","html-keyboard-response","285","303415","0.0-1.0-390.0","0","0","54794","","null","","","null","43","NaN","","","","","","","","","","","","","","",""
"","S2","","html-keyboard-response","286","303678","0.0-1.0-391.0","0","0","54794","","null","","","null","43","","NaN","","","","","","","","","","","","","",""
"","response","","html-keyboard-response","287","303938","0.0-1.0-392.0-0.0","0","0","54794","","256","","","68","43","","","1","43","training","adjacent","AB","1","2","O.jpg","R.jpg","1","1","1","",""
"","feedback","","html-keyboard-response","288","304950","0.0-1.0-393.0-0.0","0","0","54794","","null","","","null","43","","","","","","","","","","","","","","","",""
"","ITI","","html-keyboard-response","289","305966","0.0-1.0-396.0","0","0","54794","","null","","","null","43","","","","","","","","","","","","","","","NaN",""
"","S1","","html-keyboard-response","290","306232","0.0-1.0-398.0","0","0","54794","","null","","","null","44","","","","","","","","","","","","","","","",""
"","ISI","","html-keyboard-response","291","306743","0.0-1.0-399.0","0","0","54794","","null","","","null","44","NaN","","","","","","","","","","","","","","",""
"","S2","","html-keyboard-response","292","307003","0.0-1.0-400.0","0","0","54794","","null","","","null","44","","NaN","","","","","","","","","","","","","",""
"","response","","html-keyboard-response","293","307377","0.0-1.0-401.0-0.0","0","0","54794","","370","","","68","44","","","1","44","training","adjacent","DE","4","5","Q.jpg","N.jpg","1","1","1","",""
"","feedback","","html-keyboard-response","294","308392","0.0-1.0-402.0-0.0","0","0","54794","","null","","","null","44","","","","","","","","","","","","","","","",""
"","ITI","","html-keyboard-response","295","309408","0.0-1.0-405.0","0","0","54794","","null","","","null","44","","","","","","","","","","","","","","","NaN",""
"","S1","","html-keyboard-response","296","309668","0.0-1.0-407.0","0","0","54794","","null","","","null","45","","","","","","","","","","","","","","","",""
"","ISI","","html-keyboard-response","297","310184","0.0-1.0-408.0","0","0","54794","","null","","","null","45","NaN","","","","","","","","","","","","","","",""
"","S2","","html-keyboard-response","298","310446","0.0-1.0-409.0","0","0","54794","","null","","","null","45","","NaN","","","","","","","","","","","","","",""
"","response","","html-keyboard-response","299","310761","0.0-1.0-410.0-0.0","0","0","54794","","312","","","68","45","","","1","45","training","adjacent","CD","3","4","M.jpg","Q.jpg","1","1","1","",""
"","feedback","","html-keyboard-response","300","311776","0.0-1.0-411.0-0.0","0","0","54794","","null","","","null","45","","","","","","","","","","","","","","","",""
"","ITI","","html-keyboard-response","301","312792","0.0-1.0-414.0","0","0","54794","","null","","","null","45","","","","","","","","","","","","","","","NaN",""
"","S1","","html-keyboard-response","302","313053","0.0-1.0-416.0","0","0","54794","","null","","","null","46","","","","","","","","","","","","","","","",""
"","ISI","","html-keyboard-response","303","313563","0.0-1.0-417.0","0","0","54794","","null","","","null","46","NaN","","","","","","","","","","","","","","",""
"","S2","","html-keyboard-response","304","313830","0.0-1.0-418.0","0","0","54794","","null","","","null","46","","NaN","","","","","","","","","","","","","",""
"","response","","html-keyboard-response","305","314099","0.0-1.0-419.0-0.0","0","0","54794","","265","","","68","46","","","1","46","training","adjacent","DC","4","3","Q.jpg","M.jpg","1","0","0","",""
"","feedback","","html-keyboard-response","306","315107","0.0-1.0-420.0-0.0","0","0","54794","","null","","","null","46","","","","","","","","","","","","","","","",""
"","time_out","","html-keyboard-response","307","317116","0.0-1.0-422.0-0.0","0","0","54794","","null","","","null","46","","","","","","","","","","","","","","","",""
"","ITI","","html-keyboard-response","308","318126","0.0-1.0-423.0","0","0","54794","","null","","","null","46","","","","","","","","","","","","","","","NaN",""
"","S1","","html-keyboard-response","309","318387","0.0-1.0-425.0","0","0","54794","","null","","","null","47","","","","","","","","","","","","","","","",""
"","ISI","","html-keyboard-response","310","318904","0.0-1.0-426.0","0","0","54794","","null","","","null","47","NaN","","","","","","","","","","","","","","",""
"","S2","","html-keyboard-response","311","319166","0.0-1.0-427.0","0","0","54794","","null","","","null","47","","NaN","","","","","","","","","","","","","",""
"","response","","html-keyboard-response","312","319257","0.0-1.0-428.0-0.0","0","0","54794","","86","","","68","47","","","1","47","training","adjacent","FG","6","7","P.jpg","L.jpg","1","1","1","",""
"","feedback","","html-keyboard-response","313","320268","0.0-1.0-429.0-0.0","0","0","54794","","null","","","null","47","","","","","","","","","","","","","","","",""
"","ITI","","html-keyboard-response","314","321279","0.0-1.0-432.0","0","0","54794","","null","","","null","47","","","","","","","","","","","","","","","NaN",""
"","block_over","","html-keyboard-response","315","325611","0.0-1.0-433.0-0.0","0","0","54794","","4328","","","32","47","","","","","","","","","","","","","","","",""
"","S1","","html-keyboard-response","316","325875","0.0-1.0-434.0","0","0","54794","","null","","","null","48","","","","","","","","","","","","","","","",""
"","ISI","","html-keyboard-response","317","326388","0.0-1.0-435.0","0","0","54794","","null","","","null","48","NaN","","","","","","","","","","","","","","",""
"","S2","","html-keyboard-response","318","326654","0.0-1.0-436.0","0","0","54794","","null","","","null","48","","NaN","","","","","","","","","","","","","",""
"","response","","html-keyboard-response","319","326910","0.0-1.0-437.0-0.0","0","0","54794","","252","","","75","48","","","2","48","training","adjacent","DC","4","3","Q.jpg","M.jpg","0","0","1","",""
"","feedback","","html-keyboard-response","320","327926","0.0-1.0-438.0-0.0","0","0","54794","","null","","","null","48","","","","","","","","","","","","","","","",""
"","ITI","","html-keyboard-response","321","328941","0.0-1.0-441.0","0","0","54794","","null","","","null","48","","","","","","","","","","","","","","","NaN",""
"","S1","","html-keyboard-response","322","329208","0.0-1.0-443.0","0","0","54794","","null","","","null","49","","","","","","","","","","","","","","","",""
"","ISI","","html-keyboard-response","323","329718","0.0-1.0-444.0","0","0","54794","","null","","","null","49","NaN","","","","","","","","","","","","","","",""
"","S2","","html-keyboard-response","324","329979","0.0-1.0-445.0","0","0","54794","","null","","","null","49","","NaN","","","","","","","","","","","","","",""
"","response","","html-keyboard-response","325","330118","0.0-1.0-446.0-0.0","0","0","54794","","137","","","68","49","","","2","49","training","adjacent","ED","5","4","N.jpg","Q.jpg","1","0","0","",""
"","feedback","","html-keyboard-response","326","331133","0.0-1.0-447.0-0.0","0","0","54794","","null","","","null","49","","","","","","","","","","","","","","","",""
"","time_out","","html-keyboard-response","327","333150","0.0-1.0-449.0-0.0","0","0","54794","","null","","","null","49","","","","","","","","","","","","","","","",""
"","ITI","","html-keyboard-response","328","334162","0.0-1.0-450.0","0","0","54794","","null","","","null","49","","","","","","","","","","","","","","","NaN",""
"","S1","","html-keyboard-response","329","334420","0.0-1.0-452.0","0","0","54794","","null","","","null","50","","","","","","","","","","","","","","","",""
"","ISI","","html-keyboard-response","330","334932","0.0-1.0-453.0","0","0","54794","","null","","","null","50","NaN","","","","","","","","","","","","","","",""
"","S2","","html-keyboard-response","331","335198","0.0-1.0-454.0","0","0","54794","","null","","","null","50","","NaN","","","","","","","","","","","","","",""
"","response","","html-keyboard-response","332","335455","0.0-1.0-455.0-0.0","0","0","54794","","251","","","75","50","","","2","50","training","adjacent","CB","3","2","M.jpg","R.jpg","0","0","1","",""
"","feedback","","html-keyboard-response","333","336470","0.0-1.0-456.0-0.0","0","0","54794","","null","","","null","50","","","","","","","","","","","","","","","",""
"","ITI","","html-keyboard-response","334","337485","0.0-1.0-459.0","0","0","54794","","null","","","null","50","","","","","","","","","","","","","","","NaN",""
"","S1","","html-keyboard-response","335","337752","0.0-1.0-461.0","0","0","54794","","null","","","null","51","","","","","","","","","","","","","","","",""
"","ISI","","html-keyboard-response","336","338263","0.0-1.0-462.0","0","0","54794","","null","","","null","51","NaN","","","","","","","","","","","","","","",""
"","S2","","html-keyboard-response","337","338524","0.0-1.0-463.0","0","0","54794","","null","","","null","51","","NaN","","","","","","","","","","","","","",""
"","response","","html-keyboard-response","338","338589","0.0-1.0-464.0-0.0","0","0","54794","","62","","","68","51","","","2","51","training","adjacent","ED","5","4","N.jpg","Q.jpg","1","0","0","",""
"","feedback","","html-keyboard-response","339","339605","0.0-1.0-465.0-0.0","0","0","54794","","null","","","null","51","","","","","","","","","","","","","","","",""
"","time_out","","html-keyboard-response","340","341612","0.0-1.0-467.0-0.0","0","0","54794","","null","","","null","51","","","","","","","","","","","","","","","",""
"","ITI","","html-keyboard-response","341","342623","0.0-1.0-468.0","0","0","54794","","null","","","null","51","","","","","","","","","","","","","","","NaN",""
"","S1","","html-keyboard-response","342","342885","0.0-1.0-470.0","0","0","54794","","null","","","null","52","","","","","","","","","","","","","","","",""
"","ISI","","html-keyboard-response","343","343395","0.0-1.0-471.0","0","0","54794","","null","","","null","52","NaN","","","","","","","","","","","","","","",""
"","S2","","html-keyboard-response","344","343662","0.0-1.0-472.0","0","0","54794","","null","","","null","52","","NaN","","","","","","","","","","","","","",""
"","response","","html-keyboard-response","345","343958","0.0-1.0-473.0-0.0","0","0","54794","","291","","","68","52","","","2","52","training","adjacent","CD","3","4","M.jpg","Q.jpg","1","1","1","",""
"","feedback","","html-keyboard-response","346","344974","0.0-1.0-474.0-0.0","0","0","54794","","null","","","null","52","","","","","","","","","","","","","","","",""
"","ITI","","html-keyboard-response","347","345990","0.0-1.0-477.0","0","0","54794","","null","","","null","52","","","","","","","","","","","","","","","NaN",""
"","S1","","html-keyboard-response","348","346251","0.0-1.0-479.0","0","0","54794","","null","","","null","53","","","","","","","","","","","","","","","",""
"","ISI","","html-keyboard-response","349","346768","0.0-1.0-480.0","0","0","54794","","null","","","null","53","NaN","","","","","","","","","","","","","","",""
"","S2","","html-keyboard-response","350","347028","0.0-1.0-481.0","0","0","54794","","null","","","null","53","","NaN","","","","","","","","","","","","","",""
"","response","","html-keyboard-response","351","347296","0.0-1.0-482.0-0.0","0","0","54794","","262","","","75","53","","","2","53","training","adjacent","EF","5","6","N.jpg","P.jpg","0","1","0","",""
"","feedback","","html-keyboard-response","352","348312","0.0-1.0-483.0-0.0","0","0","54794","","null","","","null","53","","","","","","","","","","","","","","","",""
"","time_out","","html-keyboard-response","353","350326","0.0-1.0-485.0-0.0","0","0","54794","","null","","","null","53","","","","","","","","","","","","","","","",""
"","ITI","","html-keyboard-response","354","351342","0.0-1.0-486.0","0","0","54794","","null","","","null","53","","","","","","","","","","","","","","","NaN",""
"","S1","","html-keyboard-response","355","351604","0.0-1.0-488.0","0","0","54794","","null","","","null","54","","","","","","","","","","","","","","","",""
"","ISI","","html-keyboard-response","356","352119","0.0-1.0-489.0","0","0","54794","","null","","","null","54","NaN","","","","","","","","","","","","","","",""
"","S2","","html-keyboard-response","357","352381","0.0-1.0-490.0","0","0","54794","","null","","","null","54","","NaN","","","","","","","","","","","","","",""
"","response","","html-keyboard-response","358","352654","0.0-1.0-491.0-0.0","0","0","54794","","266","","","75","54","","","2","54","training","adjacent","DE","4","5","Q.jpg","N.jpg","0","1","0","",""
"","feedback","","html-keyboard-response","359","353670","0.0-1.0-492.0-0.0","0","0","54794","","null","","","null","54","","","","","","","","","","","","","","","",""
"","time_out","","html-keyboard-response","360","355685","0.0-1.0-494.0-0.0","0","0","54794","","null","","","null","54","","","","","","","","","","","","","","","",""
"","ITI","","html-keyboard-response","361","356695","0.0-1.0-495.0","0","0","54794","","null","","","null","54","","","","","","","","","","","","","","","NaN",""
"","S1","","html-keyboard-response","362","356956","0.0-1.0-497.0","0","0","54794","","null","","","null","55","","","","","","","","","","","","","","","",""
"","ISI","","html-keyboard-response","363","357471","0.0-1.0-498.0","0","0","54794","","null","","","null","55","NaN","","","","","","","","","","","","","","",""
"","S2","","html-keyboard-response","364","357732","0.0-1.0-499.0","0","0","54794","","null","","","null","55","","NaN","","","","","","","","","","","","","",""
"","response","","html-keyboard-response","365","358023","0.0-1.0-500.0-0.0","0","0","54794","","286","","","68","55","","","2","55","training","adjacent","DC","4","3","Q.jpg","M.jpg","1","0","0","",""
"","feedback","","html-keyboard-response","366","359040","0.0-1.0-501.0-0.0","0","0","54794","","null","","","null","55","","","","","","","","","","","","","","","",""
"","time_out","","html-keyboard-response","367","361053","0.0-1.0-503.0-0.0","0","0","54794","","null","","","null","55","","","","","","","","","","","","","","","",""
"","ITI","","html-keyboard-response","368","362064","0.0-1.0-504.0","0","0","54794","","null","","","null","55","","","","","","","","","","","","","","","NaN",""
"","S1","","html-keyboard-response","369","362326","0.0-1.0-506.0","0","0","54794","","null","","","null","56","","","","","","","","","","","","","","","",""
"","ISI","","html-keyboard-response","370","362835","0.0-1.0-507.0","0","0","54794","","null","","","null","56","NaN","","","","","","","","","","","","","","",""
"","S2","","html-keyboard-response","371","363103","0.0-1.0-508.0","0","0","54794","","null","","","null","56","","NaN","","","","","","","","","","","","","",""
"","response","","html-keyboard-response","372","363427","0.0-1.0-509.0-0.0","0","0","54794","","320","","","75","56","","","2","56","training","adjacent","AB","1","2","O.jpg","R.jpg","0","1","0","",""
"","feedback","","html-keyboard-response","373","364438","0.0-1.0-510.0-0.0","0","0","54794","","null","","","null","56","","","","","","","","","","","","","","","",""
"","time_out","","html-keyboard-response","374","366451","0.0-1.0-512.0-0.0","0","0","54794","","null","","","null","56","","","","","","","","","","","","","","","",""
"","ITI","","html-keyboard-response","375","367463","0.0-1.0-513.0","0","0","54794","","null","","","null","56","","","","","","","","","","","","","","","NaN",""
"","S1","","html-keyboard-response","376","367723","0.0-1.0-515.0","0","0","54794","","null","","","null","57","","","","","","","","","","","","","","","",""
"","ISI","","html-keyboard-response","377","368239","0.0-1.0-516.0","0","0","54794","","null","","","null","57","NaN","","","","","","","","","","","","","","",""
"","S2","","html-keyboard-response","378","368502","0.0-1.0-517.0","0","0","54794","","null","","","null","57","","NaN","","","","","","","","","","","","","",""
"","response","","html-keyboard-response","379","368694","0.0-1.0-518.0-0.0","0","0","54794","","188","","","68","57","","","2","57","training","adjacent","EF","5","6","N.jpg","P.jpg","1","1","1","",""
"","feedback","","html-keyboard-response","380","369709","0.0-1.0-519.0-0.0","0","0","54794","","null","","","null","57","","","","","","","","","","","","","","","",""
"","ITI","","html-keyboard-response","381","370717","0.0-1.0-522.0","0","0","54794","","null","","","null","57","","","","","","","","","","","","","","","NaN",""
"","S1","","html-keyboard-response","382","370980","0.0-1.0-524.0","0","0","54794","","null","","","null","58","","","","","","","","","","","","","","","",""
"","ISI","","html-keyboard-response","383","371490","0.0-1.0-525.0","0","0","54794","","null","","","null","58","NaN","","","","","","","","","","","","","","",""
"","S2","","html-keyboard-response","384","371748","0.0-1.0-526.0","0","0","54794","","null","","","null","58","","NaN","","","","","","","","","","","","","",""
"","response","","html-keyboard-response","385","371907","0.0-1.0-527.0-0.0","0","0","54794","","156","","","75","58","","","2","58","training","adjacent","DC","4","3","Q.jpg","M.jpg","0","0","1","",""
"","feedback","","html-keyboard-response","386","372919","0.0-1.0-528.0-0.0","0","0","54794","","null","","","null","58","","","","","","","","","","","","","","","",""
"","ITI","","html-keyboard-response","387","373936","0.0-1.0-531.0","0","0","54794","","null","","","null","58","","","","","","","","","","","","","","","NaN",""
"","S1","","html-keyboard-response","388","374196","0.0-1.0-533.0","0","0","54794","","null","","","null","59","","","","","","","","","","","","","","","",""
"","ISI","","html-keyboard-response","389","374707","0.0-1.0-534.0","0","0","54794","","null","","","null","59","NaN","","","","","","","","","","","","","","",""
"","S2","","html-keyboard-response","390","374974","0.0-1.0-535.0","0","0","54794","","null","","","null","59","","NaN","","","","","","","","","","","","","",""
"","response","","html-keyboard-response","391","375128","0.0-1.0-536.0-0.0","0","0","54794","","150","","","68","59","","","2","59","training","adjacent","FG","6","7","P.jpg","L.jpg","1","1","1","",""
"","feedback","","html-keyboard-response","392","376140","0.0-1.0-537.0-0.0","0","0","54794","","null","","","null","59","","","","","","","","","","","","","","","",""
"","ITI","","html-keyboard-response","393","377151","0.0-1.0-540.0","0","0","54794","","null","","","null","59","","","","","","","","","","","","","","","NaN",""
"","S1","","html-keyboard-response","394","377412","0.0-1.0-542.0","0","0","54794","","null","","","null","60","","","","","","","","","","","","","","","",""
"","ISI","","html-keyboard-response","395","377923","0.0-1.0-543.0","0","0","54794","","null","","","null","60","NaN","","","","","","","","","","","","","","",""
"","S2","","html-keyboard-response","396","378190","0.0-1.0-544.0","0","0","54794","","null","","","null","60","","NaN","","","","","","","","","","","","","",""
"","response","","html-keyboard-response","397","378434","0.0-1.0-545.0-0.0","0","0","54794","","239","","","68","60","","","2","60","training","adjacent","CD","3","4","M.jpg","Q.jpg","1","1","1","",""
"","feedback","","html-keyboard-response","398","379444","0.0-1.0-546.0-0.0","0","0","54794","","null","","","null","60","","","","","","","","","","","","","","","",""
"","ITI","","html-keyboard-response","399","380454","0.0-1.0-549.0","0","0","54794","","null","","","null","60","","","","","","","","","","","","","","","NaN",""
"","S1","","html-keyboard-response","400","380714","0.0-1.0-551.0","0","0","54794","","null","","","null","61","","","","","","","","","","","","","","","",""
"","ISI","","html-keyboard-response","401","381231","0.0-1.0-552.0","0","0","54794","","null","","","null","61","NaN","","","","","","","","","","","","","","",""
"","S2","","html-keyboard-response","402","381493","0.0-1.0-553.0","0","0","54794","","null","","","null","61","","NaN","","","","","","","","","","","","","",""
"","response","","html-keyboard-response","403","381676","0.0-1.0-554.0-0.0","0","0","54794","","178","","","75","61","","","2","61","training","adjacent","DE","4","5","Q.jpg","N.jpg","0","1","0","",""
"","feedback","","html-keyboard-response","404","382683","0.0-1.0-555.0-0.0","0","0","54794","","null","","","null","61","","","","","","","","","","","","","","","",""
"","time_out","","html-keyboard-response","405","384691","0.0-1.0-557.0-0.0","0","0","54794","","null","","","null","61","","","","","","","","","","","","","","","",""
"","ITI","","html-keyboard-response","406","385702","0.0-1.0-558.0","0","0","54794","","null","","","null","61","","","","","","","","","","","","","","","NaN",""
"","S1","","html-keyboard-response","407","385968","0.0-1.0-560.0","0","0","54794","","null","","","null","62","","","","","","","","","","","","","","","",""
"","ISI","","html-keyboard-response","408","386479","0.0-1.0-561.0","0","0","54794","","null","","","null","62","NaN","","","","","","","","","","","","","","",""
"","S2","","html-keyboard-response","409","386740","0.0-1.0-562.0","0","0","54794","","null","","","null","62","","NaN","","","","","","","","","","","","","",""
"","response","","html-keyboard-response","410","386962","0.0-1.0-563.0-0.0","0","0","54794","","217","","","68","62","","","2","62","training","adjacent","DC","4","3","Q.jpg","M.jpg","1","0","0","",""
"","feedback","","html-keyboard-response","411","387972","0.0-1.0-564.0-0.0","0","0","54794","","null","","","null","62","","","","","","","","","","","","","","","",""
"","time_out","","html-keyboard-response","412","389980","0.0-1.0-566.0-0.0","0","0","54794","","null","","","null","62","","","","","","","","","","","","","","","",""
"","ITI","","html-keyboard-response","413","390990","0.0-1.0-567.0","0","0","54794","","null","","","null","62","","","","","","","","","","","","","","","NaN",""
"","S1","","html-keyboard-response","414","391252","0.0-1.0-569.0","0","0","54794","","null","","","null","63","","","","","","","","","","","","","","","",""
"","ISI","","html-keyboard-response","415","391766","0.0-1.0-570.0","0","0","54794","","null","","","null","63","NaN","","","","","","","","","","","","","","",""
"","S2","","html-keyboard-response","416","392028","0.0-1.0-571.0","0","0","54794","","null","","","null","63","","NaN","","","","","","","","","","","","","",""
"","response","","html-keyboard-response","417","392198","0.0-1.0-572.0-0.0","0","0","54794","","166","","","75","63","","","2","63","training","adjacent","DE","4","5","Q.jpg","N.jpg","0","1","0","",""
"","feedback","","html-keyboard-response","418","393211","0.0-1.0-573.0-0.0","0","0","54794","","null","","","null","63","","","","","","","","","","","","","","","",""
"","time_out","","html-keyboard-response","419","395222","0.0-1.0-575.0-0.0","0","0","54794","","null","","","null","63","","","","","","","","","","","","","","","",""
"","ITI","","html-keyboard-response","420","396237","0.0-1.0-576.0","0","0","54794","","null","","","null","63","","","","","","","","","","","","","","","NaN",""
"","S1","","html-keyboard-response","421","396498","0.0-1.0-578.0","0","0","54794","","null","","","null","64","","","","","","","","","","","","","","","",""
"","ISI","","html-keyboard-response","422","397011","0.0-1.0-579.0","0","0","54794","","null","","","null","64","NaN","","","","","","","","","","","","","","",""
"","S2","","html-keyboard-response","423","397276","0.0-1.0-580.0","0","0","54794","","null","","","null","64","","NaN","","","","","","","","","","","","","",""
"","response","","html-keyboard-response","424","397400","0.0-1.0-581.0-0.0","0","0","54794","","118","","","68","64","","","2","64","training","adjacent","FG","6","7","P.jpg","L.jpg","1","1","1","",""
"","feedback","","html-keyboard-response","425","398414","0.0-1.0-582.0-0.0","0","0","54794","","null","","","null","64","","","","","","","","","","","","","","","",""
"","ITI","","html-keyboard-response","426","399430","0.0-1.0-585.0","0","0","54794","","null","","","null","64","","","","","","","","","","","","","","","NaN",""
"","S1","","html-keyboard-response","427","399691","0.0-1.0-587.0","0","0","54794","","null","","","null","65","","","","","","","","","","","","","","","",""
"","ISI","","html-keyboard-response","428","400204","0.0-1.0-588.0","0","0","54794","","null","","","null","65","NaN","","","","","","","","","","","","","","",""
"","S2","","html-keyboard-response","429","400469","0.0-1.0-589.0","0","0","54794","","null","","","null","65","","NaN","","","","","","","","","","","","","",""
"","response","","html-keyboard-response","430","400633","0.0-1.0-590.0-0.0","0","0","54794","","161","","","68","65","","","2","65","training","adjacent","BC","2","3","R.jpg","M.jpg","1","1","1","",""
"","feedback","","html-keyboard-response","431","401647","0.0-1.0-591.0-0.0","0","0","54794","","null","","","null","65","","","","","","","","","","","","","","","",""
"","ITI","","html-keyboard-response","432","402663","0.0-1.0-594.0","0","0","54794","","null","","","null","65","","","","","","","","","","","","","","","NaN",""
"","S1","","html-keyboard-response","433","402925","0.0-1.0-596.0","0","0","54794","","null","","","null","66","","","","","","","","","","","","","","","",""
"","ISI","","html-keyboard-response","434","403435","0.0-1.0-597.0","0","0","54794","","null","","","null","66","NaN","","","","","","","","","","","","","","",""
"","S2","","html-keyboard-response","435","403702","0.0-1.0-598.0","0","0","54794","","null","","","null","66","","NaN","","","","","","","","","","","","","",""
"","response","","html-keyboard-response","436","403919","0.0-1.0-599.0-0.0","0","0","54794","","211","","","75","66","","","2","66","training","adjacent","BA","2","1","R.jpg","O.jpg","0","0","1","",""
"","feedback","","html-keyboard-response","437","404933","0.0-1.0-600.0-0.0","0","0","54794","","null","","","null","66","","","","","","","","","","","","","","","",""
"","ITI","","html-keyboard-response","438","405948","0.0-1.0-603.0","0","0","54794","","null","","","null","66","","","","","","","","","","","","","","","NaN",""
"","S1","","html-keyboard-response","439","406214","0.0-1.0-605.0","0","0","54794","","null","","","null","67","","","","","","","","","","","","","","","",""
"","ISI","","html-keyboard-response","440","406727","0.0-1.0-606.0","0","0","54794","","null","","","null","67","NaN","","","","","","","","","","","","","","",""
"","S2","","html-keyboard-response","441","406987","0.0-1.0-607.0","0","0","54794","","null","","","null","67","","NaN","","","","","","","","","","","","","",""
"","response","","html-keyboard-response","442","407164","0.0-1.0-608.0-0.0","0","0","54794","","174","","","68","67","","","2","67","training","adjacent","FG","6","7","P.jpg","L.jpg","1","1","1","",""
"","feedback","","html-keyboard-response","443","408171","0.0-1.0-609.0-0.0","0","0","54794","","null","","","null","67","","","","","","","","","","","","","","","",""
"","ITI","","html-keyboard-response","444","409183","0.0-1.0-612.0","0","0","54794","","null","","","null","67","","","","","","","","","","","","","","","NaN",""
"","S1","","html-keyboard-response","445","409443","0.0-1.0-614.0","0","0","54794","","null","","","null","68","","","","","","","","","","","","","","","",""
"","ISI","","html-keyboard-response","446","409954","0.0-1.0-615.0","0","0","54794","","null","","","null","68","NaN","","","","","","","","","","","","","","",""
"","S2","","html-keyboard-response","447","410220","0.0-1.0-616.0","0","0","54794","","null","","","null","68","","NaN","","","","","","","","","","","","","",""
"","response","","html-keyboard-response","448","410362","0.0-1.0-617.0-0.0","0","0","54794","","138","","","68","68","","","2","68","training","adjacent","BC","2","3","R.jpg","M.jpg","1","1","1","",""
"","feedback","","html-keyboard-response","449","411370","0.0-1.0-618.0-0.0","0","0","54794","","null","","","null","68","","","","","","","","","","","","","","","",""
"","ITI","","html-keyboard-response","450","412378","0.0-1.0-621.0","0","0","54794","","null","","","null","68","","","","","","","","","","","","","","","NaN",""
"","S1","","html-keyboard-response","451","412636","0.0-1.0-623.0","0","0","54794","","null","","","null","69","","","","","","","","","","","","","","","",""
"","ISI","","html-keyboard-response","452","413147","0.0-1.0-624.0","0","0","54794","","null","","","null","69","NaN","","","","","","","","","","","","","","",""
"","S2","","html-keyboard-response","453","413414","0.0-1.0-625.0","0","0","54794","","null","","","null","69","","NaN","","","","","","","","","","","","","",""
"","response","","html-keyboard-response","454","413735","0.0-1.0-626.0-0.0","0","0","54794","","315","","","75","69","","","2","69","training","adjacent","BA","2","1","R.jpg","O.jpg","0","0","1","",""
"","feedback","","html-keyboard-response","455","414750","0.0-1.0-627.0-0.0","0","0","54794","","null","","","null","69","","","","","","","","","","","","","","","",""
"","ITI","","html-keyboard-response","456","415765","0.0-1.0-630.0","0","0","54794","","null","","","null","69","","","","","","","","","","","","","","","NaN",""
"","S1","","html-keyboard-response","457","416026","0.0-1.0-632.0","0","0","54794","","null","","","null","70","","","","","","","","","","","","","","","",""
"","ISI","","html-keyboard-response","458","416543","0.0-1.0-633.0","0","0","54794","","null","","","null","70","NaN","","","","","","","","","","","","","","",""
"","S2","","html-keyboard-response","459","416803","0.0-1.0-634.0","0","0","54794","","null","","","null","70","","NaN","","","","","","","","","","","","","",""
"","response","","html-keyboard-response","460","417054","0.0-1.0-635.0-0.0","0","0","54794","","248","","","68","70","","","2","70","training","adjacent","AB","1","2","O.jpg","R.jpg","1","1","1","",""
"","feedback","","html-keyboard-response","461","418068","0.0-1.0-636.0-0.0","0","0","54794","","null","","","null","70","","","","","","","","","","","","","","","",""
"","ITI","","html-keyboard-response","462","419078","0.0-1.0-639.0","0","0","54794","","null","","","null","70","","","","","","","","","","","","","","","NaN",""
"","S1","","html-keyboard-response","463","419341","0.0-1.0-641.0","0","0","54794","","null","","","null","71","","","","","","","","","","","","","","","",""
"","ISI","","html-keyboard-response","464","419852","0.0-1.0-642.0","0","0","54794","","null","","","null","71","NaN","","","","","","","","","","","","","","",""
"","S2","","html-keyboard-response","465","420118","0.0-1.0-643.0","0","0","54794","","null","","","null","71","","NaN","","","","","","","","","","","","","",""
"","response","","html-keyboard-response","466","420269","0.0-1.0-644.0-0.0","0","0","54794","","145","","","68","71","","","2","71","training","adjacent","BC","2","3","R.jpg","M.jpg","1","1","1","",""
"","feedback","","html-keyboard-response","467","421286","0.0-1.0-645.0-0.0","0","0","54794","","null","","","null","71","","","","","","","","","","","","","","","",""
"","ITI","","html-keyboard-response","468","422302","0.0-1.0-648.0","0","0","54794","","null","","","null","71","","","","","","","","","","","","","","","NaN",""
"","S1","","html-keyboard-response","469","422563","0.0-1.0-650.0","0","0","54794","","null","","","null","72","","","","","","","","","","","","","","","",""
"","ISI","","html-keyboard-response","470","423079","0.0-1.0-651.0","0","0","54794","","null","","","null","72","NaN","","","","","","","","","","","","","","",""
"","S2","","html-keyboard-response","471","423341","0.0-1.0-652.0","0","0","54794","","null","","","null","72","","NaN","","","","","","","","","","","","","",""
"","response","","html-keyboard-response","472","423557","0.0-1.0-653.0-0.0","0","0","54794","","211","","","68","72","","","2","72","training","adjacent","AB","1","2","O.jpg","R.jpg","1","1","1","",""
"","feedback","","html-keyboard-response","473","424570","0.0-1.0-654.0-0.0","0","0","54794","","null","","","null","72","","","","","","","","","","","","","","","",""
"","ITI","","html-keyboard-response","474","425581","0.0-1.0-657.0","0","0","54794","","null","","","null","72","","","","","","","","","","","","","","","NaN",""
"","S1","","html-keyboard-response","475","425843","0.0-1.0-659.0","0","0","54794","","null","","","null","73","","","","","","","","","","","","","","","",""
"","ISI","","html-keyboard-response","476","426359","0.0-1.0-660.0","0","0","54794","","null","","","null","73","NaN","","","","","","","","","","","","","","",""
"","S2","","html-keyboard-response","477","426621","0.0-1.0-661.0","0","0","54794","","null","","","null","73","","NaN","","","","","","","","","","","","","",""
"","response","","html-keyboard-response","478","426760","0.0-1.0-662.0-0.0","0","0","54794","","134","","","75","73","","","2","73","training","adjacent","CB","3","2","M.jpg","R.jpg","0","0","1","",""
"","feedback","","html-keyboard-response","479","427772","0.0-1.0-663.0-0.0","0","0","54794","","null","","","null","73","","","","","","","","","","","","","","","",""
"","ITI","","html-keyboard-response","480","428780","0.0-1.0-666.0","0","0","54794","","null","","","null","73","","","","","","","","","","","","","","","NaN",""
"","S1","","html-keyboard-response","481","429045","0.0-1.0-668.0","0","0","54794","","null","","","null","74","","","","","","","","","","","","","","","",""
"","ISI","","html-keyboard-response","482","429557","0.0-1.0-669.0","0","0","54794","","null","","","null","74","NaN","","","","","","","","","","","","","","",""
"","S2","","html-keyboard-response","483","429819","0.0-1.0-670.0","0","0","54794","","null","","","null","74","","NaN","","","","","","","","","","","","","",""
"","response","","html-keyboard-response","484","429978","0.0-1.0-671.0-0.0","0","0","54794","","156","","","75","74","","","2","74","training","adjacent","GF","7","6","L.jpg","P.jpg","0","0","1","",""
"","feedback","","html-keyboard-response","485","430992","0.0-1.0-672.0-0.0","0","0","54794","","null","","","null","74","","","","","","","","","","","","","","","",""
"","ITI","","html-keyboard-response","486","432003","0.0-1.0-675.0","0","0","54794","","null","","","null","74","","","","","","","","","","","","","","","NaN",""
"","S1","","html-keyboard-response","487","432268","0.0-1.0-677.0","0","0","54794","","null","","","null","75","","","","","","","","","","","","","","","",""
"","ISI","","html-keyboard-response","488","432779","0.0-1.0-678.0","0","0","54794","","null","","","null","75","NaN","","","","","","","","","","","","","","",""
"","S2","","html-keyboard-response","489","433046","0.0-1.0-679.0","0","0","54794","","null","","","null","75","","NaN","","","","","","","","","","","","","",""
"","response","","html-keyboard-response","490","433210","0.0-1.0-680.0-0.0","0","0","54794","","159","","","68","75","","","2","75","training","adjacent","CD","3","4","M.jpg","Q.jpg","1","1","1","",""
"","feedback","","html-keyboard-response","491","434219","0.0-1.0-681.0-0.0","0","0","54794","","null","","","null","75","","","","","","","","","","","","","","","",""
"","ITI","","html-keyboard-response","492","435229","0.0-1.0-684.0","0","0","54794","","null","","","null","75","","","","","","","","","","","","","","","NaN",""
"","S1","","html-keyboard-response","493","435490","0.0-1.0-686.0","0","0","54794","","null","","","null","76","","","","","","","","","","","","","","","",""
"","ISI","","html-keyboard-response","494","436006","0.0-1.0-687.0","0","0","54794","","null","","","null","76","NaN","","","","","","","","","","","","","","",""
"","S2","","html-keyboard-response","495","436268","0.0-1.0-688.0","0","0","54794","","null","","","null","76","","NaN","","","","","","","","","","","","","",""
"","response","","html-keyboard-response","496","436430","0.0-1.0-689.0-0.0","0","0","54794","","159","","","75","76","","","2","76","training","adjacent","GF","7","6","L.jpg","P.jpg","0","0","1","",""
"","feedback","","html-keyboard-response","497","437446","0.0-1.0-690.0-0.0","0","0","54794","","null","","","null","76","","","","","","","","","","","","","","","",""
"","ITI","","html-keyboard-response","498","438462","0.0-1.0-693.0","0","0","54794","","null","","","null","76","","","","","","","","","","","","","","","NaN",""
"","S1","","html-keyboard-response","499","438724","0.0-1.0-695.0","0","0","54794","","null","","","null","77","","","","","","","","","","","","","","","",""
"","ISI","","html-keyboard-response","500","439234","0.0-1.0-696.0","0","0","54794","","null","","","null","77","NaN","","","","","","","","","","","","","","",""
"","S2","","html-keyboard-response","501","439502","0.0-1.0-697.0","0","0","54794","","null","","","null","77","","NaN","","","","","","","","","","","","","",""
"","response","","html-keyboard-response","502","439647","0.0-1.0-698.0-0.0","0","0","54794","","140","","","68","77","","","2","77","training","adjacent","BC","2","3","R.jpg","M.jpg","1","1","1","",""
"","feedback","","html-keyboard-response","503","440663","0.0-1.0-699.0-0.0","0","0","54794","","null","","","null","77","","","","","","","","","","","","","","","",""
"","ITI","","html-keyboard-response","504","441677","0.0-1.0-702.0","0","0","54794","","null","","","null","77","","","","","","","","","","","","","","","NaN",""
"","S1","","html-keyboard-response","505","441939","0.0-1.0-704.0","0","0","54794","","null","","","null","78","","","","","","","","","","","","","","","",""
"","ISI","","html-keyboard-response","506","442450","0.0-1.0-705.0","0","0","54794","","null","","","null","78","NaN","","","","","","","","","","","","","","",""
"","S2","","html-keyboard-response","507","442718","0.0-1.0-706.0","0","0","54794","","null","","","null","78","","NaN","","","","","","","","","","","","","",""
"","response","","html-keyboard-response","508","442822","0.0-1.0-707.0-0.0","0","0","54794","","102","","","75","78","","","2","78","training","adjacent","GF","7","6","L.jpg","P.jpg","0","0","1","",""
"","feedback","","html-keyboard-response","509","443837","0.0-1.0-708.0-0.0","0","0","54794","","null","","","null","78","","","","","","","","","","","","","","","",""
"","ITI","","html-keyboard-response","510","444853","0.0-1.0-711.0","0","0","54794","","null","","","null","78","","","","","","","","","","","","","","","NaN",""
"","S1","","html-keyboard-response","511","445115","0.0-1.0-713.0","0","0","54794","","null","","","null","79","","","","","","","","","","","","","","","",""
"","ISI","","html-keyboard-response","512","445630","0.0-1.0-714.0","0","0","54794","","null","","","null","79","NaN","","","","","","","","","","","","","","",""
"","S2","","html-keyboard-response","513","445892","0.0-1.0-715.0","0","0","54794","","null","","","null","79","","NaN","","","","","","","","","","","","","",""
"","response","","html-keyboard-response","514","446120","0.0-1.0-716.0-0.0","0","0","54794","","221","","","68","79","","","2","79","training","adjacent","FE","6","5","P.jpg","N.jpg","1","0","0","",""
"","feedback","","html-keyboard-response","515","447135","0.0-1.0-717.0-0.0","0","0","54794","","null","","","null","79","","","","","","","","","","","","","","","",""
"","time_out","","html-keyboard-response","516","449149","0.0-1.0-719.0-0.0","0","0","54794","","null","","","null","79","","","","","","","","","","","","","","","",""
"","ITI","","html-keyboard-response","517","450164","0.0-1.0-720.0","0","0","54794","","null","","","null","79","","","","","","","","","","","","","","","NaN",""
"","S1","","html-keyboard-response","518","450427","0.0-1.0-722.0","0","0","54794","","null","","","null","80","","","","","","","","","","","","","","","",""
"","ISI","","html-keyboard-response","519","450943","0.0-1.0-723.0","0","0","54794","","null","","","null","80","NaN","","","","","","","","","","","","","","",""
"","S2","","html-keyboard-response","520","451204","0.0-1.0-724.0","0","0","54794","","null","","","null","80","","NaN","","","","","","","","","","","","","",""
"","response","","html-keyboard-response","521","451483","0.0-1.0-725.0-0.0","0","0","54794","","276","","","75","80","","","2","80","training","adjacent","FE","6","5","P.jpg","N.jpg","0","0","1","",""
"","feedback","","html-keyboard-response","522","452492","0.0-1.0-726.0-0.0","0","0","54794","","null","","","null","80","","","","","","","","","","","","","","","",""
"","ITI","","html-keyboard-response","523","453503","0.0-1.0-729.0","0","0","54794","","null","","","null","80","","","","","","","","","","","","","","","NaN",""
"","S1","","html-keyboard-response","524","453764","0.0-1.0-731.0","0","0","54794","","null","","","null","81","","","","","","","","","","","","","","","",""
"","ISI","","html-keyboard-response","525","454275","0.0-1.0-732.0","0","0","54794","","null","","","null","81","NaN","","","","","","","","","","","","","","",""
"","S2","","html-keyboard-response","526","454542","0.0-1.0-733.0","0","0","54794","","null","","","null","81","","NaN","","","","","","","","","","","","","",""
"","response","","html-keyboard-response","527","454754","0.0-1.0-734.0-0.0","0","0","54794","","208","","","68","81","","","2","81","training","adjacent","ED","5","4","N.jpg","Q.jpg","1","0","0","",""
"","feedback","","html-keyboard-response","528","455768","0.0-1.0-735.0-0.0","0","0","54794","","null","","","null","81","","","","","","","","","","","","","","","",""
"","time_out","","html-keyboard-response","529","457782","0.0-1.0-737.0-0.0","0","0","54794","","null","","","null","81","","","","","","","","","","","","","","","",""
"","ITI","","html-keyboard-response","530","458798","0.0-1.0-738.0","0","0","54794","","null","","","null","81","","","","","","","","","","","","","","","NaN",""
"","S1","","html-keyboard-response","531","459058","0.0-1.0-740.0","0","0","54794","","null","","","null","82","","","","","","","","","","","","","","","",""
"","ISI","","html-keyboard-response","532","459575","0.0-1.0-741.0","0","0","54794","","null","","","null","82","NaN","","","","","","","","","","","","","","",""
"","S2","","html-keyboard-response","533","459836","0.0-1.0-742.0","0","0","54794","","null","","","null","82","","NaN","","","","","","","","","","","","","",""
"","response","","html-keyboard-response","534","460180","0.0-1.0-743.0-0.0","0","0","54794","","338","","","75","82","","","2","82","training","adjacent","BA","2","1","R.jpg","O.jpg","0","0","1","",""
"","feedback","","html-keyboard-response","535","461194","0.0-1.0-744.0-0.0","0","0","54794","","null","","","null","82","","","","","","","","","","","","","","","",""
"","ITI","","html-keyboard-response","536","462205","0.0-1.0-747.0","0","0","54794","","null","","","null","82","","","","","","","","","","","","","","","NaN",""
"","S1","","html-keyboard-response","537","462471","0.0-1.0-749.0","0","0","54794","","null","","","null","83","","","","","","","","","","","","","","","",""
"","ISI","","html-keyboard-response","538","462983","0.0-1.0-750.0","0","0","54794","","null","","","null","83","NaN","","","","","","","","","","","","","","",""
"","S2","","html-keyboard-response","539","463243","0.0-1.0-751.0","0","0","54794","","null","","","null","83","","NaN","","","","","","","","","","","","","",""
"","response","","html-keyboard-response","540","463573","0.0-1.0-752.0-0.0","0","0","54794","","326","","","75","83","","","2","83","training","adjacent","AB","1","2","O.jpg","R.jpg","0","1","0","",""
"","feedback","","html-keyboard-response","541","464590","0.0-1.0-753.0-0.0","0","0","54794","","null","","","null","83","","","","","","","","","","","","","","","",""
"","time_out","","html-keyboard-response","542","466604","0.0-1.0-755.0-0.0","0","0","54794","","null","","","null","83","","","","","","","","","","","","","","","",""
"","ITI","","html-keyboard-response","543","467621","0.0-1.0-756.0","0","0","54794","","null","","","null","83","","","","","","","","","","","","","","","NaN",""
"","S1","","html-keyboard-response","544","467883","0.0-1.0-758.0","0","0","54794","","null","","","null","84","","","","","","","","","","","","","","","",""
"","ISI","","html-keyboard-response","545","468398","0.0-1.0-759.0","0","0","54794","","null","","","null","84","NaN","","","","","","","","","","","","","","",""
"","S2","","html-keyboard-response","546","468659","0.0-1.0-760.0","0","0","54794","","null","","","null","84","","NaN","","","","","","","","","","","","","",""
"","response","","html-keyboard-response","547","468922","0.0-1.0-761.0-0.0","0","0","54794","","257","","","68","84","","","2","84","training","adjacent","FE","6","5","P.jpg","N.jpg","1","0","0","",""
"","feedback","","html-keyboard-response","548","469930","0.0-1.0-762.0-0.0","0","0","54794","","null","","","null","84","","","","","","","","","","","","","","","",""
"","time_out","","html-keyboard-response","549","471938","0.0-1.0-764.0-0.0","0","0","54794","","null","","","null","84","","","","","","","","","","","","","","","",""
"","ITI","","html-keyboard-response","550","472950","0.0-1.0-765.0","0","0","54794","","null","","","null","84","","","","","","","","","","","","","","","NaN",""
"","S1","","html-keyboard-response","551","473211","0.0-1.0-767.0","0","0","54794","","null","","","null","85","","","","","","","","","","","","","","","",""
"","ISI","","html-keyboard-response","552","473726","0.0-1.0-768.0","0","0","54794","","null","","","null","85","NaN","","","","","","","","","","","","","","",""
"","S2","","html-keyboard-response","553","473989","0.0-1.0-769.0","0","0","54794","","null","","","null","85","","NaN","","","","","","","","","","","","","",""
"","response","","html-keyboard-response","554","474192","0.0-1.0-770.0-0.0","0","0","54794","","199","","","75","85","","","2","85","training","adjacent","DE","4","5","Q.jpg","N.jpg","0","1","0","",""
"","feedback","","html-keyboard-response","555","475202","0.0-1.0-771.0-0.0","0","0","54794","","null","","","null","85","","","","","","","","","","","","","","","",""
"","time_out","","html-keyboard-response","556","477210","0.0-1.0-773.0-0.0","0","0","54794","","null","","","null","85","","","","","","","","","","","","","","","",""
"","ITI","","html-keyboard-response","557","478221","0.0-1.0-774.0","0","0","54794","","null","","","null","85","","","","","","","","","","","","","","","NaN",""
"","S1","","html-keyboard-response","558","478483","0.0-1.0-776.0","0","0","54794","","null","","","null","86","","","","","","","","","","","","","","","",""
"","ISI","","html-keyboard-response","559","478997","0.0-1.0-777.0","0","0","54794","","null","","","null","86","NaN","","","","","","","","","","","","","","",""
"","S2","","html-keyboard-response","560","479259","0.0-1.0-778.0","0","0","54794","","null","","","null","86","","NaN","","","","","","","","","","","","","",""
"","response","","html-keyboard-response","561","479398","0.0-1.0-779.0-0.0","0","0","54794","","134","","","75","86","","","2","86","training","adjacent","GF","7","6","L.jpg","P.jpg","0","0","1","",""
"","feedback","","html-keyboard-response","562","480414","0.0-1.0-780.0-0.0","0","0","54794","","null","","","null","86","","","","","","","","","","","","","","","",""
"","ITI","","html-keyboard-response","563","481431","0.0-1.0-783.0","0","0","54794","","null","","","null","86","","","","","","","","","","","","","","","NaN",""
"","S1","","html-keyboard-response","564","481691","0.0-1.0-785.0","0","0","54794","","null","","","null","87","","","","","","","","","","","","","","","",""
"","ISI","","html-keyboard-response","565","482202","0.0-1.0-786.0","0","0","54794","","null","","","null","87","NaN","","","","","","","","","","","","","","",""
"","S2","","html-keyboard-response","566","482469","0.0-1.0-787.0","0","0","54794","","null","","","null","87","","NaN","","","","","","","","","","","","","",""
"","response","","html-keyboard-response","567","482680","0.0-1.0-788.0-0.0","0","0","54794","","206","","","68","87","","","2","87","training","adjacent","FG","6","7","P.jpg","L.jpg","1","1","1","",""
"","feedback","","html-keyboard-response","568","483693","0.0-1.0-789.0-0.0","0","0","54794","","null","","","null","87","","","","","","","","","","","","","","","",""
"","ITI","","html-keyboard-response","569","484709","0.0-1.0-792.0","0","0","54794","","null","","","null","87","","","","","","","","","","","","","","","NaN",""
"","S1","","html-keyboard-response","570","484971","0.0-1.0-794.0","0","0","54794","","null","","","null","88","","","","","","","","","","","","","","","",""
"","ISI","","html-keyboard-response","571","485482","0.0-1.0-795.0","0","0","54794","","null","","","null","88","NaN","","","","","","","","","","","","","","",""
"","S2","","html-keyboard-response","572","485749","0.0-1.0-796.0","0","0","54794","","null","","","null","88","","NaN","","","","","","","","","","","","","",""
"","response","","html-keyboard-response","573","485986","0.0-1.0-797.0-0.0","0","0","54794","","235","","","75","88","","","2","88","training","adjacent","CB","3","2","M.jpg","R.jpg","0","0","1","",""
"","feedback","","html-keyboard-response","574","486997","0.0-1.0-798.0-0.0","0","0","54794","","null","","","null","88","","","","","","","","","","","","","","","",""
"","ITI","","html-keyboard-response","575","488013","0.0-1.0-801.0","0","0","54794","","null","","","null","88","","","","","","","","","","","","","","","NaN",""
"","S1","","html-keyboard-response","576","488275","0.0-1.0-803.0","0","0","54794","","null","","","null","89","","","","","","","","","","","","","","","",""
"","ISI","","html-keyboard-response","577","488790","0.0-1.0-804.0","0","0","54794","","null","","","null","89","NaN","","","","","","","","","","","","","","",""
"","S2","","html-keyboard-response","578","489051","0.0-1.0-805.0","0","0","54794","","null","","","null","89","","NaN","","","","","","","","","","","","","",""
"","response","","html-keyboard-response","579","489291","0.0-1.0-806.0-0.0","0","0","54794","","236","","","75","89","","","2","89","training","adjacent","BA","2","1","R.jpg","O.jpg","0","0","1","",""
"","feedback","","html-keyboard-response","580","490306","0.0-1.0-807.0-0.0","0","0","54794","","null","","","null","89","","","","","","","","","","","","","","","",""
"","ITI","","html-keyboard-response","581","491316","0.0-1.0-810.0","0","0","54794","","null","","","null","89","","","","","","","","","","","","","","","NaN",""
"","S1","","html-keyboard-response","582","491582","0.0-1.0-812.0","0","0","54794","","null","","","null","90","","","","","","","","","","","","","","","",""
