"success","ttype","start_time","trial_type","trial_index","time_elapsed","internal_node_id","warning","missed_checkup","PID","view_history","rt","responses","repeat_instructions","key_press","index","keypress_isi","keypress_S2","block","trial_num","phase","group_type","pair_type","S1_stim","S2_stim","S1_img","S2_img","S1_chosen","S1_higher","accuracy","keypress_iti","total_bonus_tally"
"true","full_screen","d04132023hr1609","fullscreen","0","54560","0.0-0.0","0","0","47035","","","","","","","","","","","","","","","","","","","","","",""
"","instructions","","instructions","1","78845","0.0-1.0-0.0-0.0","0","0","47035","[{""page_index"":0,""viewing_time"":6803},{""page_index"":1,""viewing_time"":8271},{""page_index"":2,""viewing_time"":7139},{""page_index"":3,""viewing_time"":2070}]","24284","","","","","","","","","","","","","","","","","","","",""
"","comprehension_check","","survey-multi-choice","2","114870","0.0-1.0-0.0-1.0","0","0","47035","","36020","{""Q0"":""True"",""Q1"":""K"",""Q2"":""Once the second image appears and while the screen 'MAKE A CHOICE' is shown"",""Q3"":""Green mark"",""Q4"":""either D or K""}","0","","","","","","","","","","","","","","","","","",""
"","start_exp","","html-keyboard-response","3","118419","0.0-1.0-1.0","0","0","47035","","3544","","","32","","","","","","","","","","","","","","","","",""
"","S1","","html-keyboard-response","4","118679","0.0-1.0-2.0","0","0","47035","","null","","","null","0","","","","","","","","","","","","","","","",""
"","ISI","","html-keyboard-response","5","119688","0.0-1.0-3.0","0","0","47035","","null","","","null","0","NaN","","","","","","","","","","","","","","",""
"","S2","","html-keyboard-response","6","119952","0.0-1.0-4.0","0","0","47035","","null","","","null","0","","NaN","","","","","","","","","","","","","",""
"","response","","html-keyboard-response","7","121711","0.0-1.0-5.0-0.0","0","0","47035","","null","","","null","0","","","1","0","training","adjacent","BC","2","3","O.jpg","N.jpg","NaN","1","0","",""
"","too_slow_prompt","","html-keyboard-response","8","122716","0.0-1.0-7.0-0.0","1","0","47035","","null","","","null","","","","","","","","","","","","","","","","",""
"","time_out","","html-keyboard-response","9","124727","0.0-1.0-8.0-0.0","0","0","47035","","null","","","null","0","","","","","","","","","","","","","","","",""
"","ITI","","html-keyboard-response","10","125735","0.0-1.0-9.0","0","0","47035","","null","","","null","0","","","","","","","","","","","","","","","NaN",""
"","S1","","html-keyboard-response","11","125991","0.0-1.0-11.0","0","0","47035","","null","","","null","1","","","","","","","","","","","","","","","",""
"","ISI","","html-keyboard-response","12","127000","0.0-1.0-12.0","0","0","47035","","null","","","null","1","NaN","","","","","","","","","","","","","","",""
"","S2","","html-keyboard-response","13","127259","0.0-1.0-13.0","0","0","47035","","null","","","null","1","","NaN","","","","","","","","","","","","","",""
"","response","","html-keyboard-response","14","127607","0.0-1.0-14.0-0.0","0","0","47035","","347","","","68","1","","","1","1","training","adjacent","GF","7","6","L.jpg","R.jpg","0","0","1","",""
"","feedback","","html-keyboard-response","15","128613","0.0-1.0-15.0-0.0","0","0","47035","","null","","","null","1","","","","","","","","","","","","","","","",""
"","ITI","","html-keyboard-response","16","129624","0.0-1.0-18.0","0","0","47035","","null","","","null","1","","","","","","","","","","","","","","","NaN",""
"","S1","","html-keyboard-response","17","129879","0.0-1.0-20.0","0","0","47035","","null","","","null","2","","","","","","","","","","","","","","","",""
"","ISI","","html-keyboard-response","18","130887","0.0-1.0-21.0","0","0","47035","","null","","","null","2","NaN","","","","","","","","","","","","","","",""
"","S2","","html-keyboard-response","19","131145","0.0-1.0-22.0","0","0","47035","","null","","","null","2","","NaN","","","","","","","","","","","","","",""
"","response","","html-keyboard-response","20","131783","0.0-1.0-23.0-0.0","0","0","47035","","637","","","68","2","","","1","2","training","adjacent","DC","4","3","Q.jpg","N.jpg","0","0","1","",""
"","feedback","","html-keyboard-response","21","132792","0.0-1.0-24.0-0.0","0","0","47035","","null","","","null","2","","","","","","","","","","","","","","","",""
"","ITI","","html-keyboard-response","22","133800","0.0-1.0-27.0","0","0","47035","","null","","","null","2","","","","","","","","","","","","","","","NaN",""
"","S1","","html-keyboard-response","23","134055","0.0-1.0-29.0","0","0","47035","","null","","","null","3","","","","","","","","","","","","","","","",""
"","ISI","","html-keyboard-response","24","135064","0.0-1.0-30.0","0","0","47035","","null","","","null","3","NaN","","","","","","","","","","","","","","",""
"","S2","","html-keyboard-response","25","135319","0.0-1.0-31.0","0","0","47035","","null","","","null","3","","NaN","","","","","","","","","","","","","",""
"","response","","html-keyboard-response","26","135862","0.0-1.0-32.0-0.0","0","0","47035","","541","","","68","3","","","1","3","training","adjacent","FE","6","5","R.jpg","P.jpg","0","0","1","",""
"","feedback","","html-keyboard-response","27","136870","0.0-1.0-33.0-0.0","0","0","47035","","null","","","null","3","","","","","","","","","","","","","","","",""
"","ITI","","html-keyboard-response","28","137879","0.0-1.0-36.0","0","0","47035","","null","","","null","3","","","","","","","","","","","","","","","NaN",""
"","S1","","html-keyboard-response","29","138133","0.0-1.0-38.0","0","0","47035","","null","","","null","4","","","","","","","","","","","","","","","",""
"","ISI","","html-keyboard-response","30","139143","0.0-1.0-39.0","0","0","47035","","null","","","null","4","NaN","","","","","","","","","","","","","","",""
"","S2","","html-keyboard-response","31","139399","0.0-1.0-40.0","0","0","47035","","null","","","null","4","","NaN","","","","","","","","","","","","","",""
"","response","","html-keyboard-response","32","140143","0.0-1.0-41.0-0.0","0","0","47035","","742","","","68","4","","","1","4","training","adjacent","FE","6","5","R.jpg","P.jpg","0","0","1","",""
"","feedback","","html-keyboard-response","33","141153","0.0-1.0-42.0-0.0","0","0","47035","","null","","","null","4","","","","","","","","","","","","","","","",""
"","ITI","","html-keyboard-response","34","142160","0.0-1.0-45.0","0","0","47035","","null","","","null","4","","","","","","","","","","","","","","","NaN",""
"","S1","","html-keyboard-response","35","142420","0.0-1.0-47.0","0","0","47035","","null","","","null","5","","","","","","","","","","","","","","","",""
"","ISI","","html-keyboard-response","36","143430","0.0-1.0-48.0","0","0","47035","","null","","","null","5","NaN","","","","","","","","","","","","","","",""
"","S2","","html-keyboard-response","37","143687","0.0-1.0-49.0","0","0","47035","","null","","","null","5","","NaN","","","","","","","","","","","","","",""
"","response","","html-keyboard-response","38","144380","0.0-1.0-50.0-0.0","0","0","47035","","691","","","68","5","","","1","5","training","adjacent","DE","4","5","Q.jpg","P.jpg","0","1","0","",""
"","feedback","","html-keyboard-response","39","145393","0.0-1.0-51.0-0.0","0","0","47035","","null","","","null","5","","","","","","","","","","","","","","","",""
"","time_out","","html-keyboard-response","40","147399","0.0-1.0-53.0-0.0","0","0","47035","","null","","","null","5","","","","","","","","","","","","","","","",""
"","ITI","","html-keyboard-response","41","148409","0.0-1.0-54.0","0","0","47035","","null","","","null","5","","","","","","","","","","","","","","","NaN",""
"","S1","","html-keyboard-response","42","148670","0.0-1.0-56.0","0","0","47035","","null","","","null","6","","","","","","","","","","","","","","","",""
"","ISI","","html-keyboard-response","43","149680","0.0-1.0-57.0","0","0","47035","","null","","","null","6","NaN","","","","","","","","","","","","","","",""
"","S2","","html-keyboard-response","44","149936","0.0-1.0-58.0","0","0","47035","","null","","","null","6","","NaN","","","","","","","","","","","","","",""
"","response","","html-keyboard-response","45","150516","0.0-1.0-59.0-0.0","0","0","47035","","578","","","68","6","","","1","6","training","adjacent","AB","1","2","M.jpg","O.jpg","0","1","0","",""
"","feedback","","html-keyboard-response","46","151529","0.0-1.0-60.0-0.0","0","0","47035","","null","","","null","6","","","","","","","","","","","","","","","",""
"","time_out","","html-keyboard-response","47","153535","0.0-1.0-62.0-0.0","0","0","47035","","null","","","null","6","","","","","","","","","","","","","","","",""
"","ITI","","html-keyboard-response","48","154544","0.0-1.0-63.0","0","0","47035","","null","","","null","6","","","","","","","","","","","","","","","NaN",""
"","S1","","html-keyboard-response","49","154800","0.0-1.0-65.0","0","0","47035","","null","","","null","7","","","","","","","","","","","","","","","",""
"","ISI","","html-keyboard-response","50","155805","0.0-1.0-66.0","0","0","47035","","null","","","null","7","NaN","","","","","","","","","","","","","","",""
"","S2","","html-keyboard-response","51","156062","0.0-1.0-67.0","0","0","47035","","null","","","null","7","","NaN","","","","","","","","","","","","","",""
"","response","","html-keyboard-response","52","156517","0.0-1.0-68.0-0.0","0","0","47035","","453","","","68","7","","","1","7","training","adjacent","GF","7","6","L.jpg","R.jpg","0","0","1","",""
"","feedback","","html-keyboard-response","53","157530","0.0-1.0-69.0-0.0","0","0","47035","","null","","","null","7","","","","","","","","","","","","","","","",""
"","ITI","","html-keyboard-response","54","158538","0.0-1.0-72.0","0","0","47035","","null","","","null","7","","","","","","","","","","","","","","","NaN",""
"","S1","","html-keyboard-response","55","158800","0.0-1.0-74.0","0","0","47035","","null","","","null","8","","","","","","","","","","","","","","","",""
"","ISI","","html-keyboard-response","56","159806","0.0-1.0-75.0","0","0","47035","","null","","","null","8","NaN","","","","","","","","","","","","","","",""
"","S2","","html-keyboard-response","57","160063","0.0-1.0-76.0","0","0","47035","","null","","","null","8","","NaN","","","","","","","","","","","","","",""
"","response","","html-keyboard-response","58","160751","0.0-1.0-77.0-0.0","0","0","47035","","686","","","68","8","","","1","8","training","adjacent","FG","6","7","R.jpg","L.jpg","0","1","0","",""
"","feedback","","html-keyboard-response","59","161760","0.0-1.0-78.0-0.0","0","0","47035","","null","","","null","8","","","","","","","","","","","","","","","",""
"","time_out","","html-keyboard-response","60","163768","0.0-1.0-80.0-0.0","0","0","47035","","null","","","null","8","","","","","","","","","","","","","","","",""
"","ITI","","html-keyboard-response","61","164779","0.0-1.0-81.0","0","0","47035","","null","","","null","8","","","","","","","","","","","","","","","NaN",""
"","S1","","html-keyboard-response","62","165040","0.0-1.0-83.0","0","0","47035","","null","","","null","9","","","","","","","","","","","","","","","",""
"","ISI","","html-keyboard-response","63","166045","0.0-1.0-84.0","0","0","47035","","null","","","null","9","NaN","","","","","","","","","","","","","","",""
"","S2","","html-keyboard-response","64","166303","0.0-1.0-85.0","0","0","47035","","null","","","null","9","","NaN","","","","","","","","","","","","","",""
"","response","","html-keyboard-response","65","166852","0.0-1.0-86.0-0.0","0","0","47035","","547","","","68","9","","","1","9","training","adjacent","BC","2","3","O.jpg","N.jpg","0","1","0","",""
"","feedback","","html-keyboard-response","66","167861","0.0-1.0-87.0-0.0","0","0","47035","","null","","","null","9","","","","","","","","","","","","","","","",""
"","time_out","","html-keyboard-response","67","169870","0.0-1.0-89.0-0.0","0","0","47035","","null","","","null","9","","","","","","","","","","","","","","","",""
"","ITI","","html-keyboard-response","68","170879","0.0-1.0-90.0","0","0","47035","","null","","","null","9","","","","","","","","","","","","","","","NaN",""
"","S1","","html-keyboard-response","69","171135","0.0-1.0-92.0","0","0","47035","","null","","","null","10","","","","","","","","","","","","","","","",""
"","ISI","","html-keyboard-response","70","172145","0.0-1.0-93.0","0","0","47035","","659","","","68","10","d","","","","","","","","","","","","","","",""
"","S2","","html-keyboard-response","71","172406","0.0-1.0-94.0","0","0","47035","","null","","","null","10","","NaN","","","","","","","","","","","","","",""
"","response","","html-keyboard-response","72","172767","0.0-1.0-95.0-0.0","0","0","47035","","358","","","68","10","","","1","10","training","adjacent","EF","5","6","P.jpg","R.jpg","0","1","0","",""
"","feedback","","html-keyboard-response","73","173779","0.0-1.0-96.0-0.0","0","0","47035","","null","","","null","10","","","","","","","","","","","","","","","",""
"","time_out","","html-keyboard-response","74","175791","0.0-1.0-98.0-0.0","0","0","47035","","null","","","null","10","","","","","","","","","","","","","","","",""
"","ITI","","html-keyboard-response","75","176798","0.0-1.0-99.0","0","0","47035","","null","","","null","10","","","","","","","","","","","","","","","NaN",""
"","S1","","html-keyboard-response","76","177057","0.0-1.0-101.0","0","0","47035","","null","","","null","11","","","","","","","","","","","","","","","",""
"","ISI","","html-keyboard-response","77","178062","0.0-1.0-102.0","0","0","47035","","null","","","null","11","NaN","","","","","","","","","","","","","","",""
"","S2","","html-keyboard-response","78","178319","0.0-1.0-103.0","0","0","47035","","null","","","null","11","","NaN","","","","","","","","","","","","","",""
"","response","","html-keyboard-response","79","179022","0.0-1.0-104.0-0.0","0","0","47035","","702","","","68","11","","","1","11","training","adjacent","DC","4","3","Q.jpg","N.jpg","0","0","1","",""
"","feedback","","html-keyboard-response","80","180029","0.0-1.0-105.0-0.0","0","0","47035","","null","","","null","11","","","","","","","","","","","","","","","",""
"","ITI","","html-keyboard-response","81","181038","0.0-1.0-108.0","0","0","47035","","null","","","null","11","","","","","","","","","","","","","","","NaN",""
"","S1","","html-keyboard-response","82","181295","0.0-1.0-110.0","0","0","47035","","null","","","null","12","","","","","","","","","","","","","","","",""
"","ISI","","html-keyboard-response","83","182304","0.0-1.0-111.0","0","0","47035","","null","","","null","12","NaN","","","","","","","","","","","","","","",""
"","S2","","html-keyboard-response","84","182559","0.0-1.0-112.0","0","0","47035","","null","","","null","12","","NaN","","","","","","","","","","","","","",""
"","response","","html-keyboard-response","85","183178","0.0-1.0-113.0-0.0","0","0","47035","","616","","","68","12","","","1","12","training","adjacent","BA","2","1","O.jpg","M.jpg","0","0","1","",""
"","feedback","","html-keyboard-response","86","184191","0.0-1.0-114.0-0.0","0","0","47035","","null","","","null","12","","","","","","","","","","","","","","","",""
"","ITI","","html-keyboard-response","87","185199","0.0-1.0-117.0","0","0","47035","","null","","","null","12","","","","","","","","","","","","","","","NaN",""
"","S1","","html-keyboard-response","88","185458","0.0-1.0-119.0","0","0","47035","","null","","","null","13","","","","","","","","","","","","","","","",""
"","ISI","","html-keyboard-response","89","186463","0.0-1.0-120.0","0","0","47035","","null","","","null","13","NaN","","","","","","","","","","","","","","",""
"","S2","","html-keyboard-response","90","186719","0.0-1.0-121.0","0","0","47035","","null","","","null","13","","NaN","","","","","","","","","","","","","",""
"","response","","html-keyboard-response","91","187473","0.0-1.0-122.0-0.0","0","0","47035","","752","","","68","13","","","1","13","training","adjacent","BA","2","1","O.jpg","M.jpg","0","0","1","",""
"","feedback","","html-keyboard-response","92","188481","0.0-1.0-123.0-0.0","0","0","47035","","null","","","null","13","","","","","","","","","","","","","","","",""
"","ITI","","html-keyboard-response","93","189489","0.0-1.0-126.0","0","0","47035","","null","","","null","13","","","","","","","","","","","","","","","NaN",""
"","S1","","html-keyboard-response","94","189742","0.0-1.0-128.0","0","0","47035","","null","","","null","14","","","","","","","","","","","","","","","",""
"","ISI","","html-keyboard-response","95","190750","0.0-1.0-129.0","0","0","47035","","null","","","null","14","NaN","","","","","","","","","","","","","","",""
"","S2","","html-keyboard-response","96","191005","0.0-1.0-130.0","0","0","47035","","null","","","null","14","","NaN","","","","","","","","","","","","","",""
"","response","","html-keyboard-response","97","191792","0.0-1.0-131.0-0.0","0","0","47035","","785","","","68","14","","","1","14","training","adjacent","DC","4","3","Q.jpg","N.jpg","0","0","1","",""
"","feedback","","html-keyboard-response","98","192799","0.0-1.0-132.0-0.0","0","0","47035","","null","","","null","14","","","","","","","","","","","","","","","",""
"","ITI","","html-keyboard-response","99","193806","0.0-1.0-135.0","0","0","47035","","null","","","null","14","","","","","","","","","","","","","","","NaN",""
"","S1","","html-keyboard-response","100","194063","0.0-1.0-137.0","0","0","47035","","null","","","null","15","","","","","","","","","","","","","","","",""
"","ISI","","html-keyboard-response","101","195069","0.0-1.0-138.0","0","0","47035","","null","","","null","15","NaN","","","","","","","","","","","","","","",""
"","S2","","html-keyboard-response","102","195326","0.0-1.0-139.0","0","0","47035","","null","","","null","15","","NaN","","","","","","","","","","","","","",""
"","response","","html-keyboard-response","103","196206","0.0-1.0-140.0-0.0","0","0","47035","","879","","","75","15","","","1","15","training","adjacent","ED","5","4","P.jpg","Q.jpg","1","0","0","",""
"","feedback","","html-keyboard-response","104","197214","0.0-1.0-141.0-0.0","0","0","47035","","null","","","null","15","","","","","","","","","","","","","","","",""
"","time_out","","html-keyboard-response","105","199224","0.0-1.0-143.0-0.0","0","0","47035","","null","","","null","15","","","","","","","","","","","","","","","",""
"","ITI","","html-keyboard-response","106","200231","0.0-1.0-144.0","0","0","47035","","null","","","null","15","","","","","","","","","","","","","","","NaN",""
"","S1","","html-keyboard-response","107","200487","0.0-1.0-146.0","0","0","47035","","null","","","null","16","","","","","","","","","","","","","","","",""
"","ISI","","html-keyboard-response","108","201497","0.0-1.0-147.0","0","0","47035","","null","","","null","16","NaN","","","","","","","","","","","","","","",""
"","S2","","html-keyboard-response","109","201759","0.0-1.0-148.0","0","0","47035","","null","","","null","16","","NaN","","","","","","","","","","","","","",""
"","response","","html-keyboard-response","110","202293","0.0-1.0-149.0-0.0","0","0","47035","","533","","","75","16","","","1","16","training","adjacent","BA","2","1","O.jpg","M.jpg","1","0","0","",""
"","feedback","","html-keyboard-response","111","203300","0.0-1.0-150.0-0.0","0","0","47035","","null","","","null","16","","","","","","","","","","","","","","","",""
"","time_out","","html-keyboard-response","112","205309","0.0-1.0-152.0-0.0","0","0","47035","","null","","","null","16","","","","","","","","","","","","","","","",""
"","ITI","","html-keyboard-response","113","206319","0.0-1.0-153.0","0","0","47035","","null","","","null","16","","","","","","","","","","","","","","","NaN",""
"","S1","","html-keyboard-response","114","206575","0.0-1.0-155.0","0","0","47035","","null","","","null","17","","","","","","","","","","","","","","","",""
"","ISI","","html-keyboard-response","115","207584","0.0-1.0-156.0","0","0","47035","","null","","","null","17","NaN","","","","","","","","","","","","","","",""
"","S2","","html-keyboard-response","116","207840","0.0-1.0-157.0","0","0","47035","","null","","","null","17","","NaN","","","","","","","","","","","","","",""
"","response","","html-keyboard-response","117","208480","0.0-1.0-158.0-0.0","0","0","47035","","639","","","75","17","","","1","17","training","adjacent","CD","3","4","N.jpg","Q.jpg","1","1","1","",""
"","feedback","","html-keyboard-response","118","209487","0.0-1.0-159.0-0.0","0","0","47035","","null","","","null","17","","","","","","","","","","","","","","","",""
"","ITI","","html-keyboard-response","119","210493","0.0-1.0-162.0","0","0","47035","","null","","","null","17","","","","","","","","","","","","","","","NaN",""
"","S1","","html-keyboard-response","120","210749","0.0-1.0-164.0","0","0","47035","","null","","","null","18","","","","","","","","","","","","","","","",""
"","ISI","","html-keyboard-response","121","211758","0.0-1.0-165.0","0","0","47035","","null","","","null","18","NaN","","","","","","","","","","","","","","",""
"","S2","","html-keyboard-response","122","212015","0.0-1.0-166.0","0","0","47035","","null","","","null","18","","NaN","","","","","","","","","","","","","",""
"","response","","html-keyboard-response","123","212980","0.0-1.0-167.0-0.0","0","0","47035","","963","","","75","18","","","1","18","training","adjacent","FE","6","5","R.jpg","P.jpg","1","0","0","",""
"","feedback","","html-keyboard-response","124","213989","0.0-1.0-168.0-0.0","0","0","47035","","null","","","null","18","","","","","","","","","","","","","","","",""
"","time_out","","html-keyboard-response","125","216000","0.0-1.0-170.0-0.0","0","0","47035","","null","","","null","18","","","","","","","","","","","","","","","",""
"","ITI","","html-keyboard-response","126","217006","0.0-1.0-171.0","0","0","47035","","null","","","null","18","","","","","","","","","","","","","","","NaN",""
"","S1","","html-keyboard-response","127","217261","0.0-1.0-173.0","0","0","47035","","null","","","null","19","","","","","","","","","","","","","","","",""
"","ISI","","html-keyboard-response","128","218272","0.0-1.0-174.0","0","0","47035","","null","","","null","19","NaN","","","","","","","","","","","","","","",""
"","S2","","html-keyboard-response","129","218529","0.0-1.0-175.0","0","0","47035","","null","","","null","19","","NaN","","","","","","","","","","","","","",""
"","response","","html-keyboard-response","130","219157","0.0-1.0-176.0-0.0","0","0","47035","","625","","","75","19","","","1","19","training","adjacent","BC","2","3","O.jpg","N.jpg","1","1","1","",""
"","feedback","","html-keyboard-response","131","220165","0.0-1.0-177.0-0.0","0","0","47035","","null","","","null","19","","","","","","","","","","","","","","","",""
"","ITI","","html-keyboard-response","132","221174","0.0-1.0-180.0","0","0","47035","","null","","","null","19","","","","","","","","","","","","","","","NaN",""
"","S1","","html-keyboard-response","133","221433","0.0-1.0-182.0","0","0","47035","","null","","","null","20","","","","","","","","","","","","","","","",""
"","ISI","","html-keyboard-response","134","222440","0.0-1.0-183.0","0","0","47035","","null","","","null","20","NaN","","","","","","","","","","","","","","",""
"","S2","","html-keyboard-response","135","222695","0.0-1.0-184.0","0","0","47035","","null","","","null","20","","NaN","","","","","","","","","","","","","",""
"","response","","html-keyboard-response","136","223661","0.0-1.0-185.0-0.0","0","0","47035","","964","","","75","20","","","1","20","training","adjacent","CB","3","2","N.jpg","O.jpg","1","0","0","",""
"","feedback","","html-keyboard-response","137","224670","0.0-1.0-186.0-0.0","0","0","47035","","null","","","null","20","","","","","","","","","","","","","","","",""
"","time_out","","html-keyboard-response","138","226679","0.0-1.0-188.0-0.0","0","0","47035","","null","","","null","20","","","","","","","","","","","","","","","",""
"","ITI","","html-keyboard-response","139","227688","0.0-1.0-189.0","0","0","47035","","null","","","null","20","","","","","","","","","","","","","","","NaN",""
"","S1","","html-keyboard-response","140","227943","0.0-1.0-191.0","0","0","47035","","null","","","null","21","","","","","","","","","","","","","","","",""
"","ISI","","html-keyboard-response","141","228951","0.0-1.0-192.0","0","0","47035","","null","","","null","21","NaN","","","","","","","","","","","","","","",""
"","S2","","html-keyboard-response","142","229208","0.0-1.0-193.0","0","0","47035","","null","","","null","21","","NaN","","","","","","","","","","","","","",""
"","response","","html-keyboard-response","143","229887","0.0-1.0-194.0-0.0","0","0","47035","","677","","","75","21","","","1","21","training","adjacent","CD","3","4","N.jpg","Q.jpg","1","1","1","",""
"","feedback","","html-keyboard-response","144","230893","0.0-1.0-195.0-0.0","0","0","47035","","null","","","null","21","","","","","","","","","","","","","","","",""
"","ITI","","html-keyboard-response","145","231903","0.0-1.0-198.0","0","0","47035","","null","","","null","21","","","","","","","","","","","","","","","NaN",""
"","S1","","html-keyboard-response","146","232159","0.0-1.0-200.0","0","0","47035","","null","","","null","22","","","","","","","","","","","","","","","",""
"","ISI","","html-keyboard-response","147","233168","0.0-1.0-201.0","0","0","47035","","null","","","null","22","NaN","","","","","","","","","","","","","","",""
"","S2","","html-keyboard-response","148","233423","0.0-1.0-202.0","0","0","47035","","null","","","null","22","","NaN","","","","","","","","","","","","","",""
"","response","","html-keyboard-response","149","234136","0.0-1.0-203.0-0.0","0","0","47035","","711","","","75","22","","","1","22","training","adjacent","AB","1","2","M.jpg","O.jpg","1","1","1","",""
"","feedback","","html-keyboard-response","150","235141","0.0-1.0-204.0-0.0","0","0","47035","","null","","","null","22","","","","","","","","","","","","","","","",""
"","ITI","","html-keyboard-response","151","236152","0.0-1.0-207.0","0","0","47035","","null","","","null","22","","","","","","","","","","","","","","","NaN",""
"","S1","","html-keyboard-response","152","236408","0.0-1.0-209.0","0","0","47035","","null","","","null","23","","","","","","","","","","","","","","","",""
"","ISI","","html-keyboard-response","153","237418","0.0-1.0-210.0","0","0","47035","","null","","","null","23","NaN","","","","","","","","","","","","","","",""
"","S2","","html-keyboard-response","154","237679","0.0-1.0-211.0","0","0","47035","","null","","","null","23","","NaN","","","","","","","","","","","","","",""
"","response","","html-keyboard-response","155","238203","0.0-1.0-212.0-0.0","0","0","47035","","523","","","75","23","","","1","23","training","adjacent","FG","6","7","R.jpg","L.jpg","1","1","1","",""
"","feedback","","html-keyboard-response","156","239218","0.0-1.0-213.0-0.0","0","0","47035","","null","","","null","23","","","","","","","","","","","","","","","",""
"","ITI","","html-keyboard-response","157","240225","0.0-1.0-216.0","0","0","47035","","null","","","null","23","","","","","","","","","","","","","","","NaN",""
"","S1","","html-keyboard-response","158","240481","0.0-1.0-218.0","0","0","47035","","null","","","null","24","","","","","","","","","","","","","","","",""
"","ISI","","html-keyboard-response","159","241487","0.0-1.0-219.0","0","0","47035","","null","","","null","24","NaN","","","","","","","","","","","","","","",""
"","S2","","html-keyboard-response","160","241744","0.0-1.0-220.0","0","0","47035","","null","","","null","24","","NaN","","","","","","","","","","","","","",""
"","response","","html-keyboard-response","161","242285","0.0-1.0-221.0-0.0","0","0","47035","","539","","","75","24","","","1","24","training","adjacent","FG","6","7","R.jpg","L.jpg","1","1","1","",""
"","feedback","","html-keyboard-response","162","243297","0.0-1.0-222.0-0.0","0","0","47035","","null","","","null","24","","","","","","","","","","","","","","","",""
"","ITI","","html-keyboard-response","163","244301","0.0-1.0-225.0","0","0","47035","","null","","","null","24","","","","","","","","","","","","","","","NaN",""
"","S1","","html-keyboard-response","164","244560","0.0-1.0-227.0","0","0","47035","","null","","","null","25","","","","","","","","","","","","","","","",""
"","ISI","","html-keyboard-response","165","245568","0.0-1.0-228.0","0","0","47035","","null","","","null","25","NaN","","","","","","","","","","","","","","",""
"","S2","","html-keyboard-response","166","245833","0.0-1.0-229.0","0","0","47035","","null","","","null","25","","NaN","","","","","","","","","","","","","",""
"","response","","html-keyboard-response","167","246473","0.0-1.0-230.0-0.0","0","0","47035","","638","","","75","25","","","1","25","training","adjacent","CD","3","4","N.jpg","Q.jpg","1","1","1","",""
"","feedback","","html-keyboard-response","168","247478","0.0-1.0-231.0-0.0","0","0","47035","","null","","","null","25","","","","","","","","","","","","","","","",""
"","ITI","","html-keyboard-response","169","248487","0.0-1.0-234.0","0","0","47035","","null","","","null","25","","","","","","","","","","","","","","","NaN",""
"","S1","","html-keyboard-response","170","248741","0.0-1.0-236.0","0","0","47035","","null","","","null","26","","","","","","","","","","","","","","","",""
"","ISI","","html-keyboard-response","171","249753","0.0-1.0-237.0","0","0","47035","","null","","","null","26","NaN","","","","","","","","","","","","","","",""
"","S2","","html-keyboard-response","172","250017","0.0-1.0-238.0","0","0","47035","","null","","","null","26","","NaN","","","","","","","","","","","","","",""
"","response","","html-keyboard-response","173","250573","0.0-1.0-239.0-0.0","0","0","47035","","553","","","75","26","","","1","26","training","adjacent","EF","5","6","P.jpg","R.jpg","1","1","1","",""
"","feedback","","html-keyboard-response","174","251582","0.0-1.0-240.0-0.0","0","0","47035","","null","","","null","26","","","","","","","","","","","","","","","",""
"","ITI","","html-keyboard-response","175","252590","0.0-1.0-243.0","0","0","47035","","null","","","null","26","","","","","","","","","","","","","","","NaN",""
"","S1","","html-keyboard-response","176","252847","0.0-1.0-245.0","0","0","47035","","null","","","null","27","","","","","","","","","","","","","","","",""
"","ISI","","html-keyboard-response","177","253857","0.0-1.0-246.0","0","0","47035","","null","","","null","27","NaN","","","","","","","","","","","","","","",""
"","S2","","html-keyboard-response","178","254119","0.0-1.0-247.0","0","0","47035","","null","","","null","27","","NaN","","","","","","","","","","","","","",""
"","response","","html-keyboard-response","179","254731","0.0-1.0-248.0-0.0","0","0","47035","","610","","","75","27","","","1","27","training","adjacent","DE","4","5","Q.jpg","P.jpg","1","1","1","",""
"","feedback","","html-keyboard-response","180","255743","0.0-1.0-249.0-0.0","0","0","47035","","null","","","null","27","","","","","","","","","","","","","","","",""
"","ITI","","html-keyboard-response","181","256752","0.0-1.0-252.0","0","0","47035","","null","","","null","27","","","","","","","","","","","","","","","NaN",""
"","S1","","html-keyboard-response","182","257008","0.0-1.0-254.0","0","0","47035","","null","","","null","28","","","","","","","","","","","","","","","",""
"","ISI","","html-keyboard-response","183","258015","0.0-1.0-255.0","0","0","47035","","null","","","null","28","NaN","","","","","","","","","","","","","","",""
"","S2","","html-keyboard-response","184","258269","0.0-1.0-256.0","0","0","47035","","null","","","null","28","","NaN","","","","","","","","","","","","","",""
"","response","","html-keyboard-response","185","258809","0.0-1.0-257.0-0.0","0","0","47035","","538","","","75","28","","","1","28","training","adjacent","BC","2","3","O.jpg","N.jpg","1","1","1","",""
"","feedback","","html-keyboard-response","186","259813","0.0-1.0-258.0-0.0","0","0","47035","","null","","","null","28","","","","","","","","","","","","","","","",""
"","ITI","","html-keyboard-response","187","260822","0.0-1.0-261.0","0","0","47035","","null","","","null","28","","","","","","","","","","","","","","","NaN",""
"","S1","","html-keyboard-response","188","261079","0.0-1.0-263.0","0","0","47035","","null","","","null","29","","","","","","","","","","","","","","","",""
"","ISI","","html-keyboard-response","189","262087","0.0-1.0-264.0","0","0","47035","","null","","","null","29","NaN","","","","","","","","","","","","","","",""
"","S2","","html-keyboard-response","190","262343","0.0-1.0-265.0","0","0","47035","","null","","","null","29","","NaN","","","","","","","","","","","","","",""
"","response","","html-keyboard-response","191","262966","0.0-1.0-266.0-0.0","0","0","47035","","621","","","75","29","","","1","29","training","adjacent","AB","1","2","M.jpg","O.jpg","1","1","1","",""
"","feedback","","html-keyboard-response","192","263969","0.0-1.0-267.0-0.0","0","0","47035","","null","","","null","29","","","","","","","","","","","","","","","",""
"","ITI","","html-keyboard-response","193","264972","0.0-1.0-270.0","0","0","47035","","null","","","null","29","","","","","","","","","","","","","","","NaN",""
"","S1","","html-keyboard-response","194","265229","0.0-1.0-272.0","0","0","47035","","null","","","null","30","","","","","","","","","","","","","","","",""
"","ISI","","html-keyboard-response","195","266239","0.0-1.0-273.0","0","0","47035","","null","","","null","30","NaN","","","","","","","","","","","","","","",""
"","S2","","html-keyboard-response","196","266494","0.0-1.0-274.0","0","0","47035","","null","","","null","30","","NaN","","","","","","","","","","","","","",""
"","response","","html-keyboard-response","197","267123","0.0-1.0-275.0-0.0","0","0","47035","","628","","","75","30","","","1","30","training","adjacent","FG","6","7","R.jpg","L.jpg","1","1","1","",""
"","feedback","","html-keyboard-response","198","268137","0.0-1.0-276.0-0.0","0","0","47035","","null","","","null","30","","","","","","","","","","","","","","","",""
"","ITI","","html-keyboard-response","199","269142","0.0-1.0-279.0","0","0","47035","","null","","","null","30","","","","","","","","","","","","","","","NaN",""
"","S1","","html-keyboard-response","200","269399","0.0-1.0-281.0","0","0","47035","","null","","","null","31","","","","","","","","","","","","","","","",""
"","ISI","","html-keyboard-response","201","270408","0.0-1.0-282.0","0","0","47035","","null","","","null","31","NaN","","","","","","","","","","","","","","",""
"","S2","","html-keyboard-response","202","270670","0.0-1.0-283.0","0","0","47035","","null","","","null","31","","NaN","","","","","","","","","","","","","",""
"","response","","html-keyboard-response","203","271316","0.0-1.0-284.0-0.0","0","0","47035","","644","","","75","31","","","1","31","training","adjacent","FE","6","5","R.jpg","P.jpg","1","0","0","",""
"","feedback","","html-keyboard-response","204","272327","0.0-1.0-285.0-0.0","0","0","47035","","null","","","null","31","","","","","","","","","","","","","","","",""
"","time_out","","html-keyboard-response","205","274338","0.0-1.0-287.0-0.0","0","0","47035","","null","","","null","31","","","","","","","","","","","","","","","",""
"","ITI","","html-keyboard-response","206","275340","0.0-1.0-288.0","0","0","47035","","null","","","null","31","","","","","","","","","","","","","","","NaN",""
"","S1","","html-keyboard-response","207","275599","0.0-1.0-290.0","0","0","47035","","null","","","null","32","","","","","","","","","","","","","","","",""
"","ISI","","html-keyboard-response","208","276608","0.0-1.0-291.0","0","0","47035","","null","","","null","32","NaN","","","","","","","","","","","","","","",""
"","S2","","html-keyboard-response","209","276861","0.0-1.0-292.0","0","0","47035","","null","","","null","32","","NaN","","","","","","","","","","","","","",""
"","response","","html-keyboard-response","210","277482","0.0-1.0-293.0-0.0","0","0","47035","","618","","","68","32","","","1","32","training","adjacent","GF","7","6","L.jpg","R.jpg","0","0","1","",""
"","feedback","","html-keyboard-response","211","278488","0.0-1.0-294.0-0.0","0","0","47035","","null","","","null","32","","","","","","","","","","","","","","","",""
"","ITI","","html-keyboard-response","212","279492","0.0-1.0-297.0","0","0","47035","","null","","","null","32","","","","","","","","","","","","","","","NaN",""
"","S1","","html-keyboard-response","213","279753","0.0-1.0-299.0","0","0","47035","","null","","","null","33","","","","","","","","","","","","","","","",""
"","ISI","","html-keyboard-response","214","280757","0.0-1.0-300.0","0","0","47035","","null","","","null","33","NaN","","","","","","","","","","","","","","",""
"","S2","","html-keyboard-response","215","281015","0.0-1.0-301.0","0","0","47035","","null","","","null","33","","NaN","","","","","","","","","","","","","",""
"","response","","html-keyboard-response","216","281747","0.0-1.0-302.0-0.0","0","0","47035","","731","","","68","33","","","1","33","training","adjacent","GF","7","6","L.jpg","R.jpg","0","0","1","",""
"","feedback","","html-keyboard-response","217","282759","0.0-1.0-303.0-0.0","0","0","47035","","null","","","null","33","","","","","","","","","","","","","","","",""
"","ITI","","html-keyboard-response","218","283765","0.0-1.0-306.0","0","0","47035","","null","","","null","33","","","","","","","","","","","","","","","NaN",""
"","S1","","html-keyboard-response","219","284024","0.0-1.0-308.0","0","0","47035","","null","","","null","34","","","","","","","","","","","","","","","",""
"","ISI","","html-keyboard-response","220","285029","0.0-1.0-309.0","0","0","47035","","null","","","null","34","NaN","","","","","","","","","","","","","","",""
"","S2","","html-keyboard-response","221","285288","0.0-1.0-310.0","0","0","47035","","null","","","null","34","","NaN","","","","","","","","","","","","","",""
"","response","","html-keyboard-response","222","286223","0.0-1.0-311.0-0.0","0","0","47035","","933","","","68","34","","","1","34","training","adjacent","DC","4","3","Q.jpg","N.jpg","0","0","1","",""
"","feedback","","html-keyboard-response","223","287231","0.0-1.0-312.0-0.0","0","0","47035","","null","","","null","34","","","","","","","","","","","","","","","",""
"","ITI","","html-keyboard-response","224","288240","0.0-1.0-315.0","0","0","47035","","null","","","null","34","","","","","","","","","","","","","","","NaN",""
"","S1","","html-keyboard-response","225","288494","0.0-1.0-317.0","0","0","47035","","null","","","null","35","","","","","","","","","","","","","","","",""
"","ISI","","html-keyboard-response","226","289505","0.0-1.0-318.0","0","0","47035","","null","","","null","35","NaN","","","","","","","","","","","","","","",""
"","S2","","html-keyboard-response","227","289768","0.0-1.0-319.0","0","0","47035","","null","","","null","35","","NaN","","","","","","","","","","","","","",""
"","response","","html-keyboard-response","228","290357","0.0-1.0-320.0-0.0","0","0","47035","","586","","","68","35","","","1","35","training","adjacent","CB","3","2","N.jpg","O.jpg","0","0","1","",""
"","feedback","","html-keyboard-response","229","291368","0.0-1.0-321.0-0.0","0","0","47035","","null","","","null","35","","","","","","","","","","","","","","","",""
"","ITI","","html-keyboard-response","230","292377","0.0-1.0-324.0","0","0","47035","","null","","","null","35","","","","","","","","","","","","","","","NaN",""
"","S1","","html-keyboard-response","231","292640","0.0-1.0-326.0","0","0","47035","","null","","","null","36","","","","","","","","","","","","","","","",""
"","ISI","","html-keyboard-response","232","293648","0.0-1.0-327.0","0","0","47035","","null","","","null","36","NaN","","","","","","","","","","","","","","",""
"","S2","","html-keyboard-response","233","293902","0.0-1.0-328.0","0","0","47035","","null","","","null","36","","NaN","","","","","","","","","","","","","",""
"","response","","html-keyboard-response","234","294432","0.0-1.0-329.0-0.0","0","0","47035","","528","","","68","36","","","1","36","training","adjacent","DE","4","5","Q.jpg","P.jpg","0","1","0","",""
"","feedback","","html-keyboard-response","235","295440","0.0-1.0-330.0-0.0","0","0","47035","","null","","","null","36","","","","","","","","","","","","","","","",""
"","time_out","","html-keyboard-response","236","297447","0.0-1.0-332.0-0.0","0","0","47035","","null","","","null","36","","","","","","","","","","","","","","","",""
"","ITI","","html-keyboard-response","237","298457","0.0-1.0-333.0","0","0","47035","","null","","","null","36","","","","","","","","","","","","","","","NaN",""
"","S1","","html-keyboard-response","238","298718","0.0-1.0-335.0","0","0","47035","","null","","","null","37","","","","","","","","","","","","","","","",""
"","ISI","","html-keyboard-response","239","299727","0.0-1.0-336.0","0","0","47035","","null","","","null","37","NaN","","","","","","","","","","","","","","",""
"","S2","","html-keyboard-response","240","299982","0.0-1.0-337.0","0","0","47035","","null","","","null","37","","NaN","","","","","","","","","","","","","",""
"","response","","html-keyboard-response","241","300485","0.0-1.0-338.0-0.0","0","0","47035","","501","","","68","37","","","1","37","training","adjacent","AB","1","2","M.jpg","O.jpg","0","1","0","",""
"","feedback","","html-keyboard-response","242","301493","0.0-1.0-339.0-0.0","0","0","47035","","null","","","null","37","","","","","","","","","","","","","","","",""
"","time_out","","html-keyboard-response","243","303494","0.0-1.0-341.0-0.0","0","0","47035","","null","","","null","37","","","","","","","","","","","","","","","",""
"","ITI","","html-keyboard-response","244","304504","0.0-1.0-342.0","0","0","47035","","null","","","null","37","","","","","","","","","","","","","","","NaN",""
"","S1","","html-keyboard-response","245","304760","0.0-1.0-344.0","0","0","47035","","null","","","null","38","","","","","","","","","","","","","","","",""
"","ISI","","html-keyboard-response","246","305768","0.0-1.0-345.0","0","0","47035","","null","","","null","38","NaN","","","","","","","","","","","","","","",""
"","S2","","html-keyboard-response","247","306022","0.0-1.0-346.0","0","0","47035","","null","","","null","38","","NaN","","","","","","","","","","","","","",""
"","response","","html-keyboard-response","248","306527","0.0-1.0-347.0-0.0","0","0","47035","","504","","","68","38","","","1","38","training","adjacent","ED","5","4","P.jpg","Q.jpg","0","0","1","",""
"","feedback","","html-keyboard-response","249","307533","0.0-1.0-348.0-0.0","0","0","47035","","null","","","null","38","","","","","","","","","","","","","","","",""
"","ITI","","html-keyboard-response","250","308541","0.0-1.0-351.0","0","0","47035","","null","","","null","38","","","","","","","","","","","","","","","NaN",""
"","S1","","html-keyboard-response","251","308800","0.0-1.0-353.0","0","0","47035","","null","","","null","39","","","","","","","","","","","","","","","",""
"","ISI","","html-keyboard-response","252","309806","0.0-1.0-354.0","0","0","47035","","null","","","null","39","NaN","","","","","","","","","","","","","","",""
"","S2","","html-keyboard-response","253","310060","0.0-1.0-355.0","0","0","47035","","null","","","null","39","","NaN","","","","","","","","","","","","","",""
"","response","","html-keyboard-response","254","310628","0.0-1.0-356.0-0.0","0","0","47035","","566","","","68","39","","","1","39","training","adjacent","ED","5","4","P.jpg","Q.jpg","0","0","1","",""
"","feedback","","html-keyboard-response","255","311641","0.0-1.0-357.0-0.0","0","0","47035","","null","","","null","39","","","","","","","","","","","","","","","",""
"","ITI","","html-keyboard-response","256","312647","0.0-1.0-360.0","0","0","47035","","null","","","null","39","","","","","","","","","","","","","","","NaN",""
"","S1","","html-keyboard-response","257","312901","0.0-1.0-362.0","0","0","47035","","null","","","null","40","","","","","","","","","","","","","","","",""
"","ISI","","html-keyboard-response","258","313909","0.0-1.0-363.0","0","0","47035","","null","","","null","40","NaN","","","","","","","","","","","","","","",""
"","S2","","html-keyboard-response","259","314167","0.0-1.0-364.0","0","0","47035","","null","","","null","40","","NaN","","","","","","","","","","","","","",""
"","response","","html-keyboard-response","260","314667","0.0-1.0-365.0-0.0","0","0","47035","","497","","","68","40","","","1","40","training","adjacent","EF","5","6","P.jpg","R.jpg","0","1","0","",""
"","feedback","","html-keyboard-response","261","315679","0.0-1.0-366.0-0.0","0","0","47035","","null","","","null","40","","","","","","","","","","","","","","","",""
"","time_out","","html-keyboard-response","262","317689","0.0-1.0-368.0-0.0","0","0","47035","","null","","","null","40","","","","","","","","","","","","","","","",""
"","ITI","","html-keyboard-response","263","318698","0.0-1.0-369.0","0","0","47035","","null","","","null","40","","","","","","","","","","","","","","","NaN",""
"","S1","","html-keyboard-response","264","318960","0.0-1.0-371.0","0","0","47035","","null","","","null","41","","","","","","","","","","","","","","","",""
"","ISI","","html-keyboard-response","265","319966","0.0-1.0-372.0","0","0","47035","","null","","","null","41","NaN","","","","","","","","","","","","","","",""
"","S2","","html-keyboard-response","266","320224","0.0-1.0-373.0","0","0","47035","","null","","","null","41","","NaN","","","","","","","","","","","","","",""
"","response","","html-keyboard-response","267","320562","0.0-1.0-374.0-0.0","0","0","47035","","336","","","75","41","","","1","41","training","adjacent","CB","3","2","N.jpg","O.jpg","1","0","0","",""
"","feedback","","html-keyboard-response","268","321565","0.0-1.0-375.0-0.0","0","0","47035","","null","","","null","41","","","","","","","","","","","","","","","",""
"","time_out","","html-keyboard-response","269","323575","0.0-1.0-377.0-0.0","0","0","47035","","null","","","null","41","","","","","","","","","","","","","","","",""
"","ITI","","html-keyboard-response","270","324584","0.0-1.0-378.0","0","0","47035","","null","","","null","41","","","","","","","","","","","","","","","NaN",""
"","S1","","html-keyboard-response","271","324841","0.0-1.0-380.0","0","0","47035","","null","","","null","42","","","","","","","","","","","","","","","",""
"","ISI","","html-keyboard-response","272","325846","0.0-1.0-381.0","0","0","47035","","null","","","null","42","NaN","","","","","","","","","","","","","","",""
"","S2","","html-keyboard-response","273","326103","0.0-1.0-382.0","0","0","47035","","null","","","null","42","","NaN","","","","","","","","","","","","","",""
"","response","","html-keyboard-response","274","326510","0.0-1.0-383.0-0.0","0","0","47035","","404","","","68","42","","","1","42","training","adjacent","DE","4","5","Q.jpg","P.jpg","0","1","0","",""
"","feedback","","html-keyboard-response","275","327518","0.0-1.0-384.0-0.0","0","0","47035","","null","","","null","42","","","","","","","","","","","","","","","",""
"","time_out","","html-keyboard-response","276","329528","0.0-1.0-386.0-0.0","0","0","47035","","null","","","null","42","","","","","","","","","","","","","","","",""
"","ITI","","html-keyboard-response","277","330535","0.0-1.0-387.0","0","0","47035","","null","","","null","42","","","","","","","","","","","","","","","NaN",""
"","S1","","html-keyboard-response","278","330793","0.0-1.0-389.0","0","0","47035","","null","","","null","43","","","","","","","","","","","","","","","",""
"","ISI","","html-keyboard-response","279","331800","0.0-1.0-390.0","0","0","47035","","null","","","null","43","NaN","","","","","","","","","","","","","","",""
"","S2","","html-keyboard-response","280","332055","0.0-1.0-391.0","0","0","47035","","null","","","null","43","","NaN","","","","","","","","","","","","","",""
"","response","","html-keyboard-response","281","332487","0.0-1.0-392.0-0.0","0","0","47035","","431","","","75","43","","","1","43","training","adjacent","EF","5","6","P.jpg","R.jpg","1","1","1","",""
"","feedback","","html-keyboard-response","282","333495","0.0-1.0-393.0-0.0","0","0","47035","","null","","","null","43","","","","","","","","","","","","","","","",""
"","ITI","","html-keyboard-response","283","334504","0.0-1.0-396.0","0","0","47035","","null","","","null","43","","","","","","","","","","","","","","","NaN",""
"","S1","","html-keyboard-response","284","334760","0.0-1.0-398.0","0","0","47035","","null","","","null","44","","","","","","","","","","","","","","","",""
"","ISI","","html-keyboard-response","285","335767","0.0-1.0-399.0","0","0","47035","","null","","","null","44","NaN","","","","","","","","","","","","","","",""
"","S2","","html-keyboard-response","286","336020","0.0-1.0-400.0","0","0","47035","","null","","","null","44","","NaN","","","","","","","","","","","","","",""
"","response","","html-keyboard-response","287","336419","0.0-1.0-401.0-0.0","0","0","47035","","397","","","75","44","","","1","44","training","adjacent","CB","3","2","N.jpg","O.jpg","1","0","0","",""
"","feedback","","html-keyboard-response","288","337430","0.0-1.0-402.0-0.0","0","0","47035","","null","","","null","44","","","","","","","","","","","","","","","",""
"","time_out","","html-keyboard-response","289","339439","0.0-1.0-404.0-0.0","0","0","47035","","null","","","null","44","","","","","","","","","","","","","","","",""
"","ITI","","html-keyboard-response","290","340447","0.0-1.0-405.0","0","0","47035","","null","","","null","44","","","","","","","","","","","","","","","NaN",""
"","S1","","html-keyboard-response","291","340705","0.0-1.0-407.0","0","0","47035","","null","","","null","45","","","","","","","","","","","","","","","",""
"","ISI","","html-keyboard-response","292","341710","0.0-1.0-408.0","0","0","47035","","null","","","null","45","NaN","","","","","","","","","","","","","","",""
"","S2","","html-keyboard-response","293","341964","0.0-1.0-409.0","0","0","47035","","null","","","null","45","","NaN","","","","","","","","","","","","","",""
"","response","","html-keyboard-response","294","342242","0.0-1.0-410.0-0.0","0","0","47035","","276","","","68","45","","","1","45","training","adjacent","CD","3","4","N.jpg","Q.jpg","0","1","0","",""
"","feedback","","html-keyboard-response","295","343255","0.0-1.0-411.0-0.0","0","0","47035","","null","","","null","45","","","","","","","","","","","","","","","",""
"","time_out","","html-keyboard-response","296","345262","0.0-1.0-413.0-0.0","0","0","47035","","null","","","null","45","","","","","","","","","","","","","","","",""
"","ITI","","html-keyboard-response","297","346271","0.0-1.0-414.0","0","0","47035","","null","","","null","45","","","","","","","","","","","","","","","NaN",""
"","S1","","html-keyboard-response","298","346529","0.0-1.0-416.0","0","0","47035","","null","","","null","46","","","","","","","","","","","","","","","",""
"","ISI","","html-keyboard-response","299","347534","0.0-1.0-417.0","0","0","47035","","null","","","null","46","NaN","","","","","","","","","","","","","","",""
"","S2","","html-keyboard-response","300","347792","0.0-1.0-418.0","0","0","47035","","null","","","null","46","","NaN","","","","","","","","","","","","","",""
"","response","","html-keyboard-response","301","348324","0.0-1.0-419.0-0.0","0","0","47035","","529","","","75","46","","","1","46","training","adjacent","ED","5","4","P.jpg","Q.jpg","1","0","0","",""
"","feedback","","html-keyboard-response","302","349338","0.0-1.0-420.0-0.0","0","0","47035","","null","","","null","46","","","","","","","","","","","","","","","",""
"","time_out","","html-keyboard-response","303","351344","0.0-1.0-422.0-0.0","0","0","47035","","null","","","null","46","","","","","","","","","","","","","","","",""
"","ITI","","html-keyboard-response","304","352351","0.0-1.0-423.0","0","0","47035","","null","","","null","46","","","","","","","","","","","","","","","NaN",""
"","S1","","html-keyboard-response","305","352607","0.0-1.0-425.0","0","0","47035","","null","","","null","47","","","","","","","","","","","","","","","",""
"","ISI","","html-keyboard-response","306","353615","0.0-1.0-426.0","0","0","47035","","null","","","null","47","NaN","","","","","","","","","","","","","","",""
"","S2","","html-keyboard-response","307","353871","0.0-1.0-427.0","0","0","47035","","null","","","null","47","","NaN","","","","","","","","","","","","","",""
"","response","","html-keyboard-response","308","354428","0.0-1.0-428.0-0.0","0","0","47035","","556","","","68","47","","","1","47","training","adjacent","BA","2","1","O.jpg","M.jpg","0","0","1","",""
"","feedback","","html-keyboard-response","309","355438","0.0-1.0-429.0-0.0","0","0","47035","","null","","","null","47","","","","","","","","","","","","","","","",""
"","ITI","","html-keyboard-response","310","356447","0.0-1.0-432.0","0","0","47035","","null","","","null","47","","","","","","","","","","","","","","","NaN",""
"","block_over","","html-keyboard-response","311","358873","0.0-1.0-433.0-0.0","0","0","47035","","2424","","","32","47","","","","","","","","","","","","","","","",""
"","S1","","html-keyboard-response","312","359135","0.0-1.0-434.0","0","0","47035","","null","","","null","48","","","","","","","","","","","","","","","",""
"","ISI","","html-keyboard-response","313","360145","0.0-1.0-435.0","0","0","47035","","null","","","null","48","NaN","","","","","","","","","","","","","","",""
"","S2","","html-keyboard-response","314","360406","0.0-1.0-436.0","0","0","47035","","null","","","null","48","","NaN","","","","","","","","","","","","","",""
"","response","","html-keyboard-response","315","361166","0.0-1.0-437.0-0.0","0","0","47035","","758","","","75","48","","","2","48","training","adjacent","CB","3","2","N.jpg","O.jpg","1","0","0","",""
"","feedback","","html-keyboard-response","316","362173","0.0-1.0-438.0-0.0","0","0","47035","","null","","","null","48","","","","","","","","","","","","","","","",""
"","time_out","","html-keyboard-response","317","364183","0.0-1.0-440.0-0.0","0","0","47035","","null","","","null","48","","","","","","","","","","","","","","","",""
"","ITI","","html-keyboard-response","318","365193","0.0-1.0-441.0","0","0","47035","","null","","","null","48","","","","","","","","","","","","","","","NaN",""
"","S1","","html-keyboard-response","319","365455","0.0-1.0-443.0","0","0","47035","","null","","","null","49","","","","","","","","","","","","","","","",""
"","ISI","","html-keyboard-response","320","366462","0.0-1.0-444.0","0","0","47035","","null","","","null","49","NaN","","","","","","","","","","","","","","",""
"","S2","","html-keyboard-response","321","366720","0.0-1.0-445.0","0","0","47035","","null","","","null","49","","NaN","","","","","","","","","","","","","",""
"","response","","html-keyboard-response","322","367118","0.0-1.0-446.0-0.0","0","0","47035","","396","","","68","49","","","2","49","training","adjacent","GF","7","6","L.jpg","R.jpg","0","0","1","",""
"","feedback","","html-keyboard-response","323","368129","0.0-1.0-447.0-0.0","0","0","47035","","null","","","null","49","","","","","","","","","","","","","","","",""
"","ITI","","html-keyboard-response","324","369135","0.0-1.0-450.0","0","0","47035","","null","","","null","49","","","","","","","","","","","","","","","NaN",""
"","S1","","html-keyboard-response","325","369391","0.0-1.0-452.0","0","0","47035","","null","","","null","50","","","","","","","","","","","","","","","",""
"","ISI","","html-keyboard-response","326","370398","0.0-1.0-453.0","0","0","47035","","null","","","null","50","NaN","","","","","","","","","","","","","","",""
"","S2","","html-keyboard-response","327","370657","0.0-1.0-454.0","0","0","47035","","null","","","null","50","","NaN","","","","","","","","","","","","","",""
"","response","","html-keyboard-response","328","371933","0.0-1.0-455.0-0.0","0","0","47035","","1274","","","68","50","","","2","50","training","adjacent","DC","4","3","Q.jpg","N.jpg","0","0","1","",""
"","feedback","","html-keyboard-response","329","372946","0.0-1.0-456.0-0.0","0","0","47035","","null","","","null","50","","","","","","","","","","","","","","","",""
"","ITI","","html-keyboard-response","330","373950","0.0-1.0-459.0","0","0","47035","","null","","","null","50","","","","","","","","","","","","","","","NaN",""
"","S1","","html-keyboard-response","331","374205","0.0-1.0-461.0","0","0","47035","","null","","","null","51","","","","","","","","","","","","","","","",""
"","ISI","","html-keyboard-response","332","375215","0.0-1.0-462.0","0","0","47035","","null","","","null","51","NaN","","","","","","","","","","","","","","",""
"","S2","","html-keyboard-response","333","375470","0.0-1.0-463.0","0","0","47035","","null","","","null","51","","NaN","","","","","","","","","","","","","",""
"","response","","html-keyboard-response","334","375844","0.0-1.0-464.0-0.0","0","0","47035","","372","","","68","51","","","2","51","training","adjacent","EF","5","6","P.jpg","R.jpg","0","1","0","",""
"","feedback","","html-keyboard-response","335","376855","0.0-1.0-465.0-0.0","0","0","47035","","null","","","null","51","","","","","","","","","","","","","","","",""
"","time_out","","html-keyboard-response","336","378862","0.0-1.0-467.0-0.0","0","0","47035","","null","","","null","51","","","","","","","","","","","","","","","",""
"","ITI","","html-keyboard-response","337","379870","0.0-1.0-468.0","0","0","47035","","null","","","null","51","","","","","","","","","","","","","","","NaN",""
"","S1","","html-keyboard-response","338","380126","0.0-1.0-470.0","0","0","47035","","null","","","null","52","","","","","","","","","","","","","","","",""
"","ISI","","html-keyboard-response","339","381137","0.0-1.0-471.0","0","0","47035","","null","","","null","52","NaN","","","","","","","","","","","","","","",""
"","S2","","html-keyboard-response","340","381399","0.0-1.0-472.0","0","0","47035","","null","","","null","52","","NaN","","","","","","","","","","","","","",""
"","response","","html-keyboard-response","341","381824","0.0-1.0-473.0-0.0","0","0","47035","","422","","","75","52","","","2","52","training","adjacent","DE","4","5","Q.jpg","P.jpg","1","1","1","",""
"","feedback","","html-keyboard-response","342","382831","0.0-1.0-474.0-0.0","0","0","47035","","null","","","null","52","","","","","","","","","","","","","","","",""
"","ITI","","html-keyboard-response","343","383838","0.0-1.0-477.0","0","0","47035","","null","","","null","52","","","","","","","","","","","","","","","NaN",""
"","S1","","html-keyboard-response","344","384097","0.0-1.0-479.0","0","0","47035","","null","","","null","53","","","","","","","","","","","","","","","",""
"","ISI","","html-keyboard-response","345","385101","0.0-1.0-480.0","0","0","47035","","null","","","null","53","NaN","","","","","","","","","","","","","","",""
"","S2","","html-keyboard-response","346","385358","0.0-1.0-481.0","0","0","47035","","null","","","null","53","","NaN","","","","","","","","","","","","","",""
"","response","","html-keyboard-response","347","385861","0.0-1.0-482.0-0.0","0","0","47035","","501","","","75","53","","","2","53","training","adjacent","FE","6","5","R.jpg","P.jpg","1","0","0","",""
"","feedback","","html-keyboard-response","348","386872","0.0-1.0-483.0-0.0","0","0","47035","","null","","","null","53","","","","","","","","","","","","","","","",""
"","time_out","","html-keyboard-response","349","388881","0.0-1.0-485.0-0.0","0","0","47035","","null","","","null","53","","","","","","","","","","","","","","","",""
"","ITI","","html-keyboard-response","350","389887","0.0-1.0-486.0","0","0","47035","","null","","","null","53","","","","","","","","","","","","","","","NaN",""
"","S1","","html-keyboard-response","351","390144","0.0-1.0-488.0","0","0","47035","","null","","","null","54","","","","","","","","","","","","","","","",""
"","ISI","","html-keyboard-response","352","391150","0.0-1.0-489.0","0","0","47035","","null","","","null","54","NaN","","","","","","","","","","","","","","",""
"","S2","","html-keyboard-response","353","391405","0.0-1.0-490.0","0","0","47035","","null","","","null","54","","NaN","","","","","","","","","","","","","",""
"","response","","html-keyboard-response","354","391894","0.0-1.0-491.0-0.0","0","0","47035","","487","","","68","54","","","2","54","training","adjacent","EF","5","6","P.jpg","R.jpg","0","1","0","",""
"","feedback","","html-keyboard-response","355","392902","0.0-1.0-492.0-0.0","0","0","47035","","null","","","null","54","","","","","","","","","","","","","","","",""
"","time_out","","html-keyboard-response","356","394911","0.0-1.0-494.0-0.0","0","0","47035","","null","","","null","54","","","","","","","","","","","","","","","",""
"","ITI","","html-keyboard-response","357","395918","0.0-1.0-495.0","0","0","47035","","null","","","null","54","","","","","","","","","","","","","","","NaN",""
"","S1","","html-keyboard-response","358","396178","0.0-1.0-497.0","0","0","47035","","null","","","null","55","","","","","","","","","","","","","","","",""
"","ISI","","html-keyboard-response","359","397182","0.0-1.0-498.0","0","0","47035","","null","","","null","55","NaN","","","","","","","","","","","","","","",""
"","S2","","html-keyboard-response","360","397438","0.0-1.0-499.0","0","0","47035","","null","","","null","55","","NaN","","","","","","","","","","","","","",""
"","response","","html-keyboard-response","361","397696","0.0-1.0-500.0-0.0","0","0","47035","","256","","","75","55","","","2","55","training","adjacent","AB","1","2","M.jpg","O.jpg","1","1","1","",""
"","feedback","","html-keyboard-response","362","398702","0.0-1.0-501.0-0.0","0","0","47035","","null","","","null","55","","","","","","","","","","","","","","","",""
"","ITI","","html-keyboard-response","363","399713","0.0-1.0-504.0","0","0","47035","","null","","","null","55","","","","","","","","","","","","","","","NaN",""
"","S1","","html-keyboard-response","364","399974","0.0-1.0-506.0","0","0","47035","","null","","","null","56","","","","","","","","","","","","","","","",""
"","ISI","","html-keyboard-response","365","400984","0.0-1.0-507.0","0","0","47035","","null","","","null","56","NaN","","","","","","","","","","","","","","",""
"","S2","","html-keyboard-response","366","401248","0.0-1.0-508.0","0","0","47035","","null","","","null","56","","NaN","","","","","","","","","","","","","",""
"","response","","html-keyboard-response","367","401736","0.0-1.0-509.0-0.0","0","0","47035","","486","","","75","56","","","2","56","training","adjacent","GF","7","6","L.jpg","R.jpg","1","0","0","",""
"","feedback","","html-keyboard-response","368","402744","0.0-1.0-510.0-0.0","0","0","47035","","null","","","null","56","","","","","","","","","","","","","","","",""
"","time_out","","html-keyboard-response","369","404751","0.0-1.0-512.0-0.0","0","0","47035","","null","","","null","56","","","","","","","","","","","","","","","",""
"","ITI","","html-keyboard-response","370","405760","0.0-1.0-513.0","0","0","47035","","null","","","null","56","","","","","","","","","","","","","","","NaN",""
"","S1","","html-keyboard-response","371","406017","0.0-1.0-515.0","0","0","47035","","null","","","null","57","","","","","","","","","","","","","","","",""
"","ISI","","html-keyboard-response","372","407021","0.0-1.0-516.0","0","0","47035","","null","","","null","57","NaN","","","","","","","","","","","","","","",""
"","S2","","html-keyboard-response","373","407279","0.0-1.0-517.0","0","0","47035","","null","","","null","57","","NaN","","","","","","","","","","","","","",""
"","response","","html-keyboard-response","374","407723","0.0-1.0-518.0-0.0","0","0","47035","","441","","","68","57","","","2","57","training","adjacent","BC","2","3","O.jpg","N.jpg","0","1","0","",""
"","feedback","","html-keyboard-response","375","408733","0.0-1.0-519.0-0.0","0","0","47035","","null","","","null","57","","","","","","","","","","","","","","","",""
"","time_out","","html-keyboard-response","376","410742","0.0-1.0-521.0-0.0","0","0","47035","","null","","","null","57","","","","","","","","","","","","","","","",""
"","ITI","","html-keyboard-response","377","411751","0.0-1.0-522.0","0","0","47035","","null","","","null","57","","","","","","","","","","","","","","","NaN",""
"","S1","","html-keyboard-response","378","412007","0.0-1.0-524.0","0","0","47035","","null","","","null","58","","","","","","","","","","","","","","","",""
"","ISI","","html-keyboard-response","379","413017","0.0-1.0-525.0","0","0","47035","","null","","","null","58","NaN","","","","","","","","","","","","","","",""
"","S2","","html-keyboard-response","380","413279","0.0-1.0-526.0","0","0","47035","","null","","","null","58","","NaN","","","","","","","","","","","","","",""
"","response","","html-keyboard-response","381","413737","0.0-1.0-527.0-0.0","0","0","47035","","456","","","68","58","","","2","58","training","adjacent","FG","6","7","R.jpg","L.jpg","0","1","0","",""
"","feedback","","html-keyboard-response","382","414741","0.0-1.0-528.0-0.0","0","0","47035","","null","","","null","58","","","","","","","","","","","","","","","",""
"","time_out","","html-keyboard-response","383","416751","0.0-1.0-530.0-0.0","0","0","47035","","null","","","null","58","","","","","","","","","","","","","","","",""
"","ITI","","html-keyboard-response","384","417760","0.0-1.0-531.0","0","0","47035","","null","","","null","58","","","","","","","","","","","","","","","NaN",""
"","S1","","html-keyboard-response","385","418013","0.0-1.0-533.0","0","0","47035","","null","","","null","59","","","","","","","","","","","","","","","",""
"","ISI","","html-keyboard-response","386","419024","0.0-1.0-534.0","0","0","47035","","null","","","null","59","NaN","","","","","","","","","","","","","","",""
"","S2","","html-keyboard-response","387","419287","0.0-1.0-535.0","0","0","47035","","null","","","null","59","","NaN","","","","","","","","","","","","","",""
"","response","","html-keyboard-response","388","419815","0.0-1.0-536.0-0.0","0","0","47035","","526","","","75","59","","","2","59","training","adjacent","DC","4","3","Q.jpg","N.jpg","1","0","0","",""
"","feedback","","html-keyboard-response","389","420820","0.0-1.0-537.0-0.0","0","0","47035","","null","","","null","59","","","","","","","","","","","","","","","",""
"","time_out","","html-keyboard-response","390","422833","0.0-1.0-539.0-0.0","0","0","47035","","null","","","null","59","","","","","","","","","","","","","","","",""
"","ITI","","html-keyboard-response","391","423838","0.0-1.0-540.0","0","0","47035","","null","","","null","59","","","","","","","","","","","","","","","NaN",""
"","S1","","html-keyboard-response","392","424093","0.0-1.0-542.0","0","0","47035","","null","","","null","60","","","","","","","","","","","","","","","",""
"","ISI","","html-keyboard-response","393","425103","0.0-1.0-543.0","0","0","47035","","null","","","null","60","NaN","","","","","","","","","","","","","","",""
"","S2","","html-keyboard-response","394","425359","0.0-1.0-544.0","0","0","47035","","null","","","null","60","","NaN","","","","","","","","","","","","","",""
"","response","","html-keyboard-response","395","425783","0.0-1.0-545.0-0.0","0","0","47035","","423","","","68","60","","","2","60","training","adjacent","AB","1","2","M.jpg","O.jpg","0","1","0","",""
"","feedback","","html-keyboard-response","396","426791","0.0-1.0-546.0-0.0","0","0","47035","","null","","","null","60","","","","","","","","","","","","","","","",""
"","time_out","","html-keyboard-response","397","428800","0.0-1.0-548.0-0.0","0","0","47035","","null","","","null","60","","","","","","","","","","","","","","","",""
"","ITI","","html-keyboard-response","398","429805","0.0-1.0-549.0","0","0","47035","","null","","","null","60","","","","","","","","","","","","","","","NaN",""
"","S1","","html-keyboard-response","399","430060","0.0-1.0-551.0","0","0","47035","","null","","","null","61","","","","","","","","","","","","","","","",""
"","ISI","","html-keyboard-response","400","431070","0.0-1.0-552.0","0","0","47035","","531","","","75","61","k","","","","","","","","","","","","","","",""
"","S2","","html-keyboard-response","401","431326","0.0-1.0-553.0","0","0","47035","","null","","","null","61","","NaN","","","","","","","","","","","","","",""
"","response","","html-keyboard-response","402","431364","0.0-1.0-554.0-0.0","0","0","47035","","36","","","75","61","","","2","61","training","adjacent","CD","3","4","N.jpg","Q.jpg","1","1","1","",""
"","feedback","","html-keyboard-response","403","432373","0.0-1.0-555.0-0.0","0","0","47035","","null","","","null","61","","","","","","","","","","","","","","","",""
"","ITI","","html-keyboard-response","404","433384","0.0-1.0-558.0","0","0","47035","","null","","","null","61","","","","","","","","","","","","","","","NaN",""
"","S1","","html-keyboard-response","405","433641","0.0-1.0-560.0","0","0","47035","","null","","","null","62","","","","","","","","","","","","","","","",""
"","ISI","","html-keyboard-response","406","434648","0.0-1.0-561.0","0","0","47035","","null","","","null","62","NaN","","","","","","","","","","","","","","",""
"","S2","","html-keyboard-response","407","434912","0.0-1.0-562.0","0","0","47035","","null","","","null","62","","NaN","","","","","","","","","","","","","",""
"","response","","html-keyboard-response","408","435402","0.0-1.0-563.0-0.0","0","0","47035","","488","","","68","62","","","2","62","training","adjacent","BC","2","3","O.jpg","N.jpg","0","1","0","",""
"","feedback","","html-keyboard-response","409","436413","0.0-1.0-564.0-0.0","0","0","47035","","null","","","null","62","","","","","","","","","","","","","","","",""
"","time_out","","html-keyboard-response","410","438424","0.0-1.0-566.0-0.0","0","0","47035","","null","","","null","62","","","","","","","","","","","","","","","",""
"","ITI","","html-keyboard-response","411","439430","0.0-1.0-567.0","0","0","47035","","null","","","null","62","","","","","","","","","","","","","","","NaN",""
"","S1","","html-keyboard-response","412","439688","0.0-1.0-569.0","0","0","47035","","null","","","null","63","","","","","","","","","","","","","","","",""
"","ISI","","html-keyboard-response","413","440695","0.0-1.0-570.0","0","0","47035","","null","","","null","63","NaN","","","","","","","","","","","","","","",""
"","S2","","html-keyboard-response","414","440952","0.0-1.0-571.0","0","0","47035","","null","","","null","63","","NaN","","","","","","","","","","","","","",""
"","response","","html-keyboard-response","415","441503","0.0-1.0-572.0-0.0","0","0","47035","","550","","","75","63","","","2","63","training","adjacent","BA","2","1","O.jpg","M.jpg","1","0","0","",""
"","feedback","","html-keyboard-response","416","442512","0.0-1.0-573.0-0.0","0","0","47035","","null","","","null","63","","","","","","","","","","","","","","","",""
"","time_out","","html-keyboard-response","417","444520","0.0-1.0-575.0-0.0","0","0","47035","","null","","","null","63","","","","","","","","","","","","","","","",""
"","ITI","","html-keyboard-response","418","445528","0.0-1.0-576.0","0","0","47035","","null","","","null","63","","","","","","","","","","","","","","","NaN",""
"","S1","","html-keyboard-response","419","445781","0.0-1.0-578.0","0","0","47035","","null","","","null","64","","","","","","","","","","","","","","","",""
"","ISI","","html-keyboard-response","420","446792","0.0-1.0-579.0","0","0","47035","","null","","","null","64","NaN","","","","","","","","","","","","","","",""
"","S2","","html-keyboard-response","421","447055","0.0-1.0-580.0","0","0","47035","","null","","","null","64","","NaN","","","","","","","","","","","","","",""
"","response","","html-keyboard-response","422","447530","0.0-1.0-581.0-0.0","0","0","47035","","474","","","68","64","","","2","64","training","adjacent","CD","3","4","N.jpg","Q.jpg","0","1","0","",""
"","feedback","","html-keyboard-response","423","448535","0.0-1.0-582.0-0.0","0","0","47035","","null","","","null","64","","","","","","","","","","","","","","","",""
"","time_out","","html-keyboard-response","424","450541","0.0-1.0-584.0-0.0","0","0","47035","","null","","","null","64","","","","","","","","","","","","","","","",""
"","ITI","","html-keyboard-response","425","451552","0.0-1.0-585.0","0","0","47035","","null","","","null","64","","","","","","","","","","","","","","","NaN",""
"","S1","","html-keyboard-response","426","451817","0.0-1.0-587.0","0","0","47035","","null","","","null","65","","","","","","","","","","","","","","","",""
"","ISI","","html-keyboard-response","427","452822","0.0-1.0-588.0","0","0","47035","","null","","","null","65","NaN","","","","","","","","","","","","","","",""
"","S2","","html-keyboard-response","428","453079","0.0-1.0-589.0","0","0","47035","","null","","","null","65","","NaN","","","","","","","","","","","","","",""
"","response","","html-keyboard-response","429","453537","0.0-1.0-590.0-0.0","0","0","47035","","456","","","75","65","","","2","65","training","adjacent","DE","4","5","Q.jpg","P.jpg","1","1","1","",""
"","feedback","","html-keyboard-response","430","454540","0.0-1.0-591.0-0.0","0","0","47035","","null","","","null","65","","","","","","","","","","","","","","","",""
"","ITI","","html-keyboard-response","431","455550","0.0-1.0-594.0","0","0","47035","","null","","","null","65","","","","","","","","","","","","","","","NaN",""
"","S1","","html-keyboard-response","432","455805","0.0-1.0-596.0","0","0","47035","","null","","","null","66","","","","","","","","","","","","","","","",""
"","ISI","","html-keyboard-response","433","456816","0.0-1.0-597.0","0","0","47035","","null","","","null","66","NaN","","","","","","","","","","","","","","",""
"","S2","","html-keyboard-response","434","457072","0.0-1.0-598.0","0","0","47035","","null","","","null","66","","NaN","","","","","","","","","","","","","",""
"","response","","html-keyboard-response","435","457652","0.0-1.0-599.0-0.0","0","0","47035","","577","","","68","66","","","2","66","training","adjacent","DE","4","5","Q.jpg","P.jpg","0","1","0","",""
"","feedback","","html-keyboard-response","436","458662","0.0-1.0-600.0-0.0","0","0","47035","","null","","","null","66","","","","","","","","","","","","","","","",""
"","time_out","","html-keyboard-response","437","460670","0.0-1.0-602.0-0.0","0","0","47035","","null","","","null","66","","","","","","","","","","","","","","","",""
"","ITI","","html-keyboard-response","438","461680","0.0-1.0-603.0","0","0","47035","","null","","","null","66","","","","","","","","","","","","","","","NaN",""
"","S1","","html-keyboard-response","439","461937","0.0-1.0-605.0","0","0","47035","","null","","","null","67","","","","","","","","","","","","","","","",""
"","ISI","","html-keyboard-response","440","462942","0.0-1.0-606.0","0","0","47035","","447","","","75","67","k","","","","","","","","","","","","","","",""
"","S2","","html-keyboard-response","441","463199","0.0-1.0-607.0","0","0","47035","","null","","","null","67","","NaN","","","","","","","","","","","","","",""
"","response","","html-keyboard-response","442","463560","0.0-1.0-608.0-0.0","0","0","47035","","360","","","75","67","","","2","67","training","adjacent","BC","2","3","O.jpg","N.jpg","1","1","1","",""
"","feedback","","html-keyboard-response","443","464565","0.0-1.0-609.0-0.0","0","0","47035","","null","","","null","67","","","","","","","","","","","","","","","",""
"","ITI","","html-keyboard-response","444","465575","0.0-1.0-612.0","0","0","47035","","null","","","null","67","","","","","","","","","","","","","","","NaN",""
"","S1","","html-keyboard-response","445","465831","0.0-1.0-614.0","0","0","47035","","null","","","null","68","","","","","","","","","","","","","","","",""
"","ISI","","html-keyboard-response","446","466839","0.0-1.0-615.0","0","0","47035","","null","","","null","68","NaN","","","","","","","","","","","","","","",""
"","S2","","html-keyboard-response","447","467096","0.0-1.0-616.0","0","0","47035","","null","","","null","68","","NaN","","","","","","","","","","","","","",""
"","response","","html-keyboard-response","448","468856","0.0-1.0-617.0-0.0","0","0","47035","","null","","","null","68","","","2","68","training","adjacent","CD","3","4","N.jpg","Q.jpg","NaN","1","0","",""
"","too_slow_prompt","","html-keyboard-response","449","469862","0.0-1.0-619.0-0.0","1","0","47035","","null","","","null","","","","","","","","","","","","","","","","",""
"","time_out","","html-keyboard-response","450","471871","0.0-1.0-620.0-0.0","0","0","47035","","null","","","null","68","","","","","","","","","","","","","","","",""
"","ITI","","html-keyboard-response","451","472879","0.0-1.0-621.0","0","0","47035","","null","","","null","68","","","","","","","","","","","","","","","NaN",""
"","S1","","html-keyboard-response","452","473133","0.0-1.0-623.0","0","0","47035","","null","","","null","69","","","","","","","","","","","","","","","",""
"","ISI","","html-keyboard-response","453","474143","0.0-1.0-624.0","0","0","47035","","null","","","null","69","NaN","","","","","","","","","","","","","","",""
"","S2","","html-keyboard-response","454","474400","0.0-1.0-625.0","0","0","47035","","null","","","null","69","","NaN","","","","","","","","","","","","","",""
"","response","","html-keyboard-response","455","474961","0.0-1.0-626.0-0.0","0","0","47035","","560","","","68","69","","","2","69","training","adjacent","BA","2","1","O.jpg","M.jpg","0","0","1","",""
"","feedback","","html-keyboard-response","456","475967","0.0-1.0-627.0-0.0","0","0","47035","","null","","","null","69","","","","","","","","","","","","","","","",""
"","ITI","","html-keyboard-response","457","476977","0.0-1.0-630.0","0","0","47035","","null","","","null","69","","","","","","","","","","","","","","","NaN",""
"","S1","","html-keyboard-response","458","477240","0.0-1.0-632.0","0","0","47035","","null","","","null","70","","","","","","","","","","","","","","","",""
"","ISI","","html-keyboard-response","459","478245","0.0-1.0-633.0","0","0","47035","","null","","","null","70","NaN","","","","","","","","","","","","","","",""
"","S2","","html-keyboard-response","460","478504","0.0-1.0-634.0","0","0","47035","","null","","","null","70","","NaN","","","","","","","","","","","","","",""
"","response","","html-keyboard-response","461","479428","0.0-1.0-635.0-0.0","0","0","47035","","922","","","68","70","","","2","70","training","adjacent","ED","5","4","P.jpg","Q.jpg","0","0","1","",""
"","feedback","","html-keyboard-response","462","480441","0.0-1.0-636.0-0.0","0","0","47035","","null","","","null","70","","","","","","","","","","","","","","","",""
"","ITI","","html-keyboard-response","463","481447","0.0-1.0-639.0","0","0","47035","","null","","","null","70","","","","","","","","","","","","","","","NaN",""
"","S1","","html-keyboard-response","464","481706","0.0-1.0-641.0","0","0","47035","","null","","","null","71","","","","","","","","","","","","","","","",""
"","ISI","","html-keyboard-response","465","482712","0.0-1.0-642.0","0","0","47035","","null","","","null","71","NaN","","","","","","","","","","","","","","",""
"","S2","","html-keyboard-response","466","482964","0.0-1.0-643.0","0","0","47035","","null","","","null","71","","NaN","","","","","","","","","","","","","",""
"","response","","html-keyboard-response","467","483638","0.0-1.0-644.0-0.0","0","0","47035","","671","","","68","71","","","2","71","training","adjacent","CB","3","2","N.jpg","O.jpg","0","0","1","",""
"","feedback","","html-keyboard-response","468","484646","0.0-1.0-645.0-0.0","0","0","47035","","null","","","null","71","","","","","","","","","","","","","","","",""
"","ITI","","html-keyboard-response","469","485656","0.0-1.0-648.0","0","0","47035","","null","","","null","71","","","","","","","","","","","","","","","NaN",""
"","S1","","html-keyboard-response","470","485910","0.0-1.0-650.0","0","0","47035","","null","","","null","72","","","","","","","","","","","","","","","",""
"","ISI","","html-keyboard-response","471","486920","0.0-1.0-651.0","0","0","47035","","null","","","null","72","NaN","","","","","","","","","","","","","","",""
"","S2","","html-keyboard-response","472","487177","0.0-1.0-652.0","0","0","47035","","null","","","null","72","","NaN","","","","","","","","","","","","","",""
"","response","","html-keyboard-response","473","487669","0.0-1.0-653.0-0.0","0","0","47035","","490","","","68","72","","","2","72","training","adjacent","GF","7","6","L.jpg","R.jpg","0","0","1","",""
"","feedback","","html-keyboard-response","474","488680","0.0-1.0-654.0-0.0","0","0","47035","","null","","","null","72","","","","","","","","","","","","","","","",""
"","ITI","","html-keyboard-response","475","489687","0.0-1.0-657.0","0","0","47035","","null","","","null","72","","","","","","","","","","","","","","","NaN",""
"","S1","","html-keyboard-response","476","489944","0.0-1.0-659.0","0","0","47035","","null","","","null","73","","","","","","","","","","","","","","","",""
"","ISI","","html-keyboard-response","477","490949","0.0-1.0-660.0","0","0","47035","","null","","","null","73","NaN","","","","","","","","","","","","","","",""
"","S2","","html-keyboard-response","478","491206","0.0-1.0-661.0","0","0","47035","","null","","","null","73","","NaN","","","","","","","","","","","","","",""
"","response","","html-keyboard-response","479","491653","0.0-1.0-662.0-0.0","0","0","47035","","445","","","68","73","","","2","73","training","adjacent","BA","2","1","O.jpg","M.jpg","0","0","1","",""
"","feedback","","html-keyboard-response","480","492661","0.0-1.0-663.0-0.0","0","0","47035","","null","","","null","73","","","","","","","","","","","","","","","",""
"","ITI","","html-keyboard-response","481","493672","0.0-1.0-666.0","0","0","47035","","null","","","null","73","","","","","","","","","","","","","","","NaN",""
"","S1","","html-keyboard-response","482","493933","0.0-1.0-668.0","0","0","47035","","null","","","null","74","","","","","","","","","","","","","","","",""
"","ISI","","html-keyboard-response","483","494943","0.0-1.0-669.0","0","0","47035","","null","","","null","74","NaN","","","","","","","","","","","","","","",""
"","S2","","html-keyboard-response","484","495199","0.0-1.0-670.0","0","0","47035","","null","","","null","74","","NaN","","","","","","","","","","","","","",""
"","response","","html-keyboard-response","485","495544","0.0-1.0-671.0-0.0","0","0","47035","","343","","","68","74","","","2","74","training","adjacent","AB","1","2","M.jpg","O.jpg","0","1","0","",""
"","feedback","","html-keyboard-response","486","496551","0.0-1.0-672.0-0.0","0","0","47035","","null","","","null","74","","","","","","","","","","","","","","","",""
"","time_out","","html-keyboard-response","487","498559","0.0-1.0-674.0-0.0","0","0","47035","","null","","","null","74","","","","","","","","","","","","","","","",""
"","ITI","","html-keyboard-response","488","499567","0.0-1.0-675.0","0","0","47035","","null","","","null","74","","","","","","","","","","","","","","","NaN",""
"","S1","","html-keyboard-response","489","499823","0.0-1.0-677.0","0","0","47035","","null","","","null","75","","","","","","","","","","","","","","","",""
"","ISI","","html-keyboard-response","490","500829","0.0-1.0-678.0","0","0","47035","","null","","","null","75","NaN","","","","","","","","","","","","","","",""
"","S2","","html-keyboard-response","491","501087","0.0-1.0-679.0","0","0","47035","","null","","","null","75","","NaN","","","","","","","","","","","","","",""
"","response","","html-keyboard-response","492","501549","0.0-1.0-680.0-0.0","0","0","47035","","460","","","68","75","","","2","75","training","adjacent","BA","2","1","O.jpg","M.jpg","0","0","1","",""
"","feedback","","html-keyboard-response","493","502560","0.0-1.0-681.0-0.0","0","0","47035","","null","","","null","75","","","","","","","","","","","","","","","",""
"","ITI","","html-keyboard-response","494","503565","0.0-1.0-684.0","0","0","47035","","null","","","null","75","","","","","","","","","","","","","","","NaN",""
"","S1","","html-keyboard-response","495","503824","0.0-1.0-686.0","0","0","47035","","null","","","null","76","","","","","","","","","","","","","","","",""
"","ISI","","html-keyboard-response","496","504828","0.0-1.0-687.0","0","0","47035","","null","","","null","76","NaN","","","","","","","","","","","","","","",""
"","S2","","html-keyboard-response","497","505087","0.0-1.0-688.0","0","0","47035","","null","","","null","76","","NaN","","","","","","","","","","","","","",""
"","response","","html-keyboard-response","498","505744","0.0-1.0-689.0-0.0","0","0","47035","","655","","","68","76","","","2","76","training","adjacent","DC","4","3","Q.jpg","N.jpg","0","0","1","",""
"","feedback","","html-keyboard-response","499","506750","0.0-1.0-690.0-0.0","0","0","47035","","null","","","null","76","","","","","","","","","","","","","","","",""
"","ITI","","html-keyboard-response","500","507760","0.0-1.0-693.0","0","0","47035","","null","","","null","76","","","","","","","","","","","","","","","NaN",""
"","S1","","html-keyboard-response","501","508017","0.0-1.0-695.0","0","0","47035","","null","","","null","77","","","","","","","","","","","","","","","",""
"","ISI","","html-keyboard-response","502","509024","0.0-1.0-696.0","0","0","47035","","null","","","null","77","NaN","","","","","","","","","","","","","","",""
"","S2","","html-keyboard-response","503","509279","0.0-1.0-697.0","0","0","47035","","null","","","null","77","","NaN","","","","","","","","","","","","","",""
"","response","","html-keyboard-response","504","509972","0.0-1.0-698.0-0.0","0","0","47035","","692","","","68","77","","","2","77","training","adjacent","GF","7","6","L.jpg","R.jpg","0","0","1","",""
"","feedback","","html-keyboard-response","505","510982","0.0-1.0-699.0-0.0","0","0","47035","","null","","","null","77","","","","","","","","","","","","","","","",""
"","ITI","","html-keyboard-response","506","511992","0.0-1.0-702.0","0","0","47035","","null","","","null","77","","","","","","","","","","","","","","","NaN",""
"","S1","","html-keyboard-response","507","512248","0.0-1.0-704.0","0","0","47035","","null","","","null","78","","","","","","","","","","","","","","","",""
"","ISI","","html-keyboard-response","508","513255","0.0-1.0-705.0","0","0","47035","","null","","","null","78","NaN","","","","","","","","","","","","","","",""
"","S2","","html-keyboard-response","509","513512","0.0-1.0-706.0","0","0","47035","","null","","","null","78","","NaN","","","","","","","","","","","","","",""
"","response","","html-keyboard-response","510","514004","0.0-1.0-707.0-0.0","0","0","47035","","490","","","68","78","","","2","78","training","adjacent","FG","6","7","R.jpg","L.jpg","0","1","0","",""
"","feedback","","html-keyboard-response","511","515017","0.0-1.0-708.0-0.0","0","0","47035","","null","","","null","78","","","","","","","","","","","","","","","",""
"","time_out","","html-keyboard-response","512","517025","0.0-1.0-710.0-0.0","0","0","47035","","null","","","null","78","","","","","","","","","","","","","","","",""
"","ITI","","html-keyboard-response","513","518029","0.0-1.0-711.0","0","0","47035","","null","","","null","78","","","","","","","","","","","","","","","NaN",""
"","S1","","html-keyboard-response","514","518288","0.0-1.0-713.0","0","0","47035","","null","","","null","79","","","","","","","","","","","","","","","",""
"","ISI","","html-keyboard-response","515","519295","0.0-1.0-714.0","0","0","47035","","null","","","null","79","NaN","","","","","","","","","","","","","","",""
"","S2","","html-keyboard-response","516","519551","0.0-1.0-715.0","0","0","47035","","null","","","null","79","","NaN","","","","","","","","","","","","","",""
"","response","","html-keyboard-response","517","520123","0.0-1.0-716.0-0.0","0","0","47035","","570","","","68","79","","","2","79","training","adjacent","FE","6","5","R.jpg","P.jpg","0","0","1","",""
"","feedback","","html-keyboard-response","518","521135","0.0-1.0-717.0-0.0","0","0","47035","","null","","","null","79","","","","","","","","","","","","","","","",""
"","ITI","","html-keyboard-response","519","522142","0.0-1.0-720.0","0","0","47035","","null","","","null","79","","","","","","","","","","","","","","","NaN",""
"","S1","","html-keyboard-response","520","522399","0.0-1.0-722.0","0","0","47035","","null","","","null","80","","","","","","","","","","","","","","","",""
"","ISI","","html-keyboard-response","521","523405","0.0-1.0-723.0","0","0","47035","","null","","","null","80","NaN","","","","","","","","","","","","","","",""
"","S2","","html-keyboard-response","522","523664","0.0-1.0-724.0","0","0","47035","","null","","","null","80","","NaN","","","","","","","","","","","","","",""
"","response","","html-keyboard-response","523","524284","0.0-1.0-725.0-0.0","0","0","47035","","618","","","68","80","","","2","80","training","adjacent","DE","4","5","Q.jpg","P.jpg","0","1","0","",""
"","feedback","","html-keyboard-response","524","525297","0.0-1.0-726.0-0.0","0","0","47035","","null","","","null","80","","","","","","","","","","","","","","","",""
"","time_out","","html-keyboard-response","525","527305","0.0-1.0-728.0-0.0","0","0","47035","","null","","","null","80","","","","","","","","","","","","","","","",""
"","ITI","","html-keyboard-response","526","528310","0.0-1.0-729.0","0","0","47035","","null","","","null","80","","","","","","","","","","","","","","","NaN",""
"","S1","","html-keyboard-response","527","528565","0.0-1.0-731.0","0","0","47035","","null","","","null","81","","","","","","","","","","","","","","","",""
"","ISI","","html-keyboard-response","528","529576","0.0-1.0-732.0","0","0","47035","","null","","","null","81","NaN","","","","","","","","","","","","","","",""
"","S2","","html-keyboard-response","529","529839","0.0-1.0-733.0","0","0","47035","","null","","","null","81","","NaN","","","","","","","","","","","","","",""
"","response","","html-keyboard-response","530","530648","0.0-1.0-734.0-0.0","0","0","47035","","806","","","68","81","","","2","81","training","adjacent","EF","5","6","P.jpg","R.jpg","0","1","0","",""
"","feedback","","html-keyboard-response","531","531654","0.0-1.0-735.0-0.0","0","0","47035","","null","","","null","81","","","","","","","","","","","","","","","",""
"","time_out","","html-keyboard-response","532","533664","0.0-1.0-737.0-0.0","0","0","47035","","null","","","null","81","","","","","","","","","","","","","","","",""
"","ITI","","html-keyboard-response","533","534669","0.0-1.0-738.0","0","0","47035","","null","","","null","81","","","","","","","","","","","","","","","NaN",""
"","S1","","html-keyboard-response","534","534929","0.0-1.0-740.0","0","0","47035","","null","","","null","82","","","","","","","","","","","","","","","",""
"","ISI","","html-keyboard-response","535","535932","0.0-1.0-741.0","0","0","47035","","null","","","null","82","NaN","","","","","","","","","","","","","","",""
"","S2","","html-keyboard-response","536","536191","0.0-1.0-742.0","0","0","47035","","null","","","null","82","","NaN","","","","","","","","","","","","","",""
"","response","","html-keyboard-response","537","536767","0.0-1.0-743.0-0.0","0","0","47035","","574","","","68","82","","","2","82","training","adjacent","DC","4","3","Q.jpg","N.jpg","0","0","1","",""
"","feedback","","html-keyboard-response","538","537777","0.0-1.0-744.0-0.0","0","0","47035","","null","","","null","82","","","","","","","","","","","","","","","",""
"","ITI","","html-keyboard-response","539","538782","0.0-1.0-747.0","0","0","47035","","null","","","null","82","","","","","","","","","","","","","","","NaN",""
"","S1","","html-keyboard-response","540","539038","0.0-1.0-749.0","0","0","47035","","null","","","null","83","","","","","","","","","","","","","","","",""
"","ISI","","html-keyboard-response","541","540047","0.0-1.0-750.0","0","0","47035","","null","","","null","83","NaN","","","","","","","","","","","","","","",""
"","S2","","html-keyboard-response","542","540304","0.0-1.0-751.0","0","0","47035","","null","","","null","83","","NaN","","","","","","","","","","","","","",""
"","response","","html-keyboard-response","543","541515","0.0-1.0-752.0-0.0","0","0","47035","","1209","","","68","83","","","2","83","training","adjacent","CB","3","2","N.jpg","O.jpg","0","0","1","",""
"","feedback","","html-keyboard-response","544","542528","0.0-1.0-753.0-0.0","0","0","47035","","null","","","null","83","","","","","","","","","","","","","","","",""
"","ITI","","html-keyboard-response","545","543537","0.0-1.0-756.0","0","0","47035","","null","","","null","83","","","","","","","","","","","","","","","NaN",""
"","S1","","html-keyboard-response","546","543799","0.0-1.0-758.0","0","0","47035","","null","","","null","84","","","","","","","","","","","","","","","",""
"","ISI","","html-keyboard-response","547","544808","0.0-1.0-759.0","0","0","47035","","null","","","null","84","NaN","","","","","","","","","","","","","","",""
"","S2","","html-keyboard-response","548","545064","0.0-1.0-760.0","0","0","47035","","null","","","null","84","","NaN","","","","","","","","","","","","","",""
"","response","","html-keyboard-response","549","545816","0.0-1.0-761.0-0.0","0","0","47035","","751","","","68","84","","","2","84","training","adjacent","FG","6","7","R.jpg","L.jpg","0","1","0","",""
"","feedback","","html-keyboard-response","550","546822","0.0-1.0-762.0-0.0","0","0","47035","","null","","","null","84","","","","","","","","","","","","","","","",""
"","time_out","","html-keyboard-response","551","548831","0.0-1.0-764.0-0.0","0","0","47035","","null","","","null","84","","","","","","","","","","","","","","","",""
"","ITI","","html-keyboard-response","552","549839","0.0-1.0-765.0","0","0","47035","","null","","","null","84","","","","","","","","","","","","","","","NaN",""
"","S1","","html-keyboard-response","553","550097","0.0-1.0-767.0","0","0","47035","","null","","","null","85","","","","","","","","","","","","","","","",""
"","ISI","","html-keyboard-response","554","551101","0.0-1.0-768.0","0","0","47035","","null","","","null","85","NaN","","","","","","","","","","","","","","",""
"","S2","","html-keyboard-response","555","551357","0.0-1.0-769.0","0","0","47035","","null","","","null","85","","NaN","","","","","","","","","","","","","",""
"","response","","html-keyboard-response","556","551772","0.0-1.0-770.0-0.0","0","0","47035","","413","","","68","85","","","2","85","training","adjacent","AB","1","2","M.jpg","O.jpg","0","1","0","",""
"","feedback","","html-keyboard-response","557","552783","0.0-1.0-771.0-0.0","0","0","47035","","null","","","null","85","","","","","","","","","","","","","","","",""
"","time_out","","html-keyboard-response","558","554792","0.0-1.0-773.0-0.0","0","0","47035","","null","","","null","85","","","","","","","","","","","","","","","",""
"","ITI","","html-keyboard-response","559","555799","0.0-1.0-774.0","0","0","47035","","null","","","null","85","","","","","","","","","","","","","","","NaN",""
"","S1","","html-keyboard-response","560","556054","0.0-1.0-776.0","0","0","47035","","null","","","null","86","","","","","","","","","","","","","","","",""
"","ISI","","html-keyboard-response","561","557063","0.0-1.0-777.0","0","0","47035","","null","","","null","86","NaN","","","","","","","","","","","","","","",""
"","S2","","html-keyboard-response","562","557320","0.0-1.0-778.0","0","0","47035","","null","","","null","86","","NaN","","","","","","","","","","","","","",""
"","response","","html-keyboard-response","563","557839","0.0-1.0-779.0-0.0","0","0","47035","","518","","","68","86","","","2","86","training","adjacent","CD","3","4","N.jpg","Q.jpg","0","1","0","",""
"","feedback","","html-keyboard-response","564","558847","0.0-1.0-780.0-0.0","0","0","47035","","null","","","null","86","","","","","","","","","","","","","","","",""
"","time_out","","html-keyboard-response","565","560855","0.0-1.0-782.0-0.0","0","0","47035","","null","","","null","86","","","","","","","","","","","","","","","",""
"","ITI","","html-keyboard-response","566","561866","0.0-1.0-783.0","0","0","47035","","null","","","null","86","","","","","","","","","","","","","","","NaN",""
"","S1","","html-keyboard-response","567","562129","0.0-1.0-785.0","0","0","47035","","null","","","null","87","","","","","","","","","","","","","","","",""
"","ISI","","html-keyboard-response","568","563135","0.0-1.0-786.0","0","0","47035","","null","","","null","87","NaN","","","","","","","","","","","","","","",""
"","S2","","html-keyboard-response","569","563390","0.0-1.0-787.0","0","0","47035","","null","","","null","87","","NaN","","","","","","","","","","","","","",""
"","response","","html-keyboard-response","570","563804","0.0-1.0-788.0-0.0","0","0","47035","","412","","","68","87","","","2","87","training","adjacent","ED","5","4","P.jpg","Q.jpg","0","0","1","",""
"","feedback","","html-keyboard-response","571","564813","0.0-1.0-789.0-0.0","0","0","47035","","null","","","null","87","","","","","","","","","","","","","","","",""
"","ITI","","html-keyboard-response","572","565822","0.0-1.0-792.0","0","0","47035","","null","","","null","87","","","","","","","","","","","","","","","NaN",""
"","S1","","html-keyboard-response","573","566080","0.0-1.0-794.0","0","0","47035","","null","","","null","88","","","","","","","","","","","","","","","",""
"","ISI","","html-keyboard-response","574","567087","0.0-1.0-795.0","0","0","47035","","null","","","null","88","NaN","","","","","","","","","","","","","","",""
"","S2","","html-keyboard-response","575","567343","0.0-1.0-796.0","0","0","47035","","null","","","null","88","","NaN","","","","","","","","","","","","","",""
"","response","","html-keyboard-response","576","567987","0.0-1.0-797.0-0.0","0","0","47035","","641","","","68","88","","","2","88","training","adjacent","FE","6","5","R.jpg","P.jpg","0","0","1","",""
"","feedback","","html-keyboard-response","577","568997","0.0-1.0-798.0-0.0","0","0","47035","","null","","","null","88","","","","","","","","","","","","","","","",""
"","ITI","","html-keyboard-response","578","570008","0.0-1.0-801.0","0","0","47035","","null","","","null","88","","","","","","","","","","","","","","","NaN",""
"","S1","","html-keyboard-response","579","570263","0.0-1.0-803.0","0","0","47035","","null","","","null","89","","","","","","","","","","","","","","","",""
"","ISI","","html-keyboard-response","580","571269","0.0-1.0-804.0","0","0","47035","","null","","","null","89","NaN","","","","","","","","","","","","","","",""
"","S2","","html-keyboard-response","581","571528","0.0-1.0-805.0","0","0","47035","","null","","","null","89","","NaN","","","","","","","","","","","","","",""
"","response","","html-keyboard-response","582","571722","0.0-1.0-806.0-0.0","0","0","47035","","191","","","68","89","","","2","89","training","adjacent","BC","2","3","O.jpg","N.jpg","0","1","0","",""
