"success","ttype","start_time","trial_type","trial_index","time_elapsed","internal_node_id","warning","missed_checkup","PID","view_history","rt","responses","repeat_instructions","key_press","index","keypress_isi","keypress_S2","block","trial_num","phase","group_type","pair_type","S1_stim","S2_stim","S1_img","S2_img","S1_chosen","S1_higher","accuracy","keypress_iti","total_bonus_tally"
"true","full_screen","d08012022hr1418","fullscreen","0","9490","0.0-0.0","0","0","90622","","","","","","","","","","","","","","","","","","","","","",""
"","instructions","","instructions","1","60655","0.0-1.0-0.0-0.0","0","0","90622","[{""page_index"":0,""viewing_time"":2827},{""page_index"":1,""viewing_time"":44064},{""page_index"":2,""viewing_time"":3467},{""page_index"":3,""viewing_time"":805}]","51163","","","","","","","","","","","","","","","","","","","",""
"","comprehension_check","","survey-multi-choice","2","94729","0.0-1.0-0.0-1.0","0","0","90622","","34070","{""Q0"":""True"",""Q1"":""D"",""Q2"":""When you see the prompt 'MAKE A CHOICE' after the second image was presented"",""Q3"":""Green mark"",""Q4"":""either D or K""}","0","","","","","","","","","","","","","","","","","",""
"","start_exp","","html-keyboard-response","3","99748","0.0-1.0-1.0","0","0","90622","","5017","","","32","","","","","","","","","","","","","","","","",""
"","S1","","html-keyboard-response","4","100002","0.0-1.0-2.0","0","0","90622","","null","","","null","0","","","","","","","","","","","","","","","",""
"","ISI","","html-keyboard-response","5","102014","0.0-1.0-3.0","0","0","90622","","null","","","null","0","NaN","","","","","","","","","","","","","","",""
"","S2","","html-keyboard-response","6","102266","0.0-1.0-4.0","0","0","90622","","null","","","null","0","","NaN","","","","","","","","","","","","","",""
"","response","","html-keyboard-response","7","102800","0.0-1.0-5.0","0","0","90622","","533","","","68","0","","","1","0","training","adjacent","DE","4","5","L.jpg","R.jpg","1","1","1","",""
"","feedback","","html-keyboard-response","8","103806","0.0-1.0-6.0-0.0","0","0","90622","","null","","","null","0","","","","","","","","","","","","","","","",""
"","ITI","","html-keyboard-response","9","104813","0.0-1.0-9.0","0","0","90622","","null","","","null","0","","","","","","","","","","","","","","","NaN",""
"","S1","","html-keyboard-response","10","105065","0.0-1.0-11.0","0","0","90622","","null","","","null","1","","","","","","","","","","","","","","","",""
"","ISI","","html-keyboard-response","11","107075","0.0-1.0-12.0","0","0","90622","","null","","","null","1","NaN","","","","","","","","","","","","","","",""
"","S2","","html-keyboard-response","12","107327","0.0-1.0-13.0","0","0","90622","","null","","","null","1","","NaN","","","","","","","","","","","","","",""
"","response","","html-keyboard-response","13","107972","0.0-1.0-14.0","0","0","90622","","643","","","75","1","","","1","1","training","adjacent","CD","3","4","N.jpg","L.jpg","0","1","0","",""
"","feedback","","html-keyboard-response","14","108978","0.0-1.0-15.0-0.0","0","0","90622","","null","","","null","1","","","","","","","","","","","","","","","",""
"","time_out","","html-keyboard-response","15","110992","0.0-1.0-17.0-0.0","0","0","90622","","null","","","null","1","","","","","","","","","","","","","","","",""
"","ITI","","html-keyboard-response","16","111999","0.0-1.0-18.0","0","0","90622","","null","","","null","1","","","","","","","","","","","","","","","NaN",""
"","S1","","html-keyboard-response","17","112251","0.0-1.0-20.0","0","0","90622","","null","","","null","2","","","","","","","","","","","","","","","",""
"","ISI","","html-keyboard-response","18","114264","0.0-1.0-21.0","0","0","90622","","null","","","null","2","NaN","","","","","","","","","","","","","","",""
"","S2","","html-keyboard-response","19","114531","0.0-1.0-22.0","0","0","90622","","null","","","null","2","","NaN","","","","","","","","","","","","","",""
"","response","","html-keyboard-response","20","115943","0.0-1.0-23.0","0","0","90622","","1411","","","68","2","","","1","2","training","adjacent","CB","3","2","N.jpg","M.jpg","1","0","0","",""
"","feedback","","html-keyboard-response","21","116952","0.0-1.0-24.0-0.0","0","0","90622","","null","","","null","2","","","","","","","","","","","","","","","",""
"","time_out","","html-keyboard-response","22","118968","0.0-1.0-26.0-0.0","0","0","90622","","null","","","null","2","","","","","","","","","","","","","","","",""
"","ITI","","html-keyboard-response","23","119976","0.0-1.0-27.0","0","0","90622","","null","","","null","2","","","","","","","","","","","","","","","NaN",""
"","S1","","html-keyboard-response","24","120228","0.0-1.0-29.0","0","0","90622","","null","","","null","3","","","","","","","","","","","","","","","",""
"","ISI","","html-keyboard-response","25","122241","0.0-1.0-30.0","0","0","90622","","null","","","null","3","NaN","","","","","","","","","","","","","","",""
"","S2","","html-keyboard-response","26","122492","0.0-1.0-31.0","0","0","90622","","null","","","null","3","","NaN","","","","","","","","","","","","","",""
"","response","","html-keyboard-response","27","123026","0.0-1.0-32.0","0","0","90622","","532","","","75","3","","","1","3","training","adjacent","EF","5","6","R.jpg","O.jpg","0","1","0","",""
"","feedback","","html-keyboard-response","28","124033","0.0-1.0-33.0-0.0","0","0","90622","","null","","","null","3","","","","","","","","","","","","","","","",""
"","time_out","","html-keyboard-response","29","126044","0.0-1.0-35.0-0.0","0","0","90622","","null","","","null","3","","","","","","","","","","","","","","","",""
"","ITI","","html-keyboard-response","30","127051","0.0-1.0-36.0","0","0","90622","","null","","","null","3","","","","","","","","","","","","","","","NaN",""
"","S1","","html-keyboard-response","31","127317","0.0-1.0-38.0","0","0","90622","","null","","","null","4","","","","","","","","","","","","","","","",""
"","ISI","","html-keyboard-response","32","129332","0.0-1.0-39.0","0","0","90622","","null","","","null","4","NaN","","","","","","","","","","","","","","",""
"","S2","","html-keyboard-response","33","129598","0.0-1.0-40.0","0","0","90622","","null","","","null","4","","NaN","","","","","","","","","","","","","",""
"","response","","html-keyboard-response","34","130802","0.0-1.0-41.0","0","0","90622","","1202","","","75","4","","","1","4","training","adjacent","ED","5","4","R.jpg","L.jpg","0","0","1","",""
"","feedback","","html-keyboard-response","35","131816","0.0-1.0-42.0-0.0","0","0","90622","","null","","","null","4","","","","","","","","","","","","","","","",""
"","ITI","","html-keyboard-response","36","132826","0.0-1.0-45.0","0","0","90622","","null","","","null","4","","","","","","","","","","","","","","","NaN",""
"","S1","","html-keyboard-response","37","133091","0.0-1.0-47.0","0","0","90622","","null","","","null","5","","","","","","","","","","","","","","","",""
"","ISI","","html-keyboard-response","38","135105","0.0-1.0-48.0","0","0","90622","","null","","","null","5","NaN","","","","","","","","","","","","","","",""
"","S2","","html-keyboard-response","39","135357","0.0-1.0-49.0","0","0","90622","","null","","","null","5","","NaN","","","","","","","","","","","","","",""
"","response","","html-keyboard-response","40","136082","0.0-1.0-50.0","0","0","90622","","723","","","68","5","","","1","5","training","adjacent","GF","7","6","Q.jpg","O.jpg","1","0","0","",""
"","feedback","","html-keyboard-response","41","137088","0.0-1.0-51.0-0.0","0","0","90622","","null","","","null","5","","","","","","","","","","","","","","","",""
"","time_out","","html-keyboard-response","42","139102","0.0-1.0-53.0-0.0","0","0","90622","","null","","","null","5","","","","","","","","","","","","","","","",""
"","ITI","","html-keyboard-response","43","140110","0.0-1.0-54.0","0","0","90622","","null","","","null","5","","","","","","","","","","","","","","","NaN",""
"","S1","","html-keyboard-response","44","140376","0.0-1.0-56.0","0","0","90622","","null","","","null","6","","","","","","","","","","","","","","","",""
"","ISI","","html-keyboard-response","45","142391","0.0-1.0-57.0","0","0","90622","","null","","","null","6","NaN","","","","","","","","","","","","","","",""
"","S2","","html-keyboard-response","46","142659","0.0-1.0-58.0","0","0","90622","","null","","","null","6","","NaN","","","","","","","","","","","","","",""
"","response","","html-keyboard-response","47","143600","0.0-1.0-59.0","0","0","90622","","940","","","75","6","","","1","6","training","adjacent","FG","6","7","O.jpg","Q.jpg","0","1","0","",""
"","feedback","","html-keyboard-response","48","144609","0.0-1.0-60.0-0.0","0","0","90622","","null","","","null","6","","","","","","","","","","","","","","","",""
"","time_out","","html-keyboard-response","49","146624","0.0-1.0-62.0-0.0","0","0","90622","","null","","","null","6","","","","","","","","","","","","","","","",""
"","ITI","","html-keyboard-response","50","147633","0.0-1.0-63.0","0","0","90622","","null","","","null","6","","","","","","","","","","","","","","","NaN",""
"","S1","","html-keyboard-response","51","147885","0.0-1.0-65.0","0","0","90622","","null","","","null","7","","","","","","","","","","","","","","","",""
"","ISI","","html-keyboard-response","52","149899","0.0-1.0-66.0","0","0","90622","","null","","","null","7","NaN","","","","","","","","","","","","","","",""
"","S2","","html-keyboard-response","53","150166","0.0-1.0-67.0","0","0","90622","","null","","","null","7","","NaN","","","","","","","","","","","","","",""
"","response","","html-keyboard-response","54","150884","0.0-1.0-68.0","0","0","90622","","717","","","68","7","","","1","7","training","adjacent","CB","3","2","N.jpg","M.jpg","1","0","0","",""
"","feedback","","html-keyboard-response","55","151896","0.0-1.0-69.0-0.0","0","0","90622","","null","","","null","7","","","","","","","","","","","","","","","",""
"","time_out","","html-keyboard-response","56","153911","0.0-1.0-71.0-0.0","0","0","90622","","null","","","null","7","","","","","","","","","","","","","","","",""
"","ITI","","html-keyboard-response","57","154918","0.0-1.0-72.0","0","0","90622","","null","","","null","7","","","","","","","","","","","","","","","NaN",""
"","S1","","html-keyboard-response","58","155184","0.0-1.0-74.0","0","0","90622","","null","","","null","8","","","","","","","","","","","","","","","",""
"","ISI","","html-keyboard-response","59","157198","0.0-1.0-75.0","0","0","90622","","null","","","null","8","NaN","","","","","","","","","","","","","","",""
"","S2","","html-keyboard-response","60","157451","0.0-1.0-76.0","0","0","90622","","null","","","null","8","","NaN","","","","","","","","","","","","","",""
"","response","","html-keyboard-response","61","157979","0.0-1.0-77.0","0","0","90622","","526","","","75","8","","","1","8","training","adjacent","ED","5","4","R.jpg","L.jpg","0","0","1","",""
"","feedback","","html-keyboard-response","62","158993","0.0-1.0-78.0-0.0","0","0","90622","","null","","","null","8","","","","","","","","","","","","","","","",""
"","ITI","","html-keyboard-response","63","159999","0.0-1.0-81.0","0","0","90622","","null","","","null","8","","","","","","","","","","","","","","","NaN",""
"","S1","","html-keyboard-response","64","160267","0.0-1.0-83.0","0","0","90622","","null","","","null","9","","","","","","","","","","","","","","","",""
"","ISI","","html-keyboard-response","65","162279","0.0-1.0-84.0","0","0","90622","","null","","","null","9","NaN","","","","","","","","","","","","","","",""
"","S2","","html-keyboard-response","66","162531","0.0-1.0-85.0","0","0","90622","","null","","","null","9","","NaN","","","","","","","","","","","","","",""
"","response","","html-keyboard-response","67","164044","0.0-1.0-86.0","0","0","90622","","1512","","","75","9","","","1","9","training","adjacent","BC","2","3","M.jpg","N.jpg","0","1","0","",""
"","feedback","","html-keyboard-response","68","165050","0.0-1.0-87.0-0.0","0","0","90622","","null","","","null","9","","","","","","","","","","","","","","","",""
"","time_out","","html-keyboard-response","69","167063","0.0-1.0-89.0-0.0","0","0","90622","","null","","","null","9","","","","","","","","","","","","","","","",""
"","ITI","","html-keyboard-response","70","168071","0.0-1.0-90.0","0","0","90622","","null","","","null","9","","","","","","","","","","","","","","","NaN",""
"","S1","","html-keyboard-response","71","168338","0.0-1.0-92.0","0","0","90622","","null","","","null","10","","","","","","","","","","","","","","","",""
"","ISI","","html-keyboard-response","72","170352","0.0-1.0-93.0","0","0","90622","","null","","","null","10","NaN","","","","","","","","","","","","","","",""
"","S2","","html-keyboard-response","73","170604","0.0-1.0-94.0","0","0","90622","","null","","","null","10","","NaN","","","","","","","","","","","","","",""
"","response","","html-keyboard-response","74","171296","0.0-1.0-95.0","0","0","90622","","692","","","68","10","","","1","10","training","adjacent","AB","1","2","P.jpg","M.jpg","1","1","1","",""
"","feedback","","html-keyboard-response","75","172305","0.0-1.0-96.0-0.0","0","0","90622","","null","","","null","10","","","","","","","","","","","","","","","",""
"","ITI","","html-keyboard-response","76","173314","0.0-1.0-99.0","0","0","90622","","null","","","null","10","","","","","","","","","","","","","","","NaN",""
"","S1","","html-keyboard-response","77","173581","0.0-1.0-101.0","0","0","90622","","null","","","null","11","","","","","","","","","","","","","","","",""
"","ISI","","html-keyboard-response","78","175596","0.0-1.0-102.0","0","0","90622","","null","","","null","11","NaN","","","","","","","","","","","","","","",""
"","S2","","html-keyboard-response","79","175862","0.0-1.0-103.0","0","0","90622","","null","","","null","11","","NaN","","","","","","","","","","","","","",""
"","response","","html-keyboard-response","80","176236","0.0-1.0-104.0","0","0","90622","","373","","","68","11","","","1","11","training","adjacent","EF","5","6","R.jpg","O.jpg","1","1","1","",""
"","feedback","","html-keyboard-response","81","177246","0.0-1.0-105.0-0.0","0","0","90622","","null","","","null","11","","","","","","","","","","","","","","","",""
"","ITI","","html-keyboard-response","82","178254","0.0-1.0-108.0","0","0","90622","","null","","","null","11","","","","","","","","","","","","","","","NaN",""
"","S1","","html-keyboard-response","83","178506","0.0-1.0-110.0","0","0","90622","","null","","","null","12","","","","","","","","","","","","","","","",""
"","ISI","","html-keyboard-response","84","180521","0.0-1.0-111.0","0","0","90622","","null","","","null","12","NaN","","","","","","","","","","","","","","",""
"","S2","","html-keyboard-response","85","180788","0.0-1.0-112.0","0","0","90622","","null","","","null","12","","NaN","","","","","","","","","","","","","",""
"","response","","html-keyboard-response","86","182157","0.0-1.0-113.0","0","0","90622","","1367","","","75","12","","","1","12","training","adjacent","GF","7","6","Q.jpg","O.jpg","0","0","1","",""
"","feedback","","html-keyboard-response","87","183165","0.0-1.0-114.0-0.0","0","0","90622","","null","","","null","12","","","","","","","","","","","","","","","",""
"","ITI","","html-keyboard-response","88","184173","0.0-1.0-117.0","0","0","90622","","null","","","null","12","","","","","","","","","","","","","","","NaN",""
"","S1","","html-keyboard-response","89","184424","0.0-1.0-119.0","0","0","90622","","null","","","null","13","","","","","","","","","","","","","","","",""
"","ISI","","html-keyboard-response","90","186437","0.0-1.0-120.0","0","0","90622","","null","","","null","13","NaN","","","","","","","","","","","","","","",""
"","S2","","html-keyboard-response","91","186703","0.0-1.0-121.0","0","0","90622","","null","","","null","13","","NaN","","","","","","","","","","","","","",""
"","response","","html-keyboard-response","92","188111","0.0-1.0-122.0","0","0","90622","","1408","","","68","13","","","1","13","training","adjacent","FE","6","5","O.jpg","R.jpg","1","0","0","",""
"","feedback","","html-keyboard-response","93","189113","0.0-1.0-123.0-0.0","0","0","90622","","null","","","null","13","","","","","","","","","","","","","","","",""
"","time_out","","html-keyboard-response","94","191126","0.0-1.0-125.0-0.0","0","0","90622","","null","","","null","13","","","","","","","","","","","","","","","",""
"","ITI","","html-keyboard-response","95","192133","0.0-1.0-126.0","0","0","90622","","null","","","null","13","","","","","","","","","","","","","","","NaN",""
"","S1","","html-keyboard-response","96","192385","0.0-1.0-128.0","0","0","90622","","null","","","null","14","","","","","","","","","","","","","","","",""
"","ISI","","html-keyboard-response","97","194397","0.0-1.0-129.0","0","0","90622","","null","","","null","14","NaN","","","","","","","","","","","","","","",""
"","S2","","html-keyboard-response","98","194649","0.0-1.0-130.0","0","0","90622","","null","","","null","14","","NaN","","","","","","","","","","","","","",""
"","response","","html-keyboard-response","99","195630","0.0-1.0-131.0","0","0","90622","","979","","","75","14","","","1","14","training","adjacent","BA","2","1","M.jpg","P.jpg","0","0","1","",""
"","feedback","","html-keyboard-response","100","196645","0.0-1.0-132.0-0.0","0","0","90622","","null","","","null","14","","","","","","","","","","","","","","","",""
"","ITI","","html-keyboard-response","101","197653","0.0-1.0-135.0","0","0","90622","","null","","","null","14","","","","","","","","","","","","","","","NaN",""
"","S1","","html-keyboard-response","102","197905","0.0-1.0-137.0","0","0","90622","","null","","","null","15","","","","","","","","","","","","","","","",""
"","ISI","","html-keyboard-response","103","199919","0.0-1.0-138.0","0","0","90622","","null","","","null","15","NaN","","","","","","","","","","","","","","",""
"","S2","","html-keyboard-response","104","200171","0.0-1.0-139.0","0","0","90622","","null","","","null","15","","NaN","","","","","","","","","","","","","",""
"","response","","html-keyboard-response","105","200862","0.0-1.0-140.0","0","0","90622","","690","","","75","15","","","1","15","training","adjacent","AB","1","2","P.jpg","M.jpg","0","1","0","",""
"","feedback","","html-keyboard-response","106","201872","0.0-1.0-141.0-0.0","0","0","90622","","null","","","null","15","","","","","","","","","","","","","","","",""
"","time_out","","html-keyboard-response","107","203887","0.0-1.0-143.0-0.0","0","0","90622","","null","","","null","15","","","","","","","","","","","","","","","",""
"","ITI","","html-keyboard-response","108","204893","0.0-1.0-144.0","0","0","90622","","null","","","null","15","","","","","","","","","","","","","","","NaN",""
"","S1","","html-keyboard-response","109","205145","0.0-1.0-146.0","0","0","90622","","null","","","null","16","","","","","","","","","","","","","","","",""
"","ISI","","html-keyboard-response","110","207160","0.0-1.0-147.0","0","0","90622","","null","","","null","16","NaN","","","","","","","","","","","","","","",""
"","S2","","html-keyboard-response","111","207412","0.0-1.0-148.0","0","0","90622","","null","","","null","16","","NaN","","","","","","","","","","","","","",""
"","response","","html-keyboard-response","112","209271","0.0-1.0-149.0","0","0","90622","","1858","","","68","16","","","1","16","training","adjacent","FE","6","5","O.jpg","R.jpg","1","0","0","",""
"","feedback","","html-keyboard-response","113","210276","0.0-1.0-150.0-0.0","0","0","90622","","null","","","null","16","","","","","","","","","","","","","","","",""
"","time_out","","html-keyboard-response","114","212289","0.0-1.0-152.0-0.0","0","0","90622","","null","","","null","16","","","","","","","","","","","","","","","",""
"","ITI","","html-keyboard-response","115","213296","0.0-1.0-153.0","0","0","90622","","null","","","null","16","","","","","","","","","","","","","","","NaN",""
"","S1","","html-keyboard-response","116","213563","0.0-1.0-155.0","0","0","90622","","null","","","null","17","","","","","","","","","","","","","","","",""
"","ISI","","html-keyboard-response","117","215577","0.0-1.0-156.0","0","0","90622","","null","","","null","17","NaN","","","","","","","","","","","","","","",""
"","S2","","html-keyboard-response","118","215828","0.0-1.0-157.0","0","0","90622","","null","","","null","17","","NaN","","","","","","","","","","","","","",""
"","response","","html-keyboard-response","119","217537","0.0-1.0-158.0","0","0","90622","","1708","","","68","17","","","1","17","training","adjacent","DE","4","5","L.jpg","R.jpg","1","1","1","",""
"","feedback","","html-keyboard-response","120","218550","0.0-1.0-159.0-0.0","0","0","90622","","null","","","null","17","","","","","","","","","","","","","","","",""
"","ITI","","html-keyboard-response","121","219559","0.0-1.0-162.0","0","0","90622","","null","","","null","17","","","","","","","","","","","","","","","NaN",""
"","S1","","html-keyboard-response","122","219825","0.0-1.0-164.0","0","0","90622","","null","","","null","18","","","","","","","","","","","","","","","",""
"","ISI","","html-keyboard-response","123","221839","0.0-1.0-165.0","0","0","90622","","null","","","null","18","NaN","","","","","","","","","","","","","","",""
"","S2","","html-keyboard-response","124","222091","0.0-1.0-166.0","0","0","90622","","null","","","null","18","","NaN","","","","","","","","","","","","","",""
"","response","","html-keyboard-response","125","222781","0.0-1.0-167.0","0","0","90622","","689","","","68","18","","","1","18","training","adjacent","AB","1","2","P.jpg","M.jpg","1","1","1","",""
"","feedback","","html-keyboard-response","126","223790","0.0-1.0-168.0-0.0","0","0","90622","","null","","","null","18","","","","","","","","","","","","","","","",""
"","ITI","","html-keyboard-response","127","224797","0.0-1.0-171.0","0","0","90622","","null","","","null","18","","","","","","","","","","","","","","","NaN",""
"","S1","","html-keyboard-response","128","225064","0.0-1.0-173.0","0","0","90622","","null","","","null","19","","","","","","","","","","","","","","","",""
"","ISI","","html-keyboard-response","129","227079","0.0-1.0-174.0","0","0","90622","","null","","","null","19","NaN","","","","","","","","","","","","","","",""
"","S2","","html-keyboard-response","130","227332","0.0-1.0-175.0","0","0","90622","","null","","","null","19","","NaN","","","","","","","","","","","","","",""
"","response","","html-keyboard-response","131","228557","0.0-1.0-176.0","0","0","90622","","1224","","","75","19","","","1","19","training","adjacent","DC","4","3","L.jpg","N.jpg","0","0","1","",""
"","feedback","","html-keyboard-response","132","229565","0.0-1.0-177.0-0.0","0","0","90622","","null","","","null","19","","","","","","","","","","","","","","","",""
"","ITI","","html-keyboard-response","133","230571","0.0-1.0-180.0","0","0","90622","","null","","","null","19","","","","","","","","","","","","","","","NaN",""
"","S1","","html-keyboard-response","134","230823","0.0-1.0-182.0","0","0","90622","","null","","","null","20","","","","","","","","","","","","","","","",""
"","ISI","","html-keyboard-response","135","232837","0.0-1.0-183.0","0","0","90622","","null","","","null","20","NaN","","","","","","","","","","","","","","",""
"","S2","","html-keyboard-response","136","233104","0.0-1.0-184.0","0","0","90622","","null","","","null","20","","NaN","","","","","","","","","","","","","",""
"","response","","html-keyboard-response","137","234136","0.0-1.0-185.0","0","0","90622","","1031","","","75","20","","","1","20","training","adjacent","BA","2","1","M.jpg","P.jpg","0","0","1","",""
"","feedback","","html-keyboard-response","138","235149","0.0-1.0-186.0-0.0","0","0","90622","","null","","","null","20","","","","","","","","","","","","","","","",""
"","ITI","","html-keyboard-response","139","236156","0.0-1.0-189.0","0","0","90622","","null","","","null","20","","","","","","","","","","","","","","","NaN",""
"","S1","","html-keyboard-response","140","236423","0.0-1.0-191.0","0","0","90622","","null","","","null","21","","","","","","","","","","","","","","","",""
"","ISI","","html-keyboard-response","141","238437","0.0-1.0-192.0","0","0","90622","","null","","","null","21","NaN","","","","","","","","","","","","","","",""
"","S2","","html-keyboard-response","142","238704","0.0-1.0-193.0","0","0","90622","","null","","","null","21","","NaN","","","","","","","","","","","","","",""
"","response","","html-keyboard-response","143","239763","0.0-1.0-194.0","0","0","90622","","1058","","","75","21","","","1","21","training","adjacent","FG","6","7","O.jpg","Q.jpg","0","1","0","",""
"","feedback","","html-keyboard-response","144","240767","0.0-1.0-195.0-0.0","0","0","90622","","null","","","null","21","","","","","","","","","","","","","","","",""
"","time_out","","html-keyboard-response","145","242781","0.0-1.0-197.0-0.0","0","0","90622","","null","","","null","21","","","","","","","","","","","","","","","",""
"","ITI","","html-keyboard-response","146","243788","0.0-1.0-198.0","0","0","90622","","null","","","null","21","","","","","","","","","","","","","","","NaN",""
"","S1","","html-keyboard-response","147","244054","0.0-1.0-200.0","0","0","90622","","null","","","null","22","","","","","","","","","","","","","","","",""
"","ISI","","html-keyboard-response","148","246069","0.0-1.0-201.0","0","0","90622","","null","","","null","22","NaN","","","","","","","","","","","","","","",""
"","S2","","html-keyboard-response","149","246336","0.0-1.0-202.0","0","0","90622","","null","","","null","22","","NaN","","","","","","","","","","","","","",""
"","response","","html-keyboard-response","150","246827","0.0-1.0-203.0","0","0","90622","","489","","","68","22","","","1","22","training","adjacent","AB","1","2","P.jpg","M.jpg","1","1","1","",""
"","feedback","","html-keyboard-response","151","247829","0.0-1.0-204.0-0.0","0","0","90622","","null","","","null","22","","","","","","","","","","","","","","","",""
"","ITI","","html-keyboard-response","152","248836","0.0-1.0-207.0","0","0","90622","","null","","","null","22","","","","","","","","","","","","","","","NaN",""
"","S1","","html-keyboard-response","153","249089","0.0-1.0-209.0","0","0","90622","","null","","","null","23","","","","","","","","","","","","","","","",""
"","ISI","","html-keyboard-response","154","251102","0.0-1.0-210.0","0","0","90622","","null","","","null","23","NaN","","","","","","","","","","","","","","",""
"","S2","","html-keyboard-response","155","251353","0.0-1.0-211.0","0","0","90622","","null","","","null","23","","NaN","","","","","","","","","","","","","",""
"","response","","html-keyboard-response","156","252799","0.0-1.0-212.0","0","0","90622","","1443","","","75","23","","","1","23","training","adjacent","BC","2","3","M.jpg","N.jpg","0","1","0","",""
"","feedback","","html-keyboard-response","157","253811","0.0-1.0-213.0-0.0","0","0","90622","","null","","","null","23","","","","","","","","","","","","","","","",""
"","time_out","","html-keyboard-response","158","255827","0.0-1.0-215.0-0.0","0","0","90622","","null","","","null","23","","","","","","","","","","","","","","","",""
"","ITI","","html-keyboard-response","159","256832","0.0-1.0-216.0","0","0","90622","","null","","","null","23","","","","","","","","","","","","","","","NaN",""
"","S1","","html-keyboard-response","160","257100","0.0-1.0-218.0","0","0","90622","","null","","","null","24","","","","","","","","","","","","","","","",""
"","ISI","","html-keyboard-response","161","259113","0.0-1.0-219.0","0","0","90622","","null","","","null","24","NaN","","","","","","","","","","","","","","",""
"","S2","","html-keyboard-response","162","259380","0.0-1.0-220.0","0","0","90622","","null","","","null","24","","NaN","","","","","","","","","","","","","",""
"","response","","html-keyboard-response","163","260557","0.0-1.0-221.0","0","0","90622","","1176","","","68","24","","","1","24","training","adjacent","DE","4","5","L.jpg","R.jpg","1","1","1","",""
"","feedback","","html-keyboard-response","164","261568","0.0-1.0-222.0-0.0","0","0","90622","","null","","","null","24","","","","","","","","","","","","","","","",""
"","ITI","","html-keyboard-response","165","262574","0.0-1.0-225.0","0","0","90622","","null","","","null","24","","","","","","","","","","","","","","","NaN",""
"","S1","","html-keyboard-response","166","262841","0.0-1.0-227.0","0","0","90622","","null","","","null","25","","","","","","","","","","","","","","","",""
"","ISI","","html-keyboard-response","167","264855","0.0-1.0-228.0","0","0","90622","","null","","","null","25","NaN","","","","","","","","","","","","","","",""
"","S2","","html-keyboard-response","168","265122","0.0-1.0-229.0","0","0","90622","","null","","","null","25","","NaN","","","","","","","","","","","","","",""
"","response","","html-keyboard-response","169","266308","0.0-1.0-230.0","0","0","90622","","1185","","","75","25","","","1","25","training","adjacent","CB","3","2","N.jpg","M.jpg","0","0","1","",""
"","feedback","","html-keyboard-response","170","267322","0.0-1.0-231.0-0.0","0","0","90622","","null","","","null","25","","","","","","","","","","","","","","","",""
"","ITI","","html-keyboard-response","171","268331","0.0-1.0-234.0","0","0","90622","","null","","","null","25","","","","","","","","","","","","","","","NaN",""
"","S1","","html-keyboard-response","172","268598","0.0-1.0-236.0","0","0","90622","","null","","","null","26","","","","","","","","","","","","","","","",""
"","ISI","","html-keyboard-response","173","270611","0.0-1.0-237.0","0","0","90622","","null","","","null","26","NaN","","","","","","","","","","","","","","",""
"","S2","","html-keyboard-response","174","270864","0.0-1.0-238.0","0","0","90622","","null","","","null","26","","NaN","","","","","","","","","","","","","",""
"","response","","html-keyboard-response","175","272262","0.0-1.0-239.0","0","0","90622","","1397","","","75","26","","","1","26","training","adjacent","ED","5","4","R.jpg","L.jpg","0","0","1","",""
"","feedback","","html-keyboard-response","176","273272","0.0-1.0-240.0-0.0","0","0","90622","","null","","","null","26","","","","","","","","","","","","","","","",""
"","ITI","","html-keyboard-response","177","274280","0.0-1.0-243.0","0","0","90622","","null","","","null","26","","","","","","","","","","","","","","","NaN",""
"","S1","","html-keyboard-response","178","274546","0.0-1.0-245.0","0","0","90622","","null","","","null","27","","","","","","","","","","","","","","","",""
"","ISI","","html-keyboard-response","179","276560","0.0-1.0-246.0","0","0","90622","","null","","","null","27","NaN","","","","","","","","","","","","","","",""
"","S2","","html-keyboard-response","180","276827","0.0-1.0-247.0","0","0","90622","","null","","","null","27","","NaN","","","","","","","","","","","","","",""
"","response","","html-keyboard-response","181","277461","0.0-1.0-248.0","0","0","90622","","633","","","68","27","","","1","27","training","adjacent","DC","4","3","L.jpg","N.jpg","1","0","0","",""
"","feedback","","html-keyboard-response","182","278466","0.0-1.0-249.0-0.0","0","0","90622","","null","","","null","27","","","","","","","","","","","","","","","",""
"","time_out","","html-keyboard-response","183","280467","0.0-1.0-251.0-0.0","0","0","90622","","null","","","null","27","","","","","","","","","","","","","","","",""
"","ITI","","html-keyboard-response","184","281475","0.0-1.0-252.0","0","0","90622","","null","","","null","27","","","","","","","","","","","","","","","NaN",""
"","S1","","html-keyboard-response","185","281726","0.0-1.0-254.0","0","0","90622","","null","","","null","28","","","","","","","","","","","","","","","",""
"","ISI","","html-keyboard-response","186","283741","0.0-1.0-255.0","0","0","90622","","null","","","null","28","NaN","","","","","","","","","","","","","","",""
"","S2","","html-keyboard-response","187","284008","0.0-1.0-256.0","0","0","90622","","null","","","null","28","","NaN","","","","","","","","","","","","","",""
"","response","","html-keyboard-response","188","284732","0.0-1.0-257.0","0","0","90622","","723","","","75","28","","","1","28","training","adjacent","CD","3","4","N.jpg","L.jpg","0","1","0","",""
"","feedback","","html-keyboard-response","189","285738","0.0-1.0-258.0-0.0","0","0","90622","","null","","","null","28","","","","","","","","","","","","","","","",""
"","time_out","","html-keyboard-response","190","287751","0.0-1.0-260.0-0.0","0","0","90622","","null","","","null","28","","","","","","","","","","","","","","","",""
"","ITI","","html-keyboard-response","191","288758","0.0-1.0-261.0","0","0","90622","","null","","","null","28","","","","","","","","","","","","","","","NaN",""
"","S1","","html-keyboard-response","192","289025","0.0-1.0-263.0","0","0","90622","","null","","","null","29","","","","","","","","","","","","","","","",""
"","ISI","","html-keyboard-response","193","291040","0.0-1.0-264.0","0","0","90622","","null","","","null","29","NaN","","","","","","","","","","","","","","",""
"","S2","","html-keyboard-response","194","291307","0.0-1.0-265.0","0","0","90622","","null","","","null","29","","NaN","","","","","","","","","","","","","",""
"","response","","html-keyboard-response","195","292436","0.0-1.0-266.0","0","0","90622","","1127","","","75","29","","","1","29","training","adjacent","FG","6","7","O.jpg","Q.jpg","0","1","0","",""
"","feedback","","html-keyboard-response","196","293447","0.0-1.0-267.0-0.0","0","0","90622","","null","","","null","29","","","","","","","","","","","","","","","",""
"","time_out","","html-keyboard-response","197","295463","0.0-1.0-269.0-0.0","0","0","90622","","null","","","null","29","","","","","","","","","","","","","","","",""
"","ITI","","html-keyboard-response","198","296470","0.0-1.0-270.0","0","0","90622","","null","","","null","29","","","","","","","","","","","","","","","NaN",""
"","S1","","html-keyboard-response","199","296737","0.0-1.0-272.0","0","0","90622","","null","","","null","30","","","","","","","","","","","","","","","",""
"","ISI","","html-keyboard-response","200","298752","0.0-1.0-273.0","0","0","90622","","null","","","null","30","NaN","","","","","","","","","","","","","","",""
"","S2","","html-keyboard-response","201","299019","0.0-1.0-274.0","0","0","90622","","null","","","null","30","","NaN","","","","","","","","","","","","","",""
"","response","","html-keyboard-response","202","300090","0.0-1.0-275.0","0","0","90622","","1070","","","68","30","","","1","30","training","adjacent","GF","7","6","Q.jpg","O.jpg","1","0","0","",""
"","feedback","","html-keyboard-response","203","301096","0.0-1.0-276.0-0.0","0","0","90622","","null","","","null","30","","","","","","","","","","","","","","","",""
"","time_out","","html-keyboard-response","204","303109","0.0-1.0-278.0-0.0","0","0","90622","","null","","","null","30","","","","","","","","","","","","","","","",""
"","ITI","","html-keyboard-response","205","304116","0.0-1.0-279.0","0","0","90622","","null","","","null","30","","","","","","","","","","","","","","","NaN",""
"","S1","","html-keyboard-response","206","304383","0.0-1.0-281.0","0","0","90622","","null","","","null","31","","","","","","","","","","","","","","","",""
"","ISI","","html-keyboard-response","207","306397","0.0-1.0-282.0","0","0","90622","","null","","","null","31","NaN","","","","","","","","","","","","","","",""
"","S2","","html-keyboard-response","208","306664","0.0-1.0-283.0","0","0","90622","","null","","","null","31","","NaN","","","","","","","","","","","","","",""
"","response","","html-keyboard-response","209","307893","0.0-1.0-284.0","0","0","90622","","1228","","","75","31","","","1","31","training","adjacent","GF","7","6","Q.jpg","O.jpg","0","0","1","",""
"","feedback","","html-keyboard-response","210","308898","0.0-1.0-285.0-0.0","0","0","90622","","null","","","null","31","","","","","","","","","","","","","","","",""
"","ITI","","html-keyboard-response","211","309904","0.0-1.0-288.0","0","0","90622","","null","","","null","31","","","","","","","","","","","","","","","NaN",""
"","S1","","html-keyboard-response","212","310170","0.0-1.0-290.0","0","0","90622","","null","","","null","32","","","","","","","","","","","","","","","",""
"","ISI","","html-keyboard-response","213","312184","0.0-1.0-291.0","0","0","90622","","null","","","null","32","NaN","","","","","","","","","","","","","","",""
"","S2","","html-keyboard-response","214","312435","0.0-1.0-292.0","0","0","90622","","null","","","null","32","","NaN","","","","","","","","","","","","","",""
"","response","","html-keyboard-response","215","313595","0.0-1.0-293.0","0","0","90622","","1159","","","75","32","","","1","32","training","adjacent","BC","2","3","M.jpg","N.jpg","0","1","0","",""
"","feedback","","html-keyboard-response","216","314606","0.0-1.0-294.0-0.0","0","0","90622","","null","","","null","32","","","","","","","","","","","","","","","",""
"","time_out","","html-keyboard-response","217","316622","0.0-1.0-296.0-0.0","0","0","90622","","null","","","null","32","","","","","","","","","","","","","","","",""
"","ITI","","html-keyboard-response","218","317629","0.0-1.0-297.0","0","0","90622","","null","","","null","32","","","","","","","","","","","","","","","NaN",""
"","S1","","html-keyboard-response","219","317895","0.0-1.0-299.0","0","0","90622","","null","","","null","33","","","","","","","","","","","","","","","",""
"","ISI","","html-keyboard-response","220","319909","0.0-1.0-300.0","0","0","90622","","null","","","null","33","NaN","","","","","","","","","","","","","","",""
"","S2","","html-keyboard-response","221","320161","0.0-1.0-301.0","0","0","90622","","null","","","null","33","","NaN","","","","","","","","","","","","","",""
"","response","","html-keyboard-response","222","320776","0.0-1.0-302.0","0","0","90622","","614","","","75","33","","","1","33","training","adjacent","CD","3","4","N.jpg","L.jpg","0","1","0","",""
"","feedback","","html-keyboard-response","223","321781","0.0-1.0-303.0-0.0","0","0","90622","","null","","","null","33","","","","","","","","","","","","","","","",""
"","time_out","","html-keyboard-response","224","323794","0.0-1.0-305.0-0.0","0","0","90622","","null","","","null","33","","","","","","","","","","","","","","","",""
"","ITI","","html-keyboard-response","225","324801","0.0-1.0-306.0","0","0","90622","","null","","","null","33","","","","","","","","","","","","","","","NaN",""
"","S1","","html-keyboard-response","226","325068","0.0-1.0-308.0","0","0","90622","","null","","","null","34","","","","","","","","","","","","","","","",""
"","ISI","","html-keyboard-response","227","327082","0.0-1.0-309.0","0","0","90622","","null","","","null","34","NaN","","","","","","","","","","","","","","",""
"","S2","","html-keyboard-response","228","327349","0.0-1.0-310.0","0","0","90622","","null","","","null","34","","NaN","","","","","","","","","","","","","",""
"","response","","html-keyboard-response","229","328424","0.0-1.0-311.0","0","0","90622","","1073","","","68","34","","","1","34","training","adjacent","DE","4","5","L.jpg","R.jpg","1","1","1","",""
"","feedback","","html-keyboard-response","230","329426","0.0-1.0-312.0-0.0","0","0","90622","","null","","","null","34","","","","","","","","","","","","","","","",""
"","ITI","","html-keyboard-response","231","330434","0.0-1.0-315.0","0","0","90622","","null","","","null","34","","","","","","","","","","","","","","","NaN",""
"","S1","","html-keyboard-response","232","330686","0.0-1.0-317.0","0","0","90622","","null","","","null","35","","","","","","","","","","","","","","","",""
"","ISI","","html-keyboard-response","233","332702","0.0-1.0-318.0","0","0","90622","","null","","","null","35","NaN","","","","","","","","","","","","","","",""
"","S2","","html-keyboard-response","234","332969","0.0-1.0-319.0","0","0","90622","","null","","","null","35","","NaN","","","","","","","","","","","","","",""
"","response","","html-keyboard-response","235","334292","0.0-1.0-320.0","0","0","90622","","1322","","","75","35","","","1","35","training","adjacent","CB","3","2","N.jpg","M.jpg","0","0","1","",""
"","feedback","","html-keyboard-response","236","335300","0.0-1.0-321.0-0.0","0","0","90622","","null","","","null","35","","","","","","","","","","","","","","","",""
"","ITI","","html-keyboard-response","237","336309","0.0-1.0-324.0","0","0","90622","","null","","","null","35","","","","","","","","","","","","","","","NaN",""
"","S1","","html-keyboard-response","238","336576","0.0-1.0-326.0","0","0","90622","","null","","","null","36","","","","","","","","","","","","","","","",""
"","ISI","","html-keyboard-response","239","338591","0.0-1.0-327.0","0","0","90622","","null","","","null","36","NaN","","","","","","","","","","","","","","",""
"","S2","","html-keyboard-response","240","338842","0.0-1.0-328.0","0","0","90622","","null","","","null","36","","NaN","","","","","","","","","","","","","",""
"","response","","html-keyboard-response","241","339403","0.0-1.0-329.0","0","0","90622","","560","","","68","36","","","1","36","training","adjacent","DC","4","3","L.jpg","N.jpg","1","0","0","",""
"","feedback","","html-keyboard-response","242","340415","0.0-1.0-330.0-0.0","0","0","90622","","null","","","null","36","","","","","","","","","","","","","","","",""
"","time_out","","html-keyboard-response","243","342429","0.0-1.0-332.0-0.0","0","0","90622","","null","","","null","36","","","","","","","","","","","","","","","",""
"","ITI","","html-keyboard-response","244","343436","0.0-1.0-333.0","0","0","90622","","null","","","null","36","","","","","","","","","","","","","","","NaN",""
"","S1","","html-keyboard-response","245","343703","0.0-1.0-335.0","0","0","90622","","null","","","null","37","","","","","","","","","","","","","","","",""
"","ISI","","html-keyboard-response","246","345719","0.0-1.0-336.0","0","0","90622","","null","","","null","37","NaN","","","","","","","","","","","","","","",""
"","S2","","html-keyboard-response","247","345970","0.0-1.0-337.0","0","0","90622","","null","","","null","37","","NaN","","","","","","","","","","","","","",""
"","response","","html-keyboard-response","248","346753","0.0-1.0-338.0","0","0","90622","","782","","","75","37","","","1","37","training","adjacent","EF","5","6","R.jpg","O.jpg","0","1","0","",""
"","feedback","","html-keyboard-response","249","347763","0.0-1.0-339.0-0.0","0","0","90622","","null","","","null","37","","","","","","","","","","","","","","","",""
"","time_out","","html-keyboard-response","250","349779","0.0-1.0-341.0-0.0","0","0","90622","","null","","","null","37","","","","","","","","","","","","","","","",""
"","ITI","","html-keyboard-response","251","350787","0.0-1.0-342.0","0","0","90622","","null","","","null","37","","","","","","","","","","","","","","","NaN",""
"","S1","","html-keyboard-response","252","351038","0.0-1.0-344.0","0","0","90622","","null","","","null","38","","","","","","","","","","","","","","","",""
"","ISI","","html-keyboard-response","253","353053","0.0-1.0-345.0","0","0","90622","","null","","","null","38","NaN","","","","","","","","","","","","","","",""
"","S2","","html-keyboard-response","254","353319","0.0-1.0-346.0","0","0","90622","","null","","","null","38","","NaN","","","","","","","","","","","","","",""
"","response","","html-keyboard-response","255","354275","0.0-1.0-347.0","0","0","90622","","953","","","75","38","","","1","38","training","adjacent","FE","6","5","O.jpg","R.jpg","0","0","1","",""
"","feedback","","html-keyboard-response","256","355285","0.0-1.0-348.0-0.0","0","0","90622","","null","","","null","38","","","","","","","","","","","","","","","",""
"","ITI","","html-keyboard-response","257","356293","0.0-1.0-351.0","0","0","90622","","null","","","null","38","","","","","","","","","","","","","","","NaN",""
"","S1","","html-keyboard-response","258","356545","0.0-1.0-353.0","0","0","90622","","null","","","null","39","","","","","","","","","","","","","","","",""
"","ISI","","html-keyboard-response","259","358559","0.0-1.0-354.0","0","0","90622","","null","","","null","39","NaN","","","","","","","","","","","","","","",""
"","S2","","html-keyboard-response","260","358811","0.0-1.0-355.0","0","0","90622","","null","","","null","39","","NaN","","","","","","","","","","","","","",""
"","response","","html-keyboard-response","261","359901","0.0-1.0-356.0","0","0","90622","","1089","","","75","39","","","1","39","training","adjacent","BA","2","1","M.jpg","P.jpg","0","0","1","",""
"","feedback","","html-keyboard-response","262","360905","0.0-1.0-357.0-0.0","0","0","90622","","null","","","null","39","","","","","","","","","","","","","","","",""
"","ITI","","html-keyboard-response","263","361912","0.0-1.0-360.0","0","0","90622","","null","","","null","39","","","","","","","","","","","","","","","NaN",""
"","S1","","html-keyboard-response","264","362179","0.0-1.0-362.0","0","0","90622","","null","","","null","40","","","","","","","","","","","","","","","",""
"","ISI","","html-keyboard-response","265","364191","0.0-1.0-363.0","0","0","90622","","null","","","null","40","NaN","","","","","","","","","","","","","","",""
"","S2","","html-keyboard-response","266","364457","0.0-1.0-364.0","0","0","90622","","null","","","null","40","","NaN","","","","","","","","","","","","","",""
"","response","","html-keyboard-response","267","364883","0.0-1.0-365.0","0","0","90622","","426","","","68","40","","","1","40","training","adjacent","EF","5","6","R.jpg","O.jpg","1","1","1","",""
"","feedback","","html-keyboard-response","268","365890","0.0-1.0-366.0-0.0","0","0","90622","","null","","","null","40","","","","","","","","","","","","","","","",""
"","ITI","","html-keyboard-response","269","366897","0.0-1.0-369.0","0","0","90622","","null","","","null","40","","","","","","","","","","","","","","","NaN",""
"","S1","","html-keyboard-response","270","367165","0.0-1.0-371.0","0","0","90622","","null","","","null","41","","","","","","","","","","","","","","","",""
"","ISI","","html-keyboard-response","271","369179","0.0-1.0-372.0","0","0","90622","","null","","","null","41","NaN","","","","","","","","","","","","","","",""
"","S2","","html-keyboard-response","272","369446","0.0-1.0-373.0","0","0","90622","","null","","","null","41","","NaN","","","","","","","","","","","","","",""
"","response","","html-keyboard-response","273","370059","0.0-1.0-374.0","0","0","90622","","611","","","68","41","","","1","41","training","adjacent","BC","2","3","M.jpg","N.jpg","1","1","1","",""
"","feedback","","html-keyboard-response","274","371067","0.0-1.0-375.0-0.0","0","0","90622","","null","","","null","41","","","","","","","","","","","","","","","",""
"","ITI","","html-keyboard-response","275","372074","0.0-1.0-378.0","0","0","90622","","null","","","null","41","","","","","","","","","","","","","","","NaN",""
"","S1","","html-keyboard-response","276","372326","0.0-1.0-380.0","0","0","90622","","null","","","null","42","","","","","","","","","","","","","","","",""
"","ISI","","html-keyboard-response","277","374339","0.0-1.0-381.0","0","0","90622","","null","","","null","42","NaN","","","","","","","","","","","","","","",""
"","S2","","html-keyboard-response","278","374605","0.0-1.0-382.0","0","0","90622","","null","","","null","42","","NaN","","","","","","","","","","","","","",""
"","response","","html-keyboard-response","279","374998","0.0-1.0-383.0","0","0","90622","","392","","","75","42","","","1","42","training","adjacent","BA","2","1","M.jpg","P.jpg","0","0","1","",""
"","feedback","","html-keyboard-response","280","376008","0.0-1.0-384.0-0.0","0","0","90622","","null","","","null","42","","","","","","","","","","","","","","","",""
"","ITI","","html-keyboard-response","281","377016","0.0-1.0-387.0","0","0","90622","","null","","","null","42","","","","","","","","","","","","","","","NaN",""
"","S1","","html-keyboard-response","282","377282","0.0-1.0-389.0","0","0","90622","","null","","","null","43","","","","","","","","","","","","","","","",""
"","ISI","","html-keyboard-response","283","379296","0.0-1.0-390.0","0","0","90622","","null","","","null","43","NaN","","","","","","","","","","","","","","",""
"","S2","","html-keyboard-response","284","379562","0.0-1.0-391.0","0","0","90622","","null","","","null","43","","NaN","","","","","","","","","","","","","",""
"","response","","html-keyboard-response","285","380170","0.0-1.0-392.0","0","0","90622","","605","","","75","43","","","1","43","training","adjacent","FE","6","5","O.jpg","R.jpg","0","0","1","",""
"","feedback","","html-keyboard-response","286","381187","0.0-1.0-393.0-0.0","0","0","90622","","null","","","null","43","","","","","","","","","","","","","","","",""
"","ITI","","html-keyboard-response","287","382195","0.0-1.0-396.0","0","0","90622","","null","","","null","43","","","","","","","","","","","","","","","NaN",""
"","S1","","html-keyboard-response","288","382446","0.0-1.0-398.0","0","0","90622","","null","","","null","44","","","","","","","","","","","","","","","",""
"","ISI","","html-keyboard-response","289","384461","0.0-1.0-399.0","0","0","90622","","null","","","null","44","NaN","","","","","","","","","","","","","","",""
"","S2","","html-keyboard-response","290","384727","0.0-1.0-400.0","0","0","90622","","null","","","null","44","","NaN","","","","","","","","","","","","","",""
"","response","","html-keyboard-response","291","385521","0.0-1.0-401.0","0","0","90622","","793","","","75","44","","","1","44","training","adjacent","CD","3","4","N.jpg","L.jpg","0","1","0","",""
"","feedback","","html-keyboard-response","292","386536","0.0-1.0-402.0-0.0","0","0","90622","","null","","","null","44","","","","","","","","","","","","","","","",""
"","time_out","","html-keyboard-response","293","388549","0.0-1.0-404.0-0.0","0","0","90622","","null","","","null","44","","","","","","","","","","","","","","","",""
"","ITI","","html-keyboard-response","294","389555","0.0-1.0-405.0","0","0","90622","","null","","","null","44","","","","","","","","","","","","","","","NaN",""
"","S1","","html-keyboard-response","295","389807","0.0-1.0-407.0","0","0","90622","","null","","","null","45","","","","","","","","","","","","","","","",""
"","ISI","","html-keyboard-response","296","391809","0.0-1.0-408.0","0","0","90622","","null","","","null","45","NaN","","","","","","","","","","","","","","",""
"","S2","","html-keyboard-response","297","392075","0.0-1.0-409.0","0","0","90622","","null","","","null","45","","NaN","","","","","","","","","","","","","",""
"","response","","html-keyboard-response","298","393238","0.0-1.0-410.0","0","0","90622","","1161","","","68","45","","","1","45","training","adjacent","DC","4","3","L.jpg","N.jpg","1","0","0","",""
"","feedback","","html-keyboard-response","299","394246","0.0-1.0-411.0-0.0","0","0","90622","","null","","","null","45","","","","","","","","","","","","","","","",""
"","time_out","","html-keyboard-response","300","396260","0.0-1.0-413.0-0.0","0","0","90622","","null","","","null","45","","","","","","","","","","","","","","","",""
"","ITI","","html-keyboard-response","301","397266","0.0-1.0-414.0","0","0","90622","","null","","","null","45","","","","","","","","","","","","","","","NaN",""
"","S1","","html-keyboard-response","302","397519","0.0-1.0-416.0","0","0","90622","","null","","","null","46","","","","","","","","","","","","","","","",""
"","ISI","","html-keyboard-response","303","399535","0.0-1.0-417.0","0","0","90622","","null","","","null","46","NaN","","","","","","","","","","","","","","",""
"","S2","","html-keyboard-response","304","399803","0.0-1.0-418.0","0","0","90622","","null","","","null","46","","NaN","","","","","","","","","","","","","",""
"","response","","html-keyboard-response","305","400582","0.0-1.0-419.0","0","0","90622","","778","","","68","46","","","1","46","training","adjacent","ED","5","4","R.jpg","L.jpg","1","0","0","",""
"","feedback","","html-keyboard-response","306","401596","0.0-1.0-420.0-0.0","0","0","90622","","null","","","null","46","","","","","","","","","","","","","","","",""
"","time_out","","html-keyboard-response","307","403610","0.0-1.0-422.0-0.0","0","0","90622","","null","","","null","46","","","","","","","","","","","","","","","",""
"","ITI","","html-keyboard-response","308","404616","0.0-1.0-423.0","0","0","90622","","null","","","null","46","","","","","","","","","","","","","","","NaN",""
"","S1","","html-keyboard-response","309","404867","0.0-1.0-425.0","0","0","90622","","null","","","null","47","","","","","","","","","","","","","","","",""
"","ISI","","html-keyboard-response","310","406882","0.0-1.0-426.0","0","0","90622","","null","","","null","47","NaN","","","","","","","","","","","","","","",""
"","S2","","html-keyboard-response","311","407133","0.0-1.0-427.0","0","0","90622","","null","","","null","47","","NaN","","","","","","","","","","","","","",""
"","response","","html-keyboard-response","312","408639","0.0-1.0-428.0","0","0","90622","","1505","","","75","47","","","1","47","training","adjacent","FG","6","7","O.jpg","Q.jpg","0","1","0","",""
"","feedback","","html-keyboard-response","313","409651","0.0-1.0-429.0-0.0","0","0","90622","","null","","","null","47","","","","","","","","","","","","","","","",""
"","time_out","","html-keyboard-response","314","411665","0.0-1.0-431.0-0.0","0","0","90622","","null","","","null","47","","","","","","","","","","","","","","","",""
"","ITI","","html-keyboard-response","315","412672","0.0-1.0-432.0","0","0","90622","","null","","","null","47","","","","","","","","","","","","","","","NaN",""
"","block_over","","html-keyboard-response","316","415256","0.0-1.0-433.0-0.0","0","0","90622","","2582","","","32","47","","","","","","","","","","","","","","","",""
"","S1","","html-keyboard-response","317","415520","0.0-1.0-434.0","0","0","90622","","null","","","null","48","","","","","","","","","","","","","","","",""
"","ISI","","html-keyboard-response","318","417536","0.0-1.0-435.0","0","0","90622","","null","","","null","48","NaN","","","","","","","","","","","","","","",""
"","S2","","html-keyboard-response","319","417788","0.0-1.0-436.0","0","0","90622","","null","","","null","48","","NaN","","","","","","","","","","","","","",""
"","response","","html-keyboard-response","320","419035","0.0-1.0-437.0","0","0","90622","","1246","","","75","48","","","2","48","training","adjacent","CB","3","2","N.jpg","M.jpg","0","0","1","",""
"","feedback","","html-keyboard-response","321","420037","0.0-1.0-438.0-0.0","0","0","90622","","null","","","null","48","","","","","","","","","","","","","","","",""
"","ITI","","html-keyboard-response","322","421045","0.0-1.0-441.0","0","0","90622","","null","","","null","48","","","","","","","","","","","","","","","NaN",""
"","S1","","html-keyboard-response","323","421312","0.0-1.0-443.0","0","0","90622","","null","","","null","49","","","","","","","","","","","","","","","",""
"","ISI","","html-keyboard-response","324","423326","0.0-1.0-444.0","0","0","90622","","null","","","null","49","NaN","","","","","","","","","","","","","","",""
"","S2","","html-keyboard-response","325","423592","0.0-1.0-445.0","0","0","90622","","null","","","null","49","","NaN","","","","","","","","","","","","","",""
"","response","","html-keyboard-response","326","424958","0.0-1.0-446.0","0","0","90622","","1365","","","75","49","","","2","49","training","adjacent","DC","4","3","L.jpg","N.jpg","0","0","1","",""
"","feedback","","html-keyboard-response","327","425966","0.0-1.0-447.0-0.0","0","0","90622","","null","","","null","49","","","","","","","","","","","","","","","",""
"","ITI","","html-keyboard-response","328","426972","0.0-1.0-450.0","0","0","90622","","null","","","null","49","","","","","","","","","","","","","","","NaN",""
"","S1","","html-keyboard-response","329","427225","0.0-1.0-452.0","0","0","90622","","null","","","null","50","","","","","","","","","","","","","","","",""
"","ISI","","html-keyboard-response","330","429238","0.0-1.0-453.0","0","0","90622","","null","","","null","50","NaN","","","","","","","","","","","","","","",""
"","S2","","html-keyboard-response","331","429504","0.0-1.0-454.0","0","0","90622","","null","","","null","50","","NaN","","","","","","","","","","","","","",""
"","response","","html-keyboard-response","332","430151","0.0-1.0-455.0","0","0","90622","","646","","","68","50","","","2","50","training","adjacent","EF","5","6","R.jpg","O.jpg","1","1","1","",""
"","feedback","","html-keyboard-response","333","431156","0.0-1.0-456.0-0.0","0","0","90622","","null","","","null","50","","","","","","","","","","","","","","","",""
"","ITI","","html-keyboard-response","334","432163","0.0-1.0-459.0","0","0","90622","","null","","","null","50","","","","","","","","","","","","","","","NaN",""
"","S1","","html-keyboard-response","335","432430","0.0-1.0-461.0","0","0","90622","","null","","","null","51","","","","","","","","","","","","","","","",""
"","ISI","","html-keyboard-response","336","434445","0.0-1.0-462.0","0","0","90622","","null","","","null","51","NaN","","","","","","","","","","","","","","",""
"","S2","","html-keyboard-response","337","434710","0.0-1.0-463.0","0","0","90622","","null","","","null","51","","NaN","","","","","","","","","","","","","",""
"","response","","html-keyboard-response","338","435371","0.0-1.0-464.0","0","0","90622","","660","","","68","51","","","2","51","training","adjacent","GF","7","6","Q.jpg","O.jpg","1","0","0","",""
"","feedback","","html-keyboard-response","339","436381","0.0-1.0-465.0-0.0","0","0","90622","","null","","","null","51","","","","","","","","","","","","","","","",""
"","time_out","","html-keyboard-response","340","438394","0.0-1.0-467.0-0.0","0","0","90622","","null","","","null","51","","","","","","","","","","","","","","","",""
"","ITI","","html-keyboard-response","341","439398","0.0-1.0-468.0","0","0","90622","","null","","","null","51","","","","","","","","","","","","","","","NaN",""
"","S1","","html-keyboard-response","342","439650","0.0-1.0-470.0","0","0","90622","","null","","","null","52","","","","","","","","","","","","","","","",""
"","ISI","","html-keyboard-response","343","441664","0.0-1.0-471.0","0","0","90622","","null","","","null","52","NaN","","","","","","","","","","","","","","",""
"","S2","","html-keyboard-response","344","441916","0.0-1.0-472.0","0","0","90622","","null","","","null","52","","NaN","","","","","","","","","","","","","",""
"","response","","html-keyboard-response","345","442735","0.0-1.0-473.0","0","0","90622","","818","","","68","52","","","2","52","training","adjacent","BC","2","3","M.jpg","N.jpg","1","1","1","",""
"","feedback","","html-keyboard-response","346","443741","0.0-1.0-474.0-0.0","0","0","90622","","null","","","null","52","","","","","","","","","","","","","","","",""
"","ITI","","html-keyboard-response","347","444747","0.0-1.0-477.0","0","0","90622","","null","","","null","52","","","","","","","","","","","","","","","NaN",""
"","S1","","html-keyboard-response","348","444998","0.0-1.0-479.0","0","0","90622","","null","","","null","53","","","","","","","","","","","","","","","",""
"","ISI","","html-keyboard-response","349","447015","0.0-1.0-480.0","0","0","90622","","null","","","null","53","NaN","","","","","","","","","","","","","","",""
"","S2","","html-keyboard-response","350","447282","0.0-1.0-481.0","0","0","90622","","null","","","null","53","","NaN","","","","","","","","","","","","","",""
"","response","","html-keyboard-response","351","448173","0.0-1.0-482.0","0","0","90622","","890","","","75","53","","","2","53","training","adjacent","DE","4","5","L.jpg","R.jpg","0","1","0","",""
"","feedback","","html-keyboard-response","352","449187","0.0-1.0-483.0-0.0","0","0","90622","","null","","","null","53","","","","","","","","","","","","","","","",""
"","time_out","","html-keyboard-response","353","451201","0.0-1.0-485.0-0.0","0","0","90622","","null","","","null","53","","","","","","","","","","","","","","","",""
"","ITI","","html-keyboard-response","354","452208","0.0-1.0-486.0","0","0","90622","","null","","","null","53","","","","","","","","","","","","","","","NaN",""
"","S1","","html-keyboard-response","355","452460","0.0-1.0-488.0","0","0","90622","","null","","","null","54","","","","","","","","","","","","","","","",""
"","ISI","","html-keyboard-response","356","454473","0.0-1.0-489.0","0","0","90622","","null","","","null","54","NaN","","","","","","","","","","","","","","",""
"","S2","","html-keyboard-response","357","454725","0.0-1.0-490.0","0","0","90622","","null","","","null","54","","NaN","","","","","","","","","","","","","",""
"","response","","html-keyboard-response","358","455000","0.0-1.0-491.0","0","0","90622","","274","","","68","54","","","2","54","training","adjacent","BA","2","1","M.jpg","P.jpg","1","0","0","",""
"","feedback","","html-keyboard-response","359","456014","0.0-1.0-492.0-0.0","0","0","90622","","null","","","null","54","","","","","","","","","","","","","","","",""
"","time_out","","html-keyboard-response","360","458030","0.0-1.0-494.0-0.0","0","0","90622","","null","","","null","54","","","","","","","","","","","","","","","",""
"","ITI","","html-keyboard-response","361","459036","0.0-1.0-495.0","0","0","90622","","null","","","null","54","","","","","","","","","","","","","","","NaN",""
"","S1","","html-keyboard-response","362","459302","0.0-1.0-497.0","0","0","90622","","null","","","null","55","","","","","","","","","","","","","","","",""
"","ISI","","html-keyboard-response","363","461318","0.0-1.0-498.0","0","0","90622","","null","","","null","55","NaN","","","","","","","","","","","","","","",""
"","S2","","html-keyboard-response","364","461572","0.0-1.0-499.0","0","0","90622","","null","","","null","55","","NaN","","","","","","","","","","","","","",""
"","response","","html-keyboard-response","365","462888","0.0-1.0-500.0","0","0","90622","","1315","","","75","55","","","2","55","training","adjacent","BC","2","3","M.jpg","N.jpg","0","1","0","",""
"","feedback","","html-keyboard-response","366","463902","0.0-1.0-501.0-0.0","0","0","90622","","null","","","null","55","","","","","","","","","","","","","","","",""
"","time_out","","html-keyboard-response","367","465916","0.0-1.0-503.0-0.0","0","0","90622","","null","","","null","55","","","","","","","","","","","","","","","",""
"","ITI","","html-keyboard-response","368","466924","0.0-1.0-504.0","0","0","90622","","null","","","null","55","","","","","","","","","","","","","","","NaN",""
"","S1","","html-keyboard-response","369","467176","0.0-1.0-506.0","0","0","90622","","null","","","null","56","","","","","","","","","","","","","","","",""
"","ISI","","html-keyboard-response","370","469190","0.0-1.0-507.0","0","0","90622","","null","","","null","56","NaN","","","","","","","","","","","","","","",""
"","S2","","html-keyboard-response","371","469457","0.0-1.0-508.0","0","0","90622","","null","","","null","56","","NaN","","","","","","","","","","","","","",""
"","response","","html-keyboard-response","372","469732","0.0-1.0-509.0","0","0","90622","","275","","","68","56","","","2","56","training","adjacent","EF","5","6","R.jpg","O.jpg","1","1","1","",""
"","feedback","","html-keyboard-response","373","470746","0.0-1.0-510.0-0.0","0","0","90622","","null","","","null","56","","","","","","","","","","","","","","","",""
"","ITI","","html-keyboard-response","374","471755","0.0-1.0-513.0","0","0","90622","","null","","","null","56","","","","","","","","","","","","","","","NaN",""
"","S1","","html-keyboard-response","375","472022","0.0-1.0-515.0","0","0","90622","","null","","","null","57","","","","","","","","","","","","","","","",""
"","ISI","","html-keyboard-response","376","474037","0.0-1.0-516.0","0","0","90622","","null","","","null","57","NaN","","","","","","","","","","","","","","",""
"","S2","","html-keyboard-response","377","474289","0.0-1.0-517.0","0","0","90622","","null","","","null","57","","NaN","","","","","","","","","","","","","",""
"","response","","html-keyboard-response","378","475509","0.0-1.0-518.0","0","0","90622","","1218","","","75","57","","","2","57","training","adjacent","FG","6","7","O.jpg","Q.jpg","0","1","0","",""
"","feedback","","html-keyboard-response","379","476522","0.0-1.0-519.0-0.0","0","0","90622","","null","","","null","57","","","","","","","","","","","","","","","",""
"","time_out","","html-keyboard-response","380","478537","0.0-1.0-521.0-0.0","0","0","90622","","null","","","null","57","","","","","","","","","","","","","","","",""
"","ITI","","html-keyboard-response","381","479543","0.0-1.0-522.0","0","0","90622","","null","","","null","57","","","","","","","","","","","","","","","NaN",""
"","S1","","html-keyboard-response","382","479810","0.0-1.0-524.0","0","0","90622","","null","","","null","58","","","","","","","","","","","","","","","",""
"","ISI","","html-keyboard-response","383","481812","0.0-1.0-525.0","0","0","90622","","null","","","null","58","NaN","","","","","","","","","","","","","","",""
"","S2","","html-keyboard-response","384","482063","0.0-1.0-526.0","0","0","90622","","null","","","null","58","","NaN","","","","","","","","","","","","","",""
"","response","","html-keyboard-response","385","482632","0.0-1.0-527.0","0","0","90622","","568","","","68","58","","","2","58","training","adjacent","ED","5","4","R.jpg","L.jpg","1","0","0","",""
"","feedback","","html-keyboard-response","386","483635","0.0-1.0-528.0-0.0","0","0","90622","","null","","","null","58","","","","","","","","","","","","","","","",""
"","time_out","","html-keyboard-response","387","485650","0.0-1.0-530.0-0.0","0","0","90622","","null","","","null","58","","","","","","","","","","","","","","","",""
"","ITI","","html-keyboard-response","388","486657","0.0-1.0-531.0","0","0","90622","","null","","","null","58","","","","","","","","","","","","","","","NaN",""
"","S1","","html-keyboard-response","389","486924","0.0-1.0-533.0","0","0","90622","","null","","","null","59","","","","","","","","","","","","","","","",""
"","ISI","","html-keyboard-response","390","488936","0.0-1.0-534.0","0","0","90622","","null","","","null","59","NaN","","","","","","","","","","","","","","",""
"","S2","","html-keyboard-response","391","489204","0.0-1.0-535.0","0","0","90622","","null","","","null","59","","NaN","","","","","","","","","","","","","",""
"","response","","html-keyboard-response","392","489592","0.0-1.0-536.0","0","0","90622","","387","","","68","59","","","2","59","training","adjacent","DE","4","5","L.jpg","R.jpg","1","1","1","",""
"","feedback","","html-keyboard-response","393","490604","0.0-1.0-537.0-0.0","0","0","90622","","null","","","null","59","","","","","","","","","","","","","","","",""
"","ITI","","html-keyboard-response","394","491610","0.0-1.0-540.0","0","0","90622","","null","","","null","59","","","","","","","","","","","","","","","NaN",""
"","S1","","html-keyboard-response","395","491862","0.0-1.0-542.0","0","0","90622","","null","","","null","60","","","","","","","","","","","","","","","",""
"","ISI","","html-keyboard-response","396","493880","0.0-1.0-543.0","0","0","90622","","null","","","null","60","NaN","","","","","","","","","","","","","","",""
"","S2","","html-keyboard-response","397","494147","0.0-1.0-544.0","0","0","90622","","null","","","null","60","","NaN","","","","","","","","","","","","","",""
"","response","","html-keyboard-response","398","494586","0.0-1.0-545.0","0","0","90622","","438","","","75","60","","","2","60","training","adjacent","AB","1","2","P.jpg","M.jpg","0","1","0","",""
"","feedback","","html-keyboard-response","399","495595","0.0-1.0-546.0-0.0","0","0","90622","","null","","","null","60","","","","","","","","","","","","","","","",""
"","time_out","","html-keyboard-response","400","497610","0.0-1.0-548.0-0.0","0","0","90622","","null","","","null","60","","","","","","","","","","","","","","","",""
"","ITI","","html-keyboard-response","401","498620","0.0-1.0-549.0","0","0","90622","","null","","","null","60","","","","","","","","","","","","","","","NaN",""
"","S1","","html-keyboard-response","402","498887","0.0-1.0-551.0","0","0","90622","","null","","","null","61","","","","","","","","","","","","","","","",""
"","ISI","","html-keyboard-response","403","500902","0.0-1.0-552.0","0","0","90622","","null","","","null","61","NaN","","","","","","","","","","","","","","",""
"","S2","","html-keyboard-response","404","501155","0.0-1.0-553.0","0","0","90622","","null","","","null","61","","NaN","","","","","","","","","","","","","",""
"","response","","html-keyboard-response","405","502085","0.0-1.0-554.0","0","0","90622","","929","","","68","61","","","2","61","training","adjacent","FE","6","5","O.jpg","R.jpg","1","0","0","",""
"","feedback","","html-keyboard-response","406","503092","0.0-1.0-555.0-0.0","0","0","90622","","null","","","null","61","","","","","","","","","","","","","","","",""
"","time_out","","html-keyboard-response","407","505105","0.0-1.0-557.0-0.0","0","0","90622","","null","","","null","61","","","","","","","","","","","","","","","",""
"","ITI","","html-keyboard-response","408","506111","0.0-1.0-558.0","0","0","90622","","null","","","null","61","","","","","","","","","","","","","","","NaN",""
"","S1","","html-keyboard-response","409","506363","0.0-1.0-560.0","0","0","90622","","null","","","null","62","","","","","","","","","","","","","","","",""
"","ISI","","html-keyboard-response","410","508380","0.0-1.0-561.0","0","0","90622","","null","","","null","62","NaN","","","","","","","","","","","","","","",""
"","S2","","html-keyboard-response","411","508631","0.0-1.0-562.0","0","0","90622","","null","","","null","62","","NaN","","","","","","","","","","","","","",""
"","response","","html-keyboard-response","412","509759","0.0-1.0-563.0","0","0","90622","","1128","","","68","62","","","2","62","training","adjacent","DE","4","5","L.jpg","R.jpg","1","1","1","",""
"","feedback","","html-keyboard-response","413","510770","0.0-1.0-564.0-0.0","0","0","90622","","null","","","null","62","","","","","","","","","","","","","","","",""
"","ITI","","html-keyboard-response","414","511777","0.0-1.0-567.0","0","0","90622","","null","","","null","62","","","","","","","","","","","","","","","NaN",""
"","S1","","html-keyboard-response","415","512044","0.0-1.0-569.0","0","0","90622","","null","","","null","63","","","","","","","","","","","","","","","",""
"","ISI","","html-keyboard-response","416","514060","0.0-1.0-570.0","0","0","90622","","null","","","null","63","NaN","","","","","","","","","","","","","","",""
"","S2","","html-keyboard-response","417","514326","0.0-1.0-571.0","0","0","90622","","null","","","null","63","","NaN","","","","","","","","","","","","","",""
"","response","","html-keyboard-response","418","515420","0.0-1.0-572.0","0","0","90622","","1093","","","68","63","","","2","63","training","adjacent","CD","3","4","N.jpg","L.jpg","1","1","1","",""
"","feedback","","html-keyboard-response","419","516433","0.0-1.0-573.0-0.0","0","0","90622","","null","","","null","63","","","","","","","","","","","","","","","",""
"","ITI","","html-keyboard-response","420","517442","0.0-1.0-576.0","0","0","90622","","null","","","null","63","","","","","","","","","","","","","","","NaN",""
"","S1","","html-keyboard-response","421","517694","0.0-1.0-578.0","0","0","90622","","null","","","null","64","","","","","","","","","","","","","","","",""
"","ISI","","html-keyboard-response","422","519709","0.0-1.0-579.0","0","0","90622","","null","","","null","64","NaN","","","","","","","","","","","","","","",""
"","S2","","html-keyboard-response","423","519976","0.0-1.0-580.0","0","0","90622","","null","","","null","64","","NaN","","","","","","","","","","","","","",""
"","response","","html-keyboard-response","424","520243","0.0-1.0-581.0","0","0","90622","","264","","","75","64","","","2","64","training","adjacent","FE","6","5","O.jpg","R.jpg","0","0","1","",""
"","feedback","","html-keyboard-response","425","521251","0.0-1.0-582.0-0.0","0","0","90622","","null","","","null","64","","","","","","","","","","","","","","","",""
"","ITI","","html-keyboard-response","426","522258","0.0-1.0-585.0","0","0","90622","","null","","","null","64","","","","","","","","","","","","","","","NaN",""
"","S1","","html-keyboard-response","427","522510","0.0-1.0-587.0","0","0","90622","","null","","","null","65","","","","","","","","","","","","","","","",""
"","ISI","","html-keyboard-response","428","524525","0.0-1.0-588.0","0","0","90622","","null","","","null","65","NaN","","","","","","","","","","","","","","",""
"","S2","","html-keyboard-response","429","524792","0.0-1.0-589.0","0","0","90622","","null","","","null","65","","NaN","","","","","","","","","","","","","",""
"","response","","html-keyboard-response","430","525799","0.0-1.0-590.0","0","0","90622","","1006","","","75","65","","","2","65","training","adjacent","FG","6","7","O.jpg","Q.jpg","0","1","0","",""
"","feedback","","html-keyboard-response","431","526804","0.0-1.0-591.0-0.0","0","0","90622","","null","","","null","65","","","","","","","","","","","","","","","",""
"","time_out","","html-keyboard-response","432","528819","0.0-1.0-593.0-0.0","0","0","90622","","null","","","null","65","","","","","","","","","","","","","","","",""
"","ITI","","html-keyboard-response","433","529826","0.0-1.0-594.0","0","0","90622","","null","","","null","65","","","","","","","","","","","","","","","NaN",""
"","S1","","html-keyboard-response","434","530093","0.0-1.0-596.0","0","0","90622","","null","","","null","66","","","","","","","","","","","","","","","",""
"","ISI","","html-keyboard-response","435","532109","0.0-1.0-597.0","0","0","90622","","null","","","null","66","NaN","","","","","","","","","","","","","","",""
"","S2","","html-keyboard-response","436","532360","0.0-1.0-598.0","0","0","90622","","null","","","null","66","","NaN","","","","","","","","","","","","","",""
"","response","","html-keyboard-response","437","533238","0.0-1.0-599.0","0","0","90622","","876","","","75","66","","","2","66","training","adjacent","AB","1","2","P.jpg","M.jpg","0","1","0","",""
"","feedback","","html-keyboard-response","438","534247","0.0-1.0-600.0-0.0","0","0","90622","","null","","","null","66","","","","","","","","","","","","","","","",""
"","time_out","","html-keyboard-response","439","536261","0.0-1.0-602.0-0.0","0","0","90622","","null","","","null","66","","","","","","","","","","","","","","","",""
"","ITI","","html-keyboard-response","440","537269","0.0-1.0-603.0","0","0","90622","","null","","","null","66","","","","","","","","","","","","","","","NaN",""
"","S1","","html-keyboard-response","441","537535","0.0-1.0-605.0","0","0","90622","","null","","","null","67","","","","","","","","","","","","","","","",""
"","ISI","","html-keyboard-response","442","539549","0.0-1.0-606.0","0","0","90622","","null","","","null","67","NaN","","","","","","","","","","","","","","",""
"","S2","","html-keyboard-response","443","539816","0.0-1.0-607.0","0","0","90622","","null","","","null","67","","NaN","","","","","","","","","","","","","",""
"","response","","html-keyboard-response","444","540517","0.0-1.0-608.0","0","0","90622","","701","","","75","67","","","2","67","training","adjacent","CB","3","2","N.jpg","M.jpg","0","0","1","",""
"","feedback","","html-keyboard-response","445","541531","0.0-1.0-609.0-0.0","0","0","90622","","null","","","null","67","","","","","","","","","","","","","","","",""
"","ITI","","html-keyboard-response","446","542539","0.0-1.0-612.0","0","0","90622","","null","","","null","67","","","","","","","","","","","","","","","NaN",""
"","S1","","html-keyboard-response","447","542790","0.0-1.0-614.0","0","0","90622","","null","","","null","68","","","","","","","","","","","","","","","",""
"","ISI","","html-keyboard-response","448","544804","0.0-1.0-615.0","0","0","90622","","null","","","null","68","NaN","","","","","","","","","","","","","","",""
"","S2","","html-keyboard-response","449","545055","0.0-1.0-616.0","0","0","90622","","null","","","null","68","","NaN","","","","","","","","","","","","","",""
"","response","","html-keyboard-response","450","546458","0.0-1.0-617.0","0","0","90622","","1402","","","75","68","","","2","68","training","adjacent","AB","1","2","P.jpg","M.jpg","0","1","0","",""
"","feedback","","html-keyboard-response","451","547460","0.0-1.0-618.0-0.0","0","0","90622","","null","","","null","68","","","","","","","","","","","","","","","",""
"","time_out","","html-keyboard-response","452","549475","0.0-1.0-620.0-0.0","0","0","90622","","null","","","null","68","","","","","","","","","","","","","","","",""
"","ITI","","html-keyboard-response","453","550483","0.0-1.0-621.0","0","0","90622","","null","","","null","68","","","","","","","","","","","","","","","NaN",""
"","S1","","html-keyboard-response","454","550734","0.0-1.0-623.0","0","0","90622","","null","","","null","69","","","","","","","","","","","","","","","",""
"","ISI","","html-keyboard-response","455","552748","0.0-1.0-624.0","0","0","90622","","null","","","null","69","NaN","","","","","","","","","","","","","","",""
"","S2","","html-keyboard-response","456","553000","0.0-1.0-625.0","0","0","90622","","null","","","null","69","","NaN","","","","","","","","","","","","","",""
"","response","","html-keyboard-response","457","554182","0.0-1.0-626.0","0","0","90622","","1181","","","75","69","","","2","69","training","adjacent","ED","5","4","R.jpg","L.jpg","0","0","1","",""
"","feedback","","html-keyboard-response","458","555187","0.0-1.0-627.0-0.0","0","0","90622","","null","","","null","69","","","","","","","","","","","","","","","",""
"","ITI","","html-keyboard-response","459","556194","0.0-1.0-630.0","0","0","90622","","null","","","null","69","","","","","","","","","","","","","","","NaN",""
"","S1","","html-keyboard-response","460","556461","0.0-1.0-632.0","0","0","90622","","null","","","null","70","","","","","","","","","","","","","","","",""
"","ISI","","html-keyboard-response","461","558477","0.0-1.0-633.0","0","0","90622","","null","","","null","70","NaN","","","","","","","","","","","","","","",""
"","S2","","html-keyboard-response","462","558728","0.0-1.0-634.0","0","0","90622","","null","","","null","70","","NaN","","","","","","","","","","","","","",""
"","response","","html-keyboard-response","463","560117","0.0-1.0-635.0","0","0","90622","","1387","","","75","70","","","2","70","training","adjacent","CD","3","4","N.jpg","L.jpg","0","1","0","",""
"","feedback","","html-keyboard-response","464","561119","0.0-1.0-636.0-0.0","0","0","90622","","null","","","null","70","","","","","","","","","","","","","","","",""
"","time_out","","html-keyboard-response","465","563135","0.0-1.0-638.0-0.0","0","0","90622","","null","","","null","70","","","","","","","","","","","","","","","",""
"","ITI","","html-keyboard-response","466","564142","0.0-1.0-639.0","0","0","90622","","null","","","null","70","","","","","","","","","","","","","","","NaN",""
"","S1","","html-keyboard-response","467","564409","0.0-1.0-641.0","0","0","90622","","null","","","null","71","","","","","","","","","","","","","","","",""
"","ISI","","html-keyboard-response","468","566423","0.0-1.0-642.0","0","0","90622","","null","","","null","71","NaN","","","","","","","","","","","","","","",""
"","S2","","html-keyboard-response","469","566675","0.0-1.0-643.0","0","0","90622","","null","","","null","71","","NaN","","","","","","","","","","","","","",""
"","response","","html-keyboard-response","470","567628","0.0-1.0-644.0","0","0","90622","","952","","","75","71","","","2","71","training","adjacent","FE","6","5","O.jpg","R.jpg","0","0","1","",""
"","feedback","","html-keyboard-response","471","568643","0.0-1.0-645.0-0.0","0","0","90622","","null","","","null","71","","","","","","","","","","","","","","","",""
"","ITI","","html-keyboard-response","472","569653","0.0-1.0-648.0","0","0","90622","","null","","","null","71","","","","","","","","","","","","","","","NaN",""
"","S1","","html-keyboard-response","473","569920","0.0-1.0-650.0","0","0","90622","","null","","","null","72","","","","","","","","","","","","","","","",""
"","ISI","","html-keyboard-response","474","571935","0.0-1.0-651.0","0","0","90622","","null","","","null","72","NaN","","","","","","","","","","","","","","",""
"","S2","","html-keyboard-response","475","572187","0.0-1.0-652.0","0","0","90622","","null","","","null","72","","NaN","","","","","","","","","","","","","",""
"","response","","html-keyboard-response","476","572552","0.0-1.0-653.0","0","0","90622","","364","","","68","72","","","2","72","training","adjacent","DE","4","5","L.jpg","R.jpg","1","1","1","",""
"","feedback","","html-keyboard-response","477","573556","0.0-1.0-654.0-0.0","0","0","90622","","null","","","null","72","","","","","","","","","","","","","","","",""
"","ITI","","html-keyboard-response","478","574563","0.0-1.0-657.0","0","0","90622","","null","","","null","72","","","","","","","","","","","","","","","NaN",""
"","S1","","html-keyboard-response","479","574814","0.0-1.0-659.0","0","0","90622","","null","","","null","73","","","","","","","","","","","","","","","",""
"","ISI","","html-keyboard-response","480","576829","0.0-1.0-660.0","0","0","90622","","null","","","null","73","NaN","","","","","","","","","","","","","","",""
"","S2","","html-keyboard-response","481","577096","0.0-1.0-661.0","0","0","90622","","null","","","null","73","","NaN","","","","","","","","","","","","","",""
"","response","","html-keyboard-response","482","577877","0.0-1.0-662.0","0","0","90622","","780","","","68","73","","","2","73","training","adjacent","FG","6","7","O.jpg","Q.jpg","1","1","1","",""
"","feedback","","html-keyboard-response","483","578890","0.0-1.0-663.0-0.0","0","0","90622","","null","","","null","73","","","","","","","","","","","","","","","",""
"","ITI","","html-keyboard-response","484","579897","0.0-1.0-666.0","0","0","90622","","null","","","null","73","","","","","","","","","","","","","","","NaN",""
"","S1","","html-keyboard-response","485","580163","0.0-1.0-668.0","0","0","90622","","null","","","null","74","","","","","","","","","","","","","","","",""
"","ISI","","html-keyboard-response","486","582178","0.0-1.0-669.0","0","0","90622","","null","","","null","74","NaN","","","","","","","","","","","","","","",""
"","S2","","html-keyboard-response","487","582430","0.0-1.0-670.0","0","0","90622","","null","","","null","74","","NaN","","","","","","","","","","","","","",""
"","response","","html-keyboard-response","488","582994","0.0-1.0-671.0","0","0","90622","","563","","","75","74","","","2","74","training","adjacent","CD","3","4","N.jpg","L.jpg","0","1","0","",""
"","feedback","","html-keyboard-response","489","584004","0.0-1.0-672.0-0.0","0","0","90622","","null","","","null","74","","","","","","","","","","","","","","","",""
"","time_out","","html-keyboard-response","490","586017","0.0-1.0-674.0-0.0","0","0","90622","","null","","","null","74","","","","","","","","","","","","","","","",""
"","ITI","","html-keyboard-response","491","587025","0.0-1.0-675.0","0","0","90622","","null","","","null","74","","","","","","","","","","","","","","","NaN",""
"","S1","","html-keyboard-response","492","587292","0.0-1.0-677.0","0","0","90622","","null","","","null","75","","","","","","","","","","","","","","","",""
"","ISI","","html-keyboard-response","493","589306","0.0-1.0-678.0","0","0","90622","","null","","","null","75","NaN","","","","","","","","","","","","","","",""
"","S2","","html-keyboard-response","494","589558","0.0-1.0-679.0","0","0","90622","","null","","","null","75","","NaN","","","","","","","","","","","","","",""
"","response","","html-keyboard-response","495","591039","0.0-1.0-680.0","0","0","90622","","1479","","","75","75","","","2","75","training","adjacent","ED","5","4","R.jpg","L.jpg","0","0","1","",""
"","feedback","","html-keyboard-response","496","592043","0.0-1.0-681.0-0.0","0","0","90622","","null","","","null","75","","","","","","","","","","","","","","","",""
"","ITI","","html-keyboard-response","497","593050","0.0-1.0-684.0","0","0","90622","","null","","","null","75","","","","","","","","","","","","","","","NaN",""
"","S1","","html-keyboard-response","498","593316","0.0-1.0-686.0","0","0","90622","","null","","","null","76","","","","","","","","","","","","","","","",""
"","ISI","","html-keyboard-response","499","595333","0.0-1.0-687.0","0","0","90622","","null","","","null","76","NaN","","","","","","","","","","","","","","",""
"","S2","","html-keyboard-response","500","595585","0.0-1.0-688.0","0","0","90622","","null","","","null","76","","NaN","","","","","","","","","","","","","",""
"","response","","html-keyboard-response","501","596321","0.0-1.0-689.0","0","0","90622","","735","","","75","76","","","2","76","training","adjacent","DC","4","3","L.jpg","N.jpg","0","0","1","",""
"","feedback","","html-keyboard-response","502","597330","0.0-1.0-690.0-0.0","0","0","90622","","null","","","null","76","","","","","","","","","","","","","","","",""
"","ITI","","html-keyboard-response","503","598338","0.0-1.0-693.0","0","0","90622","","null","","","null","76","","","","","","","","","","","","","","","NaN",""
"","S1","","html-keyboard-response","504","598590","0.0-1.0-695.0","0","0","90622","","null","","","null","77","","","","","","","","","","","","","","","",""
"","ISI","","html-keyboard-response","505","600605","0.0-1.0-696.0","0","0","90622","","null","","","null","77","NaN","","","","","","","","","","","","","","",""
"","S2","","html-keyboard-response","506","600873","0.0-1.0-697.0","0","0","90622","","null","","","null","77","","NaN","","","","","","","","","","","","","",""
"","response","","html-keyboard-response","507","601958","0.0-1.0-698.0","0","0","90622","","1084","","","68","77","","","2","77","training","adjacent","EF","5","6","R.jpg","O.jpg","1","1","1","",""
"","feedback","","html-keyboard-response","508","602966","0.0-1.0-699.0-0.0","0","0","90622","","null","","","null","77","","","","","","","","","","","","","","","",""
"","ITI","","html-keyboard-response","509","603974","0.0-1.0-702.0","0","0","90622","","null","","","null","77","","","","","","","","","","","","","","","NaN",""
"","S1","","html-keyboard-response","510","604225","0.0-1.0-704.0","0","0","90622","","null","","","null","78","","","","","","","","","","","","","","","",""
"","ISI","","html-keyboard-response","511","606240","0.0-1.0-705.0","0","0","90622","","null","","","null","78","NaN","","","","","","","","","","","","","","",""
"","S2","","html-keyboard-response","512","606506","0.0-1.0-706.0","0","0","90622","","null","","","null","78","","NaN","","","","","","","","","","","","","",""
"","response","","html-keyboard-response","513","607442","0.0-1.0-707.0","0","0","90622","","934","","","68","78","","","2","78","training","adjacent","EF","5","6","R.jpg","O.jpg","1","1","1","",""
"","feedback","","html-keyboard-response","514","608444","0.0-1.0-708.0-0.0","0","0","90622","","null","","","null","78","","","","","","","","","","","","","","","",""
"","ITI","","html-keyboard-response","515","609450","0.0-1.0-711.0","0","0","90622","","null","","","null","78","","","","","","","","","","","","","","","NaN",""
"","S1","","html-keyboard-response","516","609703","0.0-1.0-713.0","0","0","90622","","null","","","null","79","","","","","","","","","","","","","","","",""
"","ISI","","html-keyboard-response","517","611718","0.0-1.0-714.0","0","0","90622","","null","","","null","79","NaN","","","","","","","","","","","","","","",""
"","S2","","html-keyboard-response","518","611983","0.0-1.0-715.0","0","0","90622","","null","","","null","79","","NaN","","","","","","","","","","","","","",""
"","response","","html-keyboard-response","519","613176","0.0-1.0-716.0","0","0","90622","","1192","","","68","79","","","2","79","training","adjacent","CB","3","2","N.jpg","M.jpg","1","0","0","",""
"","feedback","","html-keyboard-response","520","614187","0.0-1.0-717.0-0.0","0","0","90622","","null","","","null","79","","","","","","","","","","","","","","","",""
"","time_out","","html-keyboard-response","521","616201","0.0-1.0-719.0-0.0","0","0","90622","","null","","","null","79","","","","","","","","","","","","","","","",""
"","ITI","","html-keyboard-response","522","617208","0.0-1.0-720.0","0","0","90622","","null","","","null","79","","","","","","","","","","","","","","","NaN",""
"","S1","","html-keyboard-response","523","617460","0.0-1.0-722.0","0","0","90622","","null","","","null","80","","","","","","","","","","","","","","","",""
"","ISI","","html-keyboard-response","524","619462","0.0-1.0-723.0","0","0","90622","","null","","","null","80","NaN","","","","","","","","","","","","","","",""
"","S2","","html-keyboard-response","525","619713","0.0-1.0-724.0","0","0","90622","","null","","","null","80","","NaN","","","","","","","","","","","","","",""
"","response","","html-keyboard-response","526","620113","0.0-1.0-725.0","0","0","90622","","399","","","68","80","","","2","80","training","adjacent","BA","2","1","M.jpg","P.jpg","1","0","0","",""
"","feedback","","html-keyboard-response","527","621128","0.0-1.0-726.0-0.0","0","0","90622","","null","","","null","80","","","","","","","","","","","","","","","",""
"","time_out","","html-keyboard-response","528","623142","0.0-1.0-728.0-0.0","0","0","90622","","null","","","null","80","","","","","","","","","","","","","","","",""
"","ITI","","html-keyboard-response","529","624150","0.0-1.0-729.0","0","0","90622","","null","","","null","80","","","","","","","","","","","","","","","NaN",""
"","S1","","html-keyboard-response","530","624402","0.0-1.0-731.0","0","0","90622","","null","","","null","81","","","","","","","","","","","","","","","",""
"","ISI","","html-keyboard-response","531","626414","0.0-1.0-732.0","0","0","90622","","null","","","null","81","NaN","","","","","","","","","","","","","","",""
"","S2","","html-keyboard-response","532","626682","0.0-1.0-733.0","0","0","90622","","null","","","null","81","","NaN","","","","","","","","","","","","","",""
"","response","","html-keyboard-response","533","627361","0.0-1.0-734.0","0","0","90622","","678","","","75","81","","","2","81","training","adjacent","FE","6","5","O.jpg","R.jpg","0","0","1","",""
"","feedback","","html-keyboard-response","534","628365","0.0-1.0-735.0-0.0","0","0","90622","","null","","","null","81","","","","","","","","","","","","","","","",""
"","ITI","","html-keyboard-response","535","629373","0.0-1.0-738.0","0","0","90622","","null","","","null","81","","","","","","","","","","","","","","","NaN",""
"","S1","","html-keyboard-response","536","629624","0.0-1.0-740.0","0","0","90622","","null","","","null","82","","","","","","","","","","","","","","","",""
"","ISI","","html-keyboard-response","537","631638","0.0-1.0-741.0","0","0","90622","","null","","","null","82","NaN","","","","","","","","","","","","","","",""
"","S2","","html-keyboard-response","538","631905","0.0-1.0-742.0","0","0","90622","","null","","","null","82","","NaN","","","","","","","","","","","","","",""
"","response","","html-keyboard-response","539","632631","0.0-1.0-743.0","0","0","90622","","725","","","68","82","","","2","82","training","adjacent","CD","3","4","N.jpg","L.jpg","1","1","1","",""
"","feedback","","html-keyboard-response","540","633634","0.0-1.0-744.0-0.0","0","0","90622","","null","","","null","82","","","","","","","","","","","","","","","",""
"","ITI","","html-keyboard-response","541","634642","0.0-1.0-747.0","0","0","90622","","null","","","null","82","","","","","","","","","","","","","","","NaN",""
"","S1","","html-keyboard-response","542","634909","0.0-1.0-749.0","0","0","90622","","null","","","null","83","","","","","","","","","","","","","","","",""
"","ISI","","html-keyboard-response","543","636923","0.0-1.0-750.0","0","0","90622","","null","","","null","83","NaN","","","","","","","","","","","","","","",""
"","S2","","html-keyboard-response","544","637190","0.0-1.0-751.0","0","0","90622","","null","","","null","83","","NaN","","","","","","","","","","","","","",""
"","response","","html-keyboard-response","545","637903","0.0-1.0-752.0","0","0","90622","","712","","","68","83","","","2","83","training","adjacent","FG","6","7","O.jpg","Q.jpg","1","1","1","",""
"","feedback","","html-keyboard-response","546","638905","0.0-1.0-753.0-0.0","0","0","90622","","null","","","null","83","","","","","","","","","","","","","","","",""
"","ITI","","html-keyboard-response","547","639913","0.0-1.0-756.0","0","0","90622","","null","","","null","83","","","","","","","","","","","","","","","NaN",""
"","S1","","html-keyboard-response","548","640180","0.0-1.0-758.0","0","0","90622","","null","","","null","84","","","","","","","","","","","","","","","",""
"","ISI","","html-keyboard-response","549","642194","0.0-1.0-759.0","0","0","90622","","null","","","null","84","NaN","","","","","","","","","","","","","","",""
"","S2","","html-keyboard-response","550","642446","0.0-1.0-760.0","0","0","90622","","null","","","null","84","","NaN","","","","","","","","","","","","","",""
"","response","","html-keyboard-response","551","643436","0.0-1.0-761.0","0","0","90622","","989","","","75","84","","","2","84","training","adjacent","BC","2","3","M.jpg","N.jpg","0","1","0","",""
"","feedback","","html-keyboard-response","552","644446","0.0-1.0-762.0-0.0","0","0","90622","","null","","","null","84","","","","","","","","","","","","","","","",""
"","time_out","","html-keyboard-response","553","646459","0.0-1.0-764.0-0.0","0","0","90622","","null","","","null","84","","","","","","","","","","","","","","","",""
"","ITI","","html-keyboard-response","554","647465","0.0-1.0-765.0","0","0","90622","","null","","","null","84","","","","","","","","","","","","","","","NaN",""
"","S1","","html-keyboard-response","555","647733","0.0-1.0-767.0","0","0","90622","","null","","","null","85","","","","","","","","","","","","","","","",""
"","ISI","","html-keyboard-response","556","649748","0.0-1.0-768.0","0","0","90622","","null","","","null","85","NaN","","","","","","","","","","","","","","",""
"","S2","","html-keyboard-response","557","650015","0.0-1.0-769.0","0","0","90622","","null","","","null","85","","NaN","","","","","","","","","","","","","",""
"","response","","html-keyboard-response","558","650751","0.0-1.0-770.0","0","0","90622","","735","","","68","85","","","2","85","training","adjacent","GF","7","6","Q.jpg","O.jpg","1","0","0","",""
"","feedback","","html-keyboard-response","559","651759","0.0-1.0-771.0-0.0","0","0","90622","","null","","","null","85","","","","","","","","","","","","","","","",""
"","time_out","","html-keyboard-response","560","653775","0.0-1.0-773.0-0.0","0","0","90622","","null","","","null","85","","","","","","","","","","","","","","","",""
"","ITI","","html-keyboard-response","561","654783","0.0-1.0-774.0","0","0","90622","","null","","","null","85","","","","","","","","","","","","","","","NaN",""
"","S1","","html-keyboard-response","562","655049","0.0-1.0-776.0","0","0","90622","","null","","","null","86","","","","","","","","","","","","","","","",""
"","ISI","","html-keyboard-response","563","657061","0.0-1.0-777.0","0","0","90622","","null","","","null","86","NaN","","","","","","","","","","","","","","",""
"","S2","","html-keyboard-response","564","657328","0.0-1.0-778.0","0","0","90622","","null","","","null","86","","NaN","","","","","","","","","","","","","",""
"","response","","html-keyboard-response","565","657996","0.0-1.0-779.0","0","0","90622","","666","","","75","86","","","2","86","training","adjacent","BC","2","3","M.jpg","N.jpg","0","1","0","",""
"","feedback","","html-keyboard-response","566","659011","0.0-1.0-780.0-0.0","0","0","90622","","null","","","null","86","","","","","","","","","","","","","","","",""
"","time_out","","html-keyboard-response","567","661026","0.0-1.0-782.0-0.0","0","0","90622","","null","","","null","86","","","","","","","","","","","","","","","",""
"","ITI","","html-keyboard-response","568","662033","0.0-1.0-783.0","0","0","90622","","null","","","null","86","","","","","","","","","","","","","","","NaN",""
"","S1","","html-keyboard-response","569","662284","0.0-1.0-785.0","0","0","90622","","null","","","null","87","","","","","","","","","","","","","","","",""
"","ISI","","html-keyboard-response","570","664297","0.0-1.0-786.0","0","0","90622","","null","","","null","87","NaN","","","","","","","","","","","","","","",""
"","S2","","html-keyboard-response","571","664548","0.0-1.0-787.0","0","0","90622","","null","","","null","87","","NaN","","","","","","","","","","","","","",""
"","response","","html-keyboard-response","572","665472","0.0-1.0-788.0","0","0","90622","","922","","","75","87","","","2","87","training","adjacent","BA","2","1","M.jpg","P.jpg","0","0","1","",""
"","feedback","","html-keyboard-response","573","666482","0.0-1.0-789.0-0.0","0","0","90622","","null","","","null","87","","","","","","","","","","","","","","","",""
"","ITI","","html-keyboard-response","574","667488","0.0-1.0-792.0","0","0","90622","","null","","","null","87","","","","","","","","","","","","","","","NaN",""
"","S1","","html-keyboard-response","575","667755","0.0-1.0-794.0","0","0","90622","","null","","","null","88","","","","","","","","","","","","","","","",""
"","ISI","","html-keyboard-response","576","669771","0.0-1.0-795.0","0","0","90622","","null","","","null","88","NaN","","","","","","","","","","","","","","",""
"","S2","","html-keyboard-response","577","670037","0.0-1.0-796.0","0","0","90622","","null","","","null","88","","NaN","","","","","","","","","","","","","",""
"","response","","html-keyboard-response","578","670960","0.0-1.0-797.0","0","0","90622","","921","","","75","88","","","2","88","training","adjacent","DC","4","3","L.jpg","N.jpg","0","0","1","",""
"","feedback","","html-keyboard-response","579","671972","0.0-1.0-798.0-0.0","0","0","90622","","null","","","null","88","","","","","","","","","","","","","","","",""
"","ITI","","html-keyboard-response","580","672979","0.0-1.0-801.0","0","0","90622","","null","","","null","88","","","","","","","","","","","","","","","NaN",""
"","S1","","html-keyboard-response","581","673230","0.0-1.0-803.0","0","0","90622","","null","","","null","89","","","","","","","","","","","","","","","",""
"","ISI","","html-keyboard-response","582","675245","0.0-1.0-804.0","0","0","90622","","null","","","null","89","NaN","","","","","","","","","","","","","","",""
"","S2","","html-keyboard-response","583","675512","0.0-1.0-805.0","0","0","90622","","null","","","null","89","","NaN","","","","","","","","","","","","","",""
"","response","","html-keyboard-response","584","676577","0.0-1.0-806.0","0","0","90622","","1064","","","75","89","","","2","89","training","adjacent","ED","5","4","R.jpg","L.jpg","0","0","1","",""
