"success","ttype","start_time","trial_type","trial_index","time_elapsed","internal_node_id","warning","missed_checkup","PID","view_history","rt","responses","repeat_instructions","key_press","index","keypress_isi","keypress_S2","block","trial_num","phase","group_type","pair_type","S1_stim","S2_stim","S1_img","S2_img","S1_chosen","S1_higher","accuracy","keypress_iti","total_bonus_tally"
"true","full_screen","d08042022hr2036","fullscreen","0","2542","0.0-0.0","0","0","96697","","","","","","","","","","","","","","","","","","","","","",""
"","instructions","","instructions","1","46452","0.0-1.0-0.0-0.0","0","0","96697","[{""page_index"":0,""viewing_time"":3222},{""page_index"":1,""viewing_time"":35627},{""page_index"":2,""viewing_time"":3636},{""page_index"":3,""viewing_time"":1417}]","43904","","","","","","","","","","","","","","","","","","","",""
"","comprehension_check","","survey-multi-choice","2","76706","0.0-1.0-0.0-1.0","0","0","96697","","30214","{""Q0"":""True"",""Q1"":""D"",""Q2"":""Once the second image appears and while the screen 'MAKE A CHOICE' is shown"",""Q3"":""Green mark"",""Q4"":""either D or K""}","1","","","","","","","","","","","","","","","","","",""
"","missed_instruction_checkup","","html-keyboard-response","3","79891","0.0-1.0-0.0-2.0-0.0","0","1","96697","","3173","","","32","","","","","","","","","","","","","","","","",""
"","instructions","","instructions","4","83935","0.0-1.0-0.1-0.1","0","0","96697","[{""page_index"":0,""viewing_time"":1560},{""page_index"":1,""viewing_time"":817},{""page_index"":2,""viewing_time"":759},{""page_index"":3,""viewing_time"":903}]","4039","","","","","","","","","","","","","","","","","","","",""
"","comprehension_check","","survey-multi-choice","5","151659","0.0-1.0-0.1-1.1","0","0","96697","","67713","{""Q0"":""True"",""Q1"":""D"",""Q2"":""Once the second image appears and while the screen 'MAKE A CHOICE' is shown"",""Q3"":""Green mark"",""Q4"":""either D or K""}","1","","","","","","","","","","","","","","","","","",""
"","missed_instruction_checkup","","html-keyboard-response","6","154206","0.0-1.0-0.1-2.1-0.1","0","1","96697","","2539","","","32","","","","","","","","","","","","","","","","",""
"","instructions","","instructions","7","160645","0.0-1.0-0.2-0.2","0","0","96697","[{""page_index"":0,""viewing_time"":1791},{""page_index"":1,""viewing_time"":1536},{""page_index"":2,""viewing_time"":1615},{""page_index"":3,""viewing_time"":1492}]","6435","","","","","","","","","","","","","","","","","","","",""
"","comprehension_check","","survey-multi-choice","8","178675","0.0-1.0-0.2-1.2","0","0","96697","","18017","{""Q0"":""True"",""Q1"":""K"",""Q2"":""Once the second image appears and while the screen 'MAKE A CHOICE' is shown"",""Q3"":""Green mark"",""Q4"":""either D or K""}","0","","","","","","","","","","","","","","","","","",""
"","start_exp","","html-keyboard-response","9","180374","0.0-1.0-1.0","0","0","96697","","1691","","","32","","","","","","","","","","","","","","","","",""
"","S1","","html-keyboard-response","10","180630","0.0-1.0-2.0","0","0","96697","","null","","","null","0","","","","","","","","","","","","","","","",""
"","ISI","","html-keyboard-response","11","182636","0.0-1.0-3.0","0","0","96697","","null","","","null","0","NaN","","","","","","","","","","","","","","",""
"","S2","","html-keyboard-response","12","182893","0.0-1.0-4.0","0","0","96697","","null","","","null","0","","NaN","","","","","","","","","","","","","",""
"","response","","html-keyboard-response","13","184449","0.0-1.0-5.0-0.0","0","0","96697","","1549","","","68","0","","","1","0","training","adjacent","CB","3","2","P.jpg","O.jpg","0","0","1","",""
"","feedback","","html-keyboard-response","14","185454","0.0-1.0-6.0-0.0","0","0","96697","","null","","","null","0","","","","","","","","","","","","","","","",""
"","ITI","","html-keyboard-response","15","186463","0.0-1.0-9.0","0","0","96697","","36","","","68","0","","","","","","","","","","","","","","","d",""
"","S1","","html-keyboard-response","16","186720","0.0-1.0-11.0","0","0","96697","","null","","","null","1","","","","","","","","","","","","","","","",""
"","ISI","","html-keyboard-response","17","188725","0.0-1.0-12.0","0","0","96697","","67","","","68","1","d","","","","","","","","","","","","","","",""
"","S2","","html-keyboard-response","18","188775","0.0-1.0-13.0","0","0","96697","","45","","","75","1","","k","1","1","training","adjacent","BC","2","3","O.jpg","P.jpg","1","1","1","",""
"","feedback","","html-keyboard-response","19","189782","0.0-1.0-15.0-0.0","0","0","96697","","null","","","null","1","","","","","","","","","","","","","","","",""
"","ITI","","html-keyboard-response","20","190787","0.0-1.0-18.0","0","0","96697","","560","","","68","1","","","","","","","","","","","","","","","d",""
"","S1","","html-keyboard-response","21","191045","0.0-1.0-20.0","0","0","96697","","null","","","null","2","","","","","","","","","","","","","","","",""
"","ISI","","html-keyboard-response","22","193050","0.0-1.0-21.0","0","0","96697","","32","","","68","2","d","","","","","","","","","","","","","","",""
"","S2","","html-keyboard-response","23","193108","0.0-1.0-22.0","0","0","96697","","53","","","68","2","","d","1","2","training","adjacent","FE","6","5","M.jpg","Q.jpg","0","0","1","",""
"","feedback","","html-keyboard-response","24","194113","0.0-1.0-24.0-0.0","0","0","96697","","null","","","null","2","","","","","","","","","","","","","","","",""
"","ITI","","html-keyboard-response","25","195119","0.0-1.0-27.0","0","0","96697","","123","","","75","2","","","","","","","","","","","","","","","k",""
"","S1","","html-keyboard-response","26","195373","0.0-1.0-29.0","0","0","96697","","null","","","null","3","","","","","","","","","","","","","","","",""
"","ISI","","html-keyboard-response","27","197378","0.0-1.0-30.0","0","0","96697","","130","","","68","3","d","","","","","","","","","","","","","","",""
"","S2","","html-keyboard-response","28","197428","0.0-1.0-31.0","0","0","96697","","44","","","68","3","","d","1","3","training","adjacent","CD","3","4","P.jpg","N.jpg","0","1","0","",""
"","feedback","","html-keyboard-response","29","198434","0.0-1.0-33.0-0.0","0","0","96697","","null","","","null","3","","","","","","","","","","","","","","","",""
"","time_out","","html-keyboard-response","30","200439","0.0-1.0-35.0-0.0","0","0","96697","","null","","","null","3","","","","","","","","","","","","","","","",""
"","ITI","","html-keyboard-response","31","201446","0.0-1.0-36.0","0","0","96697","","118","","","68","3","","","","","","","","","","","","","","","d",""
"","S1","","html-keyboard-response","32","201701","0.0-1.0-38.0","0","0","96697","","null","","","null","4","","","","","","","","","","","","","","","",""
"","ISI","","html-keyboard-response","33","203706","0.0-1.0-39.0","0","0","96697","","39","","","75","4","k","","","","","","","","","","","","","","",""
"","S2","","html-keyboard-response","34","203785","0.0-1.0-40.0","0","0","96697","","72","","","68","4","","d","1","4","training","adjacent","EF","5","6","Q.jpg","M.jpg","0","1","0","",""
"","feedback","","html-keyboard-response","35","204793","0.0-1.0-42.0-0.0","0","0","96697","","null","","","null","4","","","","","","","","","","","","","","","",""
"","time_out","","html-keyboard-response","36","206797","0.0-1.0-44.0-0.0","0","0","96697","","null","","","null","4","","","","","","","","","","","","","","","",""
"","ITI","","html-keyboard-response","37","207802","0.0-1.0-45.0","0","0","96697","","154","","","68","4","","","","","","","","","","","","","","","d",""
"","S1","","html-keyboard-response","38","208057","0.0-1.0-47.0","0","0","96697","","null","","","null","5","","","","","","","","","","","","","","","",""
"","ISI","","html-keyboard-response","39","210067","0.0-1.0-48.0","0","0","96697","","63","","","68","5","d","","","","","","","","","","","","","","",""
"","S2","","html-keyboard-response","40","210097","0.0-1.0-49.0","0","0","96697","","26","","","75","5","","k","1","5","training","adjacent","FG","6","7","M.jpg","L.jpg","1","1","1","",""
"","feedback","","html-keyboard-response","41","211110","0.0-1.0-51.0-0.0","0","0","96697","","null","","","null","5","","","","","","","","","","","","","","","",""
"","ITI","","html-keyboard-response","42","212119","0.0-1.0-54.0","0","0","96697","","64","","","75","5","","","","","","","","","","","","","","","k",""
"","S1","","html-keyboard-response","43","212378","0.0-1.0-56.0","0","0","96697","","null","","","null","6","","","","","","","","","","","","","","","",""
"","ISI","","html-keyboard-response","44","214385","0.0-1.0-57.0","0","0","96697","","63","","","68","6","d","","","","","","","","","","","","","","",""
"","S2","","html-keyboard-response","45","214420","0.0-1.0-58.0","0","0","96697","","24","","","68","6","","d","1","6","training","adjacent","GF","7","6","L.jpg","M.jpg","0","0","1","",""
"","feedback","","html-keyboard-response","46","215427","0.0-1.0-60.0-0.0","0","0","96697","","null","","","null","6","","","","","","","","","","","","","","","",""
"","ITI","","html-keyboard-response","47","216435","0.0-1.0-63.0","0","0","96697","","40","","","68","6","","","","","","","","","","","","","","","d",""
"","S1","","html-keyboard-response","48","216694","0.0-1.0-65.0","0","0","96697","","null","","","null","7","","","","","","","","","","","","","","","",""
"","ISI","","html-keyboard-response","49","218700","0.0-1.0-66.0","0","0","96697","","59","","","75","7","k","","","","","","","","","","","","","","",""
"","S2","","html-keyboard-response","50","218957","0.0-1.0-67.0","0","0","96697","","null","","","null","7","","NaN","","","","","","","","","","","","","",""
"","response","","html-keyboard-response","51","220112","0.0-1.0-68.0-0.0","0","0","96697","","1149","","","68","7","","","1","7","training","adjacent","ED","5","4","Q.jpg","N.jpg","0","0","1","",""
"","feedback","","html-keyboard-response","52","221120","0.0-1.0-69.0-0.0","0","0","96697","","null","","","null","7","","","","","","","","","","","","","","","",""
"","ITI","","html-keyboard-response","53","222128","0.0-1.0-72.0","0","0","96697","","91","","","68","7","","","","","","","","","","","","","","","d",""
"","S1","","html-keyboard-response","54","222385","0.0-1.0-74.0","0","0","96697","","null","","","null","8","","","","","","","","","","","","","","","",""
"","ISI","","html-keyboard-response","55","224391","0.0-1.0-75.0","0","0","96697","","63","","","68","8","d","","","","","","","","","","","","","","",""
"","S2","","html-keyboard-response","56","224562","0.0-1.0-76.0","0","0","96697","","165","","","68","8","","d","1","8","training","adjacent","FG","6","7","M.jpg","L.jpg","0","1","0","",""
"","feedback","","html-keyboard-response","57","225573","0.0-1.0-78.0-0.0","0","0","96697","","null","","","null","8","","","","","","","","","","","","","","","",""
"","time_out","","html-keyboard-response","58","227578","0.0-1.0-80.0-0.0","0","0","96697","","null","","","null","8","","","","","","","","","","","","","","","",""
"","ITI","","html-keyboard-response","59","228587","0.0-1.0-81.0","0","0","96697","","95","","","75","8","","","","","","","","","","","","","","","k",""
"","S1","","html-keyboard-response","60","228847","0.0-1.0-83.0","0","0","96697","","null","","","null","9","","","","","","","","","","","","","","","",""
"","ISI","","html-keyboard-response","61","230854","0.0-1.0-84.0","0","0","96697","","4","","","75","9","k","","","","","","","","","","","","","","",""
"","S2","","html-keyboard-response","62","231024","0.0-1.0-85.0","0","0","96697","","162","","","75","9","","k","1","9","training","adjacent","ED","5","4","Q.jpg","N.jpg","1","0","0","",""
"","feedback","","html-keyboard-response","63","232031","0.0-1.0-87.0-0.0","0","0","96697","","null","","","null","9","","","","","","","","","","","","","","","",""
"","time_out","","html-keyboard-response","64","234041","0.0-1.0-89.0-0.0","0","0","96697","","null","","","null","9","","","","","","","","","","","","","","","",""
"","ITI","","html-keyboard-response","65","235046","0.0-1.0-90.0","0","0","96697","","56","","","75","9","","","","","","","","","","","","","","","k",""
"","S1","","html-keyboard-response","66","235303","0.0-1.0-92.0","0","0","96697","","null","","","null","10","","","","","","","","","","","","","","","",""
"","ISI","","html-keyboard-response","67","237309","0.0-1.0-93.0","0","0","96697","","86","","","75","10","k","","","","","","","","","","","","","","",""
"","S2","","html-keyboard-response","68","237365","0.0-1.0-94.0","0","0","96697","","52","","","75","10","","k","1","10","training","adjacent","EF","5","6","Q.jpg","M.jpg","1","1","1","",""
"","feedback","","html-keyboard-response","69","238369","0.0-1.0-96.0-0.0","0","0","96697","","null","","","null","10","","","","","","","","","","","","","","","",""
"","ITI","","html-keyboard-response","70","239373","0.0-1.0-99.0","0","0","96697","","141","","","75","10","","","","","","","","","","","","","","","k",""
"","S1","","html-keyboard-response","71","239640","0.0-1.0-101.0","0","0","96697","","null","","","null","11","","","","","","","","","","","","","","","",""
"","ISI","","html-keyboard-response","72","241645","0.0-1.0-102.0","0","0","96697","","1","","","68","11","d","","","","","","","","","","","","","","",""
"","S2","","html-keyboard-response","73","241653","0.0-1.0-103.0","0","0","96697","","4","","","75","11","","k","1","11","training","adjacent","GF","7","6","L.jpg","M.jpg","1","0","0","",""
"","feedback","","html-keyboard-response","74","242659","0.0-1.0-105.0-0.0","0","0","96697","","null","","","null","11","","","","","","","","","","","","","","","",""
"","time_out","","html-keyboard-response","75","244666","0.0-1.0-107.0-0.0","0","0","96697","","null","","","null","11","","","","","","","","","","","","","","","",""
"","ITI","","html-keyboard-response","76","245670","0.0-1.0-108.0","0","0","96697","","null","","","null","11","","","","","","","","","","","","","","","NaN",""
"","S1","","html-keyboard-response","77","245924","0.0-1.0-110.0","0","0","96697","","null","","","null","12","","","","","","","","","","","","","","","",""
"","ISI","","html-keyboard-response","78","247929","0.0-1.0-111.0","0","0","96697","","78","","","68","12","d","","","","","","","","","","","","","","",""
"","S2","","html-keyboard-response","79","248185","0.0-1.0-112.0","0","0","96697","","null","","","null","12","","NaN","","","","","","","","","","","","","",""
"","response","","html-keyboard-response","80","248259","0.0-1.0-113.0-0.0","0","0","96697","","70","","","68","12","","","1","12","training","adjacent","DE","4","5","N.jpg","Q.jpg","0","1","0","",""
"","feedback","","html-keyboard-response","81","249264","0.0-1.0-114.0-0.0","0","0","96697","","null","","","null","12","","","","","","","","","","","","","","","",""
"","time_out","","html-keyboard-response","82","251269","0.0-1.0-116.0-0.0","0","0","96697","","null","","","null","12","","","","","","","","","","","","","","","",""
"","ITI","","html-keyboard-response","83","252272","0.0-1.0-117.0","0","0","96697","","156","","","75","12","","","","","","","","","","","","","","","k",""
"","S1","","html-keyboard-response","84","252526","0.0-1.0-119.0","0","0","96697","","null","","","null","13","","","","","","","","","","","","","","","",""
"","ISI","","html-keyboard-response","85","254532","0.0-1.0-120.0","0","0","96697","","20","","","68","13","d","","","","","","","","","","","","","","",""
"","S2","","html-keyboard-response","86","254786","0.0-1.0-121.0","0","0","96697","","246","","","68","13","","d","1","13","training","adjacent","FE","6","5","M.jpg","Q.jpg","0","0","1","",""
"","feedback","","html-keyboard-response","87","255799","0.0-1.0-123.0-0.0","0","0","96697","","null","","","null","13","","","","","","","","","","","","","","","",""
"","ITI","","html-keyboard-response","88","256807","0.0-1.0-126.0","0","0","96697","","128","","","68","13","","","","","","","","","","","","","","","d",""
"","S1","","html-keyboard-response","89","257063","0.0-1.0-128.0","0","0","96697","","null","","","null","14","","","","","","","","","","","","","","","",""
"","ISI","","html-keyboard-response","90","259068","0.0-1.0-129.0","0","0","96697","","115","","","75","14","k","","","","","","","","","","","","","","",""
"","S2","","html-keyboard-response","91","259182","0.0-1.0-130.0","0","0","96697","","109","","","75","14","","k","1","14","training","adjacent","FG","6","7","M.jpg","L.jpg","1","1","1","",""
"","feedback","","html-keyboard-response","92","260187","0.0-1.0-132.0-0.0","0","0","96697","","null","","","null","14","","","","","","","","","","","","","","","",""
"","ITI","","html-keyboard-response","93","261192","0.0-1.0-135.0","0","0","96697","","164","","","75","14","","","","","","","","","","","","","","","k",""
"","S1","","html-keyboard-response","94","261453","0.0-1.0-137.0","0","0","96697","","null","","","null","15","","","","","","","","","","","","","","","",""
"","ISI","","html-keyboard-response","95","263464","0.0-1.0-138.0","0","0","96697","","71","","","75","15","k","","","","","","","","","","","","","","",""
"","S2","","html-keyboard-response","96","263596","0.0-1.0-139.0","0","0","96697","","128","","","75","15","","k","1","15","training","adjacent","AB","1","2","R.jpg","O.jpg","1","1","1","",""
"","feedback","","html-keyboard-response","97","264630","0.0-1.0-141.0-0.0","0","0","96697","","null","","","null","15","","","","","","","","","","","","","","","",""
"","ITI","","html-keyboard-response","98","265640","0.0-1.0-144.0","0","0","96697","","90","","","75","15","","","","","","","","","","","","","","","k",""
"","S1","","html-keyboard-response","99","265896","0.0-1.0-146.0","0","0","96697","","null","","","null","16","","","","","","","","","","","","","","","",""
"","ISI","","html-keyboard-response","100","267901","0.0-1.0-147.0","0","0","96697","","228","","","68","16","d","","","","","","","","","","","","","","",""
"","S2","","html-keyboard-response","101","268117","0.0-1.0-148.0","0","0","96697","","210","","","68","16","","d","1","16","training","adjacent","AB","1","2","R.jpg","O.jpg","0","1","0","",""
"","feedback","","html-keyboard-response","102","269123","0.0-1.0-150.0-0.0","0","0","96697","","null","","","null","16","","","","","","","","","","","","","","","",""
"","time_out","","html-keyboard-response","103","271138","0.0-1.0-152.0-0.0","0","0","96697","","null","","","null","16","","","","","","","","","","","","","","","",""
"","ITI","","html-keyboard-response","104","272149","0.0-1.0-153.0","0","0","96697","","117","","","68","16","","","","","","","","","","","","","","","d",""
"","S1","","html-keyboard-response","105","272405","0.0-1.0-155.0","0","0","96697","","null","","","null","17","","","","","","","","","","","","","","","",""
"","ISI","","html-keyboard-response","106","274412","0.0-1.0-156.0","0","0","96697","","0","","","75","17","k","","","","","","","","","","","","","","",""
"","S2","","html-keyboard-response","107","274499","0.0-1.0-157.0","0","0","96697","","82","","","68","17","","d","1","17","training","adjacent","AB","1","2","R.jpg","O.jpg","0","1","0","",""
"","feedback","","html-keyboard-response","108","275506","0.0-1.0-159.0-0.0","0","0","96697","","null","","","null","17","","","","","","","","","","","","","","","",""
"","time_out","","html-keyboard-response","109","277513","0.0-1.0-161.0-0.0","0","0","96697","","null","","","null","17","","","","","","","","","","","","","","","",""
"","ITI","","html-keyboard-response","110","278520","0.0-1.0-162.0","0","0","96697","","0","","","75","17","","","","","","","","","","","","","","","k",""
"","S1","","html-keyboard-response","111","278778","0.0-1.0-164.0","0","0","96697","","null","","","null","18","","","","","","","","","","","","","","","",""
"","ISI","","html-keyboard-response","112","280786","0.0-1.0-165.0","0","0","96697","","168","","","68","18","d","","","","","","","","","","","","","","",""
"","S2","","html-keyboard-response","113","281041","0.0-1.0-166.0","0","0","96697","","null","","","null","18","","NaN","","","","","","","","","","","","","",""
"","response","","html-keyboard-response","114","281137","0.0-1.0-167.0-0.0","0","0","96697","","90","","","75","18","","","1","18","training","adjacent","FE","6","5","M.jpg","Q.jpg","1","0","0","",""
"","feedback","","html-keyboard-response","115","282144","0.0-1.0-168.0-0.0","0","0","96697","","null","","","null","18","","","","","","","","","","","","","","","",""
"","time_out","","html-keyboard-response","116","284150","0.0-1.0-170.0-0.0","0","0","96697","","null","","","null","18","","","","","","","","","","","","","","","",""
"","ITI","","html-keyboard-response","117","285157","0.0-1.0-171.0","0","0","96697","","78","","","75","18","","","","","","","","","","","","","","","k",""
"","S1","","html-keyboard-response","118","285414","0.0-1.0-173.0","0","0","96697","","null","","","null","19","","","","","","","","","","","","","","","",""
"","ISI","","html-keyboard-response","119","287428","0.0-1.0-174.0","0","0","96697","","218","","","68","19","d","","","","","","","","","","","","","","",""
"","S2","","html-keyboard-response","120","287592","0.0-1.0-175.0","0","0","96697","","160","","","75","19","","k","1","19","training","adjacent","CD","3","4","P.jpg","N.jpg","1","1","1","",""
"","feedback","","html-keyboard-response","121","288599","0.0-1.0-177.0-0.0","0","0","96697","","null","","","null","19","","","","","","","","","","","","","","","",""
"","ITI","","html-keyboard-response","122","289608","0.0-1.0-180.0","0","0","96697","","56","","","75","19","","","","","","","","","","","","","","","k",""
"","S1","","html-keyboard-response","123","289864","0.0-1.0-182.0","0","0","96697","","null","","","null","20","","","","","","","","","","","","","","","",""
"","ISI","","html-keyboard-response","124","291870","0.0-1.0-183.0","0","0","96697","","63","","","75","20","k","","","","","","","","","","","","","","",""
"","S2","","html-keyboard-response","125","292007","0.0-1.0-184.0","0","0","96697","","133","","","75","20","","k","1","20","training","adjacent","BC","2","3","O.jpg","P.jpg","1","1","1","",""
"","feedback","","html-keyboard-response","126","293015","0.0-1.0-186.0-0.0","0","0","96697","","null","","","null","20","","","","","","","","","","","","","","","",""
"","ITI","","html-keyboard-response","127","294024","0.0-1.0-189.0","0","0","96697","","18","","","75","20","","","","","","","","","","","","","","","k",""
"","S1","","html-keyboard-response","128","294281","0.0-1.0-191.0","0","0","96697","","null","","","null","21","","","","","","","","","","","","","","","",""
"","ISI","","html-keyboard-response","129","296290","0.0-1.0-192.0","0","0","96697","","104","","","68","21","d","","","","","","","","","","","","","","",""
"","S2","","html-keyboard-response","130","296311","0.0-1.0-193.0","0","0","96697","","15","","","68","21","","d","1","21","training","adjacent","CD","3","4","P.jpg","N.jpg","0","1","0","",""
"","feedback","","html-keyboard-response","131","297322","0.0-1.0-195.0-0.0","0","0","96697","","null","","","null","21","","","","","","","","","","","","","","","",""
"","time_out","","html-keyboard-response","132","299328","0.0-1.0-197.0-0.0","0","0","96697","","null","","","null","21","","","","","","","","","","","","","","","",""
"","ITI","","html-keyboard-response","133","300341","0.0-1.0-198.0","0","0","96697","","36","","","75","21","","","","","","","","","","","","","","","k",""
"","S1","","html-keyboard-response","134","300596","0.0-1.0-200.0","0","0","96697","","null","","","null","22","","","","","","","","","","","","","","","",""
"","ISI","","html-keyboard-response","135","302615","0.0-1.0-201.0","0","0","96697","","10","","","68","22","d","","","","","","","","","","","","","","",""
"","S2","","html-keyboard-response","136","302670","0.0-1.0-202.0","0","0","96697","","49","","","68","22","","d","1","22","training","adjacent","ED","5","4","Q.jpg","N.jpg","0","0","1","",""
"","feedback","","html-keyboard-response","137","303701","0.0-1.0-204.0-0.0","0","0","96697","","null","","","null","22","","","","","","","","","","","","","","","",""
"","ITI","","html-keyboard-response","138","304710","0.0-1.0-207.0","0","0","96697","","355","","","75","22","","","","","","","","","","","","","","","k",""
"","S1","","html-keyboard-response","139","304966","0.0-1.0-209.0","0","0","96697","","null","","","null","23","","","","","","","","","","","","","","","",""
"","ISI","","html-keyboard-response","140","306972","0.0-1.0-210.0","0","0","96697","","166","","","75","23","k","","","","","","","","","","","","","","",""
"","S2","","html-keyboard-response","141","307227","0.0-1.0-211.0","0","0","96697","","null","","","null","23","","NaN","","","","","","","","","","","","","",""
"","response","","html-keyboard-response","142","308153","0.0-1.0-212.0-0.0","0","0","96697","","921","","","75","23","","","1","23","training","adjacent","BC","2","3","O.jpg","P.jpg","1","1","1","",""
"","feedback","","html-keyboard-response","143","309160","0.0-1.0-213.0-0.0","0","0","96697","","null","","","null","23","","","","","","","","","","","","","","","",""
"","ITI","","html-keyboard-response","144","310167","0.0-1.0-216.0","0","0","96697","","275","","","75","23","","","","","","","","","","","","","","","k",""
"","S1","","html-keyboard-response","145","310427","0.0-1.0-218.0","0","0","96697","","null","","","null","24","","","","","","","","","","","","","","","",""
"","ISI","","html-keyboard-response","146","312434","0.0-1.0-219.0","0","0","96697","","172","","","75","24","k","","","","","","","","","","","","","","",""
"","S2","","html-keyboard-response","147","312514","0.0-1.0-220.0","0","0","96697","","74","","","75","24","","k","1","24","training","adjacent","ED","5","4","Q.jpg","N.jpg","1","0","0","",""
"","feedback","","html-keyboard-response","148","313520","0.0-1.0-222.0-0.0","0","0","96697","","null","","","null","24","","","","","","","","","","","","","","","",""
"","time_out","","html-keyboard-response","149","315524","0.0-1.0-224.0-0.0","0","0","96697","","null","","","null","24","","","","","","","","","","","","","","","",""
"","ITI","","html-keyboard-response","150","316532","0.0-1.0-225.0","0","0","96697","","68","","","75","24","","","","","","","","","","","","","","","k",""
"","S1","","html-keyboard-response","151","316790","0.0-1.0-227.0","0","0","96697","","null","","","null","25","","","","","","","","","","","","","","","",""
"","ISI","","html-keyboard-response","152","318806","0.0-1.0-228.0","0","0","96697","","171","","","75","25","k","","","","","","","","","","","","","","",""
"","S2","","html-keyboard-response","153","318860","0.0-1.0-229.0","0","0","96697","","37","","","68","25","","d","1","25","training","adjacent","DC","4","3","N.jpg","P.jpg","0","0","1","",""
"","feedback","","html-keyboard-response","154","319881","0.0-1.0-231.0-0.0","0","0","96697","","null","","","null","25","","","","","","","","","","","","","","","",""
"","ITI","","html-keyboard-response","155","320887","0.0-1.0-234.0","0","0","96697","","85","","","75","25","","","","","","","","","","","","","","","k",""
"","S1","","html-keyboard-response","156","321145","0.0-1.0-236.0","0","0","96697","","null","","","null","26","","","","","","","","","","","","","","","",""
"","ISI","","html-keyboard-response","157","323156","0.0-1.0-237.0","0","0","96697","","154","","","75","26","k","","","","","","","","","","","","","","",""
"","S2","","html-keyboard-response","158","323364","0.0-1.0-238.0","0","0","96697","","205","","","75","26","","k","1","26","training","adjacent","EF","5","6","Q.jpg","M.jpg","1","1","1","",""
"","feedback","","html-keyboard-response","159","324369","0.0-1.0-240.0-0.0","0","0","96697","","null","","","null","26","","","","","","","","","","","","","","","",""
"","ITI","","html-keyboard-response","160","325379","0.0-1.0-243.0","0","0","96697","","293","","","68","26","","","","","","","","","","","","","","","d",""
"","S1","","html-keyboard-response","161","325645","0.0-1.0-245.0","0","0","96697","","null","","","null","27","","","","","","","","","","","","","","","",""
"","ISI","","html-keyboard-response","162","327654","0.0-1.0-246.0","0","0","96697","","65","","","75","27","k","","","","","","","","","","","","","","",""
"","S2","","html-keyboard-response","163","327758","0.0-1.0-247.0","0","0","96697","","99","","","68","27","","d","1","27","training","adjacent","DE","4","5","N.jpg","Q.jpg","0","1","0","",""
"","feedback","","html-keyboard-response","164","328765","0.0-1.0-249.0-0.0","0","0","96697","","null","","","null","27","","","","","","","","","","","","","","","",""
"","time_out","","html-keyboard-response","165","330771","0.0-1.0-251.0-0.0","0","0","96697","","null","","","null","27","","","","","","","","","","","","","","","",""
"","ITI","","html-keyboard-response","166","331780","0.0-1.0-252.0","0","0","96697","","15","","","68","27","","","","","","","","","","","","","","","d",""
"","S1","","html-keyboard-response","167","332037","0.0-1.0-254.0","0","0","96697","","null","","","null","28","","","","","","","","","","","","","","","",""
"","ISI","","html-keyboard-response","168","334043","0.0-1.0-255.0","0","0","96697","","220","","","75","28","k","","","","","","","","","","","","","","",""
"","S2","","html-keyboard-response","169","334066","0.0-1.0-256.0","0","0","96697","","17","","","68","28","","d","1","28","training","adjacent","DC","4","3","N.jpg","P.jpg","0","0","1","",""
"","feedback","","html-keyboard-response","170","335072","0.0-1.0-258.0-0.0","0","0","96697","","null","","","null","28","","","","","","","","","","","","","","","",""
"","ITI","","html-keyboard-response","171","336086","0.0-1.0-261.0","0","0","96697","","174","","","75","28","","","","","","","","","","","","","","","k",""
"","S1","","html-keyboard-response","172","336360","0.0-1.0-263.0","0","0","96697","","null","","","null","29","","","","","","","","","","","","","","","",""
"","ISI","","html-keyboard-response","173","338365","0.0-1.0-264.0","0","0","96697","","133","","","75","29","k","","","","","","","","","","","","","","",""
"","S2","","html-keyboard-response","174","338461","0.0-1.0-265.0","0","0","96697","","93","","","68","29","","d","1","29","training","adjacent","GF","7","6","L.jpg","M.jpg","0","0","1","",""
"","feedback","","html-keyboard-response","175","339472","0.0-1.0-267.0-0.0","0","0","96697","","null","","","null","29","","","","","","","","","","","","","","","",""
"","ITI","","html-keyboard-response","176","340482","0.0-1.0-270.0","0","0","96697","","81","","","75","29","","","","","","","","","","","","","","","k",""
"","S1","","html-keyboard-response","177","340739","0.0-1.0-272.0","0","0","96697","","null","","","null","30","","","","","","","","","","","","","","","",""
"","ISI","","html-keyboard-response","178","342746","0.0-1.0-273.0","0","0","96697","","124","","","75","30","k","","","","","","","","","","","","","","",""
"","S2","","html-keyboard-response","179","342928","0.0-1.0-274.0","0","0","96697","","178","","","75","30","","k","1","30","training","adjacent","AB","1","2","R.jpg","O.jpg","1","1","1","",""
"","feedback","","html-keyboard-response","180","343936","0.0-1.0-276.0-0.0","0","0","96697","","null","","","null","30","","","","","","","","","","","","","","","",""
"","ITI","","html-keyboard-response","181","344943","0.0-1.0-279.0","0","0","96697","","11","","","68","30","","","","","","","","","","","","","","","d",""
"","S1","","html-keyboard-response","182","345199","0.0-1.0-281.0","0","0","96697","","null","","","null","31","","","","","","","","","","","","","","","",""
"","ISI","","html-keyboard-response","183","347203","0.0-1.0-282.0","0","0","96697","","179","","","68","31","d","","","","","","","","","","","","","","",""
"","S2","","html-keyboard-response","184","347250","0.0-1.0-283.0","0","0","96697","","44","","","68","31","","d","1","31","training","adjacent","FG","6","7","M.jpg","L.jpg","0","1","0","",""
"","feedback","","html-keyboard-response","185","348258","0.0-1.0-285.0-0.0","0","0","96697","","null","","","null","31","","","","","","","","","","","","","","","",""
"","time_out","","html-keyboard-response","186","350272","0.0-1.0-287.0-0.0","0","0","96697","","null","","","null","31","","","","","","","","","","","","","","","",""
"","ITI","","html-keyboard-response","187","351278","0.0-1.0-288.0","0","0","96697","","173","","","75","31","","","","","","","","","","","","","","","k",""
"","S1","","html-keyboard-response","188","351533","0.0-1.0-290.0","0","0","96697","","null","","","null","32","","","","","","","","","","","","","","","",""
"","ISI","","html-keyboard-response","189","353539","0.0-1.0-291.0","0","0","96697","","141","","","75","32","k","","","","","","","","","","","","","","",""
"","S2","","html-keyboard-response","190","353711","0.0-1.0-292.0","0","0","96697","","167","","","68","32","","d","1","32","training","adjacent","CB","3","2","P.jpg","O.jpg","0","0","1","",""
"","feedback","","html-keyboard-response","191","354716","0.0-1.0-294.0-0.0","0","0","96697","","null","","","null","32","","","","","","","","","","","","","","","",""
"","ITI","","html-keyboard-response","192","355722","0.0-1.0-297.0","0","0","96697","","138","","","68","32","","","","","","","","","","","","","","","d",""
"","S1","","html-keyboard-response","193","355978","0.0-1.0-299.0","0","0","96697","","null","","","null","33","","","","","","","","","","","","","","","",""
"","ISI","","html-keyboard-response","194","357985","0.0-1.0-300.0","0","0","96697","","139","","","68","33","d","","","","","","","","","","","","","","",""
"","S2","","html-keyboard-response","195","358169","0.0-1.0-301.0","0","0","96697","","178","","","68","33","","d","1","33","training","adjacent","BA","2","1","O.jpg","R.jpg","0","0","1","",""
"","feedback","","html-keyboard-response","196","359175","0.0-1.0-303.0-0.0","0","0","96697","","null","","","null","33","","","","","","","","","","","","","","","",""
"","ITI","","html-keyboard-response","197","360179","0.0-1.0-306.0","0","0","96697","","180","","","68","33","","","","","","","","","","","","","","","d",""
"","S1","","html-keyboard-response","198","360439","0.0-1.0-308.0","0","0","96697","","null","","","null","34","","","","","","","","","","","","","","","",""
"","ISI","","html-keyboard-response","199","362443","0.0-1.0-309.0","0","0","96697","","321","","","68","34","d","","","","","","","","","","","","","","",""
"","S2","","html-keyboard-response","200","362698","0.0-1.0-310.0","0","0","96697","","null","","","null","34","","NaN","","","","","","","","","","","","","",""
"","response","","html-keyboard-response","201","362963","0.0-1.0-311.0-0.0","0","0","96697","","259","","","68","34","","","1","34","training","adjacent","DE","4","5","N.jpg","Q.jpg","0","1","0","",""
"","feedback","","html-keyboard-response","202","363970","0.0-1.0-312.0-0.0","0","0","96697","","null","","","null","34","","","","","","","","","","","","","","","",""
"","time_out","","html-keyboard-response","203","365976","0.0-1.0-314.0-0.0","0","0","96697","","null","","","null","34","","","","","","","","","","","","","","","",""
"","ITI","","html-keyboard-response","204","366987","0.0-1.0-315.0","0","0","96697","","833","","","68","34","","","","","","","","","","","","","","","d",""
"","S1","","html-keyboard-response","205","367242","0.0-1.0-317.0","0","0","96697","","null","","","null","35","","","","","","","","","","","","","","","",""
"","ISI","","html-keyboard-response","206","369248","0.0-1.0-318.0","0","0","96697","","288","","","68","35","d","","","","","","","","","","","","","","",""
"","S2","","html-keyboard-response","207","369382","0.0-1.0-319.0","0","0","96697","","129","","","75","35","","k","1","35","training","adjacent","CB","3","2","P.jpg","O.jpg","1","0","0","",""
"","feedback","","html-keyboard-response","208","370388","0.0-1.0-321.0-0.0","0","0","96697","","null","","","null","35","","","","","","","","","","","","","","","",""
"","time_out","","html-keyboard-response","209","372394","0.0-1.0-323.0-0.0","0","0","96697","","null","","","null","35","","","","","","","","","","","","","","","",""
"","ITI","","html-keyboard-response","210","373399","0.0-1.0-324.0","0","0","96697","","39","","","75","35","","","","","","","","","","","","","","","k",""
"","S1","","html-keyboard-response","211","373659","0.0-1.0-326.0","0","0","96697","","null","","","null","36","","","","","","","","","","","","","","","",""
"","ISI","","html-keyboard-response","212","375670","0.0-1.0-327.0","0","0","96697","","63","","","75","36","k","","","","","","","","","","","","","","",""
"","S2","","html-keyboard-response","213","375793","0.0-1.0-328.0","0","0","96697","","116","","","75","36","","k","1","36","training","adjacent","BA","2","1","O.jpg","R.jpg","1","0","0","",""
"","feedback","","html-keyboard-response","214","376799","0.0-1.0-330.0-0.0","0","0","96697","","null","","","null","36","","","","","","","","","","","","","","","",""
"","time_out","","html-keyboard-response","215","378803","0.0-1.0-332.0-0.0","0","0","96697","","null","","","null","36","","","","","","","","","","","","","","","",""
"","ITI","","html-keyboard-response","216","379810","0.0-1.0-333.0","0","0","96697","","115","","","75","36","","","","","","","","","","","","","","","k",""
"","S1","","html-keyboard-response","217","380070","0.0-1.0-335.0","0","0","96697","","null","","","null","37","","","","","","","","","","","","","","","",""
"","ISI","","html-keyboard-response","218","382077","0.0-1.0-336.0","0","0","96697","","155","","","75","37","k","","","","","","","","","","","","","","",""
"","S2","","html-keyboard-response","219","382168","0.0-1.0-337.0","0","0","96697","","86","","","75","37","","k","1","37","training","adjacent","CB","3","2","P.jpg","O.jpg","1","0","0","",""
"","feedback","","html-keyboard-response","220","383173","0.0-1.0-339.0-0.0","0","0","96697","","null","","","null","37","","","","","","","","","","","","","","","",""
"","time_out","","html-keyboard-response","221","385179","0.0-1.0-341.0-0.0","0","0","96697","","null","","","null","37","","","","","","","","","","","","","","","",""
"","ITI","","html-keyboard-response","222","386188","0.0-1.0-342.0","0","0","96697","","35","","","75","37","","","","","","","","","","","","","","","k",""
"","S1","","html-keyboard-response","223","386445","0.0-1.0-344.0","0","0","96697","","null","","","null","38","","","","","","","","","","","","","","","",""
"","ISI","","html-keyboard-response","224","388450","0.0-1.0-345.0","0","0","96697","","51","","","75","38","k","","","","","","","","","","","","","","",""
"","S2","","html-keyboard-response","225","388499","0.0-1.0-346.0","0","0","96697","","45","","","75","38","","k","1","38","training","adjacent","DC","4","3","N.jpg","P.jpg","1","0","0","",""
"","feedback","","html-keyboard-response","226","389506","0.0-1.0-348.0-0.0","0","0","96697","","null","","","null","38","","","","","","","","","","","","","","","",""
"","time_out","","html-keyboard-response","227","391511","0.0-1.0-350.0-0.0","0","0","96697","","null","","","null","38","","","","","","","","","","","","","","","",""
"","ITI","","html-keyboard-response","228","392517","0.0-1.0-351.0","0","0","96697","","19","","","75","38","","","","","","","","","","","","","","","k",""
"","S1","","html-keyboard-response","229","392776","0.0-1.0-353.0","0","0","96697","","null","","","null","39","","","","","","","","","","","","","","","",""
"","ISI","","html-keyboard-response","230","394780","0.0-1.0-354.0","0","0","96697","","15","","","75","39","k","","","","","","","","","","","","","","",""
"","S2","","html-keyboard-response","231","394792","0.0-1.0-355.0","0","0","96697","","7","","","68","39","","d","1","39","training","adjacent","GF","7","6","L.jpg","M.jpg","0","0","1","",""
"","feedback","","html-keyboard-response","232","395797","0.0-1.0-357.0-0.0","0","0","96697","","null","","","null","39","","","","","","","","","","","","","","","",""
"","ITI","","html-keyboard-response","233","396811","0.0-1.0-360.0","0","0","96697","","32","","","75","39","","","","","","","","","","","","","","","k",""
"","S1","","html-keyboard-response","234","397076","0.0-1.0-362.0","0","0","96697","","null","","","null","40","","","","","","","","","","","","","","","",""
"","ISI","","html-keyboard-response","235","399081","0.0-1.0-363.0","0","0","96697","","121","","","68","40","d","","","","","","","","","","","","","","",""
"","S2","","html-keyboard-response","236","399185","0.0-1.0-364.0","0","0","96697","","94","","","68","40","","d","1","40","training","adjacent","DE","4","5","N.jpg","Q.jpg","0","1","0","",""
"","feedback","","html-keyboard-response","237","400193","0.0-1.0-366.0-0.0","0","0","96697","","null","","","null","40","","","","","","","","","","","","","","","",""
"","time_out","","html-keyboard-response","238","402201","0.0-1.0-368.0-0.0","0","0","96697","","null","","","null","40","","","","","","","","","","","","","","","",""
"","ITI","","html-keyboard-response","239","403208","0.0-1.0-369.0","0","0","96697","","7","","","75","40","","","","","","","","","","","","","","","k",""
"","S1","","html-keyboard-response","240","403463","0.0-1.0-371.0","0","0","96697","","null","","","null","41","","","","","","","","","","","","","","","",""
"","ISI","","html-keyboard-response","241","405493","0.0-1.0-372.0","0","0","96697","","172","","","68","41","d","","","","","","","","","","","","","","",""
"","S2","","html-keyboard-response","242","405641","0.0-1.0-373.0","0","0","96697","","141","","","68","41","","d","1","41","training","adjacent","BC","2","3","O.jpg","P.jpg","0","1","0","",""
"","feedback","","html-keyboard-response","243","406653","0.0-1.0-375.0-0.0","0","0","96697","","null","","","null","41","","","","","","","","","","","","","","","",""
"","time_out","","html-keyboard-response","244","408660","0.0-1.0-377.0-0.0","0","0","96697","","null","","","null","41","","","","","","","","","","","","","","","",""
"","ITI","","html-keyboard-response","245","409664","0.0-1.0-378.0","0","0","96697","","34","","","75","41","","","","","","","","","","","","","","","k",""
"","S1","","html-keyboard-response","246","409919","0.0-1.0-380.0","0","0","96697","","null","","","null","42","","","","","","","","","","","","","","","",""
"","ISI","","html-keyboard-response","247","411923","0.0-1.0-381.0","0","0","96697","","82","","","75","42","k","","","","","","","","","","","","","","",""
"","S2","","html-keyboard-response","248","412128","0.0-1.0-382.0","0","0","96697","","200","","","75","42","","k","1","42","training","adjacent","CD","3","4","P.jpg","N.jpg","1","1","1","",""
"","feedback","","html-keyboard-response","249","413135","0.0-1.0-384.0-0.0","0","0","96697","","null","","","null","42","","","","","","","","","","","","","","","",""
"","ITI","","html-keyboard-response","250","414142","0.0-1.0-387.0","0","0","96697","","29","","","68","42","","","","","","","","","","","","","","","d",""
"","S1","","html-keyboard-response","251","414397","0.0-1.0-389.0","0","0","96697","","null","","","null","43","","","","","","","","","","","","","","","",""
"","ISI","","html-keyboard-response","252","416402","0.0-1.0-390.0","0","0","96697","","106","","","75","43","k","","","","","","","","","","","","","","",""
"","S2","","html-keyboard-response","253","416516","0.0-1.0-391.0","0","0","96697","","106","","","75","43","","k","1","43","training","adjacent","BA","2","1","O.jpg","R.jpg","1","0","0","",""
"","feedback","","html-keyboard-response","254","417521","0.0-1.0-393.0-0.0","0","0","96697","","null","","","null","43","","","","","","","","","","","","","","","",""
"","time_out","","html-keyboard-response","255","419529","0.0-1.0-395.0-0.0","0","0","96697","","null","","","null","43","","","","","","","","","","","","","","","",""
"","ITI","","html-keyboard-response","256","420535","0.0-1.0-396.0","0","0","96697","","147","","","75","43","","","","","","","","","","","","","","","k",""
"","S1","","html-keyboard-response","257","420792","0.0-1.0-398.0","0","0","96697","","null","","","null","44","","","","","","","","","","","","","","","",""
"","ISI","","html-keyboard-response","258","422798","0.0-1.0-399.0","0","0","96697","","38","","","75","44","k","","","","","","","","","","","","","","",""
"","S2","","html-keyboard-response","259","422855","0.0-1.0-400.0","0","0","96697","","53","","","75","44","","k","1","44","training","adjacent","BA","2","1","O.jpg","R.jpg","1","0","0","",""
"","feedback","","html-keyboard-response","260","423860","0.0-1.0-402.0-0.0","0","0","96697","","null","","","null","44","","","","","","","","","","","","","","","",""
"","time_out","","html-keyboard-response","261","425875","0.0-1.0-404.0-0.0","0","0","96697","","null","","","null","44","","","","","","","","","","","","","","","",""
"","ITI","","html-keyboard-response","262","426883","0.0-1.0-405.0","0","0","96697","","87","","","75","44","","","","","","","","","","","","","","","k",""
"","S1","","html-keyboard-response","263","427140","0.0-1.0-407.0","0","0","96697","","null","","","null","45","","","","","","","","","","","","","","","",""
"","ISI","","html-keyboard-response","264","429144","0.0-1.0-408.0","0","0","96697","","18","","","68","45","d","","","","","","","","","","","","","","",""
"","S2","","html-keyboard-response","265","429163","0.0-1.0-409.0","0","0","96697","","15","","","68","45","","d","1","45","training","adjacent","FE","6","5","M.jpg","Q.jpg","0","0","1","",""
"","feedback","","html-keyboard-response","266","430170","0.0-1.0-411.0-0.0","0","0","96697","","null","","","null","45","","","","","","","","","","","","","","","",""
"","ITI","","html-keyboard-response","267","431174","0.0-1.0-414.0","0","0","96697","","71","","","68","45","","","","","","","","","","","","","","","d",""
"","S1","","html-keyboard-response","268","431431","0.0-1.0-416.0","0","0","96697","","null","","","null","46","","","","","","","","","","","","","","","",""
"","ISI","","html-keyboard-response","269","433449","0.0-1.0-417.0","0","0","96697","","204","","","75","46","k","","","","","","","","","","","","","","",""
"","S2","","html-keyboard-response","270","433536","0.0-1.0-418.0","0","0","96697","","78","","","75","46","","k","1","46","training","adjacent","DC","4","3","N.jpg","P.jpg","1","0","0","",""
"","feedback","","html-keyboard-response","271","434540","0.0-1.0-420.0-0.0","0","0","96697","","null","","","null","46","","","","","","","","","","","","","","","",""
"","time_out","","html-keyboard-response","272","436543","0.0-1.0-422.0-0.0","0","0","96697","","null","","","null","46","","","","","","","","","","","","","","","",""
"","ITI","","html-keyboard-response","273","437548","0.0-1.0-423.0","0","0","96697","","36","","","68","46","","","","","","","","","","","","","","","d",""
"","S1","","html-keyboard-response","274","437803","0.0-1.0-425.0","0","0","96697","","null","","","null","47","","","","","","","","","","","","","","","",""
"","ISI","","html-keyboard-response","275","439809","0.0-1.0-426.0","0","0","96697","","104","","","75","47","k","","","","","","","","","","","","","","",""
"","S2","","html-keyboard-response","276","439851","0.0-1.0-427.0","0","0","96697","","38","","","75","47","","k","1","47","training","adjacent","EF","5","6","Q.jpg","M.jpg","1","1","1","",""
"","feedback","","html-keyboard-response","277","440857","0.0-1.0-429.0-0.0","0","0","96697","","null","","","null","47","","","","","","","","","","","","","","","",""
"","ITI","","html-keyboard-response","278","441861","0.0-1.0-432.0","0","0","96697","","4","","","68","47","","","","","","","","","","","","","","","d",""
"","block_over","","html-keyboard-response","279","447814","0.0-1.0-433.0-0.0","0","0","96697","","5945","","","32","47","","","","","","","","","","","","","","","",""
"","S1","","html-keyboard-response","280","448074","0.0-1.0-434.0","0","0","96697","","null","","","null","48","","","","","","","","","","","","","","","",""
"","ISI","","html-keyboard-response","281","450084","0.0-1.0-435.0","0","0","96697","","870","","","68","48","d","","","","","","","","","","","","","","",""
"","S2","","html-keyboard-response","282","450104","0.0-1.0-436.0","0","0","96697","","16","","","68","48","","d","2","48","training","adjacent","BC","2","3","O.jpg","P.jpg","0","1","0","",""
"","feedback","","html-keyboard-response","283","451109","0.0-1.0-438.0-0.0","0","0","96697","","null","","","null","48","","","","","","","","","","","","","","","",""
"","time_out","","html-keyboard-response","284","453112","0.0-1.0-440.0-0.0","0","0","96697","","null","","","null","48","","","","","","","","","","","","","","","",""
"","ITI","","html-keyboard-response","285","454119","0.0-1.0-441.0","0","0","96697","","171","","","68","48","","","","","","","","","","","","","","","d",""
"","S1","","html-keyboard-response","286","454378","0.0-1.0-443.0","0","0","96697","","null","","","null","49","","","","","","","","","","","","","","","",""
"","ISI","","html-keyboard-response","287","456381","0.0-1.0-444.0","0","0","96697","","119","","","75","49","k","","","","","","","","","","","","","","",""
"","S2","","html-keyboard-response","288","456446","0.0-1.0-445.0","0","0","96697","","61","","","75","49","","k","2","49","training","adjacent","CD","3","4","P.jpg","N.jpg","1","1","1","",""
"","feedback","","html-keyboard-response","289","457453","0.0-1.0-447.0-0.0","0","0","96697","","null","","","null","49","","","","","","","","","","","","","","","",""
"","ITI","","html-keyboard-response","290","458458","0.0-1.0-450.0","0","0","96697","","37","","","75","49","","","","","","","","","","","","","","","k",""
"","S1","","html-keyboard-response","291","458719","0.0-1.0-452.0","0","0","96697","","null","","","null","50","","","","","","","","","","","","","","","",""
"","ISI","","html-keyboard-response","292","460727","0.0-1.0-453.0","0","0","96697","","66","","","75","50","k","","","","","","","","","","","","","","",""
"","S2","","html-keyboard-response","293","460799","0.0-1.0-454.0","0","0","96697","","67","","","68","50","","d","2","50","training","adjacent","DC","4","3","N.jpg","P.jpg","0","0","1","",""
"","feedback","","html-keyboard-response","294","461806","0.0-1.0-456.0-0.0","0","0","96697","","null","","","null","50","","","","","","","","","","","","","","","",""
"","ITI","","html-keyboard-response","295","462814","0.0-1.0-459.0","0","0","96697","","91","","","75","50","","","","","","","","","","","","","","","k",""
"","S1","","html-keyboard-response","296","463070","0.0-1.0-461.0","0","0","96697","","null","","","null","51","","","","","","","","","","","","","","","",""
"","ISI","","html-keyboard-response","297","465080","0.0-1.0-462.0","0","0","96697","","11","","","68","51","d","","","","","","","","","","","","","","",""
"","S2","","html-keyboard-response","298","465169","0.0-1.0-463.0","0","0","96697","","84","","","75","51","","k","2","51","training","adjacent","CD","3","4","P.jpg","N.jpg","1","1","1","",""
"","feedback","","html-keyboard-response","299","466176","0.0-1.0-465.0-0.0","0","0","96697","","null","","","null","51","","","","","","","","","","","","","","","",""
"","ITI","","html-keyboard-response","300","467198","0.0-1.0-468.0","0","0","96697","","2","","","75","51","","","","","","","","","","","","","","","k",""
"","S1","","html-keyboard-response","301","467456","0.0-1.0-470.0","0","0","96697","","null","","","null","52","","","","","","","","","","","","","","","",""
"","ISI","","html-keyboard-response","302","469459","0.0-1.0-471.0","0","0","96697","","9","","","75","52","k","","","","","","","","","","","","","","",""
"","S2","","html-keyboard-response","303","469551","0.0-1.0-472.0","0","0","96697","","88","","","75","52","","k","2","52","training","adjacent","ED","5","4","Q.jpg","N.jpg","1","0","0","",""
"","feedback","","html-keyboard-response","304","470556","0.0-1.0-474.0-0.0","0","0","96697","","null","","","null","52","","","","","","","","","","","","","","","",""
"","time_out","","html-keyboard-response","305","472561","0.0-1.0-476.0-0.0","0","0","96697","","null","","","null","52","","","","","","","","","","","","","","","",""
"","ITI","","html-keyboard-response","306","473574","0.0-1.0-477.0","0","0","96697","","null","","","null","52","","","","","","","","","","","","","","","NaN",""
"","S1","","html-keyboard-response","307","473832","0.0-1.0-479.0","0","0","96697","","null","","","null","53","","","","","","","","","","","","","","","",""
"","ISI","","html-keyboard-response","308","475846","0.0-1.0-480.0","0","0","96697","","77","","","75","53","k","","","","","","","","","","","","","","",""
"","S2","","html-keyboard-response","309","476111","0.0-1.0-481.0","0","0","96697","","null","","","null","53","","NaN","","","","","","","","","","","","","",""
"","response","","html-keyboard-response","310","476179","0.0-1.0-482.0-0.0","0","0","96697","","64","","","75","53","","","2","53","training","adjacent","EF","5","6","Q.jpg","M.jpg","1","1","1","",""
"","feedback","","html-keyboard-response","311","477186","0.0-1.0-483.0-0.0","0","0","96697","","null","","","null","53","","","","","","","","","","","","","","","",""
"","ITI","","html-keyboard-response","312","478197","0.0-1.0-486.0","0","0","96697","","237","","","68","53","","","","","","","","","","","","","","","d",""
"","S1","","html-keyboard-response","313","478461","0.0-1.0-488.0","0","0","96697","","null","","","null","54","","","","","","","","","","","","","","","",""
"","ISI","","html-keyboard-response","314","480467","0.0-1.0-489.0","0","0","96697","","52","","","75","54","k","","","","","","","","","","","","","","",""
"","S2","","html-keyboard-response","315","480723","0.0-1.0-490.0","0","0","96697","","null","","","null","54","","NaN","","","","","","","","","","","","","",""
"","response","","html-keyboard-response","316","481495","0.0-1.0-491.0-0.0","0","0","96697","","767","","","75","54","","","2","54","training","adjacent","FE","6","5","M.jpg","Q.jpg","1","0","0","",""
"","feedback","","html-keyboard-response","317","482503","0.0-1.0-492.0-0.0","0","0","96697","","null","","","null","54","","","","","","","","","","","","","","","",""
"","time_out","","html-keyboard-response","318","484508","0.0-1.0-494.0-0.0","0","0","96697","","null","","","null","54","","","","","","","","","","","","","","","",""
"","ITI","","html-keyboard-response","319","485518","0.0-1.0-495.0","0","0","96697","","90","","","75","54","","","","","","","","","","","","","","","k",""
"","S1","","html-keyboard-response","320","485775","0.0-1.0-497.0","0","0","96697","","null","","","null","55","","","","","","","","","","","","","","","",""
"","ISI","","html-keyboard-response","321","487779","0.0-1.0-498.0","0","0","96697","","172","","","75","55","k","","","","","","","","","","","","","","",""
"","S2","","html-keyboard-response","322","488036","0.0-1.0-499.0","0","0","96697","","null","","","null","55","","NaN","","","","","","","","","","","","","",""
"","response","","html-keyboard-response","323","488421","0.0-1.0-500.0-0.0","0","0","96697","","381","","","75","55","","","2","55","training","adjacent","DC","4","3","N.jpg","P.jpg","1","0","0","",""
"","feedback","","html-keyboard-response","324","489427","0.0-1.0-501.0-0.0","0","0","96697","","null","","","null","55","","","","","","","","","","","","","","","",""
"","time_out","","html-keyboard-response","325","491432","0.0-1.0-503.0-0.0","0","0","96697","","null","","","null","55","","","","","","","","","","","","","","","",""
"","ITI","","html-keyboard-response","326","492437","0.0-1.0-504.0","0","0","96697","","null","","","null","55","","","","","","","","","","","","","","","NaN",""
"","S1","","html-keyboard-response","327","492693","0.0-1.0-506.0","0","0","96697","","null","","","null","56","","","","","","","","","","","","","","","",""
"","ISI","","html-keyboard-response","328","494699","0.0-1.0-507.0","0","0","96697","","null","","","null","56","NaN","","","","","","","","","","","","","","",""
"","S2","","html-keyboard-response","329","494957","0.0-1.0-508.0","0","0","96697","","null","","","null","56","","NaN","","","","","","","","","","","","","",""
"","response","","html-keyboard-response","330","496243","0.0-1.0-509.0-0.0","0","0","96697","","1279","","","75","56","","","2","56","training","adjacent","BA","2","1","O.jpg","R.jpg","1","0","0","",""
"","feedback","","html-keyboard-response","331","497252","0.0-1.0-510.0-0.0","0","0","96697","","null","","","null","56","","","","","","","","","","","","","","","",""
"","time_out","","html-keyboard-response","332","499270","0.0-1.0-512.0-0.0","0","0","96697","","null","","","null","56","","","","","","","","","","","","","","","",""
"","ITI","","html-keyboard-response","333","500275","0.0-1.0-513.0","0","0","96697","","29","","","68","56","","","","","","","","","","","","","","","d",""
"","S1","","html-keyboard-response","334","500533","0.0-1.0-515.0","0","0","96697","","null","","","null","57","","","","","","","","","","","","","","","",""
"","ISI","","html-keyboard-response","335","502538","0.0-1.0-516.0","0","0","96697","","73","","","68","57","d","","","","","","","","","","","","","","",""
"","S2","","html-keyboard-response","336","502693","0.0-1.0-517.0","0","0","96697","","151","","","75","57","","k","2","57","training","adjacent","BC","2","3","O.jpg","P.jpg","1","1","1","",""
"","feedback","","html-keyboard-response","337","503700","0.0-1.0-519.0-0.0","0","0","96697","","null","","","null","57","","","","","","","","","","","","","","","",""
"","ITI","","html-keyboard-response","338","504708","0.0-1.0-522.0","0","0","96697","","443","","","75","57","","","","","","","","","","","","","","","k",""
"","S1","","html-keyboard-response","339","504962","0.0-1.0-524.0","0","0","96697","","null","","","null","58","","","","","","","","","","","","","","","",""
"","ISI","","html-keyboard-response","340","506967","0.0-1.0-525.0","0","0","96697","","166","","","75","58","k","","","","","","","","","","","","","","",""
"","S2","","html-keyboard-response","341","507013","0.0-1.0-526.0","0","0","96697","","42","","","75","58","","k","2","58","training","adjacent","CB","3","2","P.jpg","O.jpg","1","0","0","",""
"","feedback","","html-keyboard-response","342","508025","0.0-1.0-528.0-0.0","0","0","96697","","null","","","null","58","","","","","","","","","","","","","","","",""
"","time_out","","html-keyboard-response","343","510035","0.0-1.0-530.0-0.0","0","0","96697","","null","","","null","58","","","","","","","","","","","","","","","",""
"","ITI","","html-keyboard-response","344","511041","0.0-1.0-531.0","0","0","96697","","350","","","68","58","","","","","","","","","","","","","","","d",""
"","S1","","html-keyboard-response","345","511297","0.0-1.0-533.0","0","0","96697","","null","","","null","59","","","","","","","","","","","","","","","",""
"","ISI","","html-keyboard-response","346","513302","0.0-1.0-534.0","0","0","96697","","255","","","68","59","d","","","","","","","","","","","","","","",""
"","S2","","html-keyboard-response","347","513378","0.0-1.0-535.0","0","0","96697","","65","","","68","59","","d","2","59","training","adjacent","ED","5","4","Q.jpg","N.jpg","0","0","1","",""
"","feedback","","html-keyboard-response","348","514384","0.0-1.0-537.0-0.0","0","0","96697","","null","","","null","59","","","","","","","","","","","","","","","",""
"","ITI","","html-keyboard-response","349","515395","0.0-1.0-540.0","0","0","96697","","49","","","68","59","","","","","","","","","","","","","","","d",""
"","S1","","html-keyboard-response","350","515651","0.0-1.0-542.0","0","0","96697","","null","","","null","60","","","","","","","","","","","","","","","",""
"","ISI","","html-keyboard-response","351","517657","0.0-1.0-543.0","0","0","96697","","26","","","68","60","d","","","","","","","","","","","","","","",""
"","S2","","html-keyboard-response","352","517802","0.0-1.0-544.0","0","0","96697","","140","","","68","60","","d","2","60","training","adjacent","BC","2","3","O.jpg","P.jpg","0","1","0","",""
"","feedback","","html-keyboard-response","353","518813","0.0-1.0-546.0-0.0","0","0","96697","","null","","","null","60","","","","","","","","","","","","","","","",""
"","time_out","","html-keyboard-response","354","520819","0.0-1.0-548.0-0.0","0","0","96697","","null","","","null","60","","","","","","","","","","","","","","","",""
"","ITI","","html-keyboard-response","355","521824","0.0-1.0-549.0","0","0","96697","","175","","","68","60","","","","","","","","","","","","","","","d",""
"","S1","","html-keyboard-response","356","522090","0.0-1.0-551.0","0","0","96697","","null","","","null","61","","","","","","","","","","","","","","","",""
"","ISI","","html-keyboard-response","357","524096","0.0-1.0-552.0","0","0","96697","","184","","","68","61","d","","","","","","","","","","","","","","",""
"","S2","","html-keyboard-response","358","524256","0.0-1.0-553.0","0","0","96697","","157","","","68","61","","d","2","61","training","adjacent","DE","4","5","N.jpg","Q.jpg","0","1","0","",""
"","feedback","","html-keyboard-response","359","525262","0.0-1.0-555.0-0.0","0","0","96697","","null","","","null","61","","","","","","","","","","","","","","","",""
"","time_out","","html-keyboard-response","360","527268","0.0-1.0-557.0-0.0","0","0","96697","","null","","","null","61","","","","","","","","","","","","","","","",""
"","ITI","","html-keyboard-response","361","528274","0.0-1.0-558.0","0","0","96697","","70","","","68","61","","","","","","","","","","","","","","","d",""
"","S1","","html-keyboard-response","362","528528","0.0-1.0-560.0","0","0","96697","","null","","","null","62","","","","","","","","","","","","","","","",""
"","ISI","","html-keyboard-response","363","530533","0.0-1.0-561.0","0","0","96697","","157","","","68","62","d","","","","","","","","","","","","","","",""
"","S2","","html-keyboard-response","364","530665","0.0-1.0-562.0","0","0","96697","","127","","","68","62","","d","2","62","training","adjacent","DC","4","3","N.jpg","P.jpg","0","0","1","",""
"","feedback","","html-keyboard-response","365","531672","0.0-1.0-564.0-0.0","0","0","96697","","null","","","null","62","","","","","","","","","","","","","","","",""
"","ITI","","html-keyboard-response","366","532677","0.0-1.0-567.0","0","0","96697","","63","","","68","62","","","","","","","","","","","","","","","d",""
"","S1","","html-keyboard-response","367","532935","0.0-1.0-569.0","0","0","96697","","null","","","null","63","","","","","","","","","","","","","","","",""
"","ISI","","html-keyboard-response","368","534940","0.0-1.0-570.0","0","0","96697","","188","","","68","63","d","","","","","","","","","","","","","","",""
"","S2","","html-keyboard-response","369","535193","0.0-1.0-571.0","0","0","96697","","248","","","68","63","","d","2","63","training","adjacent","EF","5","6","Q.jpg","M.jpg","0","1","0","",""
"","feedback","","html-keyboard-response","370","536198","0.0-1.0-573.0-0.0","0","0","96697","","null","","","null","63","","","","","","","","","","","","","","","",""
"","time_out","","html-keyboard-response","371","538204","0.0-1.0-575.0-0.0","0","0","96697","","null","","","null","63","","","","","","","","","","","","","","","",""
"","ITI","","html-keyboard-response","372","539213","0.0-1.0-576.0","0","0","96697","","229","","","68","63","","","","","","","","","","","","","","","d",""
"","S1","","html-keyboard-response","373","539472","0.0-1.0-578.0","0","0","96697","","null","","","null","64","","","","","","","","","","","","","","","",""
"","ISI","","html-keyboard-response","374","541494","0.0-1.0-579.0","0","0","96697","","380","","","75","64","k","","","","","","","","","","","","","","",""
"","S2","","html-keyboard-response","375","541665","0.0-1.0-580.0","0","0","96697","","158","","","75","64","","k","2","64","training","adjacent","BC","2","3","O.jpg","P.jpg","1","1","1","",""
"","feedback","","html-keyboard-response","376","542674","0.0-1.0-582.0-0.0","0","0","96697","","null","","","null","64","","","","","","","","","","","","","","","",""
"","ITI","","html-keyboard-response","377","543688","0.0-1.0-585.0","0","0","96697","","286","","","75","64","","","","","","","","","","","","","","","k",""
"","S1","","html-keyboard-response","378","543944","0.0-1.0-587.0","0","0","96697","","null","","","null","65","","","","","","","","","","","","","","","",""
"","ISI","","html-keyboard-response","379","545956","0.0-1.0-588.0","0","0","96697","","15","","","75","65","k","","","","","","","","","","","","","","",""
"","S2","","html-keyboard-response","380","545966","0.0-1.0-589.0","0","0","96697","","6","","","75","65","","k","2","65","training","adjacent","GF","7","6","L.jpg","M.jpg","1","0","0","",""
"","feedback","","html-keyboard-response","381","546980","0.0-1.0-591.0-0.0","0","0","96697","","null","","","null","65","","","","","","","","","","","","","","","",""
"","time_out","","html-keyboard-response","382","548985","0.0-1.0-593.0-0.0","0","0","96697","","null","","","null","65","","","","","","","","","","","","","","","",""
"","ITI","","html-keyboard-response","383","550008","0.0-1.0-594.0","0","0","96697","","220","","","75","65","","","","","","","","","","","","","","","k",""
"","S1","","html-keyboard-response","384","550264","0.0-1.0-596.0","0","0","96697","","null","","","null","66","","","","","","","","","","","","","","","",""
"","ISI","","html-keyboard-response","385","552269","0.0-1.0-597.0","0","0","96697","","179","","","75","66","k","","","","","","","","","","","","","","",""
"","S2","","html-keyboard-response","386","552299","0.0-1.0-598.0","0","0","96697","","26","","","75","66","","k","2","66","training","adjacent","FG","6","7","M.jpg","L.jpg","1","1","1","",""
"","feedback","","html-keyboard-response","387","553307","0.0-1.0-600.0-0.0","0","0","96697","","null","","","null","66","","","","","","","","","","","","","","","",""
"","ITI","","html-keyboard-response","388","554313","0.0-1.0-603.0","0","0","96697","","700","","","68","66","","","","","","","","","","","","","","","d",""
"","S1","","html-keyboard-response","389","554573","0.0-1.0-605.0","0","0","96697","","null","","","null","67","","","","","","","","","","","","","","","",""
"","ISI","","html-keyboard-response","390","556577","0.0-1.0-606.0","0","0","96697","","795","","","68","67","d","","","","","","","","","","","","","","",""
"","S2","","html-keyboard-response","391","556685","0.0-1.0-607.0","0","0","96697","","103","","","75","67","","k","2","67","training","adjacent","FG","6","7","M.jpg","L.jpg","1","1","1","",""
"","feedback","","html-keyboard-response","392","557692","0.0-1.0-609.0-0.0","0","0","96697","","null","","","null","67","","","","","","","","","","","","","","","",""
"","ITI","","html-keyboard-response","393","558696","0.0-1.0-612.0","0","0","96697","","399","","","75","67","","","","","","","","","","","","","","","k",""
"","S1","","html-keyboard-response","394","558952","0.0-1.0-614.0","0","0","96697","","null","","","null","68","","","","","","","","","","","","","","","",""
"","ISI","","html-keyboard-response","395","560957","0.0-1.0-615.0","0","0","96697","","214","","","75","68","k","","","","","","","","","","","","","","",""
"","S2","","html-keyboard-response","396","561171","0.0-1.0-616.0","0","0","96697","","210","","","75","68","","k","2","68","training","adjacent","AB","1","2","R.jpg","O.jpg","1","1","1","",""
"","feedback","","html-keyboard-response","397","562178","0.0-1.0-618.0-0.0","0","0","96697","","null","","","null","68","","","","","","","","","","","","","","","",""
"","ITI","","html-keyboard-response","398","563183","0.0-1.0-621.0","0","0","96697","","293","","","75","68","","","","","","","","","","","","","","","k",""
"","S1","","html-keyboard-response","399","563445","0.0-1.0-623.0","0","0","96697","","null","","","null","69","","","","","","","","","","","","","","","",""
"","ISI","","html-keyboard-response","400","565457","0.0-1.0-624.0","0","0","96697","","6","","","68","69","d","","","","","","","","","","","","","","",""
"","S2","","html-keyboard-response","401","565557","0.0-1.0-625.0","0","0","96697","","96","","","75","69","","k","2","69","training","adjacent","DC","4","3","N.jpg","P.jpg","1","0","0","",""
"","feedback","","html-keyboard-response","402","566564","0.0-1.0-627.0-0.0","0","0","96697","","null","","","null","69","","","","","","","","","","","","","","","",""
"","time_out","","html-keyboard-response","403","568571","0.0-1.0-629.0-0.0","0","0","96697","","null","","","null","69","","","","","","","","","","","","","","","",""
"","ITI","","html-keyboard-response","404","569575","0.0-1.0-630.0","0","0","96697","","481","","","75","69","","","","","","","","","","","","","","","k",""
"","S1","","html-keyboard-response","405","569830","0.0-1.0-632.0","0","0","96697","","null","","","null","70","","","","","","","","","","","","","","","",""
"","ISI","","html-keyboard-response","406","571836","0.0-1.0-633.0","0","0","96697","","153","","","75","70","k","","","","","","","","","","","","","","",""
"","S2","","html-keyboard-response","407","571873","0.0-1.0-634.0","0","0","96697","","32","","","75","70","","k","2","70","training","adjacent","FE","6","5","M.jpg","Q.jpg","1","0","0","",""
"","feedback","","html-keyboard-response","408","572879","0.0-1.0-636.0-0.0","0","0","96697","","null","","","null","70","","","","","","","","","","","","","","","",""
"","time_out","","html-keyboard-response","409","574885","0.0-1.0-638.0-0.0","0","0","96697","","null","","","null","70","","","","","","","","","","","","","","","",""
"","ITI","","html-keyboard-response","410","575908","0.0-1.0-639.0","0","0","96697","","118","","","75","70","","","","","","","","","","","","","","","k",""
"","S1","","html-keyboard-response","411","576167","0.0-1.0-641.0","0","0","96697","","null","","","null","71","","","","","","","","","","","","","","","",""
"","ISI","","html-keyboard-response","412","578177","0.0-1.0-642.0","0","0","96697","","117","","","75","71","k","","","","","","","","","","","","","","",""
"","S2","","html-keyboard-response","413","578442","0.0-1.0-643.0","0","0","96697","","null","","","null","71","","NaN","","","","","","","","","","","","","",""
"","response","","html-keyboard-response","414","578525","0.0-1.0-644.0-0.0","0","0","96697","","76","","","68","71","","","2","71","training","adjacent","CB","3","2","P.jpg","O.jpg","0","0","1","",""
"","feedback","","html-keyboard-response","415","579530","0.0-1.0-645.0-0.0","0","0","96697","","null","","","null","71","","","","","","","","","","","","","","","",""
"","ITI","","html-keyboard-response","416","580550","0.0-1.0-648.0","0","0","96697","","290","","","75","71","","","","","","","","","","","","","","","k",""
"","S1","","html-keyboard-response","417","580806","0.0-1.0-650.0","0","0","96697","","null","","","null","72","","","","","","","","","","","","","","","",""
"","ISI","","html-keyboard-response","418","582815","0.0-1.0-651.0","0","0","96697","","232","","","75","72","k","","","","","","","","","","","","","","",""
"","S2","","html-keyboard-response","419","582965","0.0-1.0-652.0","0","0","96697","","138","","","75","72","","k","2","72","training","adjacent","GF","7","6","L.jpg","M.jpg","1","0","0","",""
"","feedback","","html-keyboard-response","420","583971","0.0-1.0-654.0-0.0","0","0","96697","","null","","","null","72","","","","","","","","","","","","","","","",""
"","time_out","","html-keyboard-response","421","585979","0.0-1.0-656.0-0.0","0","0","96697","","null","","","null","72","","","","","","","","","","","","","","","",""
"","ITI","","html-keyboard-response","422","586986","0.0-1.0-657.0","0","0","96697","","160","","","75","72","","","","","","","","","","","","","","","k",""
"","S1","","html-keyboard-response","423","587245","0.0-1.0-659.0","0","0","96697","","null","","","null","73","","","","","","","","","","","","","","","",""
"","ISI","","html-keyboard-response","424","589252","0.0-1.0-660.0","0","0","96697","","335","","","68","73","d","","","","","","","","","","","","","","",""
"","S2","","html-keyboard-response","425","589413","0.0-1.0-661.0","0","0","96697","","153","","","68","73","","d","2","73","training","adjacent","BA","2","1","O.jpg","R.jpg","0","0","1","",""
"","feedback","","html-keyboard-response","426","590422","0.0-1.0-663.0-0.0","0","0","96697","","null","","","null","73","","","","","","","","","","","","","","","",""
"","ITI","","html-keyboard-response","427","591427","0.0-1.0-666.0","0","0","96697","","72","","","68","73","","","","","","","","","","","","","","","d",""
"","S1","","html-keyboard-response","428","591685","0.0-1.0-668.0","0","0","96697","","null","","","null","74","","","","","","","","","","","","","","","",""
"","ISI","","html-keyboard-response","429","593693","0.0-1.0-669.0","0","0","96697","","124","","","75","74","k","","","","","","","","","","","","","","",""
"","S2","","html-keyboard-response","430","593949","0.0-1.0-670.0","0","0","96697","","null","","","null","74","","NaN","","","","","","","","","","","","","",""
"","response","","html-keyboard-response","431","593976","0.0-1.0-671.0-0.0","0","0","96697","","22","","","75","74","","","2","74","training","adjacent","CD","3","4","P.jpg","N.jpg","1","1","1","",""
"","feedback","","html-keyboard-response","432","594983","0.0-1.0-672.0-0.0","0","0","96697","","null","","","null","74","","","","","","","","","","","","","","","",""
"","ITI","","html-keyboard-response","433","595990","0.0-1.0-675.0","0","0","96697","","108","","","68","74","","","","","","","","","","","","","","","d",""
"","S1","","html-keyboard-response","434","596247","0.0-1.0-677.0","0","0","96697","","null","","","null","75","","","","","","","","","","","","","","","",""
"","ISI","","html-keyboard-response","435","598255","0.0-1.0-678.0","0","0","96697","","131","","","75","75","k","","","","","","","","","","","","","","",""
"","S2","","html-keyboard-response","436","598354","0.0-1.0-679.0","0","0","96697","","95","","","68","75","","d","2","75","training","adjacent","ED","5","4","Q.jpg","N.jpg","0","0","1","",""
"","feedback","","html-keyboard-response","437","599366","0.0-1.0-681.0-0.0","0","0","96697","","null","","","null","75","","","","","","","","","","","","","","","",""
"","ITI","","html-keyboard-response","438","600374","0.0-1.0-684.0","0","0","96697","","149","","","75","75","","","","","","","","","","","","","","","k",""
"","S1","","html-keyboard-response","439","600630","0.0-1.0-686.0","0","0","96697","","null","","","null","76","","","","","","","","","","","","","","","",""
"","ISI","","html-keyboard-response","440","602636","0.0-1.0-687.0","0","0","96697","","194","","","75","76","k","","","","","","","","","","","","","","",""
"","S2","","html-keyboard-response","441","602802","0.0-1.0-688.0","0","0","96697","","161","","","75","76","","k","2","76","training","adjacent","BA","2","1","O.jpg","R.jpg","1","0","0","",""
"","feedback","","html-keyboard-response","442","603809","0.0-1.0-690.0-0.0","0","0","96697","","null","","","null","76","","","","","","","","","","","","","","","",""
"","time_out","","html-keyboard-response","443","605815","0.0-1.0-692.0-0.0","0","0","96697","","null","","","null","76","","","","","","","","","","","","","","","",""
"","ITI","","html-keyboard-response","444","606826","0.0-1.0-693.0","0","0","96697","","92","","","75","76","","","","","","","","","","","","","","","k",""
"","S1","","html-keyboard-response","445","607084","0.0-1.0-695.0","0","0","96697","","null","","","null","77","","","","","","","","","","","","","","","",""
"","ISI","","html-keyboard-response","446","609089","0.0-1.0-696.0","0","0","96697","","96","","","75","77","k","","","","","","","","","","","","","","",""
"","S2","","html-keyboard-response","447","609194","0.0-1.0-697.0","0","0","96697","","89","","","75","77","","k","2","77","training","adjacent","AB","1","2","R.jpg","O.jpg","1","1","1","",""
"","feedback","","html-keyboard-response","448","610200","0.0-1.0-699.0-0.0","0","0","96697","","null","","","null","77","","","","","","","","","","","","","","","",""
"","ITI","","html-keyboard-response","449","611207","0.0-1.0-702.0","0","0","96697","","233","","","75","77","","","","","","","","","","","","","","","k",""
"","S1","","html-keyboard-response","450","611466","0.0-1.0-704.0","0","0","96697","","null","","","null","78","","","","","","","","","","","","","","","",""
"","ISI","","html-keyboard-response","451","613476","0.0-1.0-705.0","0","0","96697","","89","","","75","78","k","","","","","","","","","","","","","","",""
"","S2","","html-keyboard-response","452","613525","0.0-1.0-706.0","0","0","96697","","45","","","75","78","","k","2","78","training","adjacent","DE","4","5","N.jpg","Q.jpg","1","1","1","",""
"","feedback","","html-keyboard-response","453","614541","0.0-1.0-708.0-0.0","0","0","96697","","null","","","null","78","","","","","","","","","","","","","","","",""
"","ITI","","html-keyboard-response","454","615561","0.0-1.0-711.0","0","0","96697","","197","","","75","78","","","","","","","","","","","","","","","k",""
"","S1","","html-keyboard-response","455","615819","0.0-1.0-713.0","0","0","96697","","null","","","null","79","","","","","","","","","","","","","","","",""
"","ISI","","html-keyboard-response","456","617824","0.0-1.0-714.0","0","0","96697","","56","","","75","79","k","","","","","","","","","","","","","","",""
"","S2","","html-keyboard-response","457","617927","0.0-1.0-715.0","0","0","96697","","98","","","75","79","","k","2","79","training","adjacent","AB","1","2","R.jpg","O.jpg","1","1","1","",""
"","feedback","","html-keyboard-response","458","618944","0.0-1.0-717.0-0.0","0","0","96697","","null","","","null","79","","","","","","","","","","","","","","","",""
"","ITI","","html-keyboard-response","459","619951","0.0-1.0-720.0","0","0","96697","","191","","","75","79","","","","","","","","","","","","","","","k",""
"","S1","","html-keyboard-response","460","620218","0.0-1.0-722.0","0","0","96697","","null","","","null","80","","","","","","","","","","","","","","","",""
"","ISI","","html-keyboard-response","461","622223","0.0-1.0-723.0","0","0","96697","","10","","","68","80","d","","","","","","","","","","","","","","",""
"","S2","","html-keyboard-response","462","622388","0.0-1.0-724.0","0","0","96697","","157","","","75","80","","k","2","80","training","adjacent","AB","1","2","R.jpg","O.jpg","1","1","1","",""
"","feedback","","html-keyboard-response","463","623394","0.0-1.0-726.0-0.0","0","0","96697","","null","","","null","80","","","","","","","","","","","","","","","",""
"","ITI","","html-keyboard-response","464","624400","0.0-1.0-729.0","0","0","96697","","131","","","75","80","","","","","","","","","","","","","","","k",""
"","S1","","html-keyboard-response","465","624656","0.0-1.0-731.0","0","0","96697","","null","","","null","81","","","","","","","","","","","","","","","",""
"","ISI","","html-keyboard-response","466","626661","0.0-1.0-732.0","0","0","96697","","294","","","75","81","k","","","","","","","","","","","","","","",""
"","S2","","html-keyboard-response","467","626849","0.0-1.0-733.0","0","0","96697","","181","","","75","81","","k","2","81","training","adjacent","FG","6","7","M.jpg","L.jpg","1","1","1","",""
"","feedback","","html-keyboard-response","468","627855","0.0-1.0-735.0-0.0","0","0","96697","","null","","","null","81","","","","","","","","","","","","","","","",""
"","ITI","","html-keyboard-response","469","628861","0.0-1.0-738.0","0","0","96697","","179","","","75","81","","","","","","","","","","","","","","","k",""
"","S1","","html-keyboard-response","470","629125","0.0-1.0-740.0","0","0","96697","","null","","","null","82","","","","","","","","","","","","","","","",""
"","ISI","","html-keyboard-response","471","631129","0.0-1.0-741.0","0","0","96697","","38","","","75","82","k","","","","","","","","","","","","","","",""
"","S2","","html-keyboard-response","472","631266","0.0-1.0-742.0","0","0","96697","","132","","","68","82","","d","2","82","training","adjacent","BA","2","1","O.jpg","R.jpg","0","0","1","",""
"","feedback","","html-keyboard-response","473","632273","0.0-1.0-744.0-0.0","0","0","96697","","null","","","null","82","","","","","","","","","","","","","","","",""
"","ITI","","html-keyboard-response","474","633280","0.0-1.0-747.0","0","0","96697","","10","","","75","82","","","","","","","","","","","","","","","k",""
"","S1","","html-keyboard-response","475","633536","0.0-1.0-749.0","0","0","96697","","null","","","null","83","","","","","","","","","","","","","","","",""
"","ISI","","html-keyboard-response","476","635541","0.0-1.0-750.0","0","0","96697","","180","","","68","83","d","","","","","","","","","","","","","","",""
"","S2","","html-keyboard-response","477","635721","0.0-1.0-751.0","0","0","96697","","176","","","75","83","","k","2","83","training","adjacent","GF","7","6","L.jpg","M.jpg","1","0","0","",""
"","feedback","","html-keyboard-response","478","636727","0.0-1.0-753.0-0.0","0","0","96697","","null","","","null","83","","","","","","","","","","","","","","","",""
"","time_out","","html-keyboard-response","479","638732","0.0-1.0-755.0-0.0","0","0","96697","","null","","","null","83","","","","","","","","","","","","","","","",""
"","ITI","","html-keyboard-response","480","639737","0.0-1.0-756.0","0","0","96697","","64","","","75","83","","","","","","","","","","","","","","","k",""
"","S1","","html-keyboard-response","481","640035","0.0-1.0-758.0","0","0","96697","","null","","","null","84","","","","","","","","","","","","","","","",""
"","ISI","","html-keyboard-response","482","642040","0.0-1.0-759.0","0","0","96697","","82","","","75","84","k","","","","","","","","","","","","","","",""
"","S2","","html-keyboard-response","483","642062","0.0-1.0-760.0","0","0","96697","","9","","","68","84","","d","2","84","training","adjacent","DE","4","5","N.jpg","Q.jpg","0","1","0","",""
"","feedback","","html-keyboard-response","484","643069","0.0-1.0-762.0-0.0","0","0","96697","","null","","","null","84","","","","","","","","","","","","","","","",""
"","time_out","","html-keyboard-response","485","645082","0.0-1.0-764.0-0.0","0","0","96697","","null","","","null","84","","","","","","","","","","","","","","","",""
"","ITI","","html-keyboard-response","486","646086","0.0-1.0-765.0","0","0","96697","","131","","","75","84","","","","","","","","","","","","","","","k",""
"","S1","","html-keyboard-response","487","646341","0.0-1.0-767.0","0","0","96697","","null","","","null","85","","","","","","","","","","","","","","","",""
"","ISI","","html-keyboard-response","488","648347","0.0-1.0-768.0","0","0","96697","","60","","","75","85","k","","","","","","","","","","","","","","",""
"","S2","","html-keyboard-response","489","648478","0.0-1.0-769.0","0","0","96697","","123","","","75","85","","k","2","85","training","adjacent","CB","3","2","P.jpg","O.jpg","1","0","0","",""
"","feedback","","html-keyboard-response","490","649486","0.0-1.0-771.0-0.0","0","0","96697","","null","","","null","85","","","","","","","","","","","","","","","",""
"","time_out","","html-keyboard-response","491","651506","0.0-1.0-773.0-0.0","0","0","96697","","null","","","null","85","","","","","","","","","","","","","","","",""
"","ITI","","html-keyboard-response","492","652511","0.0-1.0-774.0","0","0","96697","","null","","","null","85","","","","","","","","","","","","","","","NaN",""
"","S1","","html-keyboard-response","493","652766","0.0-1.0-776.0","0","0","96697","","null","","","null","86","","","","","","","","","","","","","","","",""
"","ISI","","html-keyboard-response","494","654773","0.0-1.0-777.0","0","0","96697","","null","","","null","86","NaN","","","","","","","","","","","","","","",""
"","S2","","html-keyboard-response","495","655031","0.0-1.0-778.0","0","0","96697","","null","","","null","86","","NaN","","","","","","","","","","","","","",""
"","response","","html-keyboard-response","496","656788","0.0-1.0-779.0-0.0","0","0","96697","","null","","","null","86","","","2","86","training","adjacent","CB","3","2","P.jpg","O.jpg","NaN","0","0","",""
"","too_slow_prompt","","html-keyboard-response","497","657796","0.0-1.0-781.0-0.0","1","0","96697","","null","","","null","","","","","","","","","","","","","","","","",""
"","time_out","","html-keyboard-response","498","659801","0.0-1.0-782.0-0.0","0","0","96697","","null","","","null","86","","","","","","","","","","","","","","","",""
"","ITI","","html-keyboard-response","499","660808","0.0-1.0-783.0","0","0","96697","","84","","","75","86","","","","","","","","","","","","","","","k",""
"","S1","","html-keyboard-response","500","661068","0.0-1.0-785.0","0","0","96697","","null","","","null","87","","","","","","","","","","","","","","","",""
"","ISI","","html-keyboard-response","501","663075","0.0-1.0-786.0","0","0","96697","","48","","","75","87","k","","","","","","","","","","","","","","",""
"","S2","","html-keyboard-response","502","663150","0.0-1.0-787.0","0","0","96697","","65","","","75","87","","k","2","87","training","adjacent","FG","6","7","M.jpg","L.jpg","1","1","1","",""
"","feedback","","html-keyboard-response","503","664158","0.0-1.0-789.0-0.0","0","0","96697","","null","","","null","87","","","","","","","","","","","","","","","",""
"","ITI","","html-keyboard-response","504","665161","0.0-1.0-792.0","0","0","96697","","49","","","68","87","","","","","","","","","","","","","","","d",""
"","S1","","html-keyboard-response","505","665416","0.0-1.0-794.0","0","0","96697","","null","","","null","88","","","","","","","","","","","","","","","",""
"","ISI","","html-keyboard-response","506","667421","0.0-1.0-795.0","0","0","96697","","4","","","68","88","d","","","","","","","","","","","","","","",""
"","S2","","html-keyboard-response","507","667522","0.0-1.0-796.0","0","0","96697","","97","","","68","88","","d","2","88","training","adjacent","CD","3","4","P.jpg","N.jpg","0","1","0","",""
"","feedback","","html-keyboard-response","508","668528","0.0-1.0-798.0-0.0","0","0","96697","","null","","","null","88","","","","","","","","","","","","","","","",""
"","time_out","","html-keyboard-response","509","670535","0.0-1.0-800.0-0.0","0","0","96697","","null","","","null","88","","","","","","","","","","","","","","","",""
"","ITI","","html-keyboard-response","510","671579","0.0-1.0-801.0","0","0","96697","","82","","","68","88","","","","","","","","","","","","","","","d",""
"","S1","","html-keyboard-response","511","671859","0.0-1.0-803.0","0","0","96697","","null","","","null","89","","","","","","","","","","","","","","","",""
"","ISI","","html-keyboard-response","512","673870","0.0-1.0-804.0","0","0","96697","","86","","","75","89","k","","","","","","","","","","","","","","",""
"","S2","","html-keyboard-response","513","673988","0.0-1.0-805.0","0","0","96697","","111","","","68","89","","d","2","89","training","adjacent","GF","7","6","L.jpg","M.jpg","0","0","1","",""
"","feedback","","html-keyboard-response","514","674996","0.0-1.0-807.0-0.0","0","0","96697","","null","","","null","89","","","","","","","","","","","","","","","",""
"","ITI","","html-keyboard-response","515","676011","0.0-1.0-810.0","0","0","96697","","29","","","75","89","","","","","","","","","","","","","","","k",""
"","S1","","html-keyboard-response","516","676267","0.0-1.0-812.0","0","0","96697","","null","","","null","90","","","","","","","","","","","","","","","",""
"","ISI","","html-keyboard-response","517","678275","0.0-1.0-813.0","0","0","96697","","47","","","68","90","d","","","","","","","","","","","","","","",""
"","S2","","html-keyboard-response","518","678292","0.0-1.0-814.0","0","0","96697","","13","","","68","90","","d","2","90","training","adjacent","ED","5","4","Q.jpg","N.jpg","0","0","1","",""
"","feedback","","html-keyboard-response","519","679306","0.0-1.0-816.0-0.0","0","0","96697","","null","","","null","90","","","","","","","","","","","","","","","",""
"","ITI","","html-keyboard-response","520","680311","0.0-1.0-819.0","0","0","96697","","145","","","75","90","","","","","","","","","","","","","","","k",""
"","S1","","html-keyboard-response","521","680583","0.0-1.0-821.0","0","0","96697","","null","","","null","91","","","","","","","","","","","","","","","",""
"","ISI","","html-keyboard-response","522","682598","0.0-1.0-822.0","0","0","96697","","15","","","68","91","d","","","","","","","","","","","","","","",""
"","S2","","html-keyboard-response","523","682682","0.0-1.0-823.0","0","0","96697","","77","","","75","91","","k","2","91","training","adjacent","FE","6","5","M.jpg","Q.jpg","1","0","0","",""
"","feedback","","html-keyboard-response","524","683782","0.0-1.0-825.0-0.0","0","0","96697","","null","","","null","91","","","","","","","","","","","","","","","",""
"","time_out","","html-keyboard-response","525","685796","0.0-1.0-827.0-0.0","0","0","96697","","null","","","null","91","","","","","","","","","","","","","","","",""
"","ITI","","html-keyboard-response","526","686804","0.0-1.0-828.0","0","0","96697","","83","","","68","91","","","","","","","","","","","","","","","d",""
"","S1","","html-keyboard-response","527","687070","0.0-1.0-830.0","0","0","96697","","null","","","null","92","","","","","","","","","","","","","","","",""
"","ISI","","html-keyboard-response","528","689077","0.0-1.0-831.0","0","0","96697","","12","","","68","92","d","","","","","","","","","","","","","","",""
"","S2","","html-keyboard-response","529","689094","0.0-1.0-832.0","0","0","96697","","13","","","75","92","","k","2","92","training","adjacent","FE","6","5","M.jpg","Q.jpg","1","0","0","",""
"","feedback","","html-keyboard-response","530","690100","0.0-1.0-834.0-0.0","0","0","96697","","null","","","null","92","","","","","","","","","","","","","","","",""
"","time_out","","html-keyboard-response","531","692109","0.0-1.0-836.0-0.0","0","0","96697","","null","","","null","92","","","","","","","","","","","","","","","",""
"","ITI","","html-keyboard-response","532","693115","0.0-1.0-837.0","0","0","96697","","76","","","68","92","","","","","","","","","","","","","","","d",""
"","S1","","html-keyboard-response","533","693370","0.0-1.0-839.0","0","0","96697","","null","","","null","93","","","","","","","","","","","","","","","",""
"","ISI","","html-keyboard-response","534","695375","0.0-1.0-840.0","0","0","96697","","6","","","75","93","k","","","","","","","","","","","","","","",""
"","S2","","html-keyboard-response","535","695433","0.0-1.0-841.0","0","0","96697","","54","","","75","93","","k","2","93","training","adjacent","EF","5","6","Q.jpg","M.jpg","1","1","1","",""
"","feedback","","html-keyboard-response","536","696441","0.0-1.0-843.0-0.0","0","0","96697","","null","","","null","93","","","","","","","","","","","","","","","",""
"","ITI","","html-keyboard-response","537","697448","0.0-1.0-846.0","0","0","96697","","44","","","75","93","","","","","","","","","","","","","","","k",""
"","S1","","html-keyboard-response","538","697705","0.0-1.0-848.0","0","0","96697","","null","","","null","94","","","","","","","","","","","","","","","",""
"","ISI","","html-keyboard-response","539","699712","0.0-1.0-849.0","0","0","96697","","69","","","75","94","k","","","","","","","","","","","","","","",""
"","S2","","html-keyboard-response","540","699786","0.0-1.0-850.0","0","0","96697","","71","","","68","94","","d","2","94","training","adjacent","EF","5","6","Q.jpg","M.jpg","0","1","0","",""
"","feedback","","html-keyboard-response","541","700797","0.0-1.0-852.0-0.0","0","0","96697","","null","","","null","94","","","","","","","","","","","","","","","",""
"","time_out","","html-keyboard-response","542","702820","0.0-1.0-854.0-0.0","0","0","96697","","null","","","null","94","","","","","","","","","","","","","","","",""
"","ITI","","html-keyboard-response","543","703827","0.0-1.0-855.0","0","0","96697","","279","","","68","94","","","","","","","","","","","","","","","d",""
"","S1","","html-keyboard-response","544","704088","0.0-1.0-857.0","0","0","96697","","null","","","null","95","","","","","","","","","","","","","","","",""
"","ISI","","html-keyboard-response","545","706096","0.0-1.0-858.0","0","0","96697","","20","","","75","95","k","","","","","","","","","","","","","","",""
"","S2","","html-keyboard-response","546","706206","0.0-1.0-859.0","0","0","96697","","105","","","75","95","","k","2","95","training","adjacent","DE","4","5","N.jpg","Q.jpg","1","1","1","",""
"","feedback","","html-keyboard-response","547","707212","0.0-1.0-861.0-0.0","0","0","96697","","null","","","null","95","","","","","","","","","","","","","","","",""
"","ITI","","html-keyboard-response","548","708217","0.0-1.0-864.0","0","0","96697","","166","","","68","95","","","","","","","","","","","","","","","d",""
"","block_over","","html-keyboard-response","549","709554","0.0-1.0-865.0-0.0","0","0","96697","","1331","","","32","95","","","","","","","","","","","","","","","",""
"","S1","","html-keyboard-response","550","709812","0.0-1.0-866.0","0","0","96697","","null","","","null","96","","","","","","","","","","","","","","","",""
"","ISI","","html-keyboard-response","551","711817","0.0-1.0-867.0","0","0","96697","","207","","","68","96","d","","","","","","","","","","","","","","",""
"","S2","","html-keyboard-response","552","711888","0.0-1.0-868.0","0","0","96697","","66","","","75","96","","k","3","96","training","adjacent","FG","6","7","M.jpg","L.jpg","1","1","1","",""
"","feedback","","html-keyboard-response","553","712895","0.0-1.0-870.0-0.0","0","0","96697","","null","","","null","96","","","","","","","","","","","","","","","",""
"","ITI","","html-keyboard-response","554","713900","0.0-1.0-873.0","0","0","96697","","45","","","68","96","","","","","","","","","","","","","","","d",""
"","S1","","html-keyboard-response","555","714157","0.0-1.0-875.0","0","0","96697","","null","","","null","97","","","","","","","","","","","","","","","",""
"","ISI","","html-keyboard-response","556","716164","0.0-1.0-876.0","0","0","96697","","0","","","68","97","d","","","","","","","","","","","","","","",""
"","S2","","html-keyboard-response","557","716320","0.0-1.0-877.0","0","0","96697","","139","","","75","97","","k","3","97","training","adjacent","ED","5","4","Q.jpg","N.jpg","1","0","0","",""
"","feedback","","html-keyboard-response","558","717328","0.0-1.0-879.0-0.0","0","0","96697","","null","","","null","97","","","","","","","","","","","","","","","",""
"","time_out","","html-keyboard-response","559","719336","0.0-1.0-881.0-0.0","0","0","96697","","null","","","null","97","","","","","","","","","","","","","","","",""
"","ITI","","html-keyboard-response","560","720341","0.0-1.0-882.0","0","0","96697","","7","","","68","97","","","","","","","","","","","","","","","d",""
"","S1","","html-keyboard-response","561","720600","0.0-1.0-884.0","0","0","96697","","null","","","null","98","","","","","","","","","","","","","","","",""
"","ISI","","html-keyboard-response","562","722625","0.0-1.0-885.0","0","0","96697","","61","","","75","98","k","","","","","","","","","","","","","","",""
"","S2","","html-keyboard-response","563","722636","0.0-1.0-886.0","0","0","96697","","7","","","75","98","","k","3","98","training","adjacent","GF","7","6","L.jpg","M.jpg","1","0","0","",""
"","feedback","","html-keyboard-response","564","723641","0.0-1.0-888.0-0.0","0","0","96697","","null","","","null","98","","","","","","","","","","","","","","","",""
"","time_out","","html-keyboard-response","565","725647","0.0-1.0-890.0-0.0","0","0","96697","","null","","","null","98","","","","","","","","","","","","","","","",""
"","ITI","","html-keyboard-response","566","726653","0.0-1.0-891.0","0","0","96697","","15","","","75","98","","","","","","","","","","","","","","","k",""
"","S1","","html-keyboard-response","567","726908","0.0-1.0-893.0","0","0","96697","","null","","","null","99","","","","","","","","","","","","","","","",""
"","ISI","","html-keyboard-response","568","728912","0.0-1.0-894.0","0","0","96697","","41","","","75","99","k","","","","","","","","","","","","","","",""
"","S2","","html-keyboard-response","569","728924","0.0-1.0-895.0","0","0","96697","","8","","","75","99","","k","3","99","training","adjacent","GF","7","6","L.jpg","M.jpg","1","0","0","",""
"","feedback","","html-keyboard-response","570","729931","0.0-1.0-897.0-0.0","0","0","96697","","null","","","null","99","","","","","","","","","","","","","","","",""
"","time_out","","html-keyboard-response","571","731936","0.0-1.0-899.0-0.0","0","0","96697","","null","","","null","99","","","","","","","","","","","","","","","",""
"","ITI","","html-keyboard-response","572","732939","0.0-1.0-900.0","0","0","96697","","17","","","68","99","","","","","","","","","","","","","","","d",""
"","S1","","html-keyboard-response","573","733196","0.0-1.0-902.0","0","0","96697","","null","","","null","100","","","","","","","","","","","","","","","",""
"","ISI","","html-keyboard-response","574","735200","0.0-1.0-903.0","0","0","96697","","76","","","68","100","d","","","","","","","","","","","","","","",""
"","S2","","html-keyboard-response","575","735333","0.0-1.0-904.0","0","0","96697","","127","","","75","100","","k","3","100","training","adjacent","CD","3","4","P.jpg","N.jpg","1","1","1","",""
"","feedback","","html-keyboard-response","576","736342","0.0-1.0-906.0-0.0","0","0","96697","","null","","","null","100","","","","","","","","","","","","","","","",""
"","ITI","","html-keyboard-response","577","737347","0.0-1.0-909.0","0","0","96697","","40","","","68","100","","","","","","","","","","","","","","","d",""
"","S1","","html-keyboard-response","578","737605","0.0-1.0-911.0","0","0","96697","","null","","","null","101","","","","","","","","","","","","","","","",""
"","ISI","","html-keyboard-response","579","739611","0.0-1.0-912.0","0","0","96697","","7","","","68","101","d","","","","","","","","","","","","","","",""
"","S2","","html-keyboard-response","580","739685","0.0-1.0-913.0","0","0","96697","","67","","","68","101","","d","3","101","training","adjacent","FG","6","7","M.jpg","L.jpg","0","1","0","",""
"","feedback","","html-keyboard-response","581","740695","0.0-1.0-915.0-0.0","0","0","96697","","null","","","null","101","","","","","","","","","","","","","","","",""
"","time_out","","html-keyboard-response","582","742702","0.0-1.0-917.0-0.0","0","0","96697","","null","","","null","101","","","","","","","","","","","","","","","",""
"","ITI","","html-keyboard-response","583","743720","0.0-1.0-918.0","0","0","96697","","9","","","68","101","","","","","","","","","","","","","","","d",""
"","S1","","html-keyboard-response","584","743975","0.0-1.0-920.0","0","0","96697","","null","","","null","102","","","","","","","","","","","","","","","",""
"","ISI","","html-keyboard-response","585","745979","0.0-1.0-921.0","0","0","96697","","84","","","68","102","d","","","","","","","","","","","","","","",""
"","S2","","html-keyboard-response","586","746098","0.0-1.0-922.0","0","0","96697","","115","","","75","102","","k","3","102","training","adjacent","ED","5","4","Q.jpg","N.jpg","1","0","0","",""
