"success","ttype","start_time","trial_type","trial_index","time_elapsed","internal_node_id","warning","missed_checkup","PID","view_history","rt","responses","repeat_instructions","key_press","index","keypress_isi","keypress_S2","block","trial_num","phase","group_type","pair_type","S1_stim","S2_stim","S1_img","S2_img","S1_chosen","S1_higher","accuracy","keypress_iti","total_bonus_tally"
"true","full_screen","d03072023hr1753","fullscreen","0","15312","0.0-0.0","0","0","46016","","","","","","","","","","","","","","","","","","","","","",""
"","instructions","","instructions","1","71965","0.0-1.0-0.0-0.0","0","0","46016","[{""page_index"":0,""viewing_time"":4441},{""page_index"":1,""viewing_time"":34840},{""page_index"":2,""viewing_time"":14571},{""page_index"":3,""viewing_time"":2798}]","56651","","","","","","","","","","","","","","","","","","","",""
"","comprehension_check","","survey-multi-choice","2","106167","0.0-1.0-0.0-1.0","0","0","46016","","34195","{""Q0"":""True"",""Q1"":""D"",""Q2"":""Only when the screen 'MAKE A CHOICE' is shown"",""Q3"":""Green mark"",""Q4"":""either D or K""}","1","","","","","","","","","","","","","","","","","",""
"","missed_instruction_checkup","","html-keyboard-response","3","109306","0.0-1.0-0.0-2.0-0.0","0","1","46016","","3134","","","32","","","","","","","","","","","","","","","","",""
"","instructions","","instructions","4","155517","0.0-1.0-0.1-0.1","0","0","46016","[{""page_index"":0,""viewing_time"":9672},{""page_index"":1,""viewing_time"":33321},{""page_index"":2,""viewing_time"":2212},{""page_index"":3,""viewing_time"":1005}]","46210","","","","","","","","","","","","","","","","","","","",""
"","comprehension_check","","survey-multi-choice","5","175082","0.0-1.0-0.1-1.1","0","0","46016","","19560","{""Q0"":""True"",""Q1"":""D"",""Q2"":""Once the second image appears and while the screen 'MAKE A CHOICE' is shown"",""Q3"":""Green mark"",""Q4"":""either D or K""}","0","","","","","","","","","","","","","","","","","",""
"","start_exp","","html-keyboard-response","6","177141","0.0-1.0-1.0","0","0","46016","","2056","","","32","","","","","","","","","","","","","","","","",""
"","S1","","html-keyboard-response","7","177395","0.0-1.0-2.0","0","0","46016","","null","","","null","0","","","","","","","","","","","","","","","",""
"","ISI","","html-keyboard-response","8","178398","0.0-1.0-3.0","0","0","46016","","null","","","null","0","NaN","","","","","","","","","","","","","","",""
"","S2","","html-keyboard-response","9","178652","0.0-1.0-4.0","0","0","46016","","null","","","null","0","","NaN","","","","","","","","","","","","","",""
"","response","","html-keyboard-response","10","179270","0.0-1.0-5.0-0.0","0","0","46016","","615","","","68","0","","","1","0","training","adjacent","FG","6","7","R.jpg","P.jpg","1","1","1","",""
"","feedback","","html-keyboard-response","11","180276","0.0-1.0-6.0-0.0","0","0","46016","","null","","","null","0","","","","","","","","","","","","","","","",""
"","ITI","","html-keyboard-response","12","181282","0.0-1.0-9.0","0","0","46016","","null","","","null","0","","","","","","","","","","","","","","","NaN",""
"","S1","","html-keyboard-response","13","181535","0.0-1.0-11.0","0","0","46016","","null","","","null","1","","","","","","","","","","","","","","","",""
"","ISI","","html-keyboard-response","14","182538","0.0-1.0-12.0","0","0","46016","","null","","","null","1","NaN","","","","","","","","","","","","","","",""
"","S2","","html-keyboard-response","15","182792","0.0-1.0-13.0","0","0","46016","","null","","","null","1","","NaN","","","","","","","","","","","","","",""
"","response","","html-keyboard-response","16","183195","0.0-1.0-14.0-0.0","0","0","46016","","401","","","75","1","","","1","1","training","adjacent","AB","1","2","M.jpg","L.jpg","0","1","0","",""
"","feedback","","html-keyboard-response","17","184197","0.0-1.0-15.0-0.0","0","0","46016","","null","","","null","1","","","","","","","","","","","","","","","",""
"","time_out","","html-keyboard-response","18","186217","0.0-1.0-17.0-0.0","0","0","46016","","null","","","null","1","","","","","","","","","","","","","","","",""
"","ITI","","html-keyboard-response","19","187221","0.0-1.0-18.0","0","0","46016","","null","","","null","1","","","","","","","","","","","","","","","NaN",""
"","S1","","html-keyboard-response","20","187478","0.0-1.0-20.0","0","0","46016","","null","","","null","2","","","","","","","","","","","","","","","",""
"","ISI","","html-keyboard-response","21","188485","0.0-1.0-21.0","0","0","46016","","null","","","null","2","NaN","","","","","","","","","","","","","","",""
"","S2","","html-keyboard-response","22","188738","0.0-1.0-22.0","0","0","46016","","null","","","null","2","","NaN","","","","","","","","","","","","","",""
"","response","","html-keyboard-response","23","189075","0.0-1.0-23.0-0.0","0","0","46016","","334","","","68","2","","","1","2","training","adjacent","DC","4","3","Q.jpg","N.jpg","1","0","0","",""
"","feedback","","html-keyboard-response","24","190079","0.0-1.0-24.0-0.0","0","0","46016","","null","","","null","2","","","","","","","","","","","","","","","",""
"","time_out","","html-keyboard-response","25","192082","0.0-1.0-26.0-0.0","0","0","46016","","null","","","null","2","","","","","","","","","","","","","","","",""
"","ITI","","html-keyboard-response","26","193086","0.0-1.0-27.0","0","0","46016","","null","","","null","2","","","","","","","","","","","","","","","NaN",""
"","S1","","html-keyboard-response","27","193339","0.0-1.0-29.0","0","0","46016","","null","","","null","3","","","","","","","","","","","","","","","",""
"","ISI","","html-keyboard-response","28","194342","0.0-1.0-30.0","0","0","46016","","null","","","null","3","NaN","","","","","","","","","","","","","","",""
"","S2","","html-keyboard-response","29","194594","0.0-1.0-31.0","0","0","46016","","null","","","null","3","","NaN","","","","","","","","","","","","","",""
"","response","","html-keyboard-response","30","194912","0.0-1.0-32.0-0.0","0","0","46016","","316","","","68","3","","","1","3","training","adjacent","FG","6","7","R.jpg","P.jpg","1","1","1","",""
"","feedback","","html-keyboard-response","31","195915","0.0-1.0-33.0-0.0","0","0","46016","","null","","","null","3","","","","","","","","","","","","","","","",""
"","ITI","","html-keyboard-response","32","196918","0.0-1.0-36.0","0","0","46016","","null","","","null","3","","","","","","","","","","","","","","","NaN",""
"","S1","","html-keyboard-response","33","197171","0.0-1.0-38.0","0","0","46016","","null","","","null","4","","","","","","","","","","","","","","","",""
"","ISI","","html-keyboard-response","34","198179","0.0-1.0-39.0","0","0","46016","","647","","","68","4","d","","","","","","","","","","","","","","",""
"","S2","","html-keyboard-response","35","198383","0.0-1.0-40.0","0","0","46016","","202","","","68","4","","d","1","4","training","adjacent","CD","3","4","N.jpg","Q.jpg","1","1","1","",""
"","feedback","","html-keyboard-response","36","199387","0.0-1.0-42.0-0.0","0","0","46016","","null","","","null","4","","","","","","","","","","","","","","","",""
"","ITI","","html-keyboard-response","37","200389","0.0-1.0-45.0","0","0","46016","","null","","","null","4","","","","","","","","","","","","","","","NaN",""
"","S1","","html-keyboard-response","38","200641","0.0-1.0-47.0","0","0","46016","","null","","","null","5","","","","","","","","","","","","","","","",""
"","ISI","","html-keyboard-response","39","201644","0.0-1.0-48.0","0","0","46016","","516","","","68","5","d","","","","","","","","","","","","","","",""
"","S2","","html-keyboard-response","40","201727","0.0-1.0-49.0","0","0","46016","","80","","","68","5","","d","1","5","training","adjacent","FE","6","5","R.jpg","O.jpg","1","0","0","",""
"","feedback","","html-keyboard-response","41","202730","0.0-1.0-51.0-0.0","0","0","46016","","null","","","null","5","","","","","","","","","","","","","","","",""
"","time_out","","html-keyboard-response","42","204732","0.0-1.0-53.0-0.0","0","0","46016","","null","","","null","5","","","","","","","","","","","","","","","",""
"","ITI","","html-keyboard-response","43","205746","0.0-1.0-54.0","0","0","46016","","396","","","68","5","","","","","","","","","","","","","","","d",""
"","S1","","html-keyboard-response","44","206000","0.0-1.0-56.0","0","0","46016","","null","","","null","6","","","","","","","","","","","","","","","",""
"","ISI","","html-keyboard-response","45","207003","0.0-1.0-57.0","0","0","46016","","20","","","68","6","d","","","","","","","","","","","","","","",""
"","S2","","html-keyboard-response","46","207257","0.0-1.0-58.0","0","0","46016","","null","","","null","6","","NaN","","","","","","","","","","","","","",""
"","response","","html-keyboard-response","47","207376","0.0-1.0-59.0-0.0","0","0","46016","","118","","","68","6","","","1","6","training","adjacent","DE","4","5","Q.jpg","O.jpg","1","1","1","",""
"","feedback","","html-keyboard-response","48","208381","0.0-1.0-60.0-0.0","0","0","46016","","null","","","null","6","","","","","","","","","","","","","","","",""
"","ITI","","html-keyboard-response","49","209385","0.0-1.0-63.0","0","0","46016","","null","","","null","6","","","","","","","","","","","","","","","NaN",""
"","S1","","html-keyboard-response","50","209637","0.0-1.0-65.0","0","0","46016","","null","","","null","7","","","","","","","","","","","","","","","",""
"","ISI","","html-keyboard-response","51","210639","0.0-1.0-66.0","0","0","46016","","141","","","68","7","d","","","","","","","","","","","","","","",""
"","S2","","html-keyboard-response","52","210888","0.0-1.0-67.0","0","0","46016","","246","","","68","7","","d","1","7","training","adjacent","BA","2","1","L.jpg","M.jpg","1","0","0","",""
"","feedback","","html-keyboard-response","53","211892","0.0-1.0-69.0-0.0","0","0","46016","","null","","","null","7","","","","","","","","","","","","","","","",""
"","time_out","","html-keyboard-response","54","213896","0.0-1.0-71.0-0.0","0","0","46016","","null","","","null","7","","","","","","","","","","","","","","","",""
"","ITI","","html-keyboard-response","55","214901","0.0-1.0-72.0","0","0","46016","","362","","","68","7","","","","","","","","","","","","","","","d",""
"","S1","","html-keyboard-response","56","215154","0.0-1.0-74.0","0","0","46016","","null","","","null","8","","","","","","","","","","","","","","","",""
"","ISI","","html-keyboard-response","57","216158","0.0-1.0-75.0","0","0","46016","","992","","","68","8","d","","","","","","","","","","","","","","",""
"","S2","","html-keyboard-response","58","216412","0.0-1.0-76.0","0","0","46016","","null","","","null","8","","NaN","","","","","","","","","","","","","",""
"","response","","html-keyboard-response","59","216719","0.0-1.0-77.0-0.0","0","0","46016","","305","","","68","8","","","1","8","training","adjacent","CD","3","4","N.jpg","Q.jpg","1","1","1","",""
"","feedback","","html-keyboard-response","60","217722","0.0-1.0-78.0-0.0","0","0","46016","","null","","","null","8","","","","","","","","","","","","","","","",""
"","ITI","","html-keyboard-response","61","218726","0.0-1.0-81.0","0","0","46016","","null","","","null","8","","","","","","","","","","","","","","","NaN",""
"","S1","","html-keyboard-response","62","218978","0.0-1.0-83.0","0","0","46016","","null","","","null","9","","","","","","","","","","","","","","","",""
"","ISI","","html-keyboard-response","63","219982","0.0-1.0-84.0","0","0","46016","","636","","","68","9","d","","","","","","","","","","","","","","",""
"","S2","","html-keyboard-response","64","220177","0.0-1.0-85.0","0","0","46016","","192","","","68","9","","d","1","9","training","adjacent","DC","4","3","Q.jpg","N.jpg","1","0","0","",""
"","feedback","","html-keyboard-response","65","221180","0.0-1.0-87.0-0.0","0","0","46016","","null","","","null","9","","","","","","","","","","","","","","","",""
"","time_out","","html-keyboard-response","66","223182","0.0-1.0-89.0-0.0","0","0","46016","","null","","","null","9","","","","","","","","","","","","","","","",""
"","ITI","","html-keyboard-response","67","224185","0.0-1.0-90.0","0","0","46016","","null","","","null","9","","","","","","","","","","","","","","","NaN",""
"","S1","","html-keyboard-response","68","224438","0.0-1.0-92.0","0","0","46016","","null","","","null","10","","","","","","","","","","","","","","","",""
"","ISI","","html-keyboard-response","69","225440","0.0-1.0-93.0","0","0","46016","","7","","","68","10","d","","","","","","","","","","","","","","",""
"","S2","","html-keyboard-response","70","225694","0.0-1.0-94.0","0","0","46016","","null","","","null","10","","NaN","","","","","","","","","","","","","",""
"","response","","html-keyboard-response","71","225966","0.0-1.0-95.0-0.0","0","0","46016","","271","","","68","10","","","1","10","training","adjacent","BC","2","3","L.jpg","N.jpg","1","1","1","",""
"","feedback","","html-keyboard-response","72","226969","0.0-1.0-96.0-0.0","0","0","46016","","null","","","null","10","","","","","","","","","","","","","","","",""
"","ITI","","html-keyboard-response","73","227973","0.0-1.0-99.0","0","0","46016","","null","","","null","10","","","","","","","","","","","","","","","NaN",""
"","S1","","html-keyboard-response","74","228226","0.0-1.0-101.0","0","0","46016","","null","","","null","11","","","","","","","","","","","","","","","",""
"","ISI","","html-keyboard-response","75","229229","0.0-1.0-102.0","0","0","46016","","441","","","68","11","d","","","","","","","","","","","","","","",""
"","S2","","html-keyboard-response","76","229483","0.0-1.0-103.0","0","0","46016","","null","","","null","11","","NaN","","","","","","","","","","","","","",""
"","response","","html-keyboard-response","77","229520","0.0-1.0-104.0-0.0","0","0","46016","","36","","","68","11","","","1","11","training","adjacent","BA","2","1","L.jpg","M.jpg","1","0","0","",""
"","feedback","","html-keyboard-response","78","230525","0.0-1.0-105.0-0.0","0","0","46016","","null","","","null","11","","","","","","","","","","","","","","","",""
"","time_out","","html-keyboard-response","79","232547","0.0-1.0-107.0-0.0","0","0","46016","","null","","","null","11","","","","","","","","","","","","","","","",""
"","ITI","","html-keyboard-response","80","233550","0.0-1.0-108.0","0","0","46016","","null","","","null","11","","","","","","","","","","","","","","","NaN",""
"","S1","","html-keyboard-response","81","233803","0.0-1.0-110.0","0","0","46016","","null","","","null","12","","","","","","","","","","","","","","","",""
"","ISI","","html-keyboard-response","82","234807","0.0-1.0-111.0","0","0","46016","","null","","","null","12","NaN","","","","","","","","","","","","","","",""
"","S2","","html-keyboard-response","83","235059","0.0-1.0-112.0","0","0","46016","","null","","","null","12","","NaN","","","","","","","","","","","","","",""
"","response","","html-keyboard-response","84","235348","0.0-1.0-113.0-0.0","0","0","46016","","286","","","68","12","","","1","12","training","adjacent","CD","3","4","N.jpg","Q.jpg","1","1","1","",""
"","feedback","","html-keyboard-response","85","236351","0.0-1.0-114.0-0.0","0","0","46016","","null","","","null","12","","","","","","","","","","","","","","","",""
"","ITI","","html-keyboard-response","86","237354","0.0-1.0-117.0","0","0","46016","","null","","","null","12","","","","","","","","","","","","","","","NaN",""
"","S1","","html-keyboard-response","87","237608","0.0-1.0-119.0","0","0","46016","","null","","","null","13","","","","","","","","","","","","","","","",""
"","ISI","","html-keyboard-response","88","238610","0.0-1.0-120.0","0","0","46016","","null","","","null","13","NaN","","","","","","","","","","","","","","",""
"","S2","","html-keyboard-response","89","238864","0.0-1.0-121.0","0","0","46016","","null","","","null","13","","NaN","","","","","","","","","","","","","",""
"","response","","html-keyboard-response","90","239367","0.0-1.0-122.0-0.0","0","0","46016","","500","","","75","13","","","1","13","training","adjacent","EF","5","6","O.jpg","R.jpg","0","1","0","",""
"","feedback","","html-keyboard-response","91","240370","0.0-1.0-123.0-0.0","0","0","46016","","null","","","null","13","","","","","","","","","","","","","","","",""
"","time_out","","html-keyboard-response","92","242373","0.0-1.0-125.0-0.0","0","0","46016","","null","","","null","13","","","","","","","","","","","","","","","",""
"","ITI","","html-keyboard-response","93","243377","0.0-1.0-126.0","0","0","46016","","null","","","null","13","","","","","","","","","","","","","","","NaN",""
"","S1","","html-keyboard-response","94","243629","0.0-1.0-128.0","0","0","46016","","null","","","null","14","","","","","","","","","","","","","","","",""
"","ISI","","html-keyboard-response","95","244632","0.0-1.0-129.0","0","0","46016","","450","","","68","14","d","","","","","","","","","","","","","","",""
"","S2","","html-keyboard-response","96","244764","0.0-1.0-130.0","0","0","46016","","129","","","68","14","","d","1","14","training","adjacent","AB","1","2","M.jpg","L.jpg","1","1","1","",""
"","feedback","","html-keyboard-response","97","245767","0.0-1.0-132.0-0.0","0","0","46016","","null","","","null","14","","","","","","","","","","","","","","","",""
"","ITI","","html-keyboard-response","98","246770","0.0-1.0-135.0","0","0","46016","","153","","","68","14","","","","","","","","","","","","","","","d",""
"","S1","","html-keyboard-response","99","247023","0.0-1.0-137.0","0","0","46016","","null","","","null","15","","","","","","","","","","","","","","","",""
"","ISI","","html-keyboard-response","100","248026","0.0-1.0-138.0","0","0","46016","","356","","","68","15","d","","","","","","","","","","","","","","",""
"","S2","","html-keyboard-response","101","248233","0.0-1.0-139.0","0","0","46016","","206","","","68","15","","d","1","15","training","adjacent","CB","3","2","N.jpg","L.jpg","1","0","0","",""
"","feedback","","html-keyboard-response","102","249237","0.0-1.0-141.0-0.0","0","0","46016","","null","","","null","15","","","","","","","","","","","","","","","",""
"","time_out","","html-keyboard-response","103","251244","0.0-1.0-143.0-0.0","0","0","46016","","null","","","null","15","","","","","","","","","","","","","","","",""
"","ITI","","html-keyboard-response","104","252247","0.0-1.0-144.0","0","0","46016","","165","","","68","15","","","","","","","","","","","","","","","d",""
"","S1","","html-keyboard-response","105","252500","0.0-1.0-146.0","0","0","46016","","null","","","null","16","","","","","","","","","","","","","","","",""
"","ISI","","html-keyboard-response","106","253504","0.0-1.0-147.0","0","0","46016","","260","","","68","16","d","","","","","","","","","","","","","","",""
"","S2","","html-keyboard-response","107","253756","0.0-1.0-148.0","0","0","46016","","null","","","null","16","","NaN","","","","","","","","","","","","","",""
"","response","","html-keyboard-response","108","253921","0.0-1.0-149.0-0.0","0","0","46016","","163","","","68","16","","","1","16","training","adjacent","FE","6","5","R.jpg","O.jpg","1","0","0","",""
"","feedback","","html-keyboard-response","109","254924","0.0-1.0-150.0-0.0","0","0","46016","","null","","","null","16","","","","","","","","","","","","","","","",""
"","time_out","","html-keyboard-response","110","256934","0.0-1.0-152.0-0.0","0","0","46016","","null","","","null","16","","","","","","","","","","","","","","","",""
"","ITI","","html-keyboard-response","111","257938","0.0-1.0-153.0","0","0","46016","","null","","","null","16","","","","","","","","","","","","","","","NaN",""
"","S1","","html-keyboard-response","112","258192","0.0-1.0-155.0","0","0","46016","","null","","","null","17","","","","","","","","","","","","","","","",""
"","ISI","","html-keyboard-response","113","259194","0.0-1.0-156.0","0","0","46016","","null","","","null","17","NaN","","","","","","","","","","","","","","",""
"","S2","","html-keyboard-response","114","259448","0.0-1.0-157.0","0","0","46016","","null","","","null","17","","NaN","","","","","","","","","","","","","",""
"","response","","html-keyboard-response","115","259730","0.0-1.0-158.0-0.0","0","0","46016","","279","","","75","17","","","1","17","training","adjacent","GF","7","6","P.jpg","R.jpg","0","0","1","",""
"","feedback","","html-keyboard-response","116","260733","0.0-1.0-159.0-0.0","0","0","46016","","null","","","null","17","","","","","","","","","","","","","","","",""
"","ITI","","html-keyboard-response","117","261737","0.0-1.0-162.0","0","0","46016","","12","","","75","17","","","","","","","","","","","","","","","k",""
"","S1","","html-keyboard-response","118","262004","0.0-1.0-164.0","0","0","46016","","null","","","null","18","","","","","","","","","","","","","","","",""
"","ISI","","html-keyboard-response","119","263008","0.0-1.0-165.0","0","0","46016","","77","","","75","18","k","","","","","","","","","","","","","","",""
"","S2","","html-keyboard-response","120","263261","0.0-1.0-166.0","0","0","46016","","null","","","null","18","","NaN","","","","","","","","","","","","","",""
"","response","","html-keyboard-response","121","263342","0.0-1.0-167.0-0.0","0","0","46016","","79","","","75","18","","","1","18","training","adjacent","DE","4","5","Q.jpg","O.jpg","0","1","0","",""
"","feedback","","html-keyboard-response","122","264346","0.0-1.0-168.0-0.0","0","0","46016","","null","","","null","18","","","","","","","","","","","","","","","",""
"","time_out","","html-keyboard-response","123","266350","0.0-1.0-170.0-0.0","0","0","46016","","null","","","null","18","","","","","","","","","","","","","","","",""
"","ITI","","html-keyboard-response","124","267352","0.0-1.0-171.0","0","0","46016","","307","","","75","18","","","","","","","","","","","","","","","k",""
"","S1","","html-keyboard-response","125","267609","0.0-1.0-173.0","0","0","46016","","null","","","null","19","","","","","","","","","","","","","","","",""
"","ISI","","html-keyboard-response","126","268612","0.0-1.0-174.0","0","0","46016","","39","","","75","19","k","","","","","","","","","","","","","","",""
"","S2","","html-keyboard-response","127","268715","0.0-1.0-175.0","0","0","46016","","102","","","75","19","","k","1","19","training","adjacent","EF","5","6","O.jpg","R.jpg","0","1","0","",""
"","feedback","","html-keyboard-response","128","269719","0.0-1.0-177.0-0.0","0","0","46016","","null","","","null","19","","","","","","","","","","","","","","","",""
"","time_out","","html-keyboard-response","129","271722","0.0-1.0-179.0-0.0","0","0","46016","","null","","","null","19","","","","","","","","","","","","","","","",""
"","ITI","","html-keyboard-response","130","272725","0.0-1.0-180.0","0","0","46016","","null","","","null","19","","","","","","","","","","","","","","","NaN",""
"","S1","","html-keyboard-response","131","272977","0.0-1.0-182.0","0","0","46016","","null","","","null","20","","","","","","","","","","","","","","","",""
"","ISI","","html-keyboard-response","132","273981","0.0-1.0-183.0","0","0","46016","","null","","","null","20","NaN","","","","","","","","","","","","","","",""
"","S2","","html-keyboard-response","133","274234","0.0-1.0-184.0","0","0","46016","","null","","","null","20","","NaN","","","","","","","","","","","","","",""
"","response","","html-keyboard-response","134","274324","0.0-1.0-185.0-0.0","0","0","46016","","84","","","75","20","","","1","20","training","adjacent","GF","7","6","P.jpg","R.jpg","0","0","1","",""
"","feedback","","html-keyboard-response","135","275326","0.0-1.0-186.0-0.0","0","0","46016","","null","","","null","20","","","","","","","","","","","","","","","",""
"","ITI","","html-keyboard-response","136","276329","0.0-1.0-189.0","0","0","46016","","null","","","null","20","","","","","","","","","","","","","","","NaN",""
"","S1","","html-keyboard-response","137","276582","0.0-1.0-191.0","0","0","46016","","null","","","null","21","","","","","","","","","","","","","","","",""
"","ISI","","html-keyboard-response","138","277584","0.0-1.0-192.0","0","0","46016","","null","","","null","21","NaN","","","","","","","","","","","","","","",""
"","S2","","html-keyboard-response","139","277838","0.0-1.0-193.0","0","0","46016","","null","","","null","21","","NaN","","","","","","","","","","","","","",""
"","response","","html-keyboard-response","140","277899","0.0-1.0-194.0-0.0","0","0","46016","","59","","","68","21","","","1","21","training","adjacent","BC","2","3","L.jpg","N.jpg","1","1","1","",""
"","feedback","","html-keyboard-response","141","278903","0.0-1.0-195.0-0.0","0","0","46016","","null","","","null","21","","","","","","","","","","","","","","","",""
"","ITI","","html-keyboard-response","142","279905","0.0-1.0-198.0","0","0","46016","","null","","","null","21","","","","","","","","","","","","","","","NaN",""
"","S1","","html-keyboard-response","143","280158","0.0-1.0-200.0","0","0","46016","","null","","","null","22","","","","","","","","","","","","","","","",""
"","ISI","","html-keyboard-response","144","281161","0.0-1.0-201.0","0","0","46016","","null","","","null","22","NaN","","","","","","","","","","","","","","",""
"","S2","","html-keyboard-response","145","281422","0.0-1.0-202.0","0","0","46016","","null","","","null","22","","NaN","","","","","","","","","","","","","",""
"","response","","html-keyboard-response","146","281725","0.0-1.0-203.0-0.0","0","0","46016","","302","","","75","22","","","1","22","training","adjacent","FG","6","7","R.jpg","P.jpg","0","1","0","",""
"","feedback","","html-keyboard-response","147","282727","0.0-1.0-204.0-0.0","0","0","46016","","null","","","null","22","","","","","","","","","","","","","","","",""
"","time_out","","html-keyboard-response","148","284729","0.0-1.0-206.0-0.0","0","0","46016","","null","","","null","22","","","","","","","","","","","","","","","",""
"","ITI","","html-keyboard-response","149","285732","0.0-1.0-207.0","0","0","46016","","null","","","null","22","","","","","","","","","","","","","","","NaN",""
"","S1","","html-keyboard-response","150","285984","0.0-1.0-209.0","0","0","46016","","null","","","null","23","","","","","","","","","","","","","","","",""
"","ISI","","html-keyboard-response","151","286988","0.0-1.0-210.0","0","0","46016","","null","","","null","23","NaN","","","","","","","","","","","","","","",""
"","S2","","html-keyboard-response","152","287240","0.0-1.0-211.0","0","0","46016","","null","","","null","23","","NaN","","","","","","","","","","","","","",""
"","response","","html-keyboard-response","153","287508","0.0-1.0-212.0-0.0","0","0","46016","","266","","","68","23","","","1","23","training","adjacent","AB","1","2","M.jpg","L.jpg","1","1","1","",""
"","feedback","","html-keyboard-response","154","288511","0.0-1.0-213.0-0.0","0","0","46016","","null","","","null","23","","","","","","","","","","","","","","","",""
"","ITI","","html-keyboard-response","155","289514","0.0-1.0-216.0","0","0","46016","","null","","","null","23","","","","","","","","","","","","","","","NaN",""
"","S1","","html-keyboard-response","156","289767","0.0-1.0-218.0","0","0","46016","","null","","","null","24","","","","","","","","","","","","","","","",""
"","ISI","","html-keyboard-response","157","290770","0.0-1.0-219.0","0","0","46016","","null","","","null","24","NaN","","","","","","","","","","","","","","",""
"","S2","","html-keyboard-response","158","291024","0.0-1.0-220.0","0","0","46016","","null","","","null","24","","NaN","","","","","","","","","","","","","",""
"","response","","html-keyboard-response","159","291288","0.0-1.0-221.0-0.0","0","0","46016","","262","","","75","24","","","1","24","training","adjacent","BC","2","3","L.jpg","N.jpg","0","1","0","",""
"","feedback","","html-keyboard-response","160","292291","0.0-1.0-222.0-0.0","0","0","46016","","null","","","null","24","","","","","","","","","","","","","","","",""
"","time_out","","html-keyboard-response","161","294294","0.0-1.0-224.0-0.0","0","0","46016","","null","","","null","24","","","","","","","","","","","","","","","",""
"","ITI","","html-keyboard-response","162","295298","0.0-1.0-225.0","0","0","46016","","null","","","null","24","","","","","","","","","","","","","","","NaN",""
"","S1","","html-keyboard-response","163","295565","0.0-1.0-227.0","0","0","46016","","null","","","null","25","","","","","","","","","","","","","","","",""
"","ISI","","html-keyboard-response","164","296568","0.0-1.0-228.0","0","0","46016","","405","","","68","25","d","","","","","","","","","","","","","","",""
"","S2","","html-keyboard-response","165","296755","0.0-1.0-229.0","0","0","46016","","185","","","68","25","","d","1","25","training","adjacent","FE","6","5","R.jpg","O.jpg","1","0","0","",""
"","feedback","","html-keyboard-response","166","297758","0.0-1.0-231.0-0.0","0","0","46016","","null","","","null","25","","","","","","","","","","","","","","","",""
"","time_out","","html-keyboard-response","167","299761","0.0-1.0-233.0-0.0","0","0","46016","","null","","","null","25","","","","","","","","","","","","","","","",""
"","ITI","","html-keyboard-response","168","300764","0.0-1.0-234.0","0","0","46016","","250","","","75","25","","","","","","","","","","","","","","","k",""
"","S1","","html-keyboard-response","169","301017","0.0-1.0-236.0","0","0","46016","","null","","","null","26","","","","","","","","","","","","","","","",""
"","ISI","","html-keyboard-response","170","302020","0.0-1.0-237.0","0","0","46016","","366","","","75","26","k","","","","","","","","","","","","","","",""
"","S2","","html-keyboard-response","171","302160","0.0-1.0-238.0","0","0","46016","","137","","","75","26","","k","1","26","training","adjacent","CD","3","4","N.jpg","Q.jpg","0","1","0","",""
"","feedback","","html-keyboard-response","172","303163","0.0-1.0-240.0-0.0","0","0","46016","","null","","","null","26","","","","","","","","","","","","","","","",""
"","time_out","","html-keyboard-response","173","305166","0.0-1.0-242.0-0.0","0","0","46016","","null","","","null","26","","","","","","","","","","","","","","","",""
"","ITI","","html-keyboard-response","174","306168","0.0-1.0-243.0","0","0","46016","","35","","","68","26","","","","","","","","","","","","","","","d",""
"","S1","","html-keyboard-response","175","306423","0.0-1.0-245.0","0","0","46016","","null","","","null","27","","","","","","","","","","","","","","","",""
"","ISI","","html-keyboard-response","176","307425","0.0-1.0-246.0","0","0","46016","","122","","","68","27","d","","","","","","","","","","","","","","",""
"","S2","","html-keyboard-response","177","307553","0.0-1.0-247.0","0","0","46016","","126","","","75","27","","k","1","27","training","adjacent","ED","5","4","O.jpg","Q.jpg","0","0","1","",""
"","feedback","","html-keyboard-response","178","308556","0.0-1.0-249.0-0.0","0","0","46016","","null","","","null","27","","","","","","","","","","","","","","","",""
"","ITI","","html-keyboard-response","179","309559","0.0-1.0-252.0","0","0","46016","","58","","","68","27","","","","","","","","","","","","","","","d",""
"","S1","","html-keyboard-response","180","309813","0.0-1.0-254.0","0","0","46016","","null","","","null","28","","","","","","","","","","","","","","","",""
"","ISI","","html-keyboard-response","181","310815","0.0-1.0-255.0","0","0","46016","","84","","","68","28","d","","","","","","","","","","","","","","",""
"","S2","","html-keyboard-response","182","310963","0.0-1.0-256.0","0","0","46016","","145","","","75","28","","k","1","28","training","adjacent","CB","3","2","N.jpg","L.jpg","0","0","1","",""
"","feedback","","html-keyboard-response","183","311967","0.0-1.0-258.0-0.0","0","0","46016","","null","","","null","28","","","","","","","","","","","","","","","",""
"","ITI","","html-keyboard-response","184","312970","0.0-1.0-261.0","0","0","46016","","263","","","75","28","","","","","","","","","","","","","","","k",""
"","S1","","html-keyboard-response","185","313225","0.0-1.0-263.0","0","0","46016","","null","","","null","29","","","","","","","","","","","","","","","",""
"","ISI","","html-keyboard-response","186","314227","0.0-1.0-264.0","0","0","46016","","25","","","75","29","k","","","","","","","","","","","","","","",""
"","S2","","html-keyboard-response","187","314253","0.0-1.0-265.0","0","0","46016","","24","","","68","29","","d","1","29","training","adjacent","BC","2","3","L.jpg","N.jpg","1","1","1","",""
"","feedback","","html-keyboard-response","188","315266","0.0-1.0-267.0-0.0","0","0","46016","","null","","","null","29","","","","","","","","","","","","","","","",""
"","ITI","","html-keyboard-response","189","316268","0.0-1.0-270.0","0","0","46016","","202","","","68","29","","","","","","","","","","","","","","","d",""
"","S1","","html-keyboard-response","190","316522","0.0-1.0-272.0","0","0","46016","","null","","","null","30","","","","","","","","","","","","","","","",""
"","ISI","","html-keyboard-response","191","317555","0.0-1.0-273.0","0","0","46016","","75","","","68","30","d","","","","","","","","","","","","","","",""
"","S2","","html-keyboard-response","192","317567","0.0-1.0-274.0","0","0","46016","","10","","","75","30","","k","1","30","training","adjacent","CB","3","2","N.jpg","L.jpg","0","0","1","",""
"","feedback","","html-keyboard-response","193","318572","0.0-1.0-276.0-0.0","0","0","46016","","null","","","null","30","","","","","","","","","","","","","","","",""
"","ITI","","html-keyboard-response","194","319577","0.0-1.0-279.0","0","0","46016","","82","","","68","30","","","","","","","","","","","","","","","d",""
"","S1","","html-keyboard-response","195","319830","0.0-1.0-281.0","0","0","46016","","null","","","null","31","","","","","","","","","","","","","","","",""
"","ISI","","html-keyboard-response","196","320833","0.0-1.0-282.0","0","0","46016","","68","","","68","31","d","","","","","","","","","","","","","","",""
"","S2","","html-keyboard-response","197","321074","0.0-1.0-283.0","0","0","46016","","240","","","75","31","","k","1","31","training","adjacent","DC","4","3","Q.jpg","N.jpg","0","0","1","",""
"","feedback","","html-keyboard-response","198","322078","0.0-1.0-285.0-0.0","0","0","46016","","null","","","null","31","","","","","","","","","","","","","","","",""
"","ITI","","html-keyboard-response","199","323081","0.0-1.0-288.0","0","0","46016","","130","","","75","31","","","","","","","","","","","","","","","k",""
"","S1","","html-keyboard-response","200","323335","0.0-1.0-290.0","0","0","46016","","null","","","null","32","","","","","","","","","","","","","","","",""
"","ISI","","html-keyboard-response","201","324338","0.0-1.0-291.0","0","0","46016","","118","","","75","32","k","","","","","","","","","","","","","","",""
"","S2","","html-keyboard-response","202","324355","0.0-1.0-292.0","0","0","46016","","16","","","75","32","","k","1","32","training","adjacent","BA","2","1","L.jpg","M.jpg","0","0","1","",""
"","feedback","","html-keyboard-response","203","325360","0.0-1.0-294.0-0.0","0","0","46016","","null","","","null","32","","","","","","","","","","","","","","","",""
"","ITI","","html-keyboard-response","204","326370","0.0-1.0-297.0","0","0","46016","","90","","","68","32","","","","","","","","","","","","","","","d",""
"","S1","","html-keyboard-response","205","326624","0.0-1.0-299.0","0","0","46016","","null","","","null","33","","","","","","","","","","","","","","","",""
"","ISI","","html-keyboard-response","206","327628","0.0-1.0-300.0","0","0","46016","","12","","","68","33","d","","","","","","","","","","","","","","",""
"","S2","","html-keyboard-response","207","327784","0.0-1.0-301.0","0","0","46016","","154","","","75","33","","k","1","33","training","adjacent","AB","1","2","M.jpg","L.jpg","0","1","0","",""
"","feedback","","html-keyboard-response","208","328788","0.0-1.0-303.0-0.0","0","0","46016","","null","","","null","33","","","","","","","","","","","","","","","",""
"","time_out","","html-keyboard-response","209","330791","0.0-1.0-305.0-0.0","0","0","46016","","null","","","null","33","","","","","","","","","","","","","","","",""
"","ITI","","html-keyboard-response","210","331795","0.0-1.0-306.0","0","0","46016","","160","","","75","33","","","","","","","","","","","","","","","k",""
"","S1","","html-keyboard-response","211","332047","0.0-1.0-308.0","0","0","46016","","null","","","null","34","","","","","","","","","","","","","","","",""
"","ISI","","html-keyboard-response","212","333049","0.0-1.0-309.0","0","0","46016","","109","","","68","34","d","","","","","","","","","","","","","","",""
"","S2","","html-keyboard-response","213","333103","0.0-1.0-310.0","0","0","46016","","52","","","68","34","","d","1","34","training","adjacent","DC","4","3","Q.jpg","N.jpg","1","0","0","",""
"","feedback","","html-keyboard-response","214","334106","0.0-1.0-312.0-0.0","0","0","46016","","null","","","null","34","","","","","","","","","","","","","","","",""
"","time_out","","html-keyboard-response","215","336110","0.0-1.0-314.0-0.0","0","0","46016","","null","","","null","34","","","","","","","","","","","","","","","",""
"","ITI","","html-keyboard-response","216","337114","0.0-1.0-315.0","0","0","46016","","2","","","68","34","","","","","","","","","","","","","","","d",""
"","S1","","html-keyboard-response","217","337367","0.0-1.0-317.0","0","0","46016","","null","","","null","35","","","","","","","","","","","","","","","",""
"","ISI","","html-keyboard-response","218","338369","0.0-1.0-318.0","0","0","46016","","478","","","68","35","d","","","","","","","","","","","","","","",""
"","S2","","html-keyboard-response","219","338413","0.0-1.0-319.0","0","0","46016","","41","","","75","35","","k","1","35","training","adjacent","ED","5","4","O.jpg","Q.jpg","0","0","1","",""
"","feedback","","html-keyboard-response","220","339417","0.0-1.0-321.0-0.0","0","0","46016","","null","","","null","35","","","","","","","","","","","","","","","",""
"","ITI","","html-keyboard-response","221","340421","0.0-1.0-324.0","0","0","46016","","41","","","75","35","","","","","","","","","","","","","","","k",""
"","S1","","html-keyboard-response","222","340673","0.0-1.0-326.0","0","0","46016","","null","","","null","36","","","","","","","","","","","","","","","",""
"","ISI","","html-keyboard-response","223","341676","0.0-1.0-327.0","0","0","46016","","2","","","68","36","d","","","","","","","","","","","","","","",""
"","S2","","html-keyboard-response","224","341715","0.0-1.0-328.0","0","0","46016","","37","","","68","36","","d","1","36","training","adjacent","ED","5","4","O.jpg","Q.jpg","1","0","0","",""
"","feedback","","html-keyboard-response","225","342717","0.0-1.0-330.0-0.0","0","0","46016","","null","","","null","36","","","","","","","","","","","","","","","",""
"","time_out","","html-keyboard-response","226","344721","0.0-1.0-332.0-0.0","0","0","46016","","null","","","null","36","","","","","","","","","","","","","","","",""
"","ITI","","html-keyboard-response","227","345725","0.0-1.0-333.0","0","0","46016","","85","","","75","36","","","","","","","","","","","","","","","k",""
"","S1","","html-keyboard-response","228","345979","0.0-1.0-335.0","0","0","46016","","null","","","null","37","","","","","","","","","","","","","","","",""
"","ISI","","html-keyboard-response","229","346982","0.0-1.0-336.0","0","0","46016","","40","","","68","37","d","","","","","","","","","","","","","","",""
"","S2","","html-keyboard-response","230","347027","0.0-1.0-337.0","0","0","46016","","42","","","75","37","","k","1","37","training","adjacent","ED","5","4","O.jpg","Q.jpg","0","0","1","",""
"","feedback","","html-keyboard-response","231","348029","0.0-1.0-339.0-0.0","0","0","46016","","null","","","null","37","","","","","","","","","","","","","","","",""
"","ITI","","html-keyboard-response","232","349033","0.0-1.0-342.0","0","0","46016","","45","","","68","37","","","","","","","","","","","","","","","d",""
"","S1","","html-keyboard-response","233","349286","0.0-1.0-344.0","0","0","46016","","null","","","null","38","","","","","","","","","","","","","","","",""
"","ISI","","html-keyboard-response","234","350289","0.0-1.0-345.0","0","0","46016","","112","","","75","38","k","","","","","","","","","","","","","","",""
"","S2","","html-keyboard-response","235","350493","0.0-1.0-346.0","0","0","46016","","201","","","68","38","","d","1","38","training","adjacent","DE","4","5","Q.jpg","O.jpg","1","1","1","",""
"","feedback","","html-keyboard-response","236","351498","0.0-1.0-348.0-0.0","0","0","46016","","null","","","null","38","","","","","","","","","","","","","","","",""
"","ITI","","html-keyboard-response","237","352501","0.0-1.0-351.0","0","0","46016","","151","","","68","38","","","","","","","","","","","","","","","d",""
"","S1","","html-keyboard-response","238","352755","0.0-1.0-353.0","0","0","46016","","null","","","null","39","","","","","","","","","","","","","","","",""
"","ISI","","html-keyboard-response","239","353758","0.0-1.0-354.0","0","0","46016","","77","","","68","39","d","","","","","","","","","","","","","","",""
"","S2","","html-keyboard-response","240","353823","0.0-1.0-355.0","0","0","46016","","62","","","75","39","","k","1","39","training","adjacent","DE","4","5","Q.jpg","O.jpg","0","1","0","",""
"","feedback","","html-keyboard-response","241","354840","0.0-1.0-357.0-0.0","0","0","46016","","null","","","null","39","","","","","","","","","","","","","","","",""
"","time_out","","html-keyboard-response","242","356843","0.0-1.0-359.0-0.0","0","0","46016","","null","","","null","39","","","","","","","","","","","","","","","",""
"","ITI","","html-keyboard-response","243","357846","0.0-1.0-360.0","0","0","46016","","18","","","75","39","","","","","","","","","","","","","","","k",""
"","S1","","html-keyboard-response","244","358100","0.0-1.0-362.0","0","0","46016","","null","","","null","40","","","","","","","","","","","","","","","",""
"","ISI","","html-keyboard-response","245","359104","0.0-1.0-363.0","0","0","46016","","18","","","75","40","k","","","","","","","","","","","","","","",""
"","S2","","html-keyboard-response","246","359169","0.0-1.0-364.0","0","0","46016","","62","","","68","40","","d","1","40","training","adjacent","EF","5","6","O.jpg","R.jpg","1","1","1","",""
"","feedback","","html-keyboard-response","247","360173","0.0-1.0-366.0-0.0","0","0","46016","","null","","","null","40","","","","","","","","","","","","","","","",""
"","ITI","","html-keyboard-response","248","361177","0.0-1.0-369.0","0","0","46016","","85","","","75","40","","","","","","","","","","","","","","","k",""
"","S1","","html-keyboard-response","249","361430","0.0-1.0-371.0","0","0","46016","","null","","","null","41","","","","","","","","","","","","","","","",""
"","ISI","","html-keyboard-response","250","362434","0.0-1.0-372.0","0","0","46016","","97","","","75","41","k","","","","","","","","","","","","","","",""
"","S2","","html-keyboard-response","251","362515","0.0-1.0-373.0","0","0","46016","","80","","","75","41","","k","1","41","training","adjacent","GF","7","6","P.jpg","R.jpg","0","0","1","",""
"","feedback","","html-keyboard-response","252","363519","0.0-1.0-375.0-0.0","0","0","46016","","null","","","null","41","","","","","","","","","","","","","","","",""
"","ITI","","html-keyboard-response","253","364521","0.0-1.0-378.0","0","0","46016","","115","","","68","41","","","","","","","","","","","","","","","d",""
"","S1","","html-keyboard-response","254","364775","0.0-1.0-380.0","0","0","46016","","null","","","null","42","","","","","","","","","","","","","","","",""
"","ISI","","html-keyboard-response","255","365778","0.0-1.0-381.0","0","0","46016","","127","","","75","42","k","","","","","","","","","","","","","","",""
"","S2","","html-keyboard-response","256","365817","0.0-1.0-382.0","0","0","46016","","37","","","75","42","","k","1","42","training","adjacent","FE","6","5","R.jpg","O.jpg","0","0","1","",""
"","feedback","","html-keyboard-response","257","366821","0.0-1.0-384.0-0.0","0","0","46016","","null","","","null","42","","","","","","","","","","","","","","","",""
"","ITI","","html-keyboard-response","258","367824","0.0-1.0-387.0","0","0","46016","","102","","","68","42","","","","","","","","","","","","","","","d",""
"","S1","","html-keyboard-response","259","368077","0.0-1.0-389.0","0","0","46016","","null","","","null","43","","","","","","","","","","","","","","","",""
"","ISI","","html-keyboard-response","260","369082","0.0-1.0-390.0","0","0","46016","","46","","","68","43","d","","","","","","","","","","","","","","",""
"","S2","","html-keyboard-response","261","369125","0.0-1.0-391.0","0","0","46016","","41","","","75","43","","k","1","43","training","adjacent","FG","6","7","R.jpg","P.jpg","0","1","0","",""
"","feedback","","html-keyboard-response","262","370129","0.0-1.0-393.0-0.0","0","0","46016","","null","","","null","43","","","","","","","","","","","","","","","",""
"","time_out","","html-keyboard-response","263","372132","0.0-1.0-395.0-0.0","0","0","46016","","null","","","null","43","","","","","","","","","","","","","","","",""
"","ITI","","html-keyboard-response","264","373135","0.0-1.0-396.0","0","0","46016","","19","","","75","43","","","","","","","","","","","","","","","k",""
"","S1","","html-keyboard-response","265","373388","0.0-1.0-398.0","0","0","46016","","null","","","null","44","","","","","","","","","","","","","","","",""
"","ISI","","html-keyboard-response","266","374391","0.0-1.0-399.0","0","0","46016","","125","","","68","44","d","","","","","","","","","","","","","","",""
"","S2","","html-keyboard-response","267","374404","0.0-1.0-400.0","0","0","46016","","12","","","68","44","","d","1","44","training","adjacent","BA","2","1","L.jpg","M.jpg","1","0","0","",""
"","feedback","","html-keyboard-response","268","375407","0.0-1.0-402.0-0.0","0","0","46016","","null","","","null","44","","","","","","","","","","","","","","","",""
"","time_out","","html-keyboard-response","269","377411","0.0-1.0-404.0-0.0","0","0","46016","","null","","","null","44","","","","","","","","","","","","","","","",""
"","ITI","","html-keyboard-response","270","378414","0.0-1.0-405.0","0","0","46016","","150","","","68","44","","","","","","","","","","","","","","","d",""
"","S1","","html-keyboard-response","271","378668","0.0-1.0-407.0","0","0","46016","","null","","","null","45","","","","","","","","","","","","","","","",""
"","ISI","","html-keyboard-response","272","379671","0.0-1.0-408.0","0","0","46016","","50","","","75","45","k","","","","","","","","","","","","","","",""
"","S2","","html-keyboard-response","273","379680","0.0-1.0-409.0","0","0","46016","","7","","","68","45","","d","1","45","training","adjacent","EF","5","6","O.jpg","R.jpg","1","1","1","",""
"","feedback","","html-keyboard-response","274","380683","0.0-1.0-411.0-0.0","0","0","46016","","null","","","null","45","","","","","","","","","","","","","","","",""
"","ITI","","html-keyboard-response","275","381687","0.0-1.0-414.0","0","0","46016","","104","","","68","45","","","","","","","","","","","","","","","d",""
"","S1","","html-keyboard-response","276","381939","0.0-1.0-416.0","0","0","46016","","null","","","null","46","","","","","","","","","","","","","","","",""
"","ISI","","html-keyboard-response","277","382945","0.0-1.0-417.0","0","0","46016","","62","","","68","46","d","","","","","","","","","","","","","","",""
"","S2","","html-keyboard-response","278","383199","0.0-1.0-418.0","0","0","46016","","null","","","null","46","","NaN","","","","","","","","","","","","","",""
"","response","","html-keyboard-response","279","383535","0.0-1.0-419.0-0.0","0","0","46016","","334","","","68","46","","","1","46","training","adjacent","GF","7","6","P.jpg","R.jpg","1","0","0","",""
"","feedback","","html-keyboard-response","280","384538","0.0-1.0-420.0-0.0","0","0","46016","","null","","","null","46","","","","","","","","","","","","","","","",""
"","time_out","","html-keyboard-response","281","386541","0.0-1.0-422.0-0.0","0","0","46016","","null","","","null","46","","","","","","","","","","","","","","","",""
"","ITI","","html-keyboard-response","282","387545","0.0-1.0-423.0","0","0","46016","","168","","","75","46","","","","","","","","","","","","","","","k",""
"","S1","","html-keyboard-response","283","387798","0.0-1.0-425.0","0","0","46016","","null","","","null","47","","","","","","","","","","","","","","","",""
"","ISI","","html-keyboard-response","284","388802","0.0-1.0-426.0","0","0","46016","","5","","","75","47","k","","","","","","","","","","","","","","",""
"","S2","","html-keyboard-response","285","388972","0.0-1.0-427.0","0","0","46016","","168","","","68","47","","d","1","47","training","adjacent","CB","3","2","N.jpg","L.jpg","1","0","0","",""
"","feedback","","html-keyboard-response","286","389975","0.0-1.0-429.0-0.0","0","0","46016","","null","","","null","47","","","","","","","","","","","","","","","",""
"","time_out","","html-keyboard-response","287","391978","0.0-1.0-431.0-0.0","0","0","46016","","null","","","null","47","","","","","","","","","","","","","","","",""
"","ITI","","html-keyboard-response","288","392981","0.0-1.0-432.0","0","0","46016","","85","","","68","47","","","","","","","","","","","","","","","d",""
"","block_over","","html-keyboard-response","289","401872","0.0-1.0-433.0-0.0","0","0","46016","","8887","","","32","47","","","","","","","","","","","","","","","",""
"","S1","","html-keyboard-response","290","402125","0.0-1.0-434.0","0","0","46016","","null","","","null","48","","","","","","","","","","","","","","","",""
"","ISI","","html-keyboard-response","291","403129","0.0-1.0-435.0","0","0","46016","","null","","","null","48","NaN","","","","","","","","","","","","","","",""
"","S2","","html-keyboard-response","292","403208","0.0-1.0-436.0","0","0","46016","","78","","","75","48","","k","2","48","training","adjacent","GF","7","6","P.jpg","R.jpg","0","0","1","",""
"","feedback","","html-keyboard-response","293","404212","0.0-1.0-438.0-0.0","0","0","46016","","null","","","null","48","","","","","","","","","","","","","","","",""
"","ITI","","html-keyboard-response","294","405215","0.0-1.0-441.0","0","0","46016","","469","","","75","48","","","","","","","","","","","","","","","k",""
"","S1","","html-keyboard-response","295","405468","0.0-1.0-443.0","0","0","46016","","null","","","null","49","","","","","","","","","","","","","","","",""
"","ISI","","html-keyboard-response","296","406471","0.0-1.0-444.0","0","0","46016","","69","","","75","49","k","","","","","","","","","","","","","","",""
"","S2","","html-keyboard-response","297","406544","0.0-1.0-445.0","0","0","46016","","70","","","68","49","","d","2","49","training","adjacent","AB","1","2","M.jpg","L.jpg","1","1","1","",""
"","feedback","","html-keyboard-response","298","407548","0.0-1.0-447.0-0.0","0","0","46016","","null","","","null","49","","","","","","","","","","","","","","","",""
"","ITI","","html-keyboard-response","299","408551","0.0-1.0-450.0","0","0","46016","","171","","","68","49","","","","","","","","","","","","","","","d",""
"","S1","","html-keyboard-response","300","408803","0.0-1.0-452.0","0","0","46016","","null","","","null","50","","","","","","","","","","","","","","","",""
"","ISI","","html-keyboard-response","301","409806","0.0-1.0-453.0","0","0","46016","","94","","","75","50","k","","","","","","","","","","","","","","",""
"","S2","","html-keyboard-response","302","409907","0.0-1.0-454.0","0","0","46016","","97","","","75","50","","k","2","50","training","adjacent","BA","2","1","L.jpg","M.jpg","0","0","1","",""
"","feedback","","html-keyboard-response","303","410910","0.0-1.0-456.0-0.0","0","0","46016","","null","","","null","50","","","","","","","","","","","","","","","",""
"","ITI","","html-keyboard-response","304","411913","0.0-1.0-459.0","0","0","46016","","21","","","75","50","","","","","","","","","","","","","","","k",""
"","S1","","html-keyboard-response","305","412168","0.0-1.0-461.0","0","0","46016","","null","","","null","51","","","","","","","","","","","","","","","",""
"","ISI","","html-keyboard-response","306","413173","0.0-1.0-462.0","0","0","46016","","200","","","75","51","k","","","","","","","","","","","","","","",""
"","S2","","html-keyboard-response","307","413330","0.0-1.0-463.0","0","0","46016","","156","","","75","51","","k","2","51","training","adjacent","CB","3","2","N.jpg","L.jpg","0","0","1","",""
"","feedback","","html-keyboard-response","308","414333","0.0-1.0-465.0-0.0","0","0","46016","","null","","","null","51","","","","","","","","","","","","","","","",""
"","ITI","","html-keyboard-response","309","415336","0.0-1.0-468.0","0","0","46016","","191","","","75","51","","","","","","","","","","","","","","","k",""
"","S1","","html-keyboard-response","310","415589","0.0-1.0-470.0","0","0","46016","","null","","","null","52","","","","","","","","","","","","","","","",""
"","ISI","","html-keyboard-response","311","416592","0.0-1.0-471.0","0","0","46016","","127","","","75","52","k","","","","","","","","","","","","","","",""
"","S2","","html-keyboard-response","312","416655","0.0-1.0-472.0","0","0","46016","","61","","","75","52","","k","2","52","training","adjacent","BA","2","1","L.jpg","M.jpg","0","0","1","",""
"","feedback","","html-keyboard-response","313","417659","0.0-1.0-474.0-0.0","0","0","46016","","null","","","null","52","","","","","","","","","","","","","","","",""
"","ITI","","html-keyboard-response","314","418661","0.0-1.0-477.0","0","0","46016","","23","","","68","52","","","","","","","","","","","","","","","d",""
"","S1","","html-keyboard-response","315","418914","0.0-1.0-479.0","0","0","46016","","null","","","null","53","","","","","","","","","","","","","","","",""
"","ISI","","html-keyboard-response","316","419917","0.0-1.0-480.0","0","0","46016","","22","","","68","53","d","","","","","","","","","","","","","","",""
"","S2","","html-keyboard-response","317","419988","0.0-1.0-481.0","0","0","46016","","68","","","68","53","","d","2","53","training","adjacent","FG","6","7","R.jpg","P.jpg","1","1","1","",""
"","feedback","","html-keyboard-response","318","420992","0.0-1.0-483.0-0.0","0","0","46016","","null","","","null","53","","","","","","","","","","","","","","","",""
"","ITI","","html-keyboard-response","319","421996","0.0-1.0-486.0","0","0","46016","","30","","","68","53","","","","","","","","","","","","","","","d",""
"","S1","","html-keyboard-response","320","422248","0.0-1.0-488.0","0","0","46016","","null","","","null","54","","","","","","","","","","","","","","","",""
"","ISI","","html-keyboard-response","321","423252","0.0-1.0-489.0","0","0","46016","","74","","","68","54","d","","","","","","","","","","","","","","",""
"","S2","","html-keyboard-response","322","423467","0.0-1.0-490.0","0","0","46016","","214","","","68","54","","d","2","54","training","adjacent","CB","3","2","N.jpg","L.jpg","1","0","0","",""
"","feedback","","html-keyboard-response","323","424469","0.0-1.0-492.0-0.0","0","0","46016","","null","","","null","54","","","","","","","","","","","","","","","",""
"","time_out","","html-keyboard-response","324","426473","0.0-1.0-494.0-0.0","0","0","46016","","null","","","null","54","","","","","","","","","","","","","","","",""
"","ITI","","html-keyboard-response","325","427475","0.0-1.0-495.0","0","0","46016","","239","","","75","54","","","","","","","","","","","","","","","k",""
"","S1","","html-keyboard-response","326","427729","0.0-1.0-497.0","0","0","46016","","null","","","null","55","","","","","","","","","","","","","","","",""
"","ISI","","html-keyboard-response","327","428731","0.0-1.0-498.0","0","0","46016","","95","","","75","55","k","","","","","","","","","","","","","","",""
"","S2","","html-keyboard-response","328","428758","0.0-1.0-499.0","0","0","46016","","24","","","68","55","","d","2","55","training","adjacent","AB","1","2","M.jpg","L.jpg","1","1","1","",""
"","feedback","","html-keyboard-response","329","429762","0.0-1.0-501.0-0.0","0","0","46016","","null","","","null","55","","","","","","","","","","","","","","","",""
"","ITI","","html-keyboard-response","330","430765","0.0-1.0-504.0","0","0","46016","","9","","","68","55","","","","","","","","","","","","","","","d",""
"","S1","","html-keyboard-response","331","431032","0.0-1.0-506.0","0","0","46016","","null","","","null","56","","","","","","","","","","","","","","","",""
"","ISI","","html-keyboard-response","332","432035","0.0-1.0-507.0","0","0","46016","","84","","","75","56","k","","","","","","","","","","","","","","",""
"","S2","","html-keyboard-response","333","432090","0.0-1.0-508.0","0","0","46016","","53","","","68","56","","d","2","56","training","adjacent","FE","6","5","R.jpg","O.jpg","1","0","0","",""
"","feedback","","html-keyboard-response","334","433121","0.0-1.0-510.0-0.0","0","0","46016","","null","","","null","56","","","","","","","","","","","","","","","",""
"","time_out","","html-keyboard-response","335","435124","0.0-1.0-512.0-0.0","0","0","46016","","null","","","null","56","","","","","","","","","","","","","","","",""
"","ITI","","html-keyboard-response","336","436127","0.0-1.0-513.0","0","0","46016","","14","","","75","56","","","","","","","","","","","","","","","k",""
"","S1","","html-keyboard-response","337","436380","0.0-1.0-515.0","0","0","46016","","null","","","null","57","","","","","","","","","","","","","","","",""
"","ISI","","html-keyboard-response","338","437384","0.0-1.0-516.0","0","0","46016","","141","","","75","57","k","","","","","","","","","","","","","","",""
"","S2","","html-keyboard-response","339","437453","0.0-1.0-517.0","0","0","46016","","66","","","75","57","","k","2","57","training","adjacent","DC","4","3","Q.jpg","N.jpg","0","0","1","",""
"","feedback","","html-keyboard-response","340","438457","0.0-1.0-519.0-0.0","0","0","46016","","null","","","null","57","","","","","","","","","","","","","","","",""
"","ITI","","html-keyboard-response","341","439461","0.0-1.0-522.0","0","0","46016","","9","","","68","57","","","","","","","","","","","","","","","d",""
"","S1","","html-keyboard-response","342","439726","0.0-1.0-524.0","0","0","46016","","null","","","null","58","","","","","","","","","","","","","","","",""
"","ISI","","html-keyboard-response","343","440729","0.0-1.0-525.0","0","0","46016","","53","","","68","58","d","","","","","","","","","","","","","","",""
"","S2","","html-keyboard-response","344","440773","0.0-1.0-526.0","0","0","46016","","43","","","75","58","","k","2","58","training","adjacent","FE","6","5","R.jpg","O.jpg","0","0","1","",""
"","feedback","","html-keyboard-response","345","441776","0.0-1.0-528.0-0.0","0","0","46016","","null","","","null","58","","","","","","","","","","","","","","","",""
"","ITI","","html-keyboard-response","346","442780","0.0-1.0-531.0","0","0","46016","","58","","","68","58","","","","","","","","","","","","","","","d",""
"","S1","","html-keyboard-response","347","443032","0.0-1.0-533.0","0","0","46016","","null","","","null","59","","","","","","","","","","","","","","","",""
"","ISI","","html-keyboard-response","348","444034","0.0-1.0-534.0","0","0","46016","","44","","","68","59","d","","","","","","","","","","","","","","",""
"","S2","","html-keyboard-response","349","444076","0.0-1.0-535.0","0","0","46016","","40","","","75","59","","k","2","59","training","adjacent","BC","2","3","L.jpg","N.jpg","0","1","0","",""
"","feedback","","html-keyboard-response","350","445080","0.0-1.0-537.0-0.0","0","0","46016","","null","","","null","59","","","","","","","","","","","","","","","",""
"","time_out","","html-keyboard-response","351","447084","0.0-1.0-539.0-0.0","0","0","46016","","null","","","null","59","","","","","","","","","","","","","","","",""
"","ITI","","html-keyboard-response","352","448087","0.0-1.0-540.0","0","0","46016","","61","","","68","59","","","","","","","","","","","","","","","d",""
"","S1","","html-keyboard-response","353","448340","0.0-1.0-542.0","0","0","46016","","null","","","null","60","","","","","","","","","","","","","","","",""
"","ISI","","html-keyboard-response","354","449342","0.0-1.0-543.0","0","0","46016","","315","","","68","60","d","","","","","","","","","","","","","","",""
"","S2","","html-keyboard-response","355","449447","0.0-1.0-544.0","0","0","46016","","103","","","68","60","","d","2","60","training","adjacent","FE","6","5","R.jpg","O.jpg","1","0","0","",""
"","feedback","","html-keyboard-response","356","450451","0.0-1.0-546.0-0.0","0","0","46016","","null","","","null","60","","","","","","","","","","","","","","","",""
"","time_out","","html-keyboard-response","357","452455","0.0-1.0-548.0-0.0","0","0","46016","","null","","","null","60","","","","","","","","","","","","","","","",""
"","ITI","","html-keyboard-response","358","453458","0.0-1.0-549.0","0","0","46016","","124","","","75","60","","","","","","","","","","","","","","","k",""
"","S1","","html-keyboard-response","359","453710","0.0-1.0-551.0","0","0","46016","","null","","","null","61","","","","","","","","","","","","","","","",""
"","ISI","","html-keyboard-response","360","454713","0.0-1.0-552.0","0","0","46016","","30","","","68","61","d","","","","","","","","","","","","","","",""
"","S2","","html-keyboard-response","361","454758","0.0-1.0-553.0","0","0","46016","","42","","","68","61","","d","2","61","training","adjacent","EF","5","6","O.jpg","R.jpg","1","1","1","",""
"","feedback","","html-keyboard-response","362","455762","0.0-1.0-555.0-0.0","0","0","46016","","null","","","null","61","","","","","","","","","","","","","","","",""
"","ITI","","html-keyboard-response","363","456764","0.0-1.0-558.0","0","0","46016","","92","","","68","61","","","","","","","","","","","","","","","d",""
"","S1","","html-keyboard-response","364","457020","0.0-1.0-560.0","0","0","46016","","null","","","null","62","","","","","","","","","","","","","","","",""
"","ISI","","html-keyboard-response","365","458022","0.0-1.0-561.0","0","0","46016","","37","","","75","62","k","","","","","","","","","","","","","","",""
"","S2","","html-keyboard-response","366","458179","0.0-1.0-562.0","0","0","46016","","155","","","68","62","","d","2","62","training","adjacent","DE","4","5","Q.jpg","O.jpg","1","1","1","",""
"","feedback","","html-keyboard-response","367","459184","0.0-1.0-564.0-0.0","0","0","46016","","null","","","null","62","","","","","","","","","","","","","","","",""
"","ITI","","html-keyboard-response","368","460187","0.0-1.0-567.0","0","0","46016","","64","","","68","62","","","","","","","","","","","","","","","d",""
"","S1","","html-keyboard-response","369","460441","0.0-1.0-569.0","0","0","46016","","null","","","null","63","","","","","","","","","","","","","","","",""
"","ISI","","html-keyboard-response","370","461444","0.0-1.0-570.0","0","0","46016","","124","","","75","63","k","","","","","","","","","","","","","","",""
"","S2","","html-keyboard-response","371","461534","0.0-1.0-571.0","0","0","46016","","88","","","75","63","","k","2","63","training","adjacent","CD","3","4","N.jpg","Q.jpg","0","1","0","",""
"","feedback","","html-keyboard-response","372","462538","0.0-1.0-573.0-0.0","0","0","46016","","null","","","null","63","","","","","","","","","","","","","","","",""
"","time_out","","html-keyboard-response","373","464541","0.0-1.0-575.0-0.0","0","0","46016","","null","","","null","63","","","","","","","","","","","","","","","",""
"","ITI","","html-keyboard-response","374","465554","0.0-1.0-576.0","0","0","46016","","22","","","68","63","","","","","","","","","","","","","","","d",""
"","S1","","html-keyboard-response","375","465807","0.0-1.0-578.0","0","0","46016","","null","","","null","64","","","","","","","","","","","","","","","",""
"","ISI","","html-keyboard-response","376","466810","0.0-1.0-579.0","0","0","46016","","86","","","68","64","d","","","","","","","","","","","","","","",""
"","S2","","html-keyboard-response","377","466844","0.0-1.0-580.0","0","0","46016","","31","","","75","64","","k","2","64","training","adjacent","DC","4","3","Q.jpg","N.jpg","0","0","1","",""
"","feedback","","html-keyboard-response","378","467848","0.0-1.0-582.0-0.0","0","0","46016","","null","","","null","64","","","","","","","","","","","","","","","",""
"","ITI","","html-keyboard-response","379","468852","0.0-1.0-585.0","0","0","46016","","122","","","68","64","","","","","","","","","","","","","","","d",""
"","S1","","html-keyboard-response","380","469104","0.0-1.0-587.0","0","0","46016","","null","","","null","65","","","","","","","","","","","","","","","",""
"","ISI","","html-keyboard-response","381","470107","0.0-1.0-588.0","0","0","46016","","9","","","75","65","k","","","","","","","","","","","","","","",""
"","S2","","html-keyboard-response","382","470198","0.0-1.0-589.0","0","0","46016","","88","","","68","65","","d","2","65","training","adjacent","CD","3","4","N.jpg","Q.jpg","1","1","1","",""
"","feedback","","html-keyboard-response","383","471201","0.0-1.0-591.0-0.0","0","0","46016","","null","","","null","65","","","","","","","","","","","","","","","",""
"","ITI","","html-keyboard-response","384","472207","0.0-1.0-594.0","0","0","46016","","127","","","68","65","","","","","","","","","","","","","","","d",""
"","S1","","html-keyboard-response","385","472463","0.0-1.0-596.0","0","0","46016","","null","","","null","66","","","","","","","","","","","","","","","",""
"","ISI","","html-keyboard-response","386","473465","0.0-1.0-597.0","0","0","46016","","99","","","68","66","d","","","","","","","","","","","","","","",""
"","S2","","html-keyboard-response","387","473589","0.0-1.0-598.0","0","0","46016","","121","","","75","66","","k","2","66","training","adjacent","CB","3","2","N.jpg","L.jpg","0","0","1","",""
"","feedback","","html-keyboard-response","388","474594","0.0-1.0-600.0-0.0","0","0","46016","","null","","","null","66","","","","","","","","","","","","","","","",""
"","ITI","","html-keyboard-response","389","475597","0.0-1.0-603.0","0","0","46016","","13","","","68","66","","","","","","","","","","","","","","","d",""
"","S1","","html-keyboard-response","390","475850","0.0-1.0-605.0","0","0","46016","","null","","","null","67","","","","","","","","","","","","","","","",""
"","ISI","","html-keyboard-response","391","476852","0.0-1.0-606.0","0","0","46016","","64","","","68","67","d","","","","","","","","","","","","","","",""
"","S2","","html-keyboard-response","392","476868","0.0-1.0-607.0","0","0","46016","","13","","","75","67","","k","2","67","training","adjacent","EF","5","6","O.jpg","R.jpg","0","1","0","",""
"","feedback","","html-keyboard-response","393","477872","0.0-1.0-609.0-0.0","0","0","46016","","null","","","null","67","","","","","","","","","","","","","","","",""
"","time_out","","html-keyboard-response","394","479876","0.0-1.0-611.0-0.0","0","0","46016","","null","","","null","67","","","","","","","","","","","","","","","",""
"","ITI","","html-keyboard-response","395","480879","0.0-1.0-612.0","0","0","46016","","131","","","75","67","","","","","","","","","","","","","","","k",""
"","S1","","html-keyboard-response","396","481131","0.0-1.0-614.0","0","0","46016","","null","","","null","68","","","","","","","","","","","","","","","",""
"","ISI","","html-keyboard-response","397","482133","0.0-1.0-615.0","0","0","46016","","47","","","75","68","k","","","","","","","","","","","","","","",""
"","S2","","html-keyboard-response","398","482206","0.0-1.0-616.0","0","0","46016","","70","","","68","68","","d","2","68","training","adjacent","BA","2","1","L.jpg","M.jpg","1","0","0","",""
"","feedback","","html-keyboard-response","399","483208","0.0-1.0-618.0-0.0","0","0","46016","","null","","","null","68","","","","","","","","","","","","","","","",""
"","time_out","","html-keyboard-response","400","485211","0.0-1.0-620.0-0.0","0","0","46016","","null","","","null","68","","","","","","","","","","","","","","","",""
"","ITI","","html-keyboard-response","401","486214","0.0-1.0-621.0","0","0","46016","","67","","","68","68","","","","","","","","","","","","","","","d",""
"","S1","","html-keyboard-response","402","486468","0.0-1.0-623.0","0","0","46016","","null","","","null","69","","","","","","","","","","","","","","","",""
"","ISI","","html-keyboard-response","403","487472","0.0-1.0-624.0","0","0","46016","","32","","","68","69","d","","","","","","","","","","","","","","",""
"","S2","","html-keyboard-response","404","487704","0.0-1.0-625.0","0","0","46016","","229","","","68","69","","d","2","69","training","adjacent","BC","2","3","L.jpg","N.jpg","1","1","1","",""
"","feedback","","html-keyboard-response","405","488707","0.0-1.0-627.0-0.0","0","0","46016","","null","","","null","69","","","","","","","","","","","","","","","",""
"","ITI","","html-keyboard-response","406","489709","0.0-1.0-630.0","0","0","46016","","109","","","68","69","","","","","","","","","","","","","","","d",""
"","S1","","html-keyboard-response","407","489962","0.0-1.0-632.0","0","0","46016","","null","","","null","70","","","","","","","","","","","","","","","",""
"","ISI","","html-keyboard-response","408","490964","0.0-1.0-633.0","0","0","46016","","200","","","75","70","k","","","","","","","","","","","","","","",""
"","S2","","html-keyboard-response","409","491043","0.0-1.0-634.0","0","0","46016","","76","","","75","70","","k","2","70","training","adjacent","CD","3","4","N.jpg","Q.jpg","0","1","0","",""
"","feedback","","html-keyboard-response","410","492045","0.0-1.0-636.0-0.0","0","0","46016","","null","","","null","70","","","","","","","","","","","","","","","",""
"","time_out","","html-keyboard-response","411","494047","0.0-1.0-638.0-0.0","0","0","46016","","null","","","null","70","","","","","","","","","","","","","","","",""
"","ITI","","html-keyboard-response","412","495051","0.0-1.0-639.0","0","0","46016","","10","","","68","70","","","","","","","","","","","","","","","d",""
"","S1","","html-keyboard-response","413","495304","0.0-1.0-641.0","0","0","46016","","null","","","null","71","","","","","","","","","","","","","","","",""
"","ISI","","html-keyboard-response","414","496307","0.0-1.0-642.0","0","0","46016","","null","","","null","71","NaN","","","","","","","","","","","","","","",""
"","S2","","html-keyboard-response","415","496561","0.0-1.0-643.0","0","0","46016","","null","","","null","71","","NaN","","","","","","","","","","","","","",""
"","response","","html-keyboard-response","416","497790","0.0-1.0-644.0-0.0","0","0","46016","","1227","","","68","71","","","2","71","training","adjacent","FG","6","7","R.jpg","P.jpg","1","1","1","",""
"","feedback","","html-keyboard-response","417","498794","0.0-1.0-645.0-0.0","0","0","46016","","null","","","null","71","","","","","","","","","","","","","","","",""
"","ITI","","html-keyboard-response","418","499796","0.0-1.0-648.0","0","0","46016","","118","","","75","71","","","","","","","","","","","","","","","k",""
"","S1","","html-keyboard-response","419","500050","0.0-1.0-650.0","0","0","46016","","null","","","null","72","","","","","","","","","","","","","","","",""
"","ISI","","html-keyboard-response","420","501053","0.0-1.0-651.0","0","0","46016","","26","","","68","72","d","","","","","","","","","","","","","","",""
"","S2","","html-keyboard-response","421","501137","0.0-1.0-652.0","0","0","46016","","81","","","68","72","","d","2","72","training","adjacent","GF","7","6","P.jpg","R.jpg","1","0","0","",""
"","feedback","","html-keyboard-response","422","502140","0.0-1.0-654.0-0.0","0","0","46016","","null","","","null","72","","","","","","","","","","","","","","","",""
"","time_out","","html-keyboard-response","423","504143","0.0-1.0-656.0-0.0","0","0","46016","","null","","","null","72","","","","","","","","","","","","","","","",""
"","ITI","","html-keyboard-response","424","505147","0.0-1.0-657.0","0","0","46016","","44","","","68","72","","","","","","","","","","","","","","","d",""
"","S1","","html-keyboard-response","425","505401","0.0-1.0-659.0","0","0","46016","","null","","","null","73","","","","","","","","","","","","","","","",""
"","ISI","","html-keyboard-response","426","506403","0.0-1.0-660.0","0","0","46016","","1","","","75","73","k","","","","","","","","","","","","","","",""
"","S2","","html-keyboard-response","427","506490","0.0-1.0-661.0","0","0","46016","","84","","","68","73","","d","2","73","training","adjacent","DC","4","3","Q.jpg","N.jpg","1","0","0","",""
"","feedback","","html-keyboard-response","428","507497","0.0-1.0-663.0-0.0","0","0","46016","","null","","","null","73","","","","","","","","","","","","","","","",""
"","time_out","","html-keyboard-response","429","509500","0.0-1.0-665.0-0.0","0","0","46016","","null","","","null","73","","","","","","","","","","","","","","","",""
"","ITI","","html-keyboard-response","430","510503","0.0-1.0-666.0","0","0","46016","","21","","","75","73","","","","","","","","","","","","","","","k",""
"","S1","","html-keyboard-response","431","510756","0.0-1.0-668.0","0","0","46016","","null","","","null","74","","","","","","","","","","","","","","","",""
"","ISI","","html-keyboard-response","432","511758","0.0-1.0-669.0","0","0","46016","","51","","","75","74","k","","","","","","","","","","","","","","",""
"","S2","","html-keyboard-response","433","511908","0.0-1.0-670.0","0","0","46016","","148","","","68","74","","d","2","74","training","adjacent","BC","2","3","L.jpg","N.jpg","1","1","1","",""
"","feedback","","html-keyboard-response","434","512911","0.0-1.0-672.0-0.0","0","0","46016","","null","","","null","74","","","","","","","","","","","","","","","",""
"","ITI","","html-keyboard-response","435","513914","0.0-1.0-675.0","0","0","46016","","109","","","68","74","","","","","","","","","","","","","","","d",""
"","S1","","html-keyboard-response","436","514167","0.0-1.0-677.0","0","0","46016","","null","","","null","75","","","","","","","","","","","","","","","",""
"","ISI","","html-keyboard-response","437","515169","0.0-1.0-678.0","0","0","46016","","122","","","75","75","k","","","","","","","","","","","","","","",""
"","S2","","html-keyboard-response","438","515266","0.0-1.0-679.0","0","0","46016","","95","","","68","75","","d","2","75","training","adjacent","ED","5","4","O.jpg","Q.jpg","1","0","0","",""
"","feedback","","html-keyboard-response","439","516270","0.0-1.0-681.0-0.0","0","0","46016","","null","","","null","75","","","","","","","","","","","","","","","",""
"","time_out","","html-keyboard-response","440","518275","0.0-1.0-683.0-0.0","0","0","46016","","null","","","null","75","","","","","","","","","","","","","","","",""
"","ITI","","html-keyboard-response","441","519277","0.0-1.0-684.0","0","0","46016","","11","","","68","75","","","","","","","","","","","","","","","d",""
"","S1","","html-keyboard-response","442","519531","0.0-1.0-686.0","0","0","46016","","null","","","null","76","","","","","","","","","","","","","","","",""
"","ISI","","html-keyboard-response","443","520535","0.0-1.0-687.0","0","0","46016","","59","","","75","76","k","","","","","","","","","","","","","","",""
"","S2","","html-keyboard-response","444","520636","0.0-1.0-688.0","0","0","46016","","98","","","75","76","","k","2","76","training","adjacent","FE","6","5","R.jpg","O.jpg","0","0","1","",""
"","feedback","","html-keyboard-response","445","521639","0.0-1.0-690.0-0.0","0","0","46016","","null","","","null","76","","","","","","","","","","","","","","","",""
"","ITI","","html-keyboard-response","446","522641","0.0-1.0-693.0","0","0","46016","","85","","","68","76","","","","","","","","","","","","","","","d",""
"","S1","","html-keyboard-response","447","522895","0.0-1.0-695.0","0","0","46016","","null","","","null","77","","","","","","","","","","","","","","","",""
"","ISI","","html-keyboard-response","448","523898","0.0-1.0-696.0","0","0","46016","","59","","","68","77","d","","","","","","","","","","","","","","",""
"","S2","","html-keyboard-response","449","523961","0.0-1.0-697.0","0","0","46016","","61","","","75","77","","k","2","77","training","adjacent","AB","1","2","M.jpg","L.jpg","0","1","0","",""
"","feedback","","html-keyboard-response","450","524964","0.0-1.0-699.0-0.0","0","0","46016","","null","","","null","77","","","","","","","","","","","","","","","",""
"","time_out","","html-keyboard-response","451","526967","0.0-1.0-701.0-0.0","0","0","46016","","null","","","null","77","","","","","","","","","","","","","","","",""
"","ITI","","html-keyboard-response","452","527970","0.0-1.0-702.0","0","0","46016","","85","","","68","77","","","","","","","","","","","","","","","d",""
"","S1","","html-keyboard-response","453","528222","0.0-1.0-704.0","0","0","46016","","null","","","null","78","","","","","","","","","","","","","","","",""
"","ISI","","html-keyboard-response","454","529226","0.0-1.0-705.0","0","0","46016","","12","","","68","78","d","","","","","","","","","","","","","","",""
"","S2","","html-keyboard-response","455","529338","0.0-1.0-706.0","0","0","46016","","110","","","75","78","","k","2","78","training","adjacent","FG","6","7","R.jpg","P.jpg","0","1","0","",""
"","feedback","","html-keyboard-response","456","530342","0.0-1.0-708.0-0.0","0","0","46016","","null","","","null","78","","","","","","","","","","","","","","","",""
"","time_out","","html-keyboard-response","457","532345","0.0-1.0-710.0-0.0","0","0","46016","","null","","","null","78","","","","","","","","","","","","","","","",""
"","ITI","","html-keyboard-response","458","533349","0.0-1.0-711.0","0","0","46016","","136","","","75","78","","","","","","","","","","","","","","","k",""
"","S1","","html-keyboard-response","459","533605","0.0-1.0-713.0","0","0","46016","","null","","","null","79","","","","","","","","","","","","","","","",""
"","ISI","","html-keyboard-response","460","534607","0.0-1.0-714.0","0","0","46016","","112","","","75","79","k","","","","","","","","","","","","","","",""
"","S2","","html-keyboard-response","461","534628","0.0-1.0-715.0","0","0","46016","","19","","","75","79","","k","2","79","training","adjacent","DE","4","5","Q.jpg","O.jpg","0","1","0","",""
"","feedback","","html-keyboard-response","462","535632","0.0-1.0-717.0-0.0","0","0","46016","","null","","","null","79","","","","","","","","","","","","","","","",""
"","time_out","","html-keyboard-response","463","537636","0.0-1.0-719.0-0.0","0","0","46016","","null","","","null","79","","","","","","","","","","","","","","","",""
"","ITI","","html-keyboard-response","464","538638","0.0-1.0-720.0","0","0","46016","","47","","","68","79","","","","","","","","","","","","","","","d",""
"","S1","","html-keyboard-response","465","538891","0.0-1.0-722.0","0","0","46016","","null","","","null","80","","","","","","","","","","","","","","","",""
"","ISI","","html-keyboard-response","466","539894","0.0-1.0-723.0","0","0","46016","","192","","","68","80","d","","","","","","","","","","","","","","",""
"","S2","","html-keyboard-response","467","539971","0.0-1.0-724.0","0","0","46016","","74","","","68","80","","d","2","80","training","adjacent","BA","2","1","L.jpg","M.jpg","1","0","0","",""
"","feedback","","html-keyboard-response","468","540976","0.0-1.0-726.0-0.0","0","0","46016","","null","","","null","80","","","","","","","","","","","","","","","",""
"","time_out","","html-keyboard-response","469","542980","0.0-1.0-728.0-0.0","0","0","46016","","null","","","null","80","","","","","","","","","","","","","","","",""
"","ITI","","html-keyboard-response","470","543982","0.0-1.0-729.0","0","0","46016","","43","","","68","80","","","","","","","","","","","","","","","d",""
"","S1","","html-keyboard-response","471","544237","0.0-1.0-731.0","0","0","46016","","null","","","null","81","","","","","","","","","","","","","","","",""
"","ISI","","html-keyboard-response","472","545245","0.0-1.0-732.0","0","0","46016","","182","","","68","81","d","","","","","","","","","","","","","","",""
"","S2","","html-keyboard-response","473","545499","0.0-1.0-733.0","0","0","46016","","null","","","null","81","","NaN","","","","","","","","","","","","","",""
"","response","","html-keyboard-response","474","545560","0.0-1.0-734.0-0.0","0","0","46016","","58","","","68","81","","","2","81","training","adjacent","ED","5","4","O.jpg","Q.jpg","1","0","0","",""
"","feedback","","html-keyboard-response","475","546565","0.0-1.0-735.0-0.0","0","0","46016","","null","","","null","81","","","","","","","","","","","","","","","",""
"","time_out","","html-keyboard-response","476","548570","0.0-1.0-737.0-0.0","0","0","46016","","null","","","null","81","","","","","","","","","","","","","","","",""
"","ITI","","html-keyboard-response","477","549573","0.0-1.0-738.0","0","0","46016","","56","","","75","81","","","","","","","","","","","","","","","k",""
"","S1","","html-keyboard-response","478","549827","0.0-1.0-740.0","0","0","46016","","null","","","null","82","","","","","","","","","","","","","","","",""
"","ISI","","html-keyboard-response","479","550830","0.0-1.0-741.0","0","0","46016","","105","","","75","82","k","","","","","","","","","","","","","","",""
"","S2","","html-keyboard-response","480","551010","0.0-1.0-742.0","0","0","46016","","177","","","68","82","","d","2","82","training","adjacent","GF","7","6","P.jpg","R.jpg","1","0","0","",""
"","feedback","","html-keyboard-response","481","552013","0.0-1.0-744.0-0.0","0","0","46016","","null","","","null","82","","","","","","","","","","","","","","","",""
"","time_out","","html-keyboard-response","482","554017","0.0-1.0-746.0-0.0","0","0","46016","","null","","","null","82","","","","","","","","","","","","","","","",""
"","ITI","","html-keyboard-response","483","555021","0.0-1.0-747.0","0","0","46016","","null","","","null","82","","","","","","","","","","","","","","","NaN",""
"","S1","","html-keyboard-response","484","555273","0.0-1.0-749.0","0","0","46016","","null","","","null","83","","","","","","","","","","","","","","","",""
"","ISI","","html-keyboard-response","485","556279","0.0-1.0-750.0","0","0","46016","","510","","","68","83","d","","","","","","","","","","","","","","",""
"","S2","","html-keyboard-response","486","556313","0.0-1.0-751.0","0","0","46016","","32","","","75","83","","k","2","83","training","adjacent","DE","4","5","Q.jpg","O.jpg","0","1","0","",""
"","feedback","","html-keyboard-response","487","557316","0.0-1.0-753.0-0.0","0","0","46016","","null","","","null","83","","","","","","","","","","","","","","","",""
"","time_out","","html-keyboard-response","488","559319","0.0-1.0-755.0-0.0","0","0","46016","","null","","","null","83","","","","","","","","","","","","","","","",""
"","ITI","","html-keyboard-response","489","560322","0.0-1.0-756.0","0","0","46016","","197","","","68","83","","","","","","","","","","","","","","","d",""
"","S1","","html-keyboard-response","490","560575","0.0-1.0-758.0","0","0","46016","","null","","","null","84","","","","","","","","","","","","","","","",""
"","ISI","","html-keyboard-response","491","561577","0.0-1.0-759.0","0","0","46016","","258","","","68","84","d","","","","","","","","","","","","","","",""
"","S2","","html-keyboard-response","492","561642","0.0-1.0-760.0","0","0","46016","","63","","","68","84","","d","2","84","training","adjacent","ED","5","4","O.jpg","Q.jpg","1","0","0","",""
"","feedback","","html-keyboard-response","493","562646","0.0-1.0-762.0-0.0","0","0","46016","","null","","","null","84","","","","","","","","","","","","","","","",""
"","time_out","","html-keyboard-response","494","564650","0.0-1.0-764.0-0.0","0","0","46016","","null","","","null","84","","","","","","","","","","","","","","","",""
"","ITI","","html-keyboard-response","495","565659","0.0-1.0-765.0","0","0","46016","","36","","","68","84","","","","","","","","","","","","","","","d",""
"","S1","","html-keyboard-response","496","565913","0.0-1.0-767.0","0","0","46016","","null","","","null","85","","","","","","","","","","","","","","","",""
"","ISI","","html-keyboard-response","497","566916","0.0-1.0-768.0","0","0","46016","","61","","","68","85","d","","","","","","","","","","","","","","",""
"","S2","","html-keyboard-response","498","566992","0.0-1.0-769.0","0","0","46016","","73","","","68","85","","d","2","85","training","adjacent","FG","6","7","R.jpg","P.jpg","1","1","1","",""
"","feedback","","html-keyboard-response","499","567996","0.0-1.0-771.0-0.0","0","0","46016","","null","","","null","85","","","","","","","","","","","","","","","",""
"","ITI","","html-keyboard-response","500","569000","0.0-1.0-774.0","0","0","46016","","58","","","68","85","","","","","","","","","","","","","","","d",""
"","S1","","html-keyboard-response","501","569252","0.0-1.0-776.0","0","0","46016","","null","","","null","86","","","","","","","","","","","","","","","",""
"","ISI","","html-keyboard-response","502","570255","0.0-1.0-777.0","0","0","46016","","18","","","75","86","k","","","","","","","","","","","","","","",""
"","S2","","html-keyboard-response","503","570430","0.0-1.0-778.0","0","0","46016","","172","","","75","86","","k","2","86","training","adjacent","DE","4","5","Q.jpg","O.jpg","0","1","0","",""
"","feedback","","html-keyboard-response","504","571435","0.0-1.0-780.0-0.0","0","0","46016","","null","","","null","86","","","","","","","","","","","","","","","",""
"","time_out","","html-keyboard-response","505","573439","0.0-1.0-782.0-0.0","0","0","46016","","null","","","null","86","","","","","","","","","","","","","","","",""
"","ITI","","html-keyboard-response","506","574442","0.0-1.0-783.0","0","0","46016","","26","","","75","86","","","","","","","","","","","","","","","k",""
"","S1","","html-keyboard-response","507","574696","0.0-1.0-785.0","0","0","46016","","null","","","null","87","","","","","","","","","","","","","","","",""
"","ISI","","html-keyboard-response","508","575698","0.0-1.0-786.0","0","0","46016","","57","","","68","87","d","","","","","","","","","","","","","","",""
"","S2","","html-keyboard-response","509","575714","0.0-1.0-787.0","0","0","46016","","15","","","68","87","","d","2","87","training","adjacent","CB","3","2","N.jpg","L.jpg","1","0","0","",""
"","feedback","","html-keyboard-response","510","576717","0.0-1.0-789.0-0.0","0","0","46016","","null","","","null","87","","","","","","","","","","","","","","","",""
"","time_out","","html-keyboard-response","511","578721","0.0-1.0-791.0-0.0","0","0","46016","","null","","","null","87","","","","","","","","","","","","","","","",""
"","ITI","","html-keyboard-response","512","579723","0.0-1.0-792.0","0","0","46016","","101","","","68","87","","","","","","","","","","","","","","","d",""
"","S1","","html-keyboard-response","513","579977","0.0-1.0-794.0","0","0","46016","","null","","","null","88","","","","","","","","","","","","","","","",""
"","ISI","","html-keyboard-response","514","580980","0.0-1.0-795.0","0","0","46016","","93","","","68","88","d","","","","","","","","","","","","","","",""
"","S2","","html-keyboard-response","515","581101","0.0-1.0-796.0","0","0","46016","","118","","","68","88","","d","2","88","training","adjacent","EF","5","6","O.jpg","R.jpg","1","1","1","",""
"","feedback","","html-keyboard-response","516","582104","0.0-1.0-798.0-0.0","0","0","46016","","null","","","null","88","","","","","","","","","","","","","","","",""
"","ITI","","html-keyboard-response","517","583106","0.0-1.0-801.0","0","0","46016","","243","","","68","88","","","","","","","","","","","","","","","d",""
"","S1","","html-keyboard-response","518","583359","0.0-1.0-803.0","0","0","46016","","null","","","null","89","","","","","","","","","","","","","","","",""
"","ISI","","html-keyboard-response","519","584361","0.0-1.0-804.0","0","0","46016","","39","","","75","89","k","","","","","","","","","","","","","","",""
"","S2","","html-keyboard-response","520","584375","0.0-1.0-805.0","0","0","46016","","12","","","75","89","","k","2","89","training","adjacent","GF","7","6","P.jpg","R.jpg","0","0","1","",""
"","feedback","","html-keyboard-response","521","585378","0.0-1.0-807.0-0.0","0","0","46016","","null","","","null","89","","","","","","","","","","","","","","","",""
"","ITI","","html-keyboard-response","522","586382","0.0-1.0-810.0","0","0","46016","","16","","","75","89","","","","","","","","","","","","","","","k",""
"","S1","","html-keyboard-response","523","586636","0.0-1.0-812.0","0","0","46016","","null","","","null","90","","","","","","","","","","","","","","","",""
"","ISI","","html-keyboard-response","524","587651","0.0-1.0-813.0","0","0","46016","","104","","","75","90","k","","","","","","","","","","","","","","",""
"","S2","","html-keyboard-response","525","587818","0.0-1.0-814.0","0","0","46016","","165","","","75","90","","k","2","90","training","adjacent","BC","2","3","L.jpg","N.jpg","0","1","0","",""
"","feedback","","html-keyboard-response","526","588822","0.0-1.0-816.0-0.0","0","0","46016","","null","","","null","90","","","","","","","","","","","","","","","",""
"","time_out","","html-keyboard-response","527","590825","0.0-1.0-818.0-0.0","0","0","46016","","null","","","null","90","","","","","","","","","","","","","","","",""
"","ITI","","html-keyboard-response","528","591829","0.0-1.0-819.0","0","0","46016","","169","","","75","90","","","","","","","","","","","","","","","k",""
"","S1","","html-keyboard-response","529","592083","0.0-1.0-821.0","0","0","46016","","null","","","null","91","","","","","","","","","","","","","","","",""
"","ISI","","html-keyboard-response","530","593085","0.0-1.0-822.0","0","0","46016","","149","","","75","91","k","","","","","","","","","","","","","","",""
"","S2","","html-keyboard-response","531","593339","0.0-1.0-823.0","0","0","46016","","null","","","null","91","","NaN","","","","","","","","","","","","","",""
"","response","","html-keyboard-response","532","593639","0.0-1.0-824.0-0.0","0","0","46016","","297","","","75","91","","","2","91","training","adjacent","EF","5","6","O.jpg","R.jpg","0","1","0","",""
"","feedback","","html-keyboard-response","533","594642","0.0-1.0-825.0-0.0","0","0","46016","","null","","","null","91","","","","","","","","","","","","","","","",""
"","time_out","","html-keyboard-response","534","596646","0.0-1.0-827.0-0.0","0","0","46016","","null","","","null","91","","","","","","","","","","","","","","","",""
"","ITI","","html-keyboard-response","535","597649","0.0-1.0-828.0","0","0","46016","","3","","","68","91","","","","","","","","","","","","","","","d",""
"","S1","","html-keyboard-response","536","597901","0.0-1.0-830.0","0","0","46016","","null","","","null","92","","","","","","","","","","","","","","","",""
"","ISI","","html-keyboard-response","537","598905","0.0-1.0-831.0","0","0","46016","","112","","","68","92","d","","","","","","","","","","","","","","",""
"","S2","","html-keyboard-response","538","598951","0.0-1.0-832.0","0","0","46016","","44","","","68","92","","d","2","92","training","adjacent","AB","1","2","M.jpg","L.jpg","1","1","1","",""
"","feedback","","html-keyboard-response","539","599955","0.0-1.0-834.0-0.0","0","0","46016","","null","","","null","92","","","","","","","","","","","","","","","",""
"","ITI","","html-keyboard-response","540","600958","0.0-1.0-837.0","0","0","46016","","258","","","68","92","","","","","","","","","","","","","","","d",""
"","S1","","html-keyboard-response","541","601211","0.0-1.0-839.0","0","0","46016","","null","","","null","93","","","","","","","","","","","","","","","",""
"","ISI","","html-keyboard-response","542","602216","0.0-1.0-840.0","0","0","46016","","76","","","75","93","k","","","","","","","","","","","","","","",""
"","S2","","html-keyboard-response","543","602349","0.0-1.0-841.0","0","0","46016","","131","","","75","93","","k","2","93","training","adjacent","ED","5","4","O.jpg","Q.jpg","0","0","1","",""
"","feedback","","html-keyboard-response","544","603354","0.0-1.0-843.0-0.0","0","0","46016","","null","","","null","93","","","","","","","","","","","","","","","",""
"","ITI","","html-keyboard-response","545","604358","0.0-1.0-846.0","0","0","46016","","137","","","68","93","","","","","","","","","","","","","","","d",""
"","S1","","html-keyboard-response","546","604610","0.0-1.0-848.0","0","0","46016","","null","","","null","94","","","","","","","","","","","","","","","",""
"","ISI","","html-keyboard-response","547","605613","0.0-1.0-849.0","0","0","46016","","224","","","68","94","d","","","","","","","","","","","","","","",""
"","S2","","html-keyboard-response","548","605751","0.0-1.0-850.0","0","0","46016","","136","","","68","94","","d","2","94","training","adjacent","CD","3","4","N.jpg","Q.jpg","1","1","1","",""
"","feedback","","html-keyboard-response","549","606754","0.0-1.0-852.0-0.0","0","0","46016","","null","","","null","94","","","","","","","","","","","","","","","",""
"","ITI","","html-keyboard-response","550","607757","0.0-1.0-855.0","0","0","46016","","160","","","68","94","","","","","","","","","","","","","","","d",""
"","S1","","html-keyboard-response","551","608010","0.0-1.0-857.0","0","0","46016","","null","","","null","95","","","","","","","","","","","","","","","",""
"","ISI","","html-keyboard-response","552","609013","0.0-1.0-858.0","0","0","46016","","157","","","68","95","d","","","","","","","","","","","","","","",""
"","S2","","html-keyboard-response","553","609075","0.0-1.0-859.0","0","0","46016","","59","","","68","95","","d","2","95","training","adjacent","DC","4","3","Q.jpg","N.jpg","1","0","0","",""
"","feedback","","html-keyboard-response","554","610079","0.0-1.0-861.0-0.0","0","0","46016","","null","","","null","95","","","","","","","","","","","","","","","",""
"","time_out","","html-keyboard-response","555","612083","0.0-1.0-863.0-0.0","0","0","46016","","null","","","null","95","","","","","","","","","","","","","","","",""
"","ITI","","html-keyboard-response","556","613086","0.0-1.0-864.0","0","0","46016","","112","","","75","95","","","","","","","","","","","","","","","k",""
"","block_over","","html-keyboard-response","557","622400","0.0-1.0-865.0-0.0","0","0","46016","","9312","","","32","95","","","","","","","","","","","","","","","",""
"","S1","","html-keyboard-response","558","622655","0.0-1.0-866.0","0","0","46016","","null","","","null","96","","","","","","","","","","","","","","","",""
"","ISI","","html-keyboard-response","559","623657","0.0-1.0-867.0","0","0","46016","","null","","","null","96","NaN","","","","","","","","","","","","","","",""
"","S2","","html-keyboard-response","560","623781","0.0-1.0-868.0","0","0","46016","","122","","","68","96","","d","3","96","training","adjacent","EF","5","6","O.jpg","R.jpg","1","1","1","",""
"","feedback","","html-keyboard-response","561","624784","0.0-1.0-870.0-0.0","0","0","46016","","null","","","null","96","","","","","","","","","","","","","","","",""
"","ITI","","html-keyboard-response","562","625787","0.0-1.0-873.0","0","0","46016","","65","","","75","96","","","","","","","","","","","","","","","k",""
"","S1","","html-keyboard-response","563","626041","0.0-1.0-875.0","0","0","46016","","null","","","null","97","","","","","","","","","","","","","","","",""
"","ISI","","html-keyboard-response","564","627045","0.0-1.0-876.0","0","0","46016","","113","","","75","97","k","","","","","","","","","","","","","","",""
"","S2","","html-keyboard-response","565","627226","0.0-1.0-877.0","0","0","46016","","178","","","75","97","","k","3","97","training","adjacent","AB","1","2","M.jpg","L.jpg","0","1","0","",""
"","feedback","","html-keyboard-response","566","628229","0.0-1.0-879.0-0.0","0","0","46016","","null","","","null","97","","","","","","","","","","","","","","","",""
"","time_out","","html-keyboard-response","567","630233","0.0-1.0-881.0-0.0","0","0","46016","","null","","","null","97","","","","","","","","","","","","","","","",""
"","ITI","","html-keyboard-response","568","631236","0.0-1.0-882.0","0","0","46016","","1","","","75","97","","","","","","","","","","","","","","","k",""
"","S1","","html-keyboard-response","569","631489","0.0-1.0-884.0","0","0","46016","","null","","","null","98","","","","","","","","","","","","","","","",""
"","ISI","","html-keyboard-response","570","632492","0.0-1.0-885.0","0","0","46016","","124","","","75","98","k","","","","","","","","","","","","","","",""
"","S2","","html-keyboard-response","571","632586","0.0-1.0-886.0","0","0","46016","","93","","","75","98","","k","3","98","training","adjacent","DE","4","5","Q.jpg","O.jpg","0","1","0","",""
"","feedback","","html-keyboard-response","572","633590","0.0-1.0-888.0-0.0","0","0","46016","","null","","","null","98","","","","","","","","","","","","","","","",""
"","time_out","","html-keyboard-response","573","635594","0.0-1.0-890.0-0.0","0","0","46016","","null","","","null","98","","","","","","","","","","","","","","","",""
"","ITI","","html-keyboard-response","574","636598","0.0-1.0-891.0","0","0","46016","","187","","","68","98","","","","","","","","","","","","","","","d",""
"","S1","","html-keyboard-response","575","636851","0.0-1.0-893.0","0","0","46016","","null","","","null","99","","","","","","","","","","","","","","","",""
"","ISI","","html-keyboard-response","576","637853","0.0-1.0-894.0","0","0","46016","","1","","","68","99","d","","","","","","","","","","","","","","",""
"","S2","","html-keyboard-response","577","637942","0.0-1.0-895.0","0","0","46016","","87","","","68","99","","d","3","99","training","adjacent","DE","4","5","Q.jpg","O.jpg","1","1","1","",""
"","feedback","","html-keyboard-response","578","638946","0.0-1.0-897.0-0.0","0","0","46016","","null","","","null","99","","","","","","","","","","","","","","","",""
"","ITI","","html-keyboard-response","579","639949","0.0-1.0-900.0","0","0","46016","","211","","","68","99","","","","","","","","","","","","","","","d",""
"","S1","","html-keyboard-response","580","640203","0.0-1.0-902.0","0","0","46016","","null","","","null","100","","","","","","","","","","","","","","","",""
"","ISI","","html-keyboard-response","581","641207","0.0-1.0-903.0","0","0","46016","","20","","","68","100","d","","","","","","","","","","","","","","",""
"","S2","","html-keyboard-response","582","641245","0.0-1.0-904.0","0","0","46016","","36","","","68","100","","d","3","100","training","adjacent","BC","2","3","L.jpg","N.jpg","1","1","1","",""
"","feedback","","html-keyboard-response","583","642249","0.0-1.0-906.0-0.0","0","0","46016","","null","","","null","100","","","","","","","","","","","","","","","",""
"","ITI","","html-keyboard-response","584","643253","0.0-1.0-909.0","0","0","46016","","175","","","68","100","","","","","","","","","","","","","","","d",""
"","S1","","html-keyboard-response","585","643506","0.0-1.0-911.0","0","0","46016","","null","","","null","101","","","","","","","","","","","","","","","",""
"","ISI","","html-keyboard-response","586","644509","0.0-1.0-912.0","0","0","46016","","141","","","68","101","d","","","","","","","","","","","","","","",""
"","S2","","html-keyboard-response","587","644654","0.0-1.0-913.0","0","0","46016","","143","","","68","101","","d","3","101","training","adjacent","CB","3","2","N.jpg","L.jpg","1","0","0","",""
