"success","ttype","start_time","trial_type","trial_index","time_elapsed","internal_node_id","warning","missed_checkup","PID","view_history","rt","responses","repeat_instructions","key_press","index","keypress_isi","keypress_S2","block","trial_num","phase","group_type","pair_type","S1_stim","S2_stim","S1_img","S2_img","S1_chosen","S1_higher","accuracy","keypress_iti","total_bonus_tally"
"true","full_screen","d03082023hr1557","fullscreen","0","20748","0.0-0.0","0","0","13758","","","","","","","","","","","","","","","","","","","","","",""
"","instructions","","instructions","1","68688","0.0-1.0-0.0-0.0","0","0","13758","[{""page_index"":0,""viewing_time"":6260},{""page_index"":1,""viewing_time"":26149},{""page_index"":2,""viewing_time"":12784},{""page_index"":3,""viewing_time"":2745}]","47938","","","","","","","","","","","","","","","","","","","",""
"","comprehension_check","","survey-multi-choice","2","98403","0.0-1.0-0.0-1.0","0","0","13758","","29713","{""Q0"":""True"",""Q1"":""D"",""Q2"":""Once the second image appears and while the screen 'MAKE A CHOICE' is shown"",""Q3"":""Green mark"",""Q4"":""either D or K""}","0","","","","","","","","","","","","","","","","","",""
"","start_exp","","html-keyboard-response","3","102169","0.0-1.0-1.0","0","0","13758","","3764","","","32","","","","","","","","","","","","","","","","",""
"","S1","","html-keyboard-response","4","102421","0.0-1.0-2.0","0","0","13758","","null","","","null","0","","","","","","","","","","","","","","","",""
"","ISI","","html-keyboard-response","5","102573","0.0-1.0-3.0","0","0","13758","","null","","","null","0","NaN","","","","","","","","","","","","","","",""
"","S2","","html-keyboard-response","6","102825","0.0-1.0-4.0","0","0","13758","","null","","","null","0","","NaN","","","","","","","","","","","","","",""
"","response","","html-keyboard-response","7","103246","0.0-1.0-5.0-0.0","0","0","13758","","420","","","75","0","","","1","0","training","adjacent","BC","2","3","O.jpg","M.jpg","0","1","0","",""
"","feedback","","html-keyboard-response","8","104248","0.0-1.0-6.0-0.0","0","0","13758","","null","","","null","0","","","","","","","","","","","","","","","",""
"","time_out","","html-keyboard-response","9","106249","0.0-1.0-8.0-0.0","0","0","13758","","null","","","null","0","","","","","","","","","","","","","","","",""
"","ITI","","html-keyboard-response","10","107251","0.0-1.0-9.0","0","0","13758","","null","","","null","0","","","","","","","","","","","","","","","NaN",""
"","S1","","html-keyboard-response","11","107505","0.0-1.0-11.0","0","0","13758","","null","","","null","1","","","","","","","","","","","","","","","",""
"","ISI","","html-keyboard-response","12","107657","0.0-1.0-12.0","0","0","13758","","null","","","null","1","NaN","","","","","","","","","","","","","","",""
"","S2","","html-keyboard-response","13","107909","0.0-1.0-13.0","0","0","13758","","null","","","null","1","","NaN","","","","","","","","","","","","","",""
"","response","","html-keyboard-response","14","108993","0.0-1.0-14.0-0.0","0","0","13758","","1083","","","68","1","","","1","1","training","adjacent","EF","5","6","L.jpg","P.jpg","1","1","1","",""
"","feedback","","html-keyboard-response","15","109994","0.0-1.0-15.0-0.0","0","0","13758","","null","","","null","1","","","","","","","","","","","","","","","",""
"","ITI","","html-keyboard-response","16","110997","0.0-1.0-18.0","0","0","13758","","null","","","null","1","","","","","","","","","","","","","","","NaN",""
"","S1","","html-keyboard-response","17","111248","0.0-1.0-20.0","0","0","13758","","null","","","null","2","","","","","","","","","","","","","","","",""
"","ISI","","html-keyboard-response","18","111400","0.0-1.0-21.0","0","0","13758","","null","","","null","2","NaN","","","","","","","","","","","","","","",""
"","S2","","html-keyboard-response","19","111652","0.0-1.0-22.0","0","0","13758","","null","","","null","2","","NaN","","","","","","","","","","","","","",""
"","response","","html-keyboard-response","20","112410","0.0-1.0-23.0-0.0","0","0","13758","","758","","","68","2","","","1","2","training","adjacent","BA","2","1","O.jpg","Q.jpg","1","0","0","",""
"","feedback","","html-keyboard-response","21","113413","0.0-1.0-24.0-0.0","0","0","13758","","null","","","null","2","","","","","","","","","","","","","","","",""
"","time_out","","html-keyboard-response","22","115414","0.0-1.0-26.0-0.0","0","0","13758","","null","","","null","2","","","","","","","","","","","","","","","",""
"","ITI","","html-keyboard-response","23","116416","0.0-1.0-27.0","0","0","13758","","null","","","null","2","","","","","","","","","","","","","","","NaN",""
"","S1","","html-keyboard-response","24","116668","0.0-1.0-29.0","0","0","13758","","null","","","null","3","","","","","","","","","","","","","","","",""
"","ISI","","html-keyboard-response","25","116820","0.0-1.0-30.0","0","0","13758","","null","","","null","3","NaN","","","","","","","","","","","","","","",""
"","S2","","html-keyboard-response","26","117072","0.0-1.0-31.0","0","0","13758","","null","","","null","3","","NaN","","","","","","","","","","","","","",""
"","response","","html-keyboard-response","27","117697","0.0-1.0-32.0-0.0","0","0","13758","","624","","","68","3","","","1","3","training","adjacent","CB","3","2","M.jpg","O.jpg","1","0","0","",""
"","feedback","","html-keyboard-response","28","118699","0.0-1.0-33.0-0.0","0","0","13758","","null","","","null","3","","","","","","","","","","","","","","","",""
"","time_out","","html-keyboard-response","29","120701","0.0-1.0-35.0-0.0","0","0","13758","","null","","","null","3","","","","","","","","","","","","","","","",""
"","ITI","","html-keyboard-response","30","121702","0.0-1.0-36.0","0","0","13758","","null","","","null","3","","","","","","","","","","","","","","","NaN",""
"","S1","","html-keyboard-response","31","121953","0.0-1.0-38.0","0","0","13758","","null","","","null","4","","","","","","","","","","","","","","","",""
"","ISI","","html-keyboard-response","32","122105","0.0-1.0-39.0","0","0","13758","","null","","","null","4","NaN","","","","","","","","","","","","","","",""
"","S2","","html-keyboard-response","33","122356","0.0-1.0-40.0","0","0","13758","","null","","","null","4","","NaN","","","","","","","","","","","","","",""
"","response","","html-keyboard-response","34","123287","0.0-1.0-41.0-0.0","0","0","13758","","930","","","68","4","","","1","4","training","adjacent","CD","3","4","M.jpg","N.jpg","1","1","1","",""
"","feedback","","html-keyboard-response","35","124289","0.0-1.0-42.0-0.0","0","0","13758","","null","","","null","4","","","","","","","","","","","","","","","",""
"","ITI","","html-keyboard-response","36","125291","0.0-1.0-45.0","0","0","13758","","null","","","null","4","","","","","","","","","","","","","","","NaN",""
"","S1","","html-keyboard-response","37","125543","0.0-1.0-47.0","0","0","13758","","null","","","null","5","","","","","","","","","","","","","","","",""
"","ISI","","html-keyboard-response","38","125694","0.0-1.0-48.0","0","0","13758","","null","","","null","5","NaN","","","","","","","","","","","","","","",""
"","S2","","html-keyboard-response","39","125947","0.0-1.0-49.0","0","0","13758","","null","","","null","5","","NaN","","","","","","","","","","","","","",""
"","response","","html-keyboard-response","40","127063","0.0-1.0-50.0-0.0","0","0","13758","","1115","","","75","5","","","1","5","training","adjacent","GF","7","6","R.jpg","P.jpg","0","0","1","",""
"","feedback","","html-keyboard-response","41","128066","0.0-1.0-51.0-0.0","0","0","13758","","null","","","null","5","","","","","","","","","","","","","","","",""
"","ITI","","html-keyboard-response","42","129068","0.0-1.0-54.0","0","0","13758","","null","","","null","5","","","","","","","","","","","","","","","NaN",""
"","S1","","html-keyboard-response","43","129319","0.0-1.0-56.0","0","0","13758","","null","","","null","6","","","","","","","","","","","","","","","",""
"","ISI","","html-keyboard-response","44","129471","0.0-1.0-57.0","0","0","13758","","null","","","null","6","NaN","","","","","","","","","","","","","","",""
"","S2","","html-keyboard-response","45","129722","0.0-1.0-58.0","0","0","13758","","null","","","null","6","","NaN","","","","","","","","","","","","","",""
"","response","","html-keyboard-response","46","130701","0.0-1.0-59.0-0.0","0","0","13758","","978","","","75","6","","","1","6","training","adjacent","ED","5","4","L.jpg","N.jpg","0","0","1","",""
"","feedback","","html-keyboard-response","47","131710","0.0-1.0-60.0-0.0","0","0","13758","","null","","","null","6","","","","","","","","","","","","","","","",""
"","ITI","","html-keyboard-response","48","132711","0.0-1.0-63.0","0","0","13758","","null","","","null","6","","","","","","","","","","","","","","","NaN",""
"","S1","","html-keyboard-response","49","132964","0.0-1.0-65.0","0","0","13758","","null","","","null","7","","","","","","","","","","","","","","","",""
"","ISI","","html-keyboard-response","50","133116","0.0-1.0-66.0","0","0","13758","","null","","","null","7","NaN","","","","","","","","","","","","","","",""
"","S2","","html-keyboard-response","51","133367","0.0-1.0-67.0","0","0","13758","","null","","","null","7","","NaN","","","","","","","","","","","","","",""
"","response","","html-keyboard-response","52","134417","0.0-1.0-68.0-0.0","0","0","13758","","1049","","","68","7","","","1","7","training","adjacent","GF","7","6","R.jpg","P.jpg","1","0","0","",""
"","feedback","","html-keyboard-response","53","135419","0.0-1.0-69.0-0.0","0","0","13758","","null","","","null","7","","","","","","","","","","","","","","","",""
"","time_out","","html-keyboard-response","54","137420","0.0-1.0-71.0-0.0","0","0","13758","","null","","","null","7","","","","","","","","","","","","","","","",""
"","ITI","","html-keyboard-response","55","138421","0.0-1.0-72.0","0","0","13758","","null","","","null","7","","","","","","","","","","","","","","","NaN",""
"","S1","","html-keyboard-response","56","138673","0.0-1.0-74.0","0","0","13758","","null","","","null","8","","","","","","","","","","","","","","","",""
"","ISI","","html-keyboard-response","57","138824","0.0-1.0-75.0","0","0","13758","","null","","","null","8","NaN","","","","","","","","","","","","","","",""
"","S2","","html-keyboard-response","58","139075","0.0-1.0-76.0","0","0","13758","","null","","","null","8","","NaN","","","","","","","","","","","","","",""
"","response","","html-keyboard-response","59","139899","0.0-1.0-77.0-0.0","0","0","13758","","823","","","68","8","","","1","8","training","adjacent","CB","3","2","M.jpg","O.jpg","1","0","0","",""
"","feedback","","html-keyboard-response","60","140901","0.0-1.0-78.0-0.0","0","0","13758","","null","","","null","8","","","","","","","","","","","","","","","",""
"","time_out","","html-keyboard-response","61","142903","0.0-1.0-80.0-0.0","0","0","13758","","null","","","null","8","","","","","","","","","","","","","","","",""
"","ITI","","html-keyboard-response","62","143905","0.0-1.0-81.0","0","0","13758","","null","","","null","8","","","","","","","","","","","","","","","NaN",""
"","S1","","html-keyboard-response","63","144158","0.0-1.0-83.0","0","0","13758","","null","","","null","9","","","","","","","","","","","","","","","",""
"","ISI","","html-keyboard-response","64","144309","0.0-1.0-84.0","0","0","13758","","null","","","null","9","NaN","","","","","","","","","","","","","","",""
"","S2","","html-keyboard-response","65","144561","0.0-1.0-85.0","0","0","13758","","null","","","null","9","","NaN","","","","","","","","","","","","","",""
"","response","","html-keyboard-response","66","145661","0.0-1.0-86.0-0.0","0","0","13758","","1100","","","75","9","","","1","9","training","adjacent","DE","4","5","N.jpg","L.jpg","0","1","0","",""
"","feedback","","html-keyboard-response","67","146663","0.0-1.0-87.0-0.0","0","0","13758","","null","","","null","9","","","","","","","","","","","","","","","",""
"","time_out","","html-keyboard-response","68","148665","0.0-1.0-89.0-0.0","0","0","13758","","null","","","null","9","","","","","","","","","","","","","","","",""
"","ITI","","html-keyboard-response","69","149667","0.0-1.0-90.0","0","0","13758","","null","","","null","9","","","","","","","","","","","","","","","NaN",""
"","S1","","html-keyboard-response","70","149918","0.0-1.0-92.0","0","0","13758","","null","","","null","10","","","","","","","","","","","","","","","",""
"","ISI","","html-keyboard-response","71","150070","0.0-1.0-93.0","0","0","13758","","null","","","null","10","NaN","","","","","","","","","","","","","","",""
"","S2","","html-keyboard-response","72","150333","0.0-1.0-94.0","0","0","13758","","null","","","null","10","","NaN","","","","","","","","","","","","","",""
"","response","","html-keyboard-response","73","151538","0.0-1.0-95.0-0.0","0","0","13758","","1204","","","68","10","","","1","10","training","adjacent","AB","1","2","Q.jpg","O.jpg","1","1","1","",""
"","feedback","","html-keyboard-response","74","152539","0.0-1.0-96.0-0.0","0","0","13758","","null","","","null","10","","","","","","","","","","","","","","","",""
"","ITI","","html-keyboard-response","75","153541","0.0-1.0-99.0","0","0","13758","","null","","","null","10","","","","","","","","","","","","","","","NaN",""
"","S1","","html-keyboard-response","76","153793","0.0-1.0-101.0","0","0","13758","","null","","","null","11","","","","","","","","","","","","","","","",""
"","ISI","","html-keyboard-response","77","153944","0.0-1.0-102.0","0","0","13758","","null","","","null","11","NaN","","","","","","","","","","","","","","",""
"","S2","","html-keyboard-response","78","154196","0.0-1.0-103.0","0","0","13758","","null","","","null","11","","NaN","","","","","","","","","","","","","",""
"","response","","html-keyboard-response","79","155045","0.0-1.0-104.0-0.0","0","0","13758","","848","","","68","11","","","1","11","training","adjacent","EF","5","6","L.jpg","P.jpg","1","1","1","",""
"","feedback","","html-keyboard-response","80","156047","0.0-1.0-105.0-0.0","0","0","13758","","null","","","null","11","","","","","","","","","","","","","","","",""
"","ITI","","html-keyboard-response","81","157049","0.0-1.0-108.0","0","0","13758","","null","","","null","11","","","","","","","","","","","","","","","NaN",""
"","S1","","html-keyboard-response","82","157301","0.0-1.0-110.0","0","0","13758","","null","","","null","12","","","","","","","","","","","","","","","",""
"","ISI","","html-keyboard-response","83","157452","0.0-1.0-111.0","0","0","13758","","null","","","null","12","NaN","","","","","","","","","","","","","","",""
"","S2","","html-keyboard-response","84","157705","0.0-1.0-112.0","0","0","13758","","null","","","null","12","","NaN","","","","","","","","","","","","","",""
"","response","","html-keyboard-response","85","158368","0.0-1.0-113.0-0.0","0","0","13758","","662","","","75","12","","","1","12","training","adjacent","FG","6","7","P.jpg","R.jpg","0","1","0","",""
"","feedback","","html-keyboard-response","86","159370","0.0-1.0-114.0-0.0","0","0","13758","","null","","","null","12","","","","","","","","","","","","","","","",""
"","time_out","","html-keyboard-response","87","161371","0.0-1.0-116.0-0.0","0","0","13758","","null","","","null","12","","","","","","","","","","","","","","","",""
"","ITI","","html-keyboard-response","88","162373","0.0-1.0-117.0","0","0","13758","","null","","","null","12","","","","","","","","","","","","","","","NaN",""
"","S1","","html-keyboard-response","89","162625","0.0-1.0-119.0","0","0","13758","","null","","","null","13","","","","","","","","","","","","","","","",""
"","ISI","","html-keyboard-response","90","162776","0.0-1.0-120.0","0","0","13758","","null","","","null","13","NaN","","","","","","","","","","","","","","",""
"","S2","","html-keyboard-response","91","163027","0.0-1.0-121.0","0","0","13758","","null","","","null","13","","NaN","","","","","","","","","","","","","",""
"","response","","html-keyboard-response","92","163396","0.0-1.0-122.0-0.0","0","0","13758","","368","","","68","13","","","1","13","training","adjacent","CB","3","2","M.jpg","O.jpg","1","0","0","",""
"","feedback","","html-keyboard-response","93","164397","0.0-1.0-123.0-0.0","0","0","13758","","null","","","null","13","","","","","","","","","","","","","","","",""
"","time_out","","html-keyboard-response","94","166399","0.0-1.0-125.0-0.0","0","0","13758","","null","","","null","13","","","","","","","","","","","","","","","",""
"","ITI","","html-keyboard-response","95","167401","0.0-1.0-126.0","0","0","13758","","null","","","null","13","","","","","","","","","","","","","","","NaN",""
"","S1","","html-keyboard-response","96","167653","0.0-1.0-128.0","0","0","13758","","null","","","null","14","","","","","","","","","","","","","","","",""
"","ISI","","html-keyboard-response","97","167804","0.0-1.0-129.0","0","0","13758","","null","","","null","14","NaN","","","","","","","","","","","","","","",""
"","S2","","html-keyboard-response","98","168055","0.0-1.0-130.0","0","0","13758","","null","","","null","14","","NaN","","","","","","","","","","","","","",""
"","response","","html-keyboard-response","99","168369","0.0-1.0-131.0-0.0","0","0","13758","","313","","","68","14","","","1","14","training","adjacent","AB","1","2","Q.jpg","O.jpg","1","1","1","",""
"","feedback","","html-keyboard-response","100","169371","0.0-1.0-132.0-0.0","0","0","13758","","null","","","null","14","","","","","","","","","","","","","","","",""
"","ITI","","html-keyboard-response","101","170372","0.0-1.0-135.0","0","0","13758","","null","","","null","14","","","","","","","","","","","","","","","NaN",""
"","S1","","html-keyboard-response","102","170623","0.0-1.0-137.0","0","0","13758","","null","","","null","15","","","","","","","","","","","","","","","",""
"","ISI","","html-keyboard-response","103","170774","0.0-1.0-138.0","0","0","13758","","null","","","null","15","NaN","","","","","","","","","","","","","","",""
"","S2","","html-keyboard-response","104","171026","0.0-1.0-139.0","0","0","13758","","null","","","null","15","","NaN","","","","","","","","","","","","","",""
"","response","","html-keyboard-response","105","171266","0.0-1.0-140.0-0.0","0","0","13758","","239","","","75","15","","","1","15","training","adjacent","FG","6","7","P.jpg","R.jpg","0","1","0","",""
"","feedback","","html-keyboard-response","106","172268","0.0-1.0-141.0-0.0","0","0","13758","","null","","","null","15","","","","","","","","","","","","","","","",""
"","time_out","","html-keyboard-response","107","174269","0.0-1.0-143.0-0.0","0","0","13758","","null","","","null","15","","","","","","","","","","","","","","","",""
"","ITI","","html-keyboard-response","108","175271","0.0-1.0-144.0","0","0","13758","","null","","","null","15","","","","","","","","","","","","","","","NaN",""
"","S1","","html-keyboard-response","109","175523","0.0-1.0-146.0","0","0","13758","","null","","","null","16","","","","","","","","","","","","","","","",""
"","ISI","","html-keyboard-response","110","175675","0.0-1.0-147.0","0","0","13758","","null","","","null","16","NaN","","","","","","","","","","","","","","",""
"","S2","","html-keyboard-response","111","175926","0.0-1.0-148.0","0","0","13758","","null","","","null","16","","NaN","","","","","","","","","","","","","",""
"","response","","html-keyboard-response","112","176656","0.0-1.0-149.0-0.0","0","0","13758","","729","","","68","16","","","1","16","training","adjacent","CB","3","2","M.jpg","O.jpg","1","0","0","",""
"","feedback","","html-keyboard-response","113","177658","0.0-1.0-150.0-0.0","0","0","13758","","null","","","null","16","","","","","","","","","","","","","","","",""
"","time_out","","html-keyboard-response","114","179659","0.0-1.0-152.0-0.0","0","0","13758","","null","","","null","16","","","","","","","","","","","","","","","",""
"","ITI","","html-keyboard-response","115","180661","0.0-1.0-153.0","0","0","13758","","null","","","null","16","","","","","","","","","","","","","","","NaN",""
"","S1","","html-keyboard-response","116","180913","0.0-1.0-155.0","0","0","13758","","null","","","null","17","","","","","","","","","","","","","","","",""
"","ISI","","html-keyboard-response","117","181064","0.0-1.0-156.0","0","0","13758","","null","","","null","17","NaN","","","","","","","","","","","","","","",""
"","S2","","html-keyboard-response","118","181316","0.0-1.0-157.0","0","0","13758","","null","","","null","17","","NaN","","","","","","","","","","","","","",""
"","response","","html-keyboard-response","119","182209","0.0-1.0-158.0-0.0","0","0","13758","","893","","","75","17","","","1","17","training","adjacent","GF","7","6","R.jpg","P.jpg","0","0","1","",""
"","feedback","","html-keyboard-response","120","183211","0.0-1.0-159.0-0.0","0","0","13758","","null","","","null","17","","","","","","","","","","","","","","","",""
"","ITI","","html-keyboard-response","121","184213","0.0-1.0-162.0","0","0","13758","","null","","","null","17","","","","","","","","","","","","","","","NaN",""
"","S1","","html-keyboard-response","122","184465","0.0-1.0-164.0","0","0","13758","","null","","","null","18","","","","","","","","","","","","","","","",""
"","ISI","","html-keyboard-response","123","184617","0.0-1.0-165.0","0","0","13758","","null","","","null","18","NaN","","","","","","","","","","","","","","",""
"","S2","","html-keyboard-response","124","184869","0.0-1.0-166.0","0","0","13758","","null","","","null","18","","NaN","","","","","","","","","","","","","",""
"","response","","html-keyboard-response","125","185635","0.0-1.0-167.0-0.0","0","0","13758","","766","","","75","18","","","1","18","training","adjacent","ED","5","4","L.jpg","N.jpg","0","0","1","",""
"","feedback","","html-keyboard-response","126","186637","0.0-1.0-168.0-0.0","0","0","13758","","null","","","null","18","","","","","","","","","","","","","","","",""
"","ITI","","html-keyboard-response","127","187638","0.0-1.0-171.0","0","0","13758","","null","","","null","18","","","","","","","","","","","","","","","NaN",""
"","S1","","html-keyboard-response","128","187890","0.0-1.0-173.0","0","0","13758","","null","","","null","19","","","","","","","","","","","","","","","",""
"","ISI","","html-keyboard-response","129","188041","0.0-1.0-174.0","0","0","13758","","null","","","null","19","NaN","","","","","","","","","","","","","","",""
"","S2","","html-keyboard-response","130","188293","0.0-1.0-175.0","0","0","13758","","null","","","null","19","","NaN","","","","","","","","","","","","","",""
"","response","","html-keyboard-response","131","188931","0.0-1.0-176.0-0.0","0","0","13758","","637","","","68","19","","","1","19","training","adjacent","BC","2","3","O.jpg","M.jpg","1","1","1","",""
"","feedback","","html-keyboard-response","132","189933","0.0-1.0-177.0-0.0","0","0","13758","","null","","","null","19","","","","","","","","","","","","","","","",""
"","ITI","","html-keyboard-response","133","190934","0.0-1.0-180.0","0","0","13758","","null","","","null","19","","","","","","","","","","","","","","","NaN",""
"","S1","","html-keyboard-response","134","191186","0.0-1.0-182.0","0","0","13758","","null","","","null","20","","","","","","","","","","","","","","","",""
"","ISI","","html-keyboard-response","135","191338","0.0-1.0-183.0","0","0","13758","","null","","","null","20","NaN","","","","","","","","","","","","","","",""
"","S2","","html-keyboard-response","136","191589","0.0-1.0-184.0","0","0","13758","","null","","","null","20","","NaN","","","","","","","","","","","","","",""
"","response","","html-keyboard-response","137","192248","0.0-1.0-185.0-0.0","0","0","13758","","657","","","68","20","","","1","20","training","adjacent","DE","4","5","N.jpg","L.jpg","1","1","1","",""
"","feedback","","html-keyboard-response","138","193249","0.0-1.0-186.0-0.0","0","0","13758","","null","","","null","20","","","","","","","","","","","","","","","",""
"","ITI","","html-keyboard-response","139","194251","0.0-1.0-189.0","0","0","13758","","null","","","null","20","","","","","","","","","","","","","","","NaN",""
"","S1","","html-keyboard-response","140","194503","0.0-1.0-191.0","0","0","13758","","null","","","null","21","","","","","","","","","","","","","","","",""
"","ISI","","html-keyboard-response","141","194654","0.0-1.0-192.0","0","0","13758","","null","","","null","21","NaN","","","","","","","","","","","","","","",""
"","S2","","html-keyboard-response","142","194906","0.0-1.0-193.0","0","0","13758","","null","","","null","21","","NaN","","","","","","","","","","","","","",""
"","response","","html-keyboard-response","143","195729","0.0-1.0-194.0-0.0","0","0","13758","","822","","","75","21","","","1","21","training","adjacent","BC","2","3","O.jpg","M.jpg","0","1","0","",""
"","feedback","","html-keyboard-response","144","196731","0.0-1.0-195.0-0.0","0","0","13758","","null","","","null","21","","","","","","","","","","","","","","","",""
"","time_out","","html-keyboard-response","145","198733","0.0-1.0-197.0-0.0","0","0","13758","","null","","","null","21","","","","","","","","","","","","","","","",""
"","ITI","","html-keyboard-response","146","199735","0.0-1.0-198.0","0","0","13758","","null","","","null","21","","","","","","","","","","","","","","","NaN",""
"","S1","","html-keyboard-response","147","199986","0.0-1.0-200.0","0","0","13758","","null","","","null","22","","","","","","","","","","","","","","","",""
"","ISI","","html-keyboard-response","148","200138","0.0-1.0-201.0","0","0","13758","","null","","","null","22","NaN","","","","","","","","","","","","","","",""
"","S2","","html-keyboard-response","149","200391","0.0-1.0-202.0","0","0","13758","","null","","","null","22","","NaN","","","","","","","","","","","","","",""
"","response","","html-keyboard-response","150","201435","0.0-1.0-203.0-0.0","0","0","13758","","1043","","","75","22","","","1","22","training","adjacent","BA","2","1","O.jpg","Q.jpg","0","0","1","",""
"","feedback","","html-keyboard-response","151","202436","0.0-1.0-204.0-0.0","0","0","13758","","null","","","null","22","","","","","","","","","","","","","","","",""
"","ITI","","html-keyboard-response","152","203438","0.0-1.0-207.0","0","0","13758","","null","","","null","22","","","","","","","","","","","","","","","NaN",""
"","S1","","html-keyboard-response","153","203690","0.0-1.0-209.0","0","0","13758","","null","","","null","23","","","","","","","","","","","","","","","",""
"","ISI","","html-keyboard-response","154","203841","0.0-1.0-210.0","0","0","13758","","null","","","null","23","NaN","","","","","","","","","","","","","","",""
"","S2","","html-keyboard-response","155","204093","0.0-1.0-211.0","0","0","13758","","null","","","null","23","","NaN","","","","","","","","","","","","","",""
"","response","","html-keyboard-response","156","205084","0.0-1.0-212.0-0.0","0","0","13758","","990","","","75","23","","","1","23","training","adjacent","DE","4","5","N.jpg","L.jpg","0","1","0","",""
"","feedback","","html-keyboard-response","157","206086","0.0-1.0-213.0-0.0","0","0","13758","","null","","","null","23","","","","","","","","","","","","","","","",""
"","time_out","","html-keyboard-response","158","208087","0.0-1.0-215.0-0.0","0","0","13758","","null","","","null","23","","","","","","","","","","","","","","","",""
"","ITI","","html-keyboard-response","159","209089","0.0-1.0-216.0","0","0","13758","","null","","","null","23","","","","","","","","","","","","","","","NaN",""
"","S1","","html-keyboard-response","160","209341","0.0-1.0-218.0","0","0","13758","","null","","","null","24","","","","","","","","","","","","","","","",""
"","ISI","","html-keyboard-response","161","209493","0.0-1.0-219.0","0","0","13758","","null","","","null","24","NaN","","","","","","","","","","","","","","",""
"","S2","","html-keyboard-response","162","209744","0.0-1.0-220.0","0","0","13758","","null","","","null","24","","NaN","","","","","","","","","","","","","",""
"","response","","html-keyboard-response","163","210443","0.0-1.0-221.0-0.0","0","0","13758","","698","","","68","24","","","1","24","training","adjacent","FE","6","5","P.jpg","L.jpg","1","0","0","",""
"","feedback","","html-keyboard-response","164","211445","0.0-1.0-222.0-0.0","0","0","13758","","null","","","null","24","","","","","","","","","","","","","","","",""
"","time_out","","html-keyboard-response","165","213446","0.0-1.0-224.0-0.0","0","0","13758","","null","","","null","24","","","","","","","","","","","","","","","",""
"","ITI","","html-keyboard-response","166","214448","0.0-1.0-225.0","0","0","13758","","null","","","null","24","","","","","","","","","","","","","","","NaN",""
"","S1","","html-keyboard-response","167","214699","0.0-1.0-227.0","0","0","13758","","null","","","null","25","","","","","","","","","","","","","","","",""
"","ISI","","html-keyboard-response","168","214855","0.0-1.0-228.0","0","0","13758","","null","","","null","25","NaN","","","","","","","","","","","","","","",""
"","S2","","html-keyboard-response","169","215107","0.0-1.0-229.0","0","0","13758","","null","","","null","25","","NaN","","","","","","","","","","","","","",""
"","response","","html-keyboard-response","170","215917","0.0-1.0-230.0-0.0","0","0","13758","","809","","","68","25","","","1","25","training","adjacent","FE","6","5","P.jpg","L.jpg","1","0","0","",""
"","feedback","","html-keyboard-response","171","216918","0.0-1.0-231.0-0.0","0","0","13758","","null","","","null","25","","","","","","","","","","","","","","","",""
"","time_out","","html-keyboard-response","172","218920","0.0-1.0-233.0-0.0","0","0","13758","","null","","","null","25","","","","","","","","","","","","","","","",""
"","ITI","","html-keyboard-response","173","219921","0.0-1.0-234.0","0","0","13758","","null","","","null","25","","","","","","","","","","","","","","","NaN",""
"","S1","","html-keyboard-response","174","220173","0.0-1.0-236.0","0","0","13758","","null","","","null","26","","","","","","","","","","","","","","","",""
"","ISI","","html-keyboard-response","175","220324","0.0-1.0-237.0","0","0","13758","","null","","","null","26","NaN","","","","","","","","","","","","","","",""
"","S2","","html-keyboard-response","176","220575","0.0-1.0-238.0","0","0","13758","","null","","","null","26","","NaN","","","","","","","","","","","","","",""
"","response","","html-keyboard-response","177","221012","0.0-1.0-239.0-0.0","0","0","13758","","437","","","75","26","","","1","26","training","adjacent","DC","4","3","N.jpg","M.jpg","0","0","1","",""
"","feedback","","html-keyboard-response","178","222014","0.0-1.0-240.0-0.0","0","0","13758","","null","","","null","26","","","","","","","","","","","","","","","",""
"","ITI","","html-keyboard-response","179","223016","0.0-1.0-243.0","0","0","13758","","null","","","null","26","","","","","","","","","","","","","","","NaN",""
"","S1","","html-keyboard-response","180","223267","0.0-1.0-245.0","0","0","13758","","null","","","null","27","","","","","","","","","","","","","","","",""
"","ISI","","html-keyboard-response","181","223418","0.0-1.0-246.0","0","0","13758","","null","","","null","27","NaN","","","","","","","","","","","","","","",""
"","S2","","html-keyboard-response","182","223671","0.0-1.0-247.0","0","0","13758","","null","","","null","27","","NaN","","","","","","","","","","","","","",""
"","response","","html-keyboard-response","183","224412","0.0-1.0-248.0-0.0","0","0","13758","","741","","","68","27","","","1","27","training","adjacent","BC","2","3","O.jpg","M.jpg","1","1","1","",""
"","feedback","","html-keyboard-response","184","225413","0.0-1.0-249.0-0.0","0","0","13758","","null","","","null","27","","","","","","","","","","","","","","","",""
"","ITI","","html-keyboard-response","185","226415","0.0-1.0-252.0","0","0","13758","","null","","","null","27","","","","","","","","","","","","","","","NaN",""
"","S1","","html-keyboard-response","186","226667","0.0-1.0-254.0","0","0","13758","","null","","","null","28","","","","","","","","","","","","","","","",""
"","ISI","","html-keyboard-response","187","226818","0.0-1.0-255.0","0","0","13758","","null","","","null","28","NaN","","","","","","","","","","","","","","",""
"","S2","","html-keyboard-response","188","227069","0.0-1.0-256.0","0","0","13758","","null","","","null","28","","NaN","","","","","","","","","","","","","",""
"","response","","html-keyboard-response","189","227734","0.0-1.0-257.0-0.0","0","0","13758","","664","","","75","28","","","1","28","training","adjacent","DE","4","5","N.jpg","L.jpg","0","1","0","",""
"","feedback","","html-keyboard-response","190","228736","0.0-1.0-258.0-0.0","0","0","13758","","null","","","null","28","","","","","","","","","","","","","","","",""
"","time_out","","html-keyboard-response","191","230737","0.0-1.0-260.0-0.0","0","0","13758","","null","","","null","28","","","","","","","","","","","","","","","",""
"","ITI","","html-keyboard-response","192","231739","0.0-1.0-261.0","0","0","13758","","null","","","null","28","","","","","","","","","","","","","","","NaN",""
"","S1","","html-keyboard-response","193","231991","0.0-1.0-263.0","0","0","13758","","null","","","null","29","","","","","","","","","","","","","","","",""
"","ISI","","html-keyboard-response","194","232142","0.0-1.0-264.0","0","0","13758","","null","","","null","29","NaN","","","","","","","","","","","","","","",""
"","S2","","html-keyboard-response","195","232394","0.0-1.0-265.0","0","0","13758","","null","","","null","29","","NaN","","","","","","","","","","","","","",""
"","response","","html-keyboard-response","196","232981","0.0-1.0-266.0-0.0","0","0","13758","","587","","","75","29","","","1","29","training","adjacent","AB","1","2","Q.jpg","O.jpg","0","1","0","",""
"","feedback","","html-keyboard-response","197","233983","0.0-1.0-267.0-0.0","0","0","13758","","null","","","null","29","","","","","","","","","","","","","","","",""
"","time_out","","html-keyboard-response","198","235985","0.0-1.0-269.0-0.0","0","0","13758","","null","","","null","29","","","","","","","","","","","","","","","",""
"","ITI","","html-keyboard-response","199","236987","0.0-1.0-270.0","0","0","13758","","null","","","null","29","","","","","","","","","","","","","","","NaN",""
"","S1","","html-keyboard-response","200","237238","0.0-1.0-272.0","0","0","13758","","null","","","null","30","","","","","","","","","","","","","","","",""
"","ISI","","html-keyboard-response","201","237389","0.0-1.0-273.0","0","0","13758","","null","","","null","30","NaN","","","","","","","","","","","","","","",""
"","S2","","html-keyboard-response","202","237640","0.0-1.0-274.0","0","0","13758","","null","","","null","30","","NaN","","","","","","","","","","","","","",""
"","response","","html-keyboard-response","203","238691","0.0-1.0-275.0-0.0","0","0","13758","","1049","","","68","30","","","1","30","training","adjacent","ED","5","4","L.jpg","N.jpg","1","0","0","",""
"","feedback","","html-keyboard-response","204","239703","0.0-1.0-276.0-0.0","0","0","13758","","null","","","null","30","","","","","","","","","","","","","","","",""
"","time_out","","html-keyboard-response","205","241705","0.0-1.0-278.0-0.0","0","0","13758","","null","","","null","30","","","","","","","","","","","","","","","",""
"","ITI","","html-keyboard-response","206","242707","0.0-1.0-279.0","0","0","13758","","null","","","null","30","","","","","","","","","","","","","","","NaN",""
"","S1","","html-keyboard-response","207","242958","0.0-1.0-281.0","0","0","13758","","null","","","null","31","","","","","","","","","","","","","","","",""
"","ISI","","html-keyboard-response","208","243110","0.0-1.0-282.0","0","0","13758","","null","","","null","31","NaN","","","","","","","","","","","","","","",""
"","S2","","html-keyboard-response","209","243373","0.0-1.0-283.0","0","0","13758","","null","","","null","31","","NaN","","","","","","","","","","","","","",""
"","response","","html-keyboard-response","210","243965","0.0-1.0-284.0-0.0","0","0","13758","","591","","","75","31","","","1","31","training","adjacent","DC","4","3","N.jpg","M.jpg","0","0","1","",""
"","feedback","","html-keyboard-response","211","244968","0.0-1.0-285.0-0.0","0","0","13758","","null","","","null","31","","","","","","","","","","","","","","","",""
"","ITI","","html-keyboard-response","212","245969","0.0-1.0-288.0","0","0","13758","","null","","","null","31","","","","","","","","","","","","","","","NaN",""
"","S1","","html-keyboard-response","213","246221","0.0-1.0-290.0","0","0","13758","","null","","","null","32","","","","","","","","","","","","","","","",""
"","ISI","","html-keyboard-response","214","246374","0.0-1.0-291.0","0","0","13758","","null","","","null","32","NaN","","","","","","","","","","","","","","",""
"","S2","","html-keyboard-response","215","246626","0.0-1.0-292.0","0","0","13758","","null","","","null","32","","NaN","","","","","","","","","","","","","",""
"","response","","html-keyboard-response","216","247235","0.0-1.0-293.0-0.0","0","0","13758","","609","","","68","32","","","1","32","training","adjacent","EF","5","6","L.jpg","P.jpg","1","1","1","",""
"","feedback","","html-keyboard-response","217","248237","0.0-1.0-294.0-0.0","0","0","13758","","null","","","null","32","","","","","","","","","","","","","","","",""
"","ITI","","html-keyboard-response","218","249239","0.0-1.0-297.0","0","0","13758","","null","","","null","32","","","","","","","","","","","","","","","NaN",""
"","S1","","html-keyboard-response","219","249492","0.0-1.0-299.0","0","0","13758","","null","","","null","33","","","","","","","","","","","","","","","",""
"","ISI","","html-keyboard-response","220","249643","0.0-1.0-300.0","0","0","13758","","null","","","null","33","NaN","","","","","","","","","","","","","","",""
"","S2","","html-keyboard-response","221","249894","0.0-1.0-301.0","0","0","13758","","null","","","null","33","","NaN","","","","","","","","","","","","","",""
"","response","","html-keyboard-response","222","250651","0.0-1.0-302.0-0.0","0","0","13758","","756","","","68","33","","","1","33","training","adjacent","FG","6","7","P.jpg","R.jpg","1","1","1","",""
"","feedback","","html-keyboard-response","223","251653","0.0-1.0-303.0-0.0","0","0","13758","","null","","","null","33","","","","","","","","","","","","","","","",""
"","ITI","","html-keyboard-response","224","252654","0.0-1.0-306.0","0","0","13758","","null","","","null","33","","","","","","","","","","","","","","","NaN",""
"","S1","","html-keyboard-response","225","252906","0.0-1.0-308.0","0","0","13758","","null","","","null","34","","","","","","","","","","","","","","","",""
"","ISI","","html-keyboard-response","226","253057","0.0-1.0-309.0","0","0","13758","","null","","","null","34","NaN","","","","","","","","","","","","","","",""
"","S2","","html-keyboard-response","227","253309","0.0-1.0-310.0","0","0","13758","","null","","","null","34","","NaN","","","","","","","","","","","","","",""
"","response","","html-keyboard-response","228","253951","0.0-1.0-311.0-0.0","0","0","13758","","641","","","68","34","","","1","34","training","adjacent","CD","3","4","M.jpg","N.jpg","1","1","1","",""
"","feedback","","html-keyboard-response","229","254954","0.0-1.0-312.0-0.0","0","0","13758","","null","","","null","34","","","","","","","","","","","","","","","",""
"","ITI","","html-keyboard-response","230","255955","0.0-1.0-315.0","0","0","13758","","null","","","null","34","","","","","","","","","","","","","","","NaN",""
"","S1","","html-keyboard-response","231","256206","0.0-1.0-317.0","0","0","13758","","null","","","null","35","","","","","","","","","","","","","","","",""
"","ISI","","html-keyboard-response","232","256357","0.0-1.0-318.0","0","0","13758","","null","","","null","35","NaN","","","","","","","","","","","","","","",""
"","S2","","html-keyboard-response","233","256609","0.0-1.0-319.0","0","0","13758","","null","","","null","35","","NaN","","","","","","","","","","","","","",""
"","response","","html-keyboard-response","234","257897","0.0-1.0-320.0-0.0","0","0","13758","","1287","","","75","35","","","1","35","training","adjacent","EF","5","6","L.jpg","P.jpg","0","1","0","",""
"","feedback","","html-keyboard-response","235","258900","0.0-1.0-321.0-0.0","0","0","13758","","null","","","null","35","","","","","","","","","","","","","","","",""
"","time_out","","html-keyboard-response","236","260901","0.0-1.0-323.0-0.0","0","0","13758","","null","","","null","35","","","","","","","","","","","","","","","",""
"","ITI","","html-keyboard-response","237","261902","0.0-1.0-324.0","0","0","13758","","null","","","null","35","","","","","","","","","","","","","","","NaN",""
"","S1","","html-keyboard-response","238","262154","0.0-1.0-326.0","0","0","13758","","null","","","null","36","","","","","","","","","","","","","","","",""
"","ISI","","html-keyboard-response","239","262306","0.0-1.0-327.0","0","0","13758","","null","","","null","36","NaN","","","","","","","","","","","","","","",""
"","S2","","html-keyboard-response","240","262558","0.0-1.0-328.0","0","0","13758","","null","","","null","36","","NaN","","","","","","","","","","","","","",""
"","response","","html-keyboard-response","241","263177","0.0-1.0-329.0-0.0","0","0","13758","","618","","","68","36","","","1","36","training","adjacent","FE","6","5","P.jpg","L.jpg","1","0","0","",""
"","feedback","","html-keyboard-response","242","264178","0.0-1.0-330.0-0.0","0","0","13758","","null","","","null","36","","","","","","","","","","","","","","","",""
"","time_out","","html-keyboard-response","243","266181","0.0-1.0-332.0-0.0","0","0","13758","","null","","","null","36","","","","","","","","","","","","","","","",""
"","ITI","","html-keyboard-response","244","267182","0.0-1.0-333.0","0","0","13758","","null","","","null","36","","","","","","","","","","","","","","","NaN",""
"","S1","","html-keyboard-response","245","267435","0.0-1.0-335.0","0","0","13758","","null","","","null","37","","","","","","","","","","","","","","","",""
"","ISI","","html-keyboard-response","246","267586","0.0-1.0-336.0","0","0","13758","","null","","","null","37","NaN","","","","","","","","","","","","","","",""
"","S2","","html-keyboard-response","247","267837","0.0-1.0-337.0","0","0","13758","","null","","","null","37","","NaN","","","","","","","","","","","","","",""
"","response","","html-keyboard-response","248","268495","0.0-1.0-338.0-0.0","0","0","13758","","658","","","68","37","","","1","37","training","adjacent","CD","3","4","M.jpg","N.jpg","1","1","1","",""
"","feedback","","html-keyboard-response","249","269497","0.0-1.0-339.0-0.0","0","0","13758","","null","","","null","37","","","","","","","","","","","","","","","",""
"","ITI","","html-keyboard-response","250","270498","0.0-1.0-342.0","0","0","13758","","null","","","null","37","","","","","","","","","","","","","","","NaN",""
"","S1","","html-keyboard-response","251","270749","0.0-1.0-344.0","0","0","13758","","null","","","null","38","","","","","","","","","","","","","","","",""
"","ISI","","html-keyboard-response","252","270900","0.0-1.0-345.0","0","0","13758","","null","","","null","38","NaN","","","","","","","","","","","","","","",""
"","S2","","html-keyboard-response","253","271151","0.0-1.0-346.0","0","0","13758","","null","","","null","38","","NaN","","","","","","","","","","","","","",""
"","response","","html-keyboard-response","254","272010","0.0-1.0-347.0-0.0","0","0","13758","","858","","","75","38","","","1","38","training","adjacent","FE","6","5","P.jpg","L.jpg","0","0","1","",""
"","feedback","","html-keyboard-response","255","273013","0.0-1.0-348.0-0.0","0","0","13758","","null","","","null","38","","","","","","","","","","","","","","","",""
"","ITI","","html-keyboard-response","256","274014","0.0-1.0-351.0","0","0","13758","","null","","","null","38","","","","","","","","","","","","","","","NaN",""
"","S1","","html-keyboard-response","257","274266","0.0-1.0-353.0","0","0","13758","","null","","","null","39","","","","","","","","","","","","","","","",""
"","ISI","","html-keyboard-response","258","274417","0.0-1.0-354.0","0","0","13758","","null","","","null","39","NaN","","","","","","","","","","","","","","",""
"","S2","","html-keyboard-response","259","274669","0.0-1.0-355.0","0","0","13758","","null","","","null","39","","NaN","","","","","","","","","","","","","",""
"","response","","html-keyboard-response","260","275433","0.0-1.0-356.0-0.0","0","0","13758","","764","","","68","39","","","1","39","training","adjacent","GF","7","6","R.jpg","P.jpg","1","0","0","",""
"","feedback","","html-keyboard-response","261","276434","0.0-1.0-357.0-0.0","0","0","13758","","null","","","null","39","","","","","","","","","","","","","","","",""
"","time_out","","html-keyboard-response","262","278436","0.0-1.0-359.0-0.0","0","0","13758","","null","","","null","39","","","","","","","","","","","","","","","",""
"","ITI","","html-keyboard-response","263","279438","0.0-1.0-360.0","0","0","13758","","null","","","null","39","","","","","","","","","","","","","","","NaN",""
"","S1","","html-keyboard-response","264","279688","0.0-1.0-362.0","0","0","13758","","null","","","null","40","","","","","","","","","","","","","","","",""
"","ISI","","html-keyboard-response","265","279841","0.0-1.0-363.0","0","0","13758","","null","","","null","40","NaN","","","","","","","","","","","","","","",""
"","S2","","html-keyboard-response","266","280092","0.0-1.0-364.0","0","0","13758","","null","","","null","40","","NaN","","","","","","","","","","","","","",""
"","response","","html-keyboard-response","267","280806","0.0-1.0-365.0-0.0","0","0","13758","","714","","","68","40","","","1","40","training","adjacent","AB","1","2","Q.jpg","O.jpg","1","1","1","",""
"","feedback","","html-keyboard-response","268","281808","0.0-1.0-366.0-0.0","0","0","13758","","null","","","null","40","","","","","","","","","","","","","","","",""
"","ITI","","html-keyboard-response","269","282810","0.0-1.0-369.0","0","0","13758","","null","","","null","40","","","","","","","","","","","","","","","NaN",""
"","S1","","html-keyboard-response","270","283062","0.0-1.0-371.0","0","0","13758","","null","","","null","41","","","","","","","","","","","","","","","",""
"","ISI","","html-keyboard-response","271","283213","0.0-1.0-372.0","0","0","13758","","null","","","null","41","NaN","","","","","","","","","","","","","","",""
"","S2","","html-keyboard-response","272","283466","0.0-1.0-373.0","0","0","13758","","null","","","null","41","","NaN","","","","","","","","","","","","","",""
"","response","","html-keyboard-response","273","284135","0.0-1.0-374.0-0.0","0","0","13758","","668","","","75","41","","","1","41","training","adjacent","DC","4","3","N.jpg","M.jpg","0","0","1","",""
"","feedback","","html-keyboard-response","274","285136","0.0-1.0-375.0-0.0","0","0","13758","","null","","","null","41","","","","","","","","","","","","","","","",""
"","ITI","","html-keyboard-response","275","286138","0.0-1.0-378.0","0","0","13758","","null","","","null","41","","","","","","","","","","","","","","","NaN",""
"","S1","","html-keyboard-response","276","286389","0.0-1.0-380.0","0","0","13758","","null","","","null","42","","","","","","","","","","","","","","","",""
"","ISI","","html-keyboard-response","277","286541","0.0-1.0-381.0","0","0","13758","","null","","","null","42","NaN","","","","","","","","","","","","","","",""
"","S2","","html-keyboard-response","278","286792","0.0-1.0-382.0","0","0","13758","","null","","","null","42","","NaN","","","","","","","","","","","","","",""
"","response","","html-keyboard-response","279","287594","0.0-1.0-383.0-0.0","0","0","13758","","801","","","75","42","","","1","42","training","adjacent","CD","3","4","M.jpg","N.jpg","0","1","0","",""
"","feedback","","html-keyboard-response","280","288596","0.0-1.0-384.0-0.0","0","0","13758","","null","","","null","42","","","","","","","","","","","","","","","",""
"","time_out","","html-keyboard-response","281","290597","0.0-1.0-386.0-0.0","0","0","13758","","null","","","null","42","","","","","","","","","","","","","","","",""
"","ITI","","html-keyboard-response","282","291599","0.0-1.0-387.0","0","0","13758","","null","","","null","42","","","","","","","","","","","","","","","NaN",""
"","S1","","html-keyboard-response","283","291851","0.0-1.0-389.0","0","0","13758","","null","","","null","43","","","","","","","","","","","","","","","",""
"","ISI","","html-keyboard-response","284","292003","0.0-1.0-390.0","0","0","13758","","null","","","null","43","NaN","","","","","","","","","","","","","","",""
"","S2","","html-keyboard-response","285","292254","0.0-1.0-391.0","0","0","13758","","null","","","null","43","","NaN","","","","","","","","","","","","","",""
"","response","","html-keyboard-response","286","292756","0.0-1.0-392.0-0.0","0","0","13758","","502","","","68","43","","","1","43","training","adjacent","DC","4","3","N.jpg","M.jpg","1","0","0","",""
"","feedback","","html-keyboard-response","287","293758","0.0-1.0-393.0-0.0","0","0","13758","","null","","","null","43","","","","","","","","","","","","","","","",""
"","time_out","","html-keyboard-response","288","295760","0.0-1.0-395.0-0.0","0","0","13758","","null","","","null","43","","","","","","","","","","","","","","","",""
"","ITI","","html-keyboard-response","289","296761","0.0-1.0-396.0","0","0","13758","","null","","","null","43","","","","","","","","","","","","","","","NaN",""
"","S1","","html-keyboard-response","290","297012","0.0-1.0-398.0","0","0","13758","","null","","","null","44","","","","","","","","","","","","","","","",""
"","ISI","","html-keyboard-response","291","297163","0.0-1.0-399.0","0","0","13758","","null","","","null","44","NaN","","","","","","","","","","","","","","",""
"","S2","","html-keyboard-response","292","297415","0.0-1.0-400.0","0","0","13758","","null","","","null","44","","NaN","","","","","","","","","","","","","",""
"","response","","html-keyboard-response","293","297788","0.0-1.0-401.0-0.0","0","0","13758","","372","","","75","44","","","1","44","training","adjacent","FG","6","7","P.jpg","R.jpg","0","1","0","",""
"","feedback","","html-keyboard-response","294","298790","0.0-1.0-402.0-0.0","0","0","13758","","null","","","null","44","","","","","","","","","","","","","","","",""
"","time_out","","html-keyboard-response","295","300792","0.0-1.0-404.0-0.0","0","0","13758","","null","","","null","44","","","","","","","","","","","","","","","",""
"","ITI","","html-keyboard-response","296","301794","0.0-1.0-405.0","0","0","13758","","null","","","null","44","","","","","","","","","","","","","","","NaN",""
"","S1","","html-keyboard-response","297","302046","0.0-1.0-407.0","0","0","13758","","null","","","null","45","","","","","","","","","","","","","","","",""
"","ISI","","html-keyboard-response","298","302197","0.0-1.0-408.0","0","0","13758","","null","","","null","45","NaN","","","","","","","","","","","","","","",""
"","S2","","html-keyboard-response","299","302448","0.0-1.0-409.0","0","0","13758","","null","","","null","45","","NaN","","","","","","","","","","","","","",""
"","response","","html-keyboard-response","300","303169","0.0-1.0-410.0-0.0","0","0","13758","","720","","","75","45","","","1","45","training","adjacent","BA","2","1","O.jpg","Q.jpg","0","0","1","",""
"","feedback","","html-keyboard-response","301","304180","0.0-1.0-411.0-0.0","0","0","13758","","null","","","null","45","","","","","","","","","","","","","","","",""
"","ITI","","html-keyboard-response","302","305182","0.0-1.0-414.0","0","0","13758","","null","","","null","45","","","","","","","","","","","","","","","NaN",""
"","S1","","html-keyboard-response","303","305434","0.0-1.0-416.0","0","0","13758","","null","","","null","46","","","","","","","","","","","","","","","",""
"","ISI","","html-keyboard-response","304","305586","0.0-1.0-417.0","0","0","13758","","null","","","null","46","NaN","","","","","","","","","","","","","","",""
"","S2","","html-keyboard-response","305","305837","0.0-1.0-418.0","0","0","13758","","null","","","null","46","","NaN","","","","","","","","","","","","","",""
"","response","","html-keyboard-response","306","306384","0.0-1.0-419.0-0.0","0","0","13758","","547","","","75","46","","","1","46","training","adjacent","BA","2","1","O.jpg","Q.jpg","0","0","1","",""
"","feedback","","html-keyboard-response","307","307386","0.0-1.0-420.0-0.0","0","0","13758","","null","","","null","46","","","","","","","","","","","","","","","",""
"","ITI","","html-keyboard-response","308","308388","0.0-1.0-423.0","0","0","13758","","null","","","null","46","","","","","","","","","","","","","","","NaN",""
"","S1","","html-keyboard-response","309","308639","0.0-1.0-425.0","0","0","13758","","null","","","null","47","","","","","","","","","","","","","","","",""
"","ISI","","html-keyboard-response","310","308791","0.0-1.0-426.0","0","0","13758","","null","","","null","47","NaN","","","","","","","","","","","","","","",""
"","S2","","html-keyboard-response","311","309042","0.0-1.0-427.0","0","0","13758","","null","","","null","47","","NaN","","","","","","","","","","","","","",""
"","response","","html-keyboard-response","312","309664","0.0-1.0-428.0-0.0","0","0","13758","","622","","","68","47","","","1","47","training","adjacent","ED","5","4","L.jpg","N.jpg","1","0","0","",""
"","feedback","","html-keyboard-response","313","310666","0.0-1.0-429.0-0.0","0","0","13758","","null","","","null","47","","","","","","","","","","","","","","","",""
"","time_out","","html-keyboard-response","314","312669","0.0-1.0-431.0-0.0","0","0","13758","","null","","","null","47","","","","","","","","","","","","","","","",""
"","ITI","","html-keyboard-response","315","313670","0.0-1.0-432.0","0","0","13758","","null","","","null","47","","","","","","","","","","","","","","","NaN",""
"","block_over","","html-keyboard-response","316","329116","0.0-1.0-433.0-0.0","0","0","13758","","15446","","","32","47","","","","","","","","","","","","","","","",""
"","S1","","html-keyboard-response","317","329369","0.0-1.0-434.0","0","0","13758","","null","","","null","48","","","","","","","","","","","","","","","",""
"","ISI","","html-keyboard-response","318","329519","0.0-1.0-435.0","0","0","13758","","null","","","null","48","NaN","","","","","","","","","","","","","","",""
"","S2","","html-keyboard-response","319","329771","0.0-1.0-436.0","0","0","13758","","null","","","null","48","","NaN","","","","","","","","","","","","","",""
"","response","","html-keyboard-response","320","330254","0.0-1.0-437.0-0.0","0","0","13758","","483","","","68","48","","","2","48","training","adjacent","GF","7","6","R.jpg","P.jpg","1","0","0","",""
"","feedback","","html-keyboard-response","321","331256","0.0-1.0-438.0-0.0","0","0","13758","","null","","","null","48","","","","","","","","","","","","","","","",""
"","time_out","","html-keyboard-response","322","333257","0.0-1.0-440.0-0.0","0","0","13758","","null","","","null","48","","","","","","","","","","","","","","","",""
"","ITI","","html-keyboard-response","323","334259","0.0-1.0-441.0","0","0","13758","","null","","","null","48","","","","","","","","","","","","","","","NaN",""
"","S1","","html-keyboard-response","324","334513","0.0-1.0-443.0","0","0","13758","","null","","","null","49","","","","","","","","","","","","","","","",""
"","ISI","","html-keyboard-response","325","334665","0.0-1.0-444.0","0","0","13758","","null","","","null","49","NaN","","","","","","","","","","","","","","",""
"","S2","","html-keyboard-response","326","334916","0.0-1.0-445.0","0","0","13758","","null","","","null","49","","NaN","","","","","","","","","","","","","",""
"","response","","html-keyboard-response","327","335353","0.0-1.0-446.0-0.0","0","0","13758","","437","","","68","49","","","2","49","training","adjacent","ED","5","4","L.jpg","N.jpg","1","0","0","",""
"","feedback","","html-keyboard-response","328","336355","0.0-1.0-447.0-0.0","0","0","13758","","null","","","null","49","","","","","","","","","","","","","","","",""
"","time_out","","html-keyboard-response","329","338356","0.0-1.0-449.0-0.0","0","0","13758","","null","","","null","49","","","","","","","","","","","","","","","",""
"","ITI","","html-keyboard-response","330","339357","0.0-1.0-450.0","0","0","13758","","null","","","null","49","","","","","","","","","","","","","","","NaN",""
"","S1","","html-keyboard-response","331","339609","0.0-1.0-452.0","0","0","13758","","null","","","null","50","","","","","","","","","","","","","","","",""
"","ISI","","html-keyboard-response","332","339761","0.0-1.0-453.0","0","0","13758","","null","","","null","50","NaN","","","","","","","","","","","","","","",""
"","S2","","html-keyboard-response","333","340012","0.0-1.0-454.0","0","0","13758","","null","","","null","50","","NaN","","","","","","","","","","","","","",""
"","response","","html-keyboard-response","334","340467","0.0-1.0-455.0-0.0","0","0","13758","","454","","","68","50","","","2","50","training","adjacent","CB","3","2","M.jpg","O.jpg","1","0","0","",""
"","feedback","","html-keyboard-response","335","341468","0.0-1.0-456.0-0.0","0","0","13758","","null","","","null","50","","","","","","","","","","","","","","","",""
"","time_out","","html-keyboard-response","336","343469","0.0-1.0-458.0-0.0","0","0","13758","","null","","","null","50","","","","","","","","","","","","","","","",""
"","ITI","","html-keyboard-response","337","344471","0.0-1.0-459.0","0","0","13758","","null","","","null","50","","","","","","","","","","","","","","","NaN",""
"","S1","","html-keyboard-response","338","344723","0.0-1.0-461.0","0","0","13758","","null","","","null","51","","","","","","","","","","","","","","","",""
"","ISI","","html-keyboard-response","339","344874","0.0-1.0-462.0","0","0","13758","","null","","","null","51","NaN","","","","","","","","","","","","","","",""
"","S2","","html-keyboard-response","340","345125","0.0-1.0-463.0","0","0","13758","","null","","","null","51","","NaN","","","","","","","","","","","","","",""
"","response","","html-keyboard-response","341","345943","0.0-1.0-464.0-0.0","0","0","13758","","818","","","75","51","","","2","51","training","adjacent","BC","2","3","O.jpg","M.jpg","0","1","0","",""
"","feedback","","html-keyboard-response","342","346945","0.0-1.0-465.0-0.0","0","0","13758","","null","","","null","51","","","","","","","","","","","","","","","",""
"","time_out","","html-keyboard-response","343","348947","0.0-1.0-467.0-0.0","0","0","13758","","null","","","null","51","","","","","","","","","","","","","","","",""
"","ITI","","html-keyboard-response","344","349948","0.0-1.0-468.0","0","0","13758","","null","","","null","51","","","","","","","","","","","","","","","NaN",""
"","S1","","html-keyboard-response","345","350199","0.0-1.0-470.0","0","0","13758","","null","","","null","52","","","","","","","","","","","","","","","",""
"","ISI","","html-keyboard-response","346","350356","0.0-1.0-471.0","0","0","13758","","null","","","null","52","NaN","","","","","","","","","","","","","","",""
"","S2","","html-keyboard-response","347","350608","0.0-1.0-472.0","0","0","13758","","null","","","null","52","","NaN","","","","","","","","","","","","","",""
"","response","","html-keyboard-response","348","351241","0.0-1.0-473.0-0.0","0","0","13758","","633","","","75","52","","","2","52","training","adjacent","CB","3","2","M.jpg","O.jpg","0","0","1","",""
"","feedback","","html-keyboard-response","349","352251","0.0-1.0-474.0-0.0","0","0","13758","","null","","","null","52","","","","","","","","","","","","","","","",""
"","ITI","","html-keyboard-response","350","353254","0.0-1.0-477.0","0","0","13758","","null","","","null","52","","","","","","","","","","","","","","","NaN",""
"","S1","","html-keyboard-response","351","353505","0.0-1.0-479.0","0","0","13758","","null","","","null","53","","","","","","","","","","","","","","","",""
"","ISI","","html-keyboard-response","352","353658","0.0-1.0-480.0","0","0","13758","","null","","","null","53","NaN","","","","","","","","","","","","","","",""
"","S2","","html-keyboard-response","353","353909","0.0-1.0-481.0","0","0","13758","","null","","","null","53","","NaN","","","","","","","","","","","","","",""
"","response","","html-keyboard-response","354","354443","0.0-1.0-482.0-0.0","0","0","13758","","534","","","68","53","","","2","53","training","adjacent","EF","5","6","L.jpg","P.jpg","1","1","1","",""
"","feedback","","html-keyboard-response","355","355445","0.0-1.0-483.0-0.0","0","0","13758","","null","","","null","53","","","","","","","","","","","","","","","",""
"","ITI","","html-keyboard-response","356","356446","0.0-1.0-486.0","0","0","13758","","null","","","null","53","","","","","","","","","","","","","","","NaN",""
"","S1","","html-keyboard-response","357","356697","0.0-1.0-488.0","0","0","13758","","null","","","null","54","","","","","","","","","","","","","","","",""
"","ISI","","html-keyboard-response","358","356848","0.0-1.0-489.0","0","0","13758","","null","","","null","54","NaN","","","","","","","","","","","","","","",""
"","S2","","html-keyboard-response","359","357101","0.0-1.0-490.0","0","0","13758","","null","","","null","54","","NaN","","","","","","","","","","","","","",""
"","response","","html-keyboard-response","360","357928","0.0-1.0-491.0-0.0","0","0","13758","","826","","","68","54","","","2","54","training","adjacent","DC","4","3","N.jpg","M.jpg","1","0","0","",""
"","feedback","","html-keyboard-response","361","358929","0.0-1.0-492.0-0.0","0","0","13758","","null","","","null","54","","","","","","","","","","","","","","","",""
"","time_out","","html-keyboard-response","362","360930","0.0-1.0-494.0-0.0","0","0","13758","","null","","","null","54","","","","","","","","","","","","","","","",""
"","ITI","","html-keyboard-response","363","361933","0.0-1.0-495.0","0","0","13758","","null","","","null","54","","","","","","","","","","","","","","","NaN",""
"","S1","","html-keyboard-response","364","362184","0.0-1.0-497.0","0","0","13758","","null","","","null","55","","","","","","","","","","","","","","","",""
"","ISI","","html-keyboard-response","365","362336","0.0-1.0-498.0","0","0","13758","","null","","","null","55","NaN","","","","","","","","","","","","","","",""
"","S2","","html-keyboard-response","366","362588","0.0-1.0-499.0","0","0","13758","","null","","","null","55","","NaN","","","","","","","","","","","","","",""
"","response","","html-keyboard-response","367","363103","0.0-1.0-500.0-0.0","0","0","13758","","515","","","68","55","","","2","55","training","adjacent","BC","2","3","O.jpg","M.jpg","1","1","1","",""
"","feedback","","html-keyboard-response","368","364105","0.0-1.0-501.0-0.0","0","0","13758","","null","","","null","55","","","","","","","","","","","","","","","",""
"","ITI","","html-keyboard-response","369","365107","0.0-1.0-504.0","0","0","13758","","null","","","null","55","","","","","","","","","","","","","","","NaN",""
"","S1","","html-keyboard-response","370","365358","0.0-1.0-506.0","0","0","13758","","null","","","null","56","","","","","","","","","","","","","","","",""
"","ISI","","html-keyboard-response","371","365510","0.0-1.0-507.0","0","0","13758","","null","","","null","56","NaN","","","","","","","","","","","","","","",""
"","S2","","html-keyboard-response","372","365768","0.0-1.0-508.0","0","0","13758","","null","","","null","56","","NaN","","","","","","","","","","","","","",""
"","response","","html-keyboard-response","373","366359","0.0-1.0-509.0-0.0","0","0","13758","","590","","","75","56","","","2","56","training","adjacent","AB","1","2","Q.jpg","O.jpg","0","1","0","",""
"","feedback","","html-keyboard-response","374","367360","0.0-1.0-510.0-0.0","0","0","13758","","null","","","null","56","","","","","","","","","","","","","","","",""
"","time_out","","html-keyboard-response","375","369361","0.0-1.0-512.0-0.0","0","0","13758","","null","","","null","56","","","","","","","","","","","","","","","",""
"","ITI","","html-keyboard-response","376","370363","0.0-1.0-513.0","0","0","13758","","null","","","null","56","","","","","","","","","","","","","","","NaN",""
"","S1","","html-keyboard-response","377","370614","0.0-1.0-515.0","0","0","13758","","null","","","null","57","","","","","","","","","","","","","","","",""
"","ISI","","html-keyboard-response","378","370765","0.0-1.0-516.0","0","0","13758","","null","","","null","57","NaN","","","","","","","","","","","","","","",""
"","S2","","html-keyboard-response","379","371018","0.0-1.0-517.0","0","0","13758","","null","","","null","57","","NaN","","","","","","","","","","","","","",""
"","response","","html-keyboard-response","380","371708","0.0-1.0-518.0-0.0","0","0","13758","","690","","","75","57","","","2","57","training","adjacent","DE","4","5","N.jpg","L.jpg","0","1","0","",""
"","feedback","","html-keyboard-response","381","372710","0.0-1.0-519.0-0.0","0","0","13758","","null","","","null","57","","","","","","","","","","","","","","","",""
"","time_out","","html-keyboard-response","382","374712","0.0-1.0-521.0-0.0","0","0","13758","","null","","","null","57","","","","","","","","","","","","","","","",""
"","ITI","","html-keyboard-response","383","375714","0.0-1.0-522.0","0","0","13758","","null","","","null","57","","","","","","","","","","","","","","","NaN",""
"","S1","","html-keyboard-response","384","375965","0.0-1.0-524.0","0","0","13758","","null","","","null","58","","","","","","","","","","","","","","","",""
"","ISI","","html-keyboard-response","385","376117","0.0-1.0-525.0","0","0","13758","","null","","","null","58","NaN","","","","","","","","","","","","","","",""
"","S2","","html-keyboard-response","386","376368","0.0-1.0-526.0","0","0","13758","","null","","","null","58","","NaN","","","","","","","","","","","","","",""
"","response","","html-keyboard-response","387","377733","0.0-1.0-527.0-0.0","0","0","13758","","1363","","","68","58","","","2","58","training","adjacent","AB","1","2","Q.jpg","O.jpg","1","1","1","",""
"","feedback","","html-keyboard-response","388","378735","0.0-1.0-528.0-0.0","0","0","13758","","null","","","null","58","","","","","","","","","","","","","","","",""
"","ITI","","html-keyboard-response","389","379736","0.0-1.0-531.0","0","0","13758","","null","","","null","58","","","","","","","","","","","","","","","NaN",""
"","S1","","html-keyboard-response","390","379988","0.0-1.0-533.0","0","0","13758","","null","","","null","59","","","","","","","","","","","","","","","",""
"","ISI","","html-keyboard-response","391","380140","0.0-1.0-534.0","0","0","13758","","null","","","null","59","NaN","","","","","","","","","","","","","","",""
"","S2","","html-keyboard-response","392","380392","0.0-1.0-535.0","0","0","13758","","null","","","null","59","","NaN","","","","","","","","","","","","","",""
"","response","","html-keyboard-response","393","380964","0.0-1.0-536.0-0.0","0","0","13758","","572","","","75","59","","","2","59","training","adjacent","CB","3","2","M.jpg","O.jpg","0","0","1","",""
"","feedback","","html-keyboard-response","394","381966","0.0-1.0-537.0-0.0","0","0","13758","","null","","","null","59","","","","","","","","","","","","","","","",""
"","ITI","","html-keyboard-response","395","382967","0.0-1.0-540.0","0","0","13758","","null","","","null","59","","","","","","","","","","","","","","","NaN",""
"","S1","","html-keyboard-response","396","383218","0.0-1.0-542.0","0","0","13758","","null","","","null","60","","","","","","","","","","","","","","","",""
"","ISI","","html-keyboard-response","397","383369","0.0-1.0-543.0","0","0","13758","","null","","","null","60","NaN","","","","","","","","","","","","","","",""
"","S2","","html-keyboard-response","398","383627","0.0-1.0-544.0","0","0","13758","","null","","","null","60","","NaN","","","","","","","","","","","","","",""
"","response","","html-keyboard-response","399","384199","0.0-1.0-545.0-0.0","0","0","13758","","571","","","75","60","","","2","60","training","adjacent","BC","2","3","O.jpg","M.jpg","0","1","0","",""
"","feedback","","html-keyboard-response","400","385201","0.0-1.0-546.0-0.0","0","0","13758","","null","","","null","60","","","","","","","","","","","","","","","",""
"","time_out","","html-keyboard-response","401","387203","0.0-1.0-548.0-0.0","0","0","13758","","null","","","null","60","","","","","","","","","","","","","","","",""
"","ITI","","html-keyboard-response","402","388204","0.0-1.0-549.0","0","0","13758","","null","","","null","60","","","","","","","","","","","","","","","NaN",""
"","S1","","html-keyboard-response","403","388455","0.0-1.0-551.0","0","0","13758","","null","","","null","61","","","","","","","","","","","","","","","",""
"","ISI","","html-keyboard-response","404","388606","0.0-1.0-552.0","0","0","13758","","null","","","null","61","NaN","","","","","","","","","","","","","","",""
"","S2","","html-keyboard-response","405","388858","0.0-1.0-553.0","0","0","13758","","null","","","null","61","","NaN","","","","","","","","","","","","","",""
"","response","","html-keyboard-response","406","390323","0.0-1.0-554.0-0.0","0","0","13758","","1465","","","68","61","","","2","61","training","adjacent","DE","4","5","N.jpg","L.jpg","1","1","1","",""
"","feedback","","html-keyboard-response","407","391325","0.0-1.0-555.0-0.0","0","0","13758","","null","","","null","61","","","","","","","","","","","","","","","",""
"","ITI","","html-keyboard-response","408","392327","0.0-1.0-558.0","0","0","13758","","null","","","null","61","","","","","","","","","","","","","","","NaN",""
"","S1","","html-keyboard-response","409","392579","0.0-1.0-560.0","0","0","13758","","null","","","null","62","","","","","","","","","","","","","","","",""
"","ISI","","html-keyboard-response","410","392730","0.0-1.0-561.0","0","0","13758","","null","","","null","62","NaN","","","","","","","","","","","","","","",""
"","S2","","html-keyboard-response","411","392984","0.0-1.0-562.0","0","0","13758","","null","","","null","62","","NaN","","","","","","","","","","","","","",""
"","response","","html-keyboard-response","412","393806","0.0-1.0-563.0-0.0","0","0","13758","","821","","","68","62","","","2","62","training","adjacent","CD","3","4","M.jpg","N.jpg","1","1","1","",""
"","feedback","","html-keyboard-response","413","394807","0.0-1.0-564.0-0.0","0","0","13758","","null","","","null","62","","","","","","","","","","","","","","","",""
"","ITI","","html-keyboard-response","414","395808","0.0-1.0-567.0","0","0","13758","","null","","","null","62","","","","","","","","","","","","","","","NaN",""
"","S1","","html-keyboard-response","415","396059","0.0-1.0-569.0","0","0","13758","","null","","","null","63","","","","","","","","","","","","","","","",""
"","ISI","","html-keyboard-response","416","396211","0.0-1.0-570.0","0","0","13758","","null","","","null","63","NaN","","","","","","","","","","","","","","",""
"","S2","","html-keyboard-response","417","396464","0.0-1.0-571.0","0","0","13758","","null","","","null","63","","NaN","","","","","","","","","","","","","",""
"","response","","html-keyboard-response","418","397690","0.0-1.0-572.0-0.0","0","0","13758","","1226","","","75","63","","","2","63","training","adjacent","FG","6","7","P.jpg","R.jpg","0","1","0","",""
"","feedback","","html-keyboard-response","419","398692","0.0-1.0-573.0-0.0","0","0","13758","","null","","","null","63","","","","","","","","","","","","","","","",""
"","time_out","","html-keyboard-response","420","400693","0.0-1.0-575.0-0.0","0","0","13758","","null","","","null","63","","","","","","","","","","","","","","","",""
"","ITI","","html-keyboard-response","421","401695","0.0-1.0-576.0","0","0","13758","","null","","","null","63","","","","","","","","","","","","","","","NaN",""
"","S1","","html-keyboard-response","422","401946","0.0-1.0-578.0","0","0","13758","","null","","","null","64","","","","","","","","","","","","","","","",""
"","ISI","","html-keyboard-response","423","402098","0.0-1.0-579.0","0","0","13758","","null","","","null","64","NaN","","","","","","","","","","","","","","",""
"","S2","","html-keyboard-response","424","402351","0.0-1.0-580.0","0","0","13758","","null","","","null","64","","NaN","","","","","","","","","","","","","",""
"","response","","html-keyboard-response","425","403196","0.0-1.0-581.0-0.0","0","0","13758","","845","","","68","64","","","2","64","training","adjacent","FE","6","5","P.jpg","L.jpg","1","0","0","",""
"","feedback","","html-keyboard-response","426","404199","0.0-1.0-582.0-0.0","0","0","13758","","null","","","null","64","","","","","","","","","","","","","","","",""
"","time_out","","html-keyboard-response","427","406200","0.0-1.0-584.0-0.0","0","0","13758","","null","","","null","64","","","","","","","","","","","","","","","",""
"","ITI","","html-keyboard-response","428","407202","0.0-1.0-585.0","0","0","13758","","null","","","null","64","","","","","","","","","","","","","","","NaN",""
"","S1","","html-keyboard-response","429","407454","0.0-1.0-587.0","0","0","13758","","null","","","null","65","","","","","","","","","","","","","","","",""
"","ISI","","html-keyboard-response","430","407605","0.0-1.0-588.0","0","0","13758","","null","","","null","65","NaN","","","","","","","","","","","","","","",""
"","S2","","html-keyboard-response","431","407856","0.0-1.0-589.0","0","0","13758","","null","","","null","65","","NaN","","","","","","","","","","","","","",""
"","response","","html-keyboard-response","432","408819","0.0-1.0-590.0-0.0","0","0","13758","","962","","","68","65","","","2","65","training","adjacent","AB","1","2","Q.jpg","O.jpg","1","1","1","",""
"","feedback","","html-keyboard-response","433","409821","0.0-1.0-591.0-0.0","0","0","13758","","null","","","null","65","","","","","","","","","","","","","","","",""
"","ITI","","html-keyboard-response","434","410822","0.0-1.0-594.0","0","0","13758","","null","","","null","65","","","","","","","","","","","","","","","NaN",""
"","S1","","html-keyboard-response","435","411075","0.0-1.0-596.0","0","0","13758","","null","","","null","66","","","","","","","","","","","","","","","",""
"","ISI","","html-keyboard-response","436","411226","0.0-1.0-597.0","0","0","13758","","null","","","null","66","NaN","","","","","","","","","","","","","","",""
"","S2","","html-keyboard-response","437","411477","0.0-1.0-598.0","0","0","13758","","null","","","null","66","","NaN","","","","","","","","","","","","","",""
"","response","","html-keyboard-response","438","412237","0.0-1.0-599.0-0.0","0","0","13758","","760","","","75","66","","","2","66","training","adjacent","DC","4","3","N.jpg","M.jpg","0","0","1","",""
"","feedback","","html-keyboard-response","439","413239","0.0-1.0-600.0-0.0","0","0","13758","","null","","","null","66","","","","","","","","","","","","","","","",""
"","ITI","","html-keyboard-response","440","414241","0.0-1.0-603.0","0","0","13758","","null","","","null","66","","","","","","","","","","","","","","","NaN",""
"","S1","","html-keyboard-response","441","414494","0.0-1.0-605.0","0","0","13758","","null","","","null","67","","","","","","","","","","","","","","","",""
"","ISI","","html-keyboard-response","442","414646","0.0-1.0-606.0","0","0","13758","","null","","","null","67","NaN","","","","","","","","","","","","","","",""
"","S2","","html-keyboard-response","443","414898","0.0-1.0-607.0","0","0","13758","","null","","","null","67","","NaN","","","","","","","","","","","","","",""
"","response","","html-keyboard-response","444","416128","0.0-1.0-608.0-0.0","0","0","13758","","1230","","","68","67","","","2","67","training","adjacent","BA","2","1","O.jpg","Q.jpg","1","0","0","",""
"","feedback","","html-keyboard-response","445","417130","0.0-1.0-609.0-0.0","0","0","13758","","null","","","null","67","","","","","","","","","","","","","","","",""
"","time_out","","html-keyboard-response","446","419131","0.0-1.0-611.0-0.0","0","0","13758","","null","","","null","67","","","","","","","","","","","","","","","",""
"","ITI","","html-keyboard-response","447","420132","0.0-1.0-612.0","0","0","13758","","null","","","null","67","","","","","","","","","","","","","","","NaN",""
"","S1","","html-keyboard-response","448","420384","0.0-1.0-614.0","0","0","13758","","null","","","null","68","","","","","","","","","","","","","","","",""
"","ISI","","html-keyboard-response","449","420536","0.0-1.0-615.0","0","0","13758","","null","","","null","68","NaN","","","","","","","","","","","","","","",""
"","S2","","html-keyboard-response","450","420787","0.0-1.0-616.0","0","0","13758","","null","","","null","68","","NaN","","","","","","","","","","","","","",""
"","response","","html-keyboard-response","451","421451","0.0-1.0-617.0-0.0","0","0","13758","","663","","","68","68","","","2","68","training","adjacent","DC","4","3","N.jpg","M.jpg","1","0","0","",""
"","feedback","","html-keyboard-response","452","422453","0.0-1.0-618.0-0.0","0","0","13758","","null","","","null","68","","","","","","","","","","","","","","","",""
"","time_out","","html-keyboard-response","453","424454","0.0-1.0-620.0-0.0","0","0","13758","","null","","","null","68","","","","","","","","","","","","","","","",""
"","ITI","","html-keyboard-response","454","425456","0.0-1.0-621.0","0","0","13758","","null","","","null","68","","","","","","","","","","","","","","","NaN",""
"","S1","","html-keyboard-response","455","425708","0.0-1.0-623.0","0","0","13758","","null","","","null","69","","","","","","","","","","","","","","","",""
"","ISI","","html-keyboard-response","456","425860","0.0-1.0-624.0","0","0","13758","","null","","","null","69","NaN","","","","","","","","","","","","","","",""
"","S2","","html-keyboard-response","457","426112","0.0-1.0-625.0","0","0","13758","","null","","","null","69","","NaN","","","","","","","","","","","","","",""
"","response","","html-keyboard-response","458","427599","0.0-1.0-626.0-0.0","0","0","13758","","1485","","","75","69","","","2","69","training","adjacent","ED","5","4","L.jpg","N.jpg","0","0","1","",""
"","feedback","","html-keyboard-response","459","428601","0.0-1.0-627.0-0.0","0","0","13758","","null","","","null","69","","","","","","","","","","","","","","","",""
"","ITI","","html-keyboard-response","460","429603","0.0-1.0-630.0","0","0","13758","","null","","","null","69","","","","","","","","","","","","","","","NaN",""
"","S1","","html-keyboard-response","461","429854","0.0-1.0-632.0","0","0","13758","","null","","","null","70","","","","","","","","","","","","","","","",""
"","ISI","","html-keyboard-response","462","430006","0.0-1.0-633.0","0","0","13758","","null","","","null","70","NaN","","","","","","","","","","","","","","",""
"","S2","","html-keyboard-response","463","430259","0.0-1.0-634.0","0","0","13758","","null","","","null","70","","NaN","","","","","","","","","","","","","",""
"","response","","html-keyboard-response","464","431526","0.0-1.0-635.0-0.0","0","0","13758","","1267","","","75","70","","","2","70","training","adjacent","DC","4","3","N.jpg","M.jpg","0","0","1","",""
"","feedback","","html-keyboard-response","465","432529","0.0-1.0-636.0-0.0","0","0","13758","","null","","","null","70","","","","","","","","","","","","","","","",""
"","ITI","","html-keyboard-response","466","433531","0.0-1.0-639.0","0","0","13758","","null","","","null","70","","","","","","","","","","","","","","","NaN",""
"","S1","","html-keyboard-response","467","433782","0.0-1.0-641.0","0","0","13758","","null","","","null","71","","","","","","","","","","","","","","","",""
"","ISI","","html-keyboard-response","468","433933","0.0-1.0-642.0","0","0","13758","","null","","","null","71","NaN","","","","","","","","","","","","","","",""
"","S2","","html-keyboard-response","469","434185","0.0-1.0-643.0","0","0","13758","","null","","","null","71","","NaN","","","","","","","","","","","","","",""
"","response","","html-keyboard-response","470","435284","0.0-1.0-644.0-0.0","0","0","13758","","1099","","","68","71","","","2","71","training","adjacent","EF","5","6","L.jpg","P.jpg","1","1","1","",""
"","feedback","","html-keyboard-response","471","436285","0.0-1.0-645.0-0.0","0","0","13758","","null","","","null","71","","","","","","","","","","","","","","","",""
"","ITI","","html-keyboard-response","472","437286","0.0-1.0-648.0","0","0","13758","","null","","","null","71","","","","","","","","","","","","","","","NaN",""
"","S1","","html-keyboard-response","473","437538","0.0-1.0-650.0","0","0","13758","","null","","","null","72","","","","","","","","","","","","","","","",""
"","ISI","","html-keyboard-response","474","437689","0.0-1.0-651.0","0","0","13758","","null","","","null","72","NaN","","","","","","","","","","","","","","",""
"","S2","","html-keyboard-response","475","437940","0.0-1.0-652.0","0","0","13758","","null","","","null","72","","NaN","","","","","","","","","","","","","",""
"","response","","html-keyboard-response","476","439021","0.0-1.0-653.0-0.0","0","0","13758","","1080","","","68","72","","","2","72","training","adjacent","ED","5","4","L.jpg","N.jpg","1","0","0","",""
"","feedback","","html-keyboard-response","477","440024","0.0-1.0-654.0-0.0","0","0","13758","","null","","","null","72","","","","","","","","","","","","","","","",""
"","time_out","","html-keyboard-response","478","442026","0.0-1.0-656.0-0.0","0","0","13758","","null","","","null","72","","","","","","","","","","","","","","","",""
"","ITI","","html-keyboard-response","479","443028","0.0-1.0-657.0","0","0","13758","","null","","","null","72","","","","","","","","","","","","","","","NaN",""
"","S1","","html-keyboard-response","480","443280","0.0-1.0-659.0","0","0","13758","","null","","","null","73","","","","","","","","","","","","","","","",""
"","ISI","","html-keyboard-response","481","443445","0.0-1.0-660.0","0","0","13758","","null","","","null","73","NaN","","","","","","","","","","","","","","",""
"","S2","","html-keyboard-response","482","443697","0.0-1.0-661.0","0","0","13758","","null","","","null","73","","NaN","","","","","","","","","","","","","",""
"","response","","html-keyboard-response","483","444582","0.0-1.0-662.0-0.0","0","0","13758","","884","","","68","73","","","2","73","training","adjacent","AB","1","2","Q.jpg","O.jpg","1","1","1","",""
"","feedback","","html-keyboard-response","484","445584","0.0-1.0-663.0-0.0","0","0","13758","","null","","","null","73","","","","","","","","","","","","","","","",""
"","ITI","","html-keyboard-response","485","446586","0.0-1.0-666.0","0","0","13758","","null","","","null","73","","","","","","","","","","","","","","","NaN",""
"","S1","","html-keyboard-response","486","446837","0.0-1.0-668.0","0","0","13758","","null","","","null","74","","","","","","","","","","","","","","","",""
"","ISI","","html-keyboard-response","487","446989","0.0-1.0-669.0","0","0","13758","","null","","","null","74","NaN","","","","","","","","","","","","","","",""
"","S2","","html-keyboard-response","488","447255","0.0-1.0-670.0","0","0","13758","","null","","","null","74","","NaN","","","","","","","","","","","","","",""
"","response","","html-keyboard-response","489","447986","0.0-1.0-671.0-0.0","0","0","13758","","730","","","75","74","","","2","74","training","adjacent","ED","5","4","L.jpg","N.jpg","0","0","1","",""
"","feedback","","html-keyboard-response","490","448988","0.0-1.0-672.0-0.0","0","0","13758","","null","","","null","74","","","","","","","","","","","","","","","",""
"","ITI","","html-keyboard-response","491","449989","0.0-1.0-675.0","0","0","13758","","null","","","null","74","","","","","","","","","","","","","","","NaN",""
"","S1","","html-keyboard-response","492","450254","0.0-1.0-677.0","0","0","13758","","null","","","null","75","","","","","","","","","","","","","","","",""
"","ISI","","html-keyboard-response","493","450405","0.0-1.0-678.0","0","0","13758","","null","","","null","75","NaN","","","","","","","","","","","","","","",""
"","S2","","html-keyboard-response","494","450657","0.0-1.0-679.0","0","0","13758","","null","","","null","75","","NaN","","","","","","","","","","","","","",""
"","response","","html-keyboard-response","495","451582","0.0-1.0-680.0-0.0","0","0","13758","","925","","","68","75","","","2","75","training","adjacent","FE","6","5","P.jpg","L.jpg","1","0","0","",""
"","feedback","","html-keyboard-response","496","452584","0.0-1.0-681.0-0.0","0","0","13758","","null","","","null","75","","","","","","","","","","","","","","","",""
"","time_out","","html-keyboard-response","497","454585","0.0-1.0-683.0-0.0","0","0","13758","","null","","","null","75","","","","","","","","","","","","","","","",""
"","ITI","","html-keyboard-response","498","455586","0.0-1.0-684.0","0","0","13758","","null","","","null","75","","","","","","","","","","","","","","","NaN",""
"","S1","","html-keyboard-response","499","455839","0.0-1.0-686.0","0","0","13758","","null","","","null","76","","","","","","","","","","","","","","","",""
"","ISI","","html-keyboard-response","500","455990","0.0-1.0-687.0","0","0","13758","","null","","","null","76","NaN","","","","","","","","","","","","","","",""
"","S2","","html-keyboard-response","501","456242","0.0-1.0-688.0","0","0","13758","","null","","","null","76","","NaN","","","","","","","","","","","","","",""
"","response","","html-keyboard-response","502","457205","0.0-1.0-689.0-0.0","0","0","13758","","962","","","75","76","","","2","76","training","adjacent","CD","3","4","M.jpg","N.jpg","0","1","0","",""
"","feedback","","html-keyboard-response","503","458206","0.0-1.0-690.0-0.0","0","0","13758","","null","","","null","76","","","","","","","","","","","","","","","",""
"","time_out","","html-keyboard-response","504","460208","0.0-1.0-692.0-0.0","0","0","13758","","null","","","null","76","","","","","","","","","","","","","","","",""
"","ITI","","html-keyboard-response","505","461209","0.0-1.0-693.0","0","0","13758","","null","","","null","76","","","","","","","","","","","","","","","NaN",""
"","S1","","html-keyboard-response","506","461460","0.0-1.0-695.0","0","0","13758","","null","","","null","77","","","","","","","","","","","","","","","",""
"","ISI","","html-keyboard-response","507","461612","0.0-1.0-696.0","0","0","13758","","null","","","null","77","NaN","","","","","","","","","","","","","","",""
"","S2","","html-keyboard-response","508","461864","0.0-1.0-697.0","0","0","13758","","null","","","null","77","","NaN","","","","","","","","","","","","","",""
"","response","","html-keyboard-response","509","462963","0.0-1.0-698.0-0.0","0","0","13758","","1099","","","75","77","","","2","77","training","adjacent","FE","6","5","P.jpg","L.jpg","0","0","1","",""
"","feedback","","html-keyboard-response","510","463965","0.0-1.0-699.0-0.0","0","0","13758","","null","","","null","77","","","","","","","","","","","","","","","",""
"","ITI","","html-keyboard-response","511","464967","0.0-1.0-702.0","0","0","13758","","null","","","null","77","","","","","","","","","","","","","","","NaN",""
"","S1","","html-keyboard-response","512","465227","0.0-1.0-704.0","0","0","13758","","null","","","null","78","","","","","","","","","","","","","","","",""
"","ISI","","html-keyboard-response","513","465379","0.0-1.0-705.0","0","0","13758","","null","","","null","78","NaN","","","","","","","","","","","","","","",""
"","S2","","html-keyboard-response","514","465631","0.0-1.0-706.0","0","0","13758","","null","","","null","78","","NaN","","","","","","","","","","","","","",""
"","response","","html-keyboard-response","515","466856","0.0-1.0-707.0-0.0","0","0","13758","","1225","","","68","78","","","2","78","training","adjacent","DE","4","5","N.jpg","L.jpg","1","1","1","",""
"","feedback","","html-keyboard-response","516","467858","0.0-1.0-708.0-0.0","0","0","13758","","null","","","null","78","","","","","","","","","","","","","","","",""
"","ITI","","html-keyboard-response","517","468860","0.0-1.0-711.0","0","0","13758","","null","","","null","78","","","","","","","","","","","","","","","NaN",""
"","S1","","html-keyboard-response","518","469111","0.0-1.0-713.0","0","0","13758","","null","","","null","79","","","","","","","","","","","","","","","",""
"","ISI","","html-keyboard-response","519","469263","0.0-1.0-714.0","0","0","13758","","null","","","null","79","NaN","","","","","","","","","","","","","","",""
"","S2","","html-keyboard-response","520","469516","0.0-1.0-715.0","0","0","13758","","null","","","null","79","","NaN","","","","","","","","","","","","","",""
"","response","","html-keyboard-response","521","470465","0.0-1.0-716.0-0.0","0","0","13758","","948","","","68","79","","","2","79","training","adjacent","GF","7","6","R.jpg","P.jpg","1","0","0","",""
"","feedback","","html-keyboard-response","522","471467","0.0-1.0-717.0-0.0","0","0","13758","","null","","","null","79","","","","","","","","","","","","","","","",""
"","time_out","","html-keyboard-response","523","473468","0.0-1.0-719.0-0.0","0","0","13758","","null","","","null","79","","","","","","","","","","","","","","","",""
"","ITI","","html-keyboard-response","524","474470","0.0-1.0-720.0","0","0","13758","","null","","","null","79","","","","","","","","","","","","","","","NaN",""
"","S1","","html-keyboard-response","525","474730","0.0-1.0-722.0","0","0","13758","","null","","","null","80","","","","","","","","","","","","","","","",""
"","ISI","","html-keyboard-response","526","474882","0.0-1.0-723.0","0","0","13758","","null","","","null","80","NaN","","","","","","","","","","","","","","",""
"","S2","","html-keyboard-response","527","475134","0.0-1.0-724.0","0","0","13758","","null","","","null","80","","NaN","","","","","","","","","","","","","",""
"","response","","html-keyboard-response","528","475647","0.0-1.0-725.0-0.0","0","0","13758","","511","","","68","80","","","2","80","training","adjacent","BA","2","1","O.jpg","Q.jpg","1","0","0","",""
"","feedback","","html-keyboard-response","529","476649","0.0-1.0-726.0-0.0","0","0","13758","","null","","","null","80","","","","","","","","","","","","","","","",""
"","time_out","","html-keyboard-response","530","478650","0.0-1.0-728.0-0.0","0","0","13758","","null","","","null","80","","","","","","","","","","","","","","","",""
"","ITI","","html-keyboard-response","531","479653","0.0-1.0-729.0","0","0","13758","","null","","","null","80","","","","","","","","","","","","","","","NaN",""
"","S1","","html-keyboard-response","532","479905","0.0-1.0-731.0","0","0","13758","","null","","","null","81","","","","","","","","","","","","","","","",""
"","ISI","","html-keyboard-response","533","480057","0.0-1.0-732.0","0","0","13758","","null","","","null","81","NaN","","","","","","","","","","","","","","",""
"","S2","","html-keyboard-response","534","480308","0.0-1.0-733.0","0","0","13758","","null","","","null","81","","NaN","","","","","","","","","","","","","",""
"","response","","html-keyboard-response","535","481124","0.0-1.0-734.0-0.0","0","0","13758","","815","","","75","81","","","2","81","training","adjacent","BA","2","1","O.jpg","Q.jpg","0","0","1","",""
"","feedback","","html-keyboard-response","536","482125","0.0-1.0-735.0-0.0","0","0","13758","","null","","","null","81","","","","","","","","","","","","","","","",""
"","ITI","","html-keyboard-response","537","483127","0.0-1.0-738.0","0","0","13758","","null","","","null","81","","","","","","","","","","","","","","","NaN",""
"","S1","","html-keyboard-response","538","483379","0.0-1.0-740.0","0","0","13758","","null","","","null","82","","","","","","","","","","","","","","","",""
"","ISI","","html-keyboard-response","539","483531","0.0-1.0-741.0","0","0","13758","","null","","","null","82","NaN","","","","","","","","","","","","","","",""
"","S2","","html-keyboard-response","540","483782","0.0-1.0-742.0","0","0","13758","","null","","","null","82","","NaN","","","","","","","","","","","","","",""
"","response","","html-keyboard-response","541","484797","0.0-1.0-743.0-0.0","0","0","13758","","1015","","","75","82","","","2","82","training","adjacent","CB","3","2","M.jpg","O.jpg","0","0","1","",""
"","feedback","","html-keyboard-response","542","485800","0.0-1.0-744.0-0.0","0","0","13758","","null","","","null","82","","","","","","","","","","","","","","","",""
"","ITI","","html-keyboard-response","543","486805","0.0-1.0-747.0","0","0","13758","","null","","","null","82","","","","","","","","","","","","","","","NaN",""
"","S1","","html-keyboard-response","544","487056","0.0-1.0-749.0","0","0","13758","","null","","","null","83","","","","","","","","","","","","","","","",""
"","ISI","","html-keyboard-response","545","487208","0.0-1.0-750.0","0","0","13758","","null","","","null","83","NaN","","","","","","","","","","","","","","",""
"","S2","","html-keyboard-response","546","487460","0.0-1.0-751.0","0","0","13758","","null","","","null","83","","NaN","","","","","","","","","","","","","",""
"","response","","html-keyboard-response","547","488400","0.0-1.0-752.0-0.0","0","0","13758","","940","","","68","83","","","2","83","training","adjacent","GF","7","6","R.jpg","P.jpg","1","0","0","",""
"","feedback","","html-keyboard-response","548","489402","0.0-1.0-753.0-0.0","0","0","13758","","null","","","null","83","","","","","","","","","","","","","","","",""
"","time_out","","html-keyboard-response","549","491403","0.0-1.0-755.0-0.0","0","0","13758","","null","","","null","83","","","","","","","","","","","","","","","",""
"","ITI","","html-keyboard-response","550","492405","0.0-1.0-756.0","0","0","13758","","null","","","null","83","","","","","","","","","","","","","","","NaN",""
"","S1","","html-keyboard-response","551","492656","0.0-1.0-758.0","0","0","13758","","null","","","null","84","","","","","","","","","","","","","","","",""
"","ISI","","html-keyboard-response","552","492808","0.0-1.0-759.0","0","0","13758","","null","","","null","84","NaN","","","","","","","","","","","","","","",""
"","S2","","html-keyboard-response","553","493060","0.0-1.0-760.0","0","0","13758","","null","","","null","84","","NaN","","","","","","","","","","","","","",""
"","response","","html-keyboard-response","554","494071","0.0-1.0-761.0-0.0","0","0","13758","","1010","","","68","84","","","2","84","training","adjacent","CD","3","4","M.jpg","N.jpg","1","1","1","",""
"","feedback","","html-keyboard-response","555","495073","0.0-1.0-762.0-0.0","0","0","13758","","null","","","null","84","","","","","","","","","","","","","","","",""
"","ITI","","html-keyboard-response","556","496076","0.0-1.0-765.0","0","0","13758","","null","","","null","84","","","","","","","","","","","","","","","NaN",""
"","S1","","html-keyboard-response","557","496328","0.0-1.0-767.0","0","0","13758","","null","","","null","85","","","","","","","","","","","","","","","",""
"","ISI","","html-keyboard-response","558","496479","0.0-1.0-768.0","0","0","13758","","null","","","null","85","NaN","","","","","","","","","","","","","","",""
"","S2","","html-keyboard-response","559","496731","0.0-1.0-769.0","0","0","13758","","null","","","null","85","","NaN","","","","","","","","","","","","","",""
"","response","","html-keyboard-response","560","498487","0.0-1.0-770.0-0.0","0","0","13758","","null","","","null","85","","","2","85","training","adjacent","FG","6","7","P.jpg","R.jpg","NaN","1","0","",""
"","too_slow_prompt","","html-keyboard-response","561","499489","0.0-1.0-772.0-0.0","1","0","13758","","null","","","null","","","","","","","","","","","","","","","","",""
"","time_out","","html-keyboard-response","562","501490","0.0-1.0-773.0-0.0","0","0","13758","","null","","","null","85","","","","","","","","","","","","","","","",""
"","ITI","","html-keyboard-response","563","502492","0.0-1.0-774.0","0","0","13758","","null","","","null","85","","","","","","","","","","","","","","","NaN",""
"","S1","","html-keyboard-response","564","502743","0.0-1.0-776.0","0","0","13758","","null","","","null","86","","","","","","","","","","","","","","","",""
"","ISI","","html-keyboard-response","565","502895","0.0-1.0-777.0","0","0","13758","","null","","","null","86","NaN","","","","","","","","","","","","","","",""
"","S2","","html-keyboard-response","566","503147","0.0-1.0-778.0","0","0","13758","","null","","","null","86","","NaN","","","","","","","","","","","","","",""
"","response","","html-keyboard-response","567","503741","0.0-1.0-779.0-0.0","0","0","13758","","593","","","68","86","","","2","86","training","adjacent","FG","6","7","P.jpg","R.jpg","1","1","1","",""
"","feedback","","html-keyboard-response","568","504742","0.0-1.0-780.0-0.0","0","0","13758","","null","","","null","86","","","","","","","","","","","","","","","",""
"","ITI","","html-keyboard-response","569","505744","0.0-1.0-783.0","0","0","13758","","null","","","null","86","","","","","","","","","","","","","","","NaN",""
"","S1","","html-keyboard-response","570","505996","0.0-1.0-785.0","0","0","13758","","null","","","null","87","","","","","","","","","","","","","","","",""
"","ISI","","html-keyboard-response","571","506149","0.0-1.0-786.0","0","0","13758","","null","","","null","87","NaN","","","","","","","","","","","","","","",""
"","S2","","html-keyboard-response","572","506400","0.0-1.0-787.0","0","0","13758","","null","","","null","87","","NaN","","","","","","","","","","","","","",""
"","response","","html-keyboard-response","573","507358","0.0-1.0-788.0-0.0","0","0","13758","","957","","","68","87","","","2","87","training","adjacent","EF","5","6","L.jpg","P.jpg","1","1","1","",""
"","feedback","","html-keyboard-response","574","508361","0.0-1.0-789.0-0.0","0","0","13758","","null","","","null","87","","","","","","","","","","","","","","","",""
"","ITI","","html-keyboard-response","575","509363","0.0-1.0-792.0","0","0","13758","","null","","","null","87","","","","","","","","","","","","","","","NaN",""
"","S1","","html-keyboard-response","576","509614","0.0-1.0-794.0","0","0","13758","","null","","","null","88","","","","","","","","","","","","","","","",""
"","ISI","","html-keyboard-response","577","509766","0.0-1.0-795.0","0","0","13758","","null","","","null","88","NaN","","","","","","","","","","","","","","",""
"","S2","","html-keyboard-response","578","510018","0.0-1.0-796.0","0","0","13758","","null","","","null","88","","NaN","","","","","","","","","","","","","",""
"","response","","html-keyboard-response","579","510537","0.0-1.0-797.0-0.0","0","0","13758","","519","","","68","88","","","2","88","training","adjacent","GF","7","6","R.jpg","P.jpg","1","0","0","",""
"","feedback","","html-keyboard-response","580","511539","0.0-1.0-798.0-0.0","0","0","13758","","null","","","null","88","","","","","","","","","","","","","","","",""
"","time_out","","html-keyboard-response","581","513541","0.0-1.0-800.0-0.0","0","0","13758","","null","","","null","88","","","","","","","","","","","","","","","",""
"","ITI","","html-keyboard-response","582","514543","0.0-1.0-801.0","0","0","13758","","null","","","null","88","","","","","","","","","","","","","","","NaN",""
