"success","ttype","start_time","trial_type","trial_index","time_elapsed","internal_node_id","warning","missed_checkup","PID","view_history","rt","responses","repeat_instructions","key_press","index","keypress_isi","keypress_S2","block","trial_num","phase","group_type","pair_type","S1_stim","S2_stim","S1_img","S2_img","S1_chosen","S1_higher","accuracy","keypress_iti","total_bonus_tally"
"true","full_screen","d03082023hr1431","fullscreen","0","12614","0.0-0.0","0","0","48790","","","","","","","","","","","","","","","","","","","","","",""
"","instructions","","instructions","1","53522","0.0-1.0-0.0-0.0","0","0","48790","[{""page_index"":0,""viewing_time"":5347},{""page_index"":1,""viewing_time"":13412},{""page_index"":2,""viewing_time"":3788},{""page_index"":1,""viewing_time"":10227},{""page_index"":2,""viewing_time"":6264},{""page_index"":3,""viewing_time"":1868}]","40906","","","","","","","","","","","","","","","","","","","",""
"","comprehension_check","","survey-multi-choice","2","71152","0.0-1.0-0.0-1.0","0","0","48790","","17627","{""Q0"":""True"",""Q1"":""D"",""Q2"":""Only when the screen 'MAKE A CHOICE' is shown"",""Q3"":""Green mark"",""Q4"":""either D or K""}","1","","","","","","","","","","","","","","","","","",""
"","missed_instruction_checkup","","html-keyboard-response","3","72717","0.0-1.0-0.0-2.0-0.0","0","1","48790","","1561","","","32","","","","","","","","","","","","","","","","",""
"","instructions","","instructions","4","92568","0.0-1.0-0.1-0.1","0","0","48790","[{""page_index"":0,""viewing_time"":3321},{""page_index"":1,""viewing_time"":8637},{""page_index"":2,""viewing_time"":6882},{""page_index"":3,""viewing_time"":1008}]","19848","","","","","","","","","","","","","","","","","","","",""
"","comprehension_check","","survey-multi-choice","5","106879","0.0-1.0-0.1-1.1","0","0","48790","","14308","{""Q0"":""True"",""Q1"":""D"",""Q2"":""Once the second image appears and while the screen 'MAKE A CHOICE' is shown"",""Q3"":""Green mark"",""Q4"":""either D or K""}","0","","","","","","","","","","","","","","","","","",""
"","start_exp","","html-keyboard-response","6","261555","0.0-1.0-1.0","0","0","48790","","154671","","","32","","","","","","","","","","","","","","","","",""
"","S1","","html-keyboard-response","7","261809","0.0-1.0-2.0","0","0","48790","","null","","","null","0","","","","","","","","","","","","","","","",""
"","ISI","","html-keyboard-response","8","261963","0.0-1.0-3.0","0","0","48790","","null","","","null","0","NaN","","","","","","","","","","","","","","",""
"","S2","","html-keyboard-response","9","262217","0.0-1.0-4.0","0","0","48790","","null","","","null","0","","NaN","","","","","","","","","","","","","",""
"","response","","html-keyboard-response","10","263375","0.0-1.0-5.0-0.0","0","0","48790","","1153","","","68","0","","","1","0","training","adjacent","AB","1","2","N.jpg","Q.jpg","1","1","1","",""
"","feedback","","html-keyboard-response","11","264379","0.0-1.0-6.0-0.0","0","0","48790","","null","","","null","0","","","","","","","","","","","","","","","",""
"","ITI","","html-keyboard-response","12","265384","0.0-1.0-9.0","0","0","48790","","null","","","null","0","","","","","","","","","","","","","","","NaN",""
"","S1","","html-keyboard-response","13","265639","0.0-1.0-11.0","0","0","48790","","null","","","null","1","","","","","","","","","","","","","","","",""
"","ISI","","html-keyboard-response","14","265792","0.0-1.0-12.0","0","0","48790","","null","","","null","1","NaN","","","","","","","","","","","","","","",""
"","S2","","html-keyboard-response","15","266046","0.0-1.0-13.0","0","0","48790","","null","","","null","1","","NaN","","","","","","","","","","","","","",""
"","response","","html-keyboard-response","16","266687","0.0-1.0-14.0-0.0","0","0","48790","","638","","","75","1","","","1","1","training","adjacent","EF","5","6","P.jpg","O.jpg","0","1","0","",""
"","feedback","","html-keyboard-response","17","267692","0.0-1.0-15.0-0.0","0","0","48790","","null","","","null","1","","","","","","","","","","","","","","","",""
"","time_out","","html-keyboard-response","18","269694","0.0-1.0-17.0-0.0","0","0","48790","","null","","","null","1","","","","","","","","","","","","","","","",""
"","ITI","","html-keyboard-response","19","270696","0.0-1.0-18.0","0","0","48790","","null","","","null","1","","","","","","","","","","","","","","","NaN",""
"","S1","","html-keyboard-response","20","270949","0.0-1.0-20.0","0","0","48790","","null","","","null","2","","","","","","","","","","","","","","","",""
"","ISI","","html-keyboard-response","21","271107","0.0-1.0-21.0","0","0","48790","","null","","","null","2","NaN","","","","","","","","","","","","","","",""
"","S2","","html-keyboard-response","22","271362","0.0-1.0-22.0","0","0","48790","","null","","","null","2","","NaN","","","","","","","","","","","","","",""
"","response","","html-keyboard-response","23","271829","0.0-1.0-23.0-0.0","0","0","48790","","466","","","68","2","","","1","2","training","adjacent","ED","5","4","P.jpg","R.jpg","1","0","0","",""
"","feedback","","html-keyboard-response","24","272832","0.0-1.0-24.0-0.0","0","0","48790","","null","","","null","2","","","","","","","","","","","","","","","",""
"","time_out","","html-keyboard-response","25","274835","0.0-1.0-26.0-0.0","0","0","48790","","null","","","null","2","","","","","","","","","","","","","","","",""
"","ITI","","html-keyboard-response","26","275838","0.0-1.0-27.0","0","0","48790","","null","","","null","2","","","","","","","","","","","","","","","NaN",""
"","S1","","html-keyboard-response","27","276090","0.0-1.0-29.0","0","0","48790","","null","","","null","3","","","","","","","","","","","","","","","",""
"","ISI","","html-keyboard-response","28","276242","0.0-1.0-30.0","0","0","48790","","null","","","null","3","NaN","","","","","","","","","","","","","","",""
"","S2","","html-keyboard-response","29","276496","0.0-1.0-31.0","0","0","48790","","null","","","null","3","","NaN","","","","","","","","","","","","","",""
"","response","","html-keyboard-response","30","277095","0.0-1.0-32.0-0.0","0","0","48790","","597","","","75","3","","","1","3","training","adjacent","BA","2","1","Q.jpg","N.jpg","0","0","1","",""
"","feedback","","html-keyboard-response","31","278099","0.0-1.0-33.0-0.0","0","0","48790","","null","","","null","3","","","","","","","","","","","","","","","",""
"","ITI","","html-keyboard-response","32","279112","0.0-1.0-36.0","0","0","48790","","null","","","null","3","","","","","","","","","","","","","","","NaN",""
"","S1","","html-keyboard-response","33","279366","0.0-1.0-38.0","0","0","48790","","null","","","null","4","","","","","","","","","","","","","","","",""
"","ISI","","html-keyboard-response","34","279519","0.0-1.0-39.0","0","0","48790","","null","","","null","4","NaN","","","","","","","","","","","","","","",""
"","S2","","html-keyboard-response","35","279781","0.0-1.0-40.0","0","0","48790","","null","","","null","4","","NaN","","","","","","","","","","","","","",""
"","response","","html-keyboard-response","36","280453","0.0-1.0-41.0-0.0","0","0","48790","","670","","","75","4","","","1","4","training","adjacent","BA","2","1","Q.jpg","N.jpg","0","0","1","",""
"","feedback","","html-keyboard-response","37","281456","0.0-1.0-42.0-0.0","0","0","48790","","null","","","null","4","","","","","","","","","","","","","","","",""
"","ITI","","html-keyboard-response","38","282459","0.0-1.0-45.0","0","0","48790","","null","","","null","4","","","","","","","","","","","","","","","NaN",""
"","S1","","html-keyboard-response","39","282713","0.0-1.0-47.0","0","0","48790","","null","","","null","5","","","","","","","","","","","","","","","",""
"","ISI","","html-keyboard-response","40","282866","0.0-1.0-48.0","0","0","48790","","null","","","null","5","NaN","","","","","","","","","","","","","","",""
"","S2","","html-keyboard-response","41","283120","0.0-1.0-49.0","0","0","48790","","null","","","null","5","","NaN","","","","","","","","","","","","","",""
"","response","","html-keyboard-response","42","283567","0.0-1.0-50.0-0.0","0","0","48790","","444","","","75","5","","","1","5","training","adjacent","GF","7","6","L.jpg","O.jpg","0","0","1","",""
"","feedback","","html-keyboard-response","43","284571","0.0-1.0-51.0-0.0","0","0","48790","","null","","","null","5","","","","","","","","","","","","","","","",""
"","ITI","","html-keyboard-response","44","285575","0.0-1.0-54.0","0","0","48790","","null","","","null","5","","","","","","","","","","","","","","","NaN",""
"","S1","","html-keyboard-response","45","285828","0.0-1.0-56.0","0","0","48790","","null","","","null","6","","","","","","","","","","","","","","","",""
"","ISI","","html-keyboard-response","46","285982","0.0-1.0-57.0","0","0","48790","","null","","","null","6","NaN","","","","","","","","","","","","","","",""
"","S2","","html-keyboard-response","47","286235","0.0-1.0-58.0","0","0","48790","","null","","","null","6","","NaN","","","","","","","","","","","","","",""
"","response","","html-keyboard-response","48","286631","0.0-1.0-59.0-0.0","0","0","48790","","393","","","68","6","","","1","6","training","adjacent","FE","6","5","O.jpg","P.jpg","1","0","0","",""
"","feedback","","html-keyboard-response","49","287636","0.0-1.0-60.0-0.0","0","0","48790","","null","","","null","6","","","","","","","","","","","","","","","",""
"","time_out","","html-keyboard-response","50","289639","0.0-1.0-62.0-0.0","0","0","48790","","null","","","null","6","","","","","","","","","","","","","","","",""
"","ITI","","html-keyboard-response","51","290643","0.0-1.0-63.0","0","0","48790","","null","","","null","6","","","","","","","","","","","","","","","NaN",""
"","S1","","html-keyboard-response","52","290897","0.0-1.0-65.0","0","0","48790","","null","","","null","7","","","","","","","","","","","","","","","",""
"","ISI","","html-keyboard-response","53","291052","0.0-1.0-66.0","0","0","48790","","null","","","null","7","NaN","","","","","","","","","","","","","","",""
"","S2","","html-keyboard-response","54","291307","0.0-1.0-67.0","0","0","48790","","null","","","null","7","","NaN","","","","","","","","","","","","","",""
"","response","","html-keyboard-response","55","291760","0.0-1.0-68.0-0.0","0","0","48790","","450","","","68","7","","","1","7","training","adjacent","FG","6","7","O.jpg","L.jpg","1","1","1","",""
"","feedback","","html-keyboard-response","56","292764","0.0-1.0-69.0-0.0","0","0","48790","","null","","","null","7","","","","","","","","","","","","","","","",""
"","ITI","","html-keyboard-response","57","293767","0.0-1.0-72.0","0","0","48790","","null","","","null","7","","","","","","","","","","","","","","","NaN",""
"","S1","","html-keyboard-response","58","294022","0.0-1.0-74.0","0","0","48790","","null","","","null","8","","","","","","","","","","","","","","","",""
"","ISI","","html-keyboard-response","59","294175","0.0-1.0-75.0","0","0","48790","","null","","","null","8","NaN","","","","","","","","","","","","","","",""
"","S2","","html-keyboard-response","60","294428","0.0-1.0-76.0","0","0","48790","","null","","","null","8","","NaN","","","","","","","","","","","","","",""
"","response","","html-keyboard-response","61","294873","0.0-1.0-77.0-0.0","0","0","48790","","442","","","68","8","","","1","8","training","adjacent","DC","4","3","R.jpg","M.jpg","1","0","0","",""
"","feedback","","html-keyboard-response","62","295877","0.0-1.0-78.0-0.0","0","0","48790","","null","","","null","8","","","","","","","","","","","","","","","",""
"","time_out","","html-keyboard-response","63","297880","0.0-1.0-80.0-0.0","0","0","48790","","null","","","null","8","","","","","","","","","","","","","","","",""
"","ITI","","html-keyboard-response","64","298883","0.0-1.0-81.0","0","0","48790","","null","","","null","8","","","","","","","","","","","","","","","NaN",""
"","S1","","html-keyboard-response","65","299137","0.0-1.0-83.0","0","0","48790","","null","","","null","9","","","","","","","","","","","","","","","",""
"","ISI","","html-keyboard-response","66","299290","0.0-1.0-84.0","0","0","48790","","null","","","null","9","NaN","","","","","","","","","","","","","","",""
"","S2","","html-keyboard-response","67","299554","0.0-1.0-85.0","0","0","48790","","null","","","null","9","","NaN","","","","","","","","","","","","","",""
"","response","","html-keyboard-response","68","299936","0.0-1.0-86.0-0.0","0","0","48790","","379","","","75","9","","","1","9","training","adjacent","BA","2","1","Q.jpg","N.jpg","0","0","1","",""
"","feedback","","html-keyboard-response","69","300940","0.0-1.0-87.0-0.0","0","0","48790","","null","","","null","9","","","","","","","","","","","","","","","",""
"","ITI","","html-keyboard-response","70","301944","0.0-1.0-90.0","0","0","48790","","null","","","null","9","","","","","","","","","","","","","","","NaN",""
"","S1","","html-keyboard-response","71","302196","0.0-1.0-92.0","0","0","48790","","null","","","null","10","","","","","","","","","","","","","","","",""
"","ISI","","html-keyboard-response","72","302349","0.0-1.0-93.0","0","0","48790","","null","","","null","10","NaN","","","","","","","","","","","","","","",""
"","S2","","html-keyboard-response","73","302604","0.0-1.0-94.0","0","0","48790","","null","","","null","10","","NaN","","","","","","","","","","","","","",""
"","response","","html-keyboard-response","74","304144","0.0-1.0-95.0-0.0","0","0","48790","","1537","","","68","10","","","1","10","training","adjacent","DC","4","3","R.jpg","M.jpg","1","0","0","",""
"","feedback","","html-keyboard-response","75","305147","0.0-1.0-96.0-0.0","0","0","48790","","null","","","null","10","","","","","","","","","","","","","","","",""
"","time_out","","html-keyboard-response","76","307151","0.0-1.0-98.0-0.0","0","0","48790","","null","","","null","10","","","","","","","","","","","","","","","",""
"","ITI","","html-keyboard-response","77","308155","0.0-1.0-99.0","0","0","48790","","null","","","null","10","","","","","","","","","","","","","","","NaN",""
"","S1","","html-keyboard-response","78","308407","0.0-1.0-101.0","0","0","48790","","null","","","null","11","","","","","","","","","","","","","","","",""
"","ISI","","html-keyboard-response","79","308562","0.0-1.0-102.0","0","0","48790","","null","","","null","11","NaN","","","","","","","","","","","","","","",""
"","S2","","html-keyboard-response","80","308815","0.0-1.0-103.0","0","0","48790","","null","","","null","11","","NaN","","","","","","","","","","","","","",""
"","response","","html-keyboard-response","81","309026","0.0-1.0-104.0-0.0","0","0","48790","","208","","","75","11","","","1","11","training","adjacent","BC","2","3","Q.jpg","M.jpg","0","1","0","",""
"","feedback","","html-keyboard-response","82","310030","0.0-1.0-105.0-0.0","0","0","48790","","null","","","null","11","","","","","","","","","","","","","","","",""
"","time_out","","html-keyboard-response","83","312034","0.0-1.0-107.0-0.0","0","0","48790","","null","","","null","11","","","","","","","","","","","","","","","",""
"","ITI","","html-keyboard-response","84","313038","0.0-1.0-108.0","0","0","48790","","643","","","68","11","","","","","","","","","","","","","","","d",""
"","S1","","html-keyboard-response","85","313293","0.0-1.0-110.0","0","0","48790","","null","","","null","12","","","","","","","","","","","","","","","",""
"","ISI","","html-keyboard-response","86","313445","0.0-1.0-111.0","0","0","48790","","null","","","null","12","NaN","","","","","","","","","","","","","","",""
"","S2","","html-keyboard-response","87","313486","0.0-1.0-112.0","0","0","48790","","39","","","68","12","","d","1","12","training","adjacent","ED","5","4","P.jpg","R.jpg","1","0","0","",""
"","feedback","","html-keyboard-response","88","314490","0.0-1.0-114.0-0.0","0","0","48790","","null","","","null","12","","","","","","","","","","","","","","","",""
"","time_out","","html-keyboard-response","89","316494","0.0-1.0-116.0-0.0","0","0","48790","","null","","","null","12","","","","","","","","","","","","","","","",""
"","ITI","","html-keyboard-response","90","317497","0.0-1.0-117.0","0","0","48790","","null","","","null","12","","","","","","","","","","","","","","","NaN",""
"","S1","","html-keyboard-response","91","317750","0.0-1.0-119.0","0","0","48790","","null","","","null","13","","","","","","","","","","","","","","","",""
"","ISI","","html-keyboard-response","92","317903","0.0-1.0-120.0","0","0","48790","","null","","","null","13","NaN","","","","","","","","","","","","","","",""
"","S2","","html-keyboard-response","93","318157","0.0-1.0-121.0","0","0","48790","","null","","","null","13","","NaN","","","","","","","","","","","","","",""
"","response","","html-keyboard-response","94","318360","0.0-1.0-122.0-0.0","0","0","48790","","200","","","75","13","","","1","13","training","adjacent","FG","6","7","O.jpg","L.jpg","0","1","0","",""
"","feedback","","html-keyboard-response","95","319364","0.0-1.0-123.0-0.0","0","0","48790","","null","","","null","13","","","","","","","","","","","","","","","",""
"","time_out","","html-keyboard-response","96","321367","0.0-1.0-125.0-0.0","0","0","48790","","null","","","null","13","","","","","","","","","","","","","","","",""
"","ITI","","html-keyboard-response","97","322371","0.0-1.0-126.0","0","0","48790","","null","","","null","13","","","","","","","","","","","","","","","NaN",""
"","S1","","html-keyboard-response","98","322625","0.0-1.0-128.0","0","0","48790","","null","","","null","14","","","","","","","","","","","","","","","",""
"","ISI","","html-keyboard-response","99","322778","0.0-1.0-129.0","0","0","48790","","null","","","null","14","NaN","","","","","","","","","","","","","","",""
"","S2","","html-keyboard-response","100","323032","0.0-1.0-130.0","0","0","48790","","null","","","null","14","","NaN","","","","","","","","","","","","","",""
"","response","","html-keyboard-response","101","323494","0.0-1.0-131.0-0.0","0","0","48790","","461","","","68","14","","","1","14","training","adjacent","CB","3","2","M.jpg","Q.jpg","1","0","0","",""
"","feedback","","html-keyboard-response","102","324497","0.0-1.0-132.0-0.0","0","0","48790","","null","","","null","14","","","","","","","","","","","","","","","",""
"","time_out","","html-keyboard-response","103","326500","0.0-1.0-134.0-0.0","0","0","48790","","null","","","null","14","","","","","","","","","","","","","","","",""
"","ITI","","html-keyboard-response","104","327505","0.0-1.0-135.0","0","0","48790","","null","","","null","14","","","","","","","","","","","","","","","NaN",""
"","S1","","html-keyboard-response","105","327758","0.0-1.0-137.0","0","0","48790","","null","","","null","15","","","","","","","","","","","","","","","",""
"","ISI","","html-keyboard-response","106","327911","0.0-1.0-138.0","0","0","48790","","null","","","null","15","NaN","","","","","","","","","","","","","","",""
"","S2","","html-keyboard-response","107","328165","0.0-1.0-139.0","0","0","48790","","null","","","null","15","","NaN","","","","","","","","","","","","","",""
"","response","","html-keyboard-response","108","328649","0.0-1.0-140.0-0.0","0","0","48790","","482","","","75","15","","","1","15","training","adjacent","DC","4","3","R.jpg","M.jpg","0","0","1","",""
"","feedback","","html-keyboard-response","109","329652","0.0-1.0-141.0-0.0","0","0","48790","","null","","","null","15","","","","","","","","","","","","","","","",""
"","ITI","","html-keyboard-response","110","330656","0.0-1.0-144.0","0","0","48790","","null","","","null","15","","","","","","","","","","","","","","","NaN",""
"","S1","","html-keyboard-response","111","330910","0.0-1.0-146.0","0","0","48790","","null","","","null","16","","","","","","","","","","","","","","","",""
"","ISI","","html-keyboard-response","112","331064","0.0-1.0-147.0","0","0","48790","","null","","","null","16","NaN","","","","","","","","","","","","","","",""
"","S2","","html-keyboard-response","113","331318","0.0-1.0-148.0","0","0","48790","","null","","","null","16","","NaN","","","","","","","","","","","","","",""
"","response","","html-keyboard-response","114","331976","0.0-1.0-149.0-0.0","0","0","48790","","654","","","75","16","","","1","16","training","adjacent","CB","3","2","M.jpg","Q.jpg","0","0","1","",""
"","feedback","","html-keyboard-response","115","332980","0.0-1.0-150.0-0.0","0","0","48790","","null","","","null","16","","","","","","","","","","","","","","","",""
"","ITI","","html-keyboard-response","116","333984","0.0-1.0-153.0","0","0","48790","","null","","","null","16","","","","","","","","","","","","","","","NaN",""
"","S1","","html-keyboard-response","117","334239","0.0-1.0-155.0","0","0","48790","","null","","","null","17","","","","","","","","","","","","","","","",""
"","ISI","","html-keyboard-response","118","334392","0.0-1.0-156.0","0","0","48790","","null","","","null","17","NaN","","","","","","","","","","","","","","",""
"","S2","","html-keyboard-response","119","334648","0.0-1.0-157.0","0","0","48790","","null","","","null","17","","NaN","","","","","","","","","","","","","",""
"","response","","html-keyboard-response","120","335056","0.0-1.0-158.0-0.0","0","0","48790","","405","","","68","17","","","1","17","training","adjacent","BA","2","1","Q.jpg","N.jpg","1","0","0","",""
"","feedback","","html-keyboard-response","121","336060","0.0-1.0-159.0-0.0","0","0","48790","","null","","","null","17","","","","","","","","","","","","","","","",""
"","time_out","","html-keyboard-response","122","338063","0.0-1.0-161.0-0.0","0","0","48790","","null","","","null","17","","","","","","","","","","","","","","","",""
"","ITI","","html-keyboard-response","123","339067","0.0-1.0-162.0","0","0","48790","","null","","","null","17","","","","","","","","","","","","","","","NaN",""
"","S1","","html-keyboard-response","124","339321","0.0-1.0-164.0","0","0","48790","","null","","","null","18","","","","","","","","","","","","","","","",""
"","ISI","","html-keyboard-response","125","339474","0.0-1.0-165.0","0","0","48790","","null","","","null","18","NaN","","","","","","","","","","","","","","",""
"","S2","","html-keyboard-response","126","339728","0.0-1.0-166.0","0","0","48790","","null","","","null","18","","NaN","","","","","","","","","","","","","",""
"","response","","html-keyboard-response","127","340152","0.0-1.0-167.0-0.0","0","0","48790","","421","","","75","18","","","1","18","training","adjacent","CD","3","4","M.jpg","R.jpg","0","1","0","",""
"","feedback","","html-keyboard-response","128","341156","0.0-1.0-168.0-0.0","0","0","48790","","null","","","null","18","","","","","","","","","","","","","","","",""
"","time_out","","html-keyboard-response","129","343160","0.0-1.0-170.0-0.0","0","0","48790","","null","","","null","18","","","","","","","","","","","","","","","",""
"","ITI","","html-keyboard-response","130","344164","0.0-1.0-171.0","0","0","48790","","null","","","null","18","","","","","","","","","","","","","","","NaN",""
"","S1","","html-keyboard-response","131","344416","0.0-1.0-173.0","0","0","48790","","null","","","null","19","","","","","","","","","","","","","","","",""
"","ISI","","html-keyboard-response","132","344569","0.0-1.0-174.0","0","0","48790","","null","","","null","19","NaN","","","","","","","","","","","","","","",""
"","S2","","html-keyboard-response","133","344824","0.0-1.0-175.0","0","0","48790","","null","","","null","19","","NaN","","","","","","","","","","","","","",""
"","response","","html-keyboard-response","134","345232","0.0-1.0-176.0-0.0","0","0","48790","","406","","","68","19","","","1","19","training","adjacent","FE","6","5","O.jpg","P.jpg","1","0","0","",""
"","feedback","","html-keyboard-response","135","346237","0.0-1.0-177.0-0.0","0","0","48790","","null","","","null","19","","","","","","","","","","","","","","","",""
"","time_out","","html-keyboard-response","136","348241","0.0-1.0-179.0-0.0","0","0","48790","","null","","","null","19","","","","","","","","","","","","","","","",""
"","ITI","","html-keyboard-response","137","349244","0.0-1.0-180.0","0","0","48790","","null","","","null","19","","","","","","","","","","","","","","","NaN",""
"","S1","","html-keyboard-response","138","349498","0.0-1.0-182.0","0","0","48790","","null","","","null","20","","","","","","","","","","","","","","","",""
"","ISI","","html-keyboard-response","139","349652","0.0-1.0-183.0","0","0","48790","","null","","","null","20","NaN","","","","","","","","","","","","","","",""
"","S2","","html-keyboard-response","140","349907","0.0-1.0-184.0","0","0","48790","","null","","","null","20","","NaN","","","","","","","","","","","","","",""
"","response","","html-keyboard-response","141","350391","0.0-1.0-185.0-0.0","0","0","48790","","482","","","75","20","","","1","20","training","adjacent","BC","2","3","Q.jpg","M.jpg","0","1","0","",""
"","feedback","","html-keyboard-response","142","351395","0.0-1.0-186.0-0.0","0","0","48790","","null","","","null","20","","","","","","","","","","","","","","","",""
"","time_out","","html-keyboard-response","143","353398","0.0-1.0-188.0-0.0","0","0","48790","","null","","","null","20","","","","","","","","","","","","","","","",""
"","ITI","","html-keyboard-response","144","354402","0.0-1.0-189.0","0","0","48790","","null","","","null","20","","","","","","","","","","","","","","","NaN",""
"","S1","","html-keyboard-response","145","354655","0.0-1.0-191.0","0","0","48790","","null","","","null","21","","","","","","","","","","","","","","","",""
"","ISI","","html-keyboard-response","146","354808","0.0-1.0-192.0","0","0","48790","","null","","","null","21","NaN","","","","","","","","","","","","","","",""
"","S2","","html-keyboard-response","147","355061","0.0-1.0-193.0","0","0","48790","","null","","","null","21","","NaN","","","","","","","","","","","","","",""
"","response","","html-keyboard-response","148","355575","0.0-1.0-194.0-0.0","0","0","48790","","512","","","68","21","","","1","21","training","adjacent","CD","3","4","M.jpg","R.jpg","1","1","1","",""
"","feedback","","html-keyboard-response","149","356578","0.0-1.0-195.0-0.0","0","0","48790","","null","","","null","21","","","","","","","","","","","","","","","",""
"","ITI","","html-keyboard-response","150","357582","0.0-1.0-198.0","0","0","48790","","null","","","null","21","","","","","","","","","","","","","","","NaN",""
"","S1","","html-keyboard-response","151","357837","0.0-1.0-200.0","0","0","48790","","null","","","null","22","","","","","","","","","","","","","","","",""
"","ISI","","html-keyboard-response","152","357990","0.0-1.0-201.0","0","0","48790","","null","","","null","22","NaN","","","","","","","","","","","","","","",""
"","S2","","html-keyboard-response","153","358245","0.0-1.0-202.0","0","0","48790","","null","","","null","22","","NaN","","","","","","","","","","","","","",""
"","response","","html-keyboard-response","154","358754","0.0-1.0-203.0-0.0","0","0","48790","","506","","","68","22","","","1","22","training","adjacent","FE","6","5","O.jpg","P.jpg","1","0","0","",""
"","feedback","","html-keyboard-response","155","359758","0.0-1.0-204.0-0.0","0","0","48790","","null","","","null","22","","","","","","","","","","","","","","","",""
"","time_out","","html-keyboard-response","156","361762","0.0-1.0-206.0-0.0","0","0","48790","","null","","","null","22","","","","","","","","","","","","","","","",""
"","ITI","","html-keyboard-response","157","362765","0.0-1.0-207.0","0","0","48790","","null","","","null","22","","","","","","","","","","","","","","","NaN",""
"","S1","","html-keyboard-response","158","363019","0.0-1.0-209.0","0","0","48790","","null","","","null","23","","","","","","","","","","","","","","","",""
"","ISI","","html-keyboard-response","159","363173","0.0-1.0-210.0","0","0","48790","","null","","","null","23","NaN","","","","","","","","","","","","","","",""
"","S2","","html-keyboard-response","160","363427","0.0-1.0-211.0","0","0","48790","","null","","","null","23","","NaN","","","","","","","","","","","","","",""
"","response","","html-keyboard-response","161","363640","0.0-1.0-212.0-0.0","0","0","48790","","210","","","75","23","","","1","23","training","adjacent","DE","4","5","R.jpg","P.jpg","0","1","0","",""
"","feedback","","html-keyboard-response","162","364644","0.0-1.0-213.0-0.0","0","0","48790","","null","","","null","23","","","","","","","","","","","","","","","",""
"","time_out","","html-keyboard-response","163","366647","0.0-1.0-215.0-0.0","0","0","48790","","null","","","null","23","","","","","","","","","","","","","","","",""
"","ITI","","html-keyboard-response","164","367649","0.0-1.0-216.0","0","0","48790","","null","","","null","23","","","","","","","","","","","","","","","NaN",""
"","S1","","html-keyboard-response","165","367903","0.0-1.0-218.0","0","0","48790","","null","","","null","24","","","","","","","","","","","","","","","",""
"","ISI","","html-keyboard-response","166","368057","0.0-1.0-219.0","0","0","48790","","null","","","null","24","NaN","","","","","","","","","","","","","","",""
"","S2","","html-keyboard-response","167","368310","0.0-1.0-220.0","0","0","48790","","null","","","null","24","","NaN","","","","","","","","","","","","","",""
"","response","","html-keyboard-response","168","368657","0.0-1.0-221.0-0.0","0","0","48790","","343","","","68","24","","","1","24","training","adjacent","DE","4","5","R.jpg","P.jpg","1","1","1","",""
"","feedback","","html-keyboard-response","169","369661","0.0-1.0-222.0-0.0","0","0","48790","","null","","","null","24","","","","","","","","","","","","","","","",""
"","ITI","","html-keyboard-response","170","370669","0.0-1.0-225.0","0","0","48790","","null","","","null","24","","","","","","","","","","","","","","","NaN",""
"","S1","","html-keyboard-response","171","370932","0.0-1.0-227.0","0","0","48790","","null","","","null","25","","","","","","","","","","","","","","","",""
"","ISI","","html-keyboard-response","172","371086","0.0-1.0-228.0","0","0","48790","","null","","","null","25","NaN","","","","","","","","","","","","","","",""
"","S2","","html-keyboard-response","173","371341","0.0-1.0-229.0","0","0","48790","","null","","","null","25","","NaN","","","","","","","","","","","","","",""
"","response","","html-keyboard-response","174","371697","0.0-1.0-230.0-0.0","0","0","48790","","352","","","68","25","","","1","25","training","adjacent","AB","1","2","N.jpg","Q.jpg","1","1","1","",""
"","feedback","","html-keyboard-response","175","372701","0.0-1.0-231.0-0.0","0","0","48790","","null","","","null","25","","","","","","","","","","","","","","","",""
"","ITI","","html-keyboard-response","176","373705","0.0-1.0-234.0","0","0","48790","","null","","","null","25","","","","","","","","","","","","","","","NaN",""
"","S1","","html-keyboard-response","177","373959","0.0-1.0-236.0","0","0","48790","","null","","","null","26","","","","","","","","","","","","","","","",""
"","ISI","","html-keyboard-response","178","374112","0.0-1.0-237.0","0","0","48790","","null","","","null","26","NaN","","","","","","","","","","","","","","",""
"","S2","","html-keyboard-response","179","374366","0.0-1.0-238.0","0","0","48790","","null","","","null","26","","NaN","","","","","","","","","","","","","",""
"","response","","html-keyboard-response","180","374697","0.0-1.0-239.0-0.0","0","0","48790","","327","","","75","26","","","1","26","training","adjacent","FG","6","7","O.jpg","L.jpg","0","1","0","",""
"","feedback","","html-keyboard-response","181","375701","0.0-1.0-240.0-0.0","0","0","48790","","null","","","null","26","","","","","","","","","","","","","","","",""
"","time_out","","html-keyboard-response","182","377704","0.0-1.0-242.0-0.0","0","0","48790","","null","","","null","26","","","","","","","","","","","","","","","",""
"","ITI","","html-keyboard-response","183","378707","0.0-1.0-243.0","0","0","48790","","null","","","null","26","","","","","","","","","","","","","","","NaN",""
"","S1","","html-keyboard-response","184","378961","0.0-1.0-245.0","0","0","48790","","null","","","null","27","","","","","","","","","","","","","","","",""
"","ISI","","html-keyboard-response","185","379115","0.0-1.0-246.0","0","0","48790","","null","","","null","27","NaN","","","","","","","","","","","","","","",""
"","S2","","html-keyboard-response","186","379369","0.0-1.0-247.0","0","0","48790","","null","","","null","27","","NaN","","","","","","","","","","","","","",""
"","response","","html-keyboard-response","187","379713","0.0-1.0-248.0-0.0","0","0","48790","","341","","","68","27","","","1","27","training","adjacent","FE","6","5","O.jpg","P.jpg","1","0","0","",""
"","feedback","","html-keyboard-response","188","380717","0.0-1.0-249.0-0.0","0","0","48790","","null","","","null","27","","","","","","","","","","","","","","","",""
"","time_out","","html-keyboard-response","189","382722","0.0-1.0-251.0-0.0","0","0","48790","","null","","","null","27","","","","","","","","","","","","","","","",""
"","ITI","","html-keyboard-response","190","383725","0.0-1.0-252.0","0","0","48790","","null","","","null","27","","","","","","","","","","","","","","","NaN",""
"","S1","","html-keyboard-response","191","383979","0.0-1.0-254.0","0","0","48790","","null","","","null","28","","","","","","","","","","","","","","","",""
"","ISI","","html-keyboard-response","192","384133","0.0-1.0-255.0","0","0","48790","","null","","","null","28","NaN","","","","","","","","","","","","","","",""
"","S2","","html-keyboard-response","193","384386","0.0-1.0-256.0","0","0","48790","","null","","","null","28","","NaN","","","","","","","","","","","","","",""
"","response","","html-keyboard-response","194","384449","0.0-1.0-257.0-0.0","0","0","48790","","59","","","75","28","","","1","28","training","adjacent","CD","3","4","M.jpg","R.jpg","0","1","0","",""
"","feedback","","html-keyboard-response","195","385452","0.0-1.0-258.0-0.0","0","0","48790","","null","","","null","28","","","","","","","","","","","","","","","",""
"","time_out","","html-keyboard-response","196","387455","0.0-1.0-260.0-0.0","0","0","48790","","null","","","null","28","","","","","","","","","","","","","","","",""
"","ITI","","html-keyboard-response","197","388457","0.0-1.0-261.0","0","0","48790","","null","","","null","28","","","","","","","","","","","","","","","NaN",""
"","S1","","html-keyboard-response","198","388710","0.0-1.0-263.0","0","0","48790","","null","","","null","29","","","","","","","","","","","","","","","",""
"","ISI","","html-keyboard-response","199","388863","0.0-1.0-264.0","0","0","48790","","null","","","null","29","NaN","","","","","","","","","","","","","","",""
"","S2","","html-keyboard-response","200","389117","0.0-1.0-265.0","0","0","48790","","null","","","null","29","","NaN","","","","","","","","","","","","","",""
"","response","","html-keyboard-response","201","389201","0.0-1.0-266.0-0.0","0","0","48790","","80","","","68","29","","","1","29","training","adjacent","BC","2","3","Q.jpg","M.jpg","1","1","1","",""
"","feedback","","html-keyboard-response","202","390205","0.0-1.0-267.0-0.0","0","0","48790","","null","","","null","29","","","","","","","","","","","","","","","",""
"","ITI","","html-keyboard-response","203","391209","0.0-1.0-270.0","0","0","48790","","null","","","null","29","","","","","","","","","","","","","","","NaN",""
"","S1","","html-keyboard-response","204","391463","0.0-1.0-272.0","0","0","48790","","null","","","null","30","","","","","","","","","","","","","","","",""
"","ISI","","html-keyboard-response","205","391616","0.0-1.0-273.0","0","0","48790","","null","","","null","30","NaN","","","","","","","","","","","","","","",""
"","S2","","html-keyboard-response","206","391870","0.0-1.0-274.0","0","0","48790","","null","","","null","30","","NaN","","","","","","","","","","","","","",""
"","response","","html-keyboard-response","207","392339","0.0-1.0-275.0-0.0","0","0","48790","","465","","","68","30","","","1","30","training","adjacent","BC","2","3","Q.jpg","M.jpg","1","1","1","",""
"","feedback","","html-keyboard-response","208","393343","0.0-1.0-276.0-0.0","0","0","48790","","null","","","null","30","","","","","","","","","","","","","","","",""
"","ITI","","html-keyboard-response","209","394347","0.0-1.0-279.0","0","0","48790","","null","","","null","30","","","","","","","","","","","","","","","NaN",""
"","S1","","html-keyboard-response","210","394601","0.0-1.0-281.0","0","0","48790","","null","","","null","31","","","","","","","","","","","","","","","",""
"","ISI","","html-keyboard-response","211","394768","0.0-1.0-282.0","0","0","48790","","null","","","null","31","NaN","","","","","","","","","","","","","","",""
"","S2","","html-keyboard-response","212","395021","0.0-1.0-283.0","0","0","48790","","null","","","null","31","","NaN","","","","","","","","","","","","","",""
"","response","","html-keyboard-response","213","395377","0.0-1.0-284.0-0.0","0","0","48790","","352","","","68","31","","","1","31","training","adjacent","EF","5","6","P.jpg","O.jpg","1","1","1","",""
"","feedback","","html-keyboard-response","214","396381","0.0-1.0-285.0-0.0","0","0","48790","","null","","","null","31","","","","","","","","","","","","","","","",""
"","ITI","","html-keyboard-response","215","397389","0.0-1.0-288.0","0","0","48790","","null","","","null","31","","","","","","","","","","","","","","","NaN",""
"","S1","","html-keyboard-response","216","397643","0.0-1.0-290.0","0","0","48790","","null","","","null","32","","","","","","","","","","","","","","","",""
"","ISI","","html-keyboard-response","217","397796","0.0-1.0-291.0","0","0","48790","","null","","","null","32","NaN","","","","","","","","","","","","","","",""
"","S2","","html-keyboard-response","218","398050","0.0-1.0-292.0","0","0","48790","","null","","","null","32","","NaN","","","","","","","","","","","","","",""
"","response","","html-keyboard-response","219","398448","0.0-1.0-293.0-0.0","0","0","48790","","395","","","68","32","","","1","32","training","adjacent","GF","7","6","L.jpg","O.jpg","1","0","0","",""
"","feedback","","html-keyboard-response","220","399453","0.0-1.0-294.0-0.0","0","0","48790","","null","","","null","32","","","","","","","","","","","","","","","",""
"","time_out","","html-keyboard-response","221","401457","0.0-1.0-296.0-0.0","0","0","48790","","null","","","null","32","","","","","","","","","","","","","","","",""
"","ITI","","html-keyboard-response","222","402461","0.0-1.0-297.0","0","0","48790","","null","","","null","32","","","","","","","","","","","","","","","NaN",""
"","S1","","html-keyboard-response","223","402717","0.0-1.0-299.0","0","0","48790","","null","","","null","33","","","","","","","","","","","","","","","",""
"","ISI","","html-keyboard-response","224","402871","0.0-1.0-300.0","0","0","48790","","null","","","null","33","NaN","","","","","","","","","","","","","","",""
"","S2","","html-keyboard-response","225","403138","0.0-1.0-301.0","0","0","48790","","null","","","null","33","","NaN","","","","","","","","","","","","","",""
"","response","","html-keyboard-response","226","403353","0.0-1.0-302.0-0.0","0","0","48790","","212","","","75","33","","","1","33","training","adjacent","EF","5","6","P.jpg","O.jpg","0","1","0","",""
"","feedback","","html-keyboard-response","227","404356","0.0-1.0-303.0-0.0","0","0","48790","","null","","","null","33","","","","","","","","","","","","","","","",""
"","time_out","","html-keyboard-response","228","406359","0.0-1.0-305.0-0.0","0","0","48790","","null","","","null","33","","","","","","","","","","","","","","","",""
"","ITI","","html-keyboard-response","229","407362","0.0-1.0-306.0","0","0","48790","","null","","","null","33","","","","","","","","","","","","","","","NaN",""
"","S1","","html-keyboard-response","230","407620","0.0-1.0-308.0","0","0","48790","","null","","","null","34","","","","","","","","","","","","","","","",""
"","ISI","","html-keyboard-response","231","407775","0.0-1.0-309.0","0","0","48790","","null","","","null","34","NaN","","","","","","","","","","","","","","",""
"","S2","","html-keyboard-response","232","408029","0.0-1.0-310.0","0","0","48790","","null","","","null","34","","NaN","","","","","","","","","","","","","",""
"","response","","html-keyboard-response","233","408145","0.0-1.0-311.0-0.0","0","0","48790","","113","","","68","34","","","1","34","training","adjacent","CB","3","2","M.jpg","Q.jpg","1","0","0","",""
"","feedback","","html-keyboard-response","234","409149","0.0-1.0-312.0-0.0","0","0","48790","","null","","","null","34","","","","","","","","","","","","","","","",""
"","time_out","","html-keyboard-response","235","411154","0.0-1.0-314.0-0.0","0","0","48790","","null","","","null","34","","","","","","","","","","","","","","","",""
"","ITI","","html-keyboard-response","236","412158","0.0-1.0-315.0","0","0","48790","","null","","","null","34","","","","","","","","","","","","","","","NaN",""
"","S1","","html-keyboard-response","237","412411","0.0-1.0-317.0","0","0","48790","","null","","","null","35","","","","","","","","","","","","","","","",""
"","ISI","","html-keyboard-response","238","412564","0.0-1.0-318.0","0","0","48790","","null","","","null","35","NaN","","","","","","","","","","","","","","",""
"","S2","","html-keyboard-response","239","412819","0.0-1.0-319.0","0","0","48790","","null","","","null","35","","NaN","","","","","","","","","","","","","",""
"","response","","html-keyboard-response","240","412922","0.0-1.0-320.0-0.0","0","0","48790","","100","","","75","35","","","1","35","training","adjacent","ED","5","4","P.jpg","R.jpg","0","0","1","",""
"","feedback","","html-keyboard-response","241","413927","0.0-1.0-321.0-0.0","0","0","48790","","null","","","null","35","","","","","","","","","","","","","","","",""
"","ITI","","html-keyboard-response","242","414931","0.0-1.0-324.0","0","0","48790","","null","","","null","35","","","","","","","","","","","","","","","NaN",""
"","S1","","html-keyboard-response","243","415184","0.0-1.0-326.0","0","0","48790","","null","","","null","36","","","","","","","","","","","","","","","",""
"","ISI","","html-keyboard-response","244","415340","0.0-1.0-327.0","0","0","48790","","null","","","null","36","NaN","","","","","","","","","","","","","","",""
"","S2","","html-keyboard-response","245","415594","0.0-1.0-328.0","0","0","48790","","null","","","null","36","","NaN","","","","","","","","","","","","","",""
"","response","","html-keyboard-response","246","416082","0.0-1.0-329.0-0.0","0","0","48790","","486","","","75","36","","","1","36","training","adjacent","FG","6","7","O.jpg","L.jpg","0","1","0","",""
"","feedback","","html-keyboard-response","247","417087","0.0-1.0-330.0-0.0","0","0","48790","","null","","","null","36","","","","","","","","","","","","","","","",""
"","time_out","","html-keyboard-response","248","419092","0.0-1.0-332.0-0.0","0","0","48790","","null","","","null","36","","","","","","","","","","","","","","","",""
"","ITI","","html-keyboard-response","249","420096","0.0-1.0-333.0","0","0","48790","","null","","","null","36","","","","","","","","","","","","","","","NaN",""
"","S1","","html-keyboard-response","250","420350","0.0-1.0-335.0","0","0","48790","","null","","","null","37","","","","","","","","","","","","","","","",""
"","ISI","","html-keyboard-response","251","420504","0.0-1.0-336.0","0","0","48790","","null","","","null","37","NaN","","","","","","","","","","","","","","",""
"","S2","","html-keyboard-response","252","420758","0.0-1.0-337.0","0","0","48790","","null","","","null","37","","NaN","","","","","","","","","","","","","",""
"","response","","html-keyboard-response","253","421114","0.0-1.0-338.0-0.0","0","0","48790","","354","","","68","37","","","1","37","training","adjacent","CD","3","4","M.jpg","R.jpg","1","1","1","",""
"","feedback","","html-keyboard-response","254","422119","0.0-1.0-339.0-0.0","0","0","48790","","null","","","null","37","","","","","","","","","","","","","","","",""
"","ITI","","html-keyboard-response","255","423123","0.0-1.0-342.0","0","0","48790","","null","","","null","37","","","","","","","","","","","","","","","NaN",""
"","S1","","html-keyboard-response","256","423376","0.0-1.0-344.0","0","0","48790","","null","","","null","38","","","","","","","","","","","","","","","",""
"","ISI","","html-keyboard-response","257","423529","0.0-1.0-345.0","0","0","48790","","null","","","null","38","NaN","","","","","","","","","","","","","","",""
"","S2","","html-keyboard-response","258","423783","0.0-1.0-346.0","0","0","48790","","null","","","null","38","","NaN","","","","","","","","","","","","","",""
"","response","","html-keyboard-response","259","424194","0.0-1.0-347.0-0.0","0","0","48790","","408","","","75","38","","","1","38","training","adjacent","GF","7","6","L.jpg","O.jpg","0","0","1","",""
"","feedback","","html-keyboard-response","260","425199","0.0-1.0-348.0-0.0","0","0","48790","","null","","","null","38","","","","","","","","","","","","","","","",""
"","ITI","","html-keyboard-response","261","426202","0.0-1.0-351.0","0","0","48790","","null","","","null","38","","","","","","","","","","","","","","","NaN",""
"","S1","","html-keyboard-response","262","426456","0.0-1.0-353.0","0","0","48790","","null","","","null","39","","","","","","","","","","","","","","","",""
"","ISI","","html-keyboard-response","263","426609","0.0-1.0-354.0","0","0","48790","","null","","","null","39","NaN","","","","","","","","","","","","","","",""
"","S2","","html-keyboard-response","264","426862","0.0-1.0-355.0","0","0","48790","","null","","","null","39","","NaN","","","","","","","","","","","","","",""
"","response","","html-keyboard-response","265","427324","0.0-1.0-356.0-0.0","0","0","48790","","458","","","75","39","","","1","39","training","adjacent","DE","4","5","R.jpg","P.jpg","0","1","0","",""
"","feedback","","html-keyboard-response","266","428328","0.0-1.0-357.0-0.0","0","0","48790","","null","","","null","39","","","","","","","","","","","","","","","",""
"","time_out","","html-keyboard-response","267","430333","0.0-1.0-359.0-0.0","0","0","48790","","null","","","null","39","","","","","","","","","","","","","","","",""
"","ITI","","html-keyboard-response","268","431336","0.0-1.0-360.0","0","0","48790","","null","","","null","39","","","","","","","","","","","","","","","NaN",""
"","S1","","html-keyboard-response","269","431591","0.0-1.0-362.0","0","0","48790","","null","","","null","40","","","","","","","","","","","","","","","",""
"","ISI","","html-keyboard-response","270","431745","0.0-1.0-363.0","0","0","48790","","null","","","null","40","NaN","","","","","","","","","","","","","","",""
"","S2","","html-keyboard-response","271","431998","0.0-1.0-364.0","0","0","48790","","null","","","null","40","","NaN","","","","","","","","","","","","","",""
"","response","","html-keyboard-response","272","432396","0.0-1.0-365.0-0.0","0","0","48790","","395","","","68","40","","","1","40","training","adjacent","AB","1","2","N.jpg","Q.jpg","1","1","1","",""
"","feedback","","html-keyboard-response","273","433400","0.0-1.0-366.0-0.0","0","0","48790","","null","","","null","40","","","","","","","","","","","","","","","",""
"","ITI","","html-keyboard-response","274","434404","0.0-1.0-369.0","0","0","48790","","null","","","null","40","","","","","","","","","","","","","","","NaN",""
"","S1","","html-keyboard-response","275","434658","0.0-1.0-371.0","0","0","48790","","null","","","null","41","","","","","","","","","","","","","","","",""
"","ISI","","html-keyboard-response","276","434810","0.0-1.0-372.0","0","0","48790","","null","","","null","41","NaN","","","","","","","","","","","","","","",""
"","S2","","html-keyboard-response","277","435063","0.0-1.0-373.0","0","0","48790","","null","","","null","41","","NaN","","","","","","","","","","","","","",""
"","response","","html-keyboard-response","278","435560","0.0-1.0-374.0-0.0","0","0","48790","","496","","","68","41","","","1","41","training","adjacent","DE","4","5","R.jpg","P.jpg","1","1","1","",""
"","feedback","","html-keyboard-response","279","436562","0.0-1.0-375.0-0.0","0","0","48790","","null","","","null","41","","","","","","","","","","","","","","","",""
"","ITI","","html-keyboard-response","280","437576","0.0-1.0-378.0","0","0","48790","","null","","","null","41","","","","","","","","","","","","","","","NaN",""
"","S1","","html-keyboard-response","281","437830","0.0-1.0-380.0","0","0","48790","","null","","","null","42","","","","","","","","","","","","","","","",""
"","ISI","","html-keyboard-response","282","437983","0.0-1.0-381.0","0","0","48790","","null","","","null","42","NaN","","","","","","","","","","","","","","",""
"","S2","","html-keyboard-response","283","438237","0.0-1.0-382.0","0","0","48790","","null","","","null","42","","NaN","","","","","","","","","","","","","",""
"","response","","html-keyboard-response","284","438850","0.0-1.0-383.0-0.0","0","0","48790","","610","","","68","42","","","1","42","training","adjacent","ED","5","4","P.jpg","R.jpg","1","0","0","",""
"","feedback","","html-keyboard-response","285","439855","0.0-1.0-384.0-0.0","0","0","48790","","null","","","null","42","","","","","","","","","","","","","","","",""
"","time_out","","html-keyboard-response","286","441859","0.0-1.0-386.0-0.0","0","0","48790","","null","","","null","42","","","","","","","","","","","","","","","",""
"","ITI","","html-keyboard-response","287","442862","0.0-1.0-387.0","0","0","48790","","null","","","null","42","","","","","","","","","","","","","","","NaN",""
"","S1","","html-keyboard-response","288","443116","0.0-1.0-389.0","0","0","48790","","null","","","null","43","","","","","","","","","","","","","","","",""
"","ISI","","html-keyboard-response","289","443270","0.0-1.0-390.0","0","0","48790","","99","","","75","43","k","","","","","","","","","","","","","","",""
"","S2","","html-keyboard-response","290","443527","0.0-1.0-391.0","0","0","48790","","null","","","null","43","","NaN","","","","","","","","","","","","","",""
"","response","","html-keyboard-response","291","443970","0.0-1.0-392.0-0.0","0","0","48790","","440","","","75","43","","","1","43","training","adjacent","DC","4","3","R.jpg","M.jpg","0","0","1","",""
"","feedback","","html-keyboard-response","292","444974","0.0-1.0-393.0-0.0","0","0","48790","","null","","","null","43","","","","","","","","","","","","","","","",""
"","ITI","","html-keyboard-response","293","445979","0.0-1.0-396.0","0","0","48790","","null","","","null","43","","","","","","","","","","","","","","","NaN",""
"","S1","","html-keyboard-response","294","446231","0.0-1.0-398.0","0","0","48790","","null","","","null","44","","","","","","","","","","","","","","","",""
"","ISI","","html-keyboard-response","295","446384","0.0-1.0-399.0","0","0","48790","","null","","","null","44","NaN","","","","","","","","","","","","","","",""
"","S2","","html-keyboard-response","296","446638","0.0-1.0-400.0","0","0","48790","","null","","","null","44","","NaN","","","","","","","","","","","","","",""
"","response","","html-keyboard-response","297","447075","0.0-1.0-401.0-0.0","0","0","48790","","433","","","75","44","","","1","44","training","adjacent","GF","7","6","L.jpg","O.jpg","0","0","1","",""
"","feedback","","html-keyboard-response","298","448080","0.0-1.0-402.0-0.0","0","0","48790","","null","","","null","44","","","","","","","","","","","","","","","",""
"","ITI","","html-keyboard-response","299","449084","0.0-1.0-405.0","0","0","48790","","null","","","null","44","","","","","","","","","","","","","","","NaN",""
"","S1","","html-keyboard-response","300","449337","0.0-1.0-407.0","0","0","48790","","null","","","null","45","","","","","","","","","","","","","","","",""
"","ISI","","html-keyboard-response","301","449490","0.0-1.0-408.0","0","0","48790","","null","","","null","45","NaN","","","","","","","","","","","","","","",""
"","S2","","html-keyboard-response","302","449744","0.0-1.0-409.0","0","0","48790","","null","","","null","45","","NaN","","","","","","","","","","","","","",""
"","response","","html-keyboard-response","303","450580","0.0-1.0-410.0-0.0","0","0","48790","","833","","","75","45","","","1","45","training","adjacent","CB","3","2","M.jpg","Q.jpg","0","0","1","",""
"","feedback","","html-keyboard-response","304","451585","0.0-1.0-411.0-0.0","0","0","48790","","null","","","null","45","","","","","","","","","","","","","","","",""
"","ITI","","html-keyboard-response","305","452588","0.0-1.0-414.0","0","0","48790","","null","","","null","45","","","","","","","","","","","","","","","NaN",""
"","S1","","html-keyboard-response","306","452843","0.0-1.0-416.0","0","0","48790","","null","","","null","46","","","","","","","","","","","","","","","",""
"","ISI","","html-keyboard-response","307","452996","0.0-1.0-417.0","0","0","48790","","null","","","null","46","NaN","","","","","","","","","","","","","","",""
"","S2","","html-keyboard-response","308","453250","0.0-1.0-418.0","0","0","48790","","null","","","null","46","","NaN","","","","","","","","","","","","","",""
"","response","","html-keyboard-response","309","453714","0.0-1.0-419.0-0.0","0","0","48790","","461","","","75","46","","","1","46","training","adjacent","AB","1","2","N.jpg","Q.jpg","0","1","0","",""
"","feedback","","html-keyboard-response","310","454718","0.0-1.0-420.0-0.0","0","0","48790","","null","","","null","46","","","","","","","","","","","","","","","",""
"","time_out","","html-keyboard-response","311","456722","0.0-1.0-422.0-0.0","0","0","48790","","null","","","null","46","","","","","","","","","","","","","","","",""
"","ITI","","html-keyboard-response","312","457725","0.0-1.0-423.0","0","0","48790","","null","","","null","46","","","","","","","","","","","","","","","NaN",""
"","S1","","html-keyboard-response","313","457979","0.0-1.0-425.0","0","0","48790","","null","","","null","47","","","","","","","","","","","","","","","",""
"","ISI","","html-keyboard-response","314","458132","0.0-1.0-426.0","0","0","48790","","null","","","null","47","NaN","","","","","","","","","","","","","","",""
"","S2","","html-keyboard-response","315","458387","0.0-1.0-427.0","0","0","48790","","null","","","null","47","","NaN","","","","","","","","","","","","","",""
"","response","","html-keyboard-response","316","458482","0.0-1.0-428.0-0.0","0","0","48790","","92","","","68","47","","","1","47","training","adjacent","EF","5","6","P.jpg","O.jpg","1","1","1","",""
"","feedback","","html-keyboard-response","317","459487","0.0-1.0-429.0-0.0","0","0","48790","","null","","","null","47","","","","","","","","","","","","","","","",""
"","ITI","","html-keyboard-response","318","460492","0.0-1.0-432.0","0","0","48790","","null","","","null","47","","","","","","","","","","","","","","","NaN",""
"","block_over","","html-keyboard-response","319","466018","0.0-1.0-433.0-0.0","0","0","48790","","5522","","","32","47","","","","","","","","","","","","","","","",""
"","S1","","html-keyboard-response","320","466273","0.0-1.0-434.0","0","0","48790","","null","","","null","48","","","","","","","","","","","","","","","",""
"","ISI","","html-keyboard-response","321","466425","0.0-1.0-435.0","0","0","48790","","null","","","null","48","NaN","","","","","","","","","","","","","","",""
"","S2","","html-keyboard-response","322","466678","0.0-1.0-436.0","0","0","48790","","null","","","null","48","","NaN","","","","","","","","","","","","","",""
"","response","","html-keyboard-response","323","467538","0.0-1.0-437.0-0.0","0","0","48790","","856","","","68","48","","","2","48","training","adjacent","BC","2","3","Q.jpg","M.jpg","1","1","1","",""
"","feedback","","html-keyboard-response","324","468542","0.0-1.0-438.0-0.0","0","0","48790","","null","","","null","48","","","","","","","","","","","","","","","",""
"","ITI","","html-keyboard-response","325","469554","0.0-1.0-441.0","0","0","48790","","null","","","null","48","","","","","","","","","","","","","","","NaN",""
"","S1","","html-keyboard-response","326","469808","0.0-1.0-443.0","0","0","48790","","null","","","null","49","","","","","","","","","","","","","","","",""
"","ISI","","html-keyboard-response","327","469961","0.0-1.0-444.0","0","0","48790","","null","","","null","49","NaN","","","","","","","","","","","","","","",""
"","S2","","html-keyboard-response","328","470215","0.0-1.0-445.0","0","0","48790","","null","","","null","49","","NaN","","","","","","","","","","","","","",""
"","response","","html-keyboard-response","329","470800","0.0-1.0-446.0-0.0","0","0","48790","","583","","","68","49","","","2","49","training","adjacent","AB","1","2","N.jpg","Q.jpg","1","1","1","",""
"","feedback","","html-keyboard-response","330","471804","0.0-1.0-447.0-0.0","0","0","48790","","null","","","null","49","","","","","","","","","","","","","","","",""
"","ITI","","html-keyboard-response","331","472810","0.0-1.0-450.0","0","0","48790","","null","","","null","49","","","","","","","","","","","","","","","NaN",""
"","S1","","html-keyboard-response","332","473063","0.0-1.0-452.0","0","0","48790","","null","","","null","50","","","","","","","","","","","","","","","",""
"","ISI","","html-keyboard-response","333","473231","0.0-1.0-453.0","0","0","48790","","null","","","null","50","NaN","","","","","","","","","","","","","","",""
"","S2","","html-keyboard-response","334","473485","0.0-1.0-454.0","0","0","48790","","null","","","null","50","","NaN","","","","","","","","","","","","","",""
"","response","","html-keyboard-response","335","473996","0.0-1.0-455.0-0.0","0","0","48790","","509","","","68","50","","","2","50","training","adjacent","BC","2","3","Q.jpg","M.jpg","1","1","1","",""
"","feedback","","html-keyboard-response","336","474999","0.0-1.0-456.0-0.0","0","0","48790","","null","","","null","50","","","","","","","","","","","","","","","",""
"","ITI","","html-keyboard-response","337","476003","0.0-1.0-459.0","0","0","48790","","null","","","null","50","","","","","","","","","","","","","","","NaN",""
"","S1","","html-keyboard-response","338","476271","0.0-1.0-461.0","0","0","48790","","null","","","null","51","","","","","","","","","","","","","","","",""
"","ISI","","html-keyboard-response","339","476423","0.0-1.0-462.0","0","0","48790","","null","","","null","51","NaN","","","","","","","","","","","","","","",""
"","S2","","html-keyboard-response","340","476677","0.0-1.0-463.0","0","0","48790","","null","","","null","51","","NaN","","","","","","","","","","","","","",""
"","response","","html-keyboard-response","341","477083","0.0-1.0-464.0-0.0","0","0","48790","","404","","","68","51","","","2","51","training","adjacent","BC","2","3","Q.jpg","M.jpg","1","1","1","",""
"","feedback","","html-keyboard-response","342","478087","0.0-1.0-465.0-0.0","0","0","48790","","null","","","null","51","","","","","","","","","","","","","","","",""
"","ITI","","html-keyboard-response","343","479089","0.0-1.0-468.0","0","0","48790","","null","","","null","51","","","","","","","","","","","","","","","NaN",""
"","S1","","html-keyboard-response","344","479343","0.0-1.0-470.0","0","0","48790","","null","","","null","52","","","","","","","","","","","","","","","",""
"","ISI","","html-keyboard-response","345","479510","0.0-1.0-471.0","0","0","48790","","null","","","null","52","NaN","","","","","","","","","","","","","","",""
"","S2","","html-keyboard-response","346","479762","0.0-1.0-472.0","0","0","48790","","null","","","null","52","","NaN","","","","","","","","","","","","","",""
"","response","","html-keyboard-response","347","480114","0.0-1.0-473.0-0.0","0","0","48790","","349","","","68","52","","","2","52","training","adjacent","CB","3","2","M.jpg","Q.jpg","1","0","0","",""
"","feedback","","html-keyboard-response","348","481119","0.0-1.0-474.0-0.0","0","0","48790","","null","","","null","52","","","","","","","","","","","","","","","",""
"","time_out","","html-keyboard-response","349","483122","0.0-1.0-476.0-0.0","0","0","48790","","null","","","null","52","","","","","","","","","","","","","","","",""
"","ITI","","html-keyboard-response","350","484124","0.0-1.0-477.0","0","0","48790","","null","","","null","52","","","","","","","","","","","","","","","NaN",""
"","S1","","html-keyboard-response","351","484376","0.0-1.0-479.0","0","0","48790","","null","","","null","53","","","","","","","","","","","","","","","",""
"","ISI","","html-keyboard-response","352","484529","0.0-1.0-480.0","0","0","48790","","null","","","null","53","NaN","","","","","","","","","","","","","","",""
"","S2","","html-keyboard-response","353","484782","0.0-1.0-481.0","0","0","48790","","null","","","null","53","","NaN","","","","","","","","","","","","","",""
"","response","","html-keyboard-response","354","485168","0.0-1.0-482.0-0.0","0","0","48790","","384","","","75","53","","","2","53","training","adjacent","ED","5","4","P.jpg","R.jpg","0","0","1","",""
"","feedback","","html-keyboard-response","355","486171","0.0-1.0-483.0-0.0","0","0","48790","","null","","","null","53","","","","","","","","","","","","","","","",""
"","ITI","","html-keyboard-response","356","487175","0.0-1.0-486.0","0","0","48790","","null","","","null","53","","","","","","","","","","","","","","","NaN",""
"","S1","","html-keyboard-response","357","487429","0.0-1.0-488.0","0","0","48790","","null","","","null","54","","","","","","","","","","","","","","","",""
"","ISI","","html-keyboard-response","358","487583","0.0-1.0-489.0","0","0","48790","","null","","","null","54","NaN","","","","","","","","","","","","","","",""
"","S2","","html-keyboard-response","359","487842","0.0-1.0-490.0","0","0","48790","","null","","","null","54","","NaN","","","","","","","","","","","","","",""
"","response","","html-keyboard-response","360","488525","0.0-1.0-491.0-0.0","0","0","48790","","680","","","75","54","","","2","54","training","adjacent","AB","1","2","N.jpg","Q.jpg","0","1","0","",""
"","feedback","","html-keyboard-response","361","489528","0.0-1.0-492.0-0.0","0","0","48790","","null","","","null","54","","","","","","","","","","","","","","","",""
"","time_out","","html-keyboard-response","362","491532","0.0-1.0-494.0-0.0","0","0","48790","","null","","","null","54","","","","","","","","","","","","","","","",""
"","ITI","","html-keyboard-response","363","492537","0.0-1.0-495.0","0","0","48790","","null","","","null","54","","","","","","","","","","","","","","","NaN",""
"","S1","","html-keyboard-response","364","492790","0.0-1.0-497.0","0","0","48790","","null","","","null","55","","","","","","","","","","","","","","","",""
"","ISI","","html-keyboard-response","365","492943","0.0-1.0-498.0","0","0","48790","","null","","","null","55","NaN","","","","","","","","","","","","","","",""
"","S2","","html-keyboard-response","366","493198","0.0-1.0-499.0","0","0","48790","","null","","","null","55","","NaN","","","","","","","","","","","","","",""
"","response","","html-keyboard-response","367","493549","0.0-1.0-500.0-0.0","0","0","48790","","347","","","68","55","","","2","55","training","adjacent","DC","4","3","R.jpg","M.jpg","1","0","0","",""
"","feedback","","html-keyboard-response","368","494552","0.0-1.0-501.0-0.0","0","0","48790","","null","","","null","55","","","","","","","","","","","","","","","",""
"","time_out","","html-keyboard-response","369","496555","0.0-1.0-503.0-0.0","0","0","48790","","null","","","null","55","","","","","","","","","","","","","","","",""
"","ITI","","html-keyboard-response","370","497558","0.0-1.0-504.0","0","0","48790","","null","","","null","55","","","","","","","","","","","","","","","NaN",""
"","S1","","html-keyboard-response","371","497812","0.0-1.0-506.0","0","0","48790","","null","","","null","56","","","","","","","","","","","","","","","",""
"","ISI","","html-keyboard-response","372","497965","0.0-1.0-507.0","0","0","48790","","null","","","null","56","NaN","","","","","","","","","","","","","","",""
"","S2","","html-keyboard-response","373","498219","0.0-1.0-508.0","0","0","48790","","null","","","null","56","","NaN","","","","","","","","","","","","","",""
"","response","","html-keyboard-response","374","498338","0.0-1.0-509.0-0.0","0","0","48790","","116","","","75","56","","","2","56","training","adjacent","GF","7","6","L.jpg","O.jpg","0","0","1","",""
"","feedback","","html-keyboard-response","375","499343","0.0-1.0-510.0-0.0","0","0","48790","","null","","","null","56","","","","","","","","","","","","","","","",""
"","ITI","","html-keyboard-response","376","500347","0.0-1.0-513.0","0","0","48790","","null","","","null","56","","","","","","","","","","","","","","","NaN",""
"","S1","","html-keyboard-response","377","500600","0.0-1.0-515.0","0","0","48790","","null","","","null","57","","","","","","","","","","","","","","","",""
"","ISI","","html-keyboard-response","378","500753","0.0-1.0-516.0","0","0","48790","","null","","","null","57","NaN","","","","","","","","","","","","","","",""
"","S2","","html-keyboard-response","379","501007","0.0-1.0-517.0","0","0","48790","","null","","","null","57","","NaN","","","","","","","","","","","","","",""
"","response","","html-keyboard-response","380","501561","0.0-1.0-518.0-0.0","0","0","48790","","552","","","75","57","","","2","57","training","adjacent","CD","3","4","M.jpg","R.jpg","0","1","0","",""
"","feedback","","html-keyboard-response","381","502564","0.0-1.0-519.0-0.0","0","0","48790","","null","","","null","57","","","","","","","","","","","","","","","",""
"","time_out","","html-keyboard-response","382","504569","0.0-1.0-521.0-0.0","0","0","48790","","null","","","null","57","","","","","","","","","","","","","","","",""
"","ITI","","html-keyboard-response","383","505574","0.0-1.0-522.0","0","0","48790","","null","","","null","57","","","","","","","","","","","","","","","NaN",""
"","S1","","html-keyboard-response","384","505828","0.0-1.0-524.0","0","0","48790","","null","","","null","58","","","","","","","","","","","","","","","",""
"","ISI","","html-keyboard-response","385","505982","0.0-1.0-525.0","0","0","48790","","null","","","null","58","NaN","","","","","","","","","","","","","","",""
"","S2","","html-keyboard-response","386","506235","0.0-1.0-526.0","0","0","48790","","null","","","null","58","","NaN","","","","","","","","","","","","","",""
"","response","","html-keyboard-response","387","506611","0.0-1.0-527.0-0.0","0","0","48790","","373","","","68","58","","","2","58","training","adjacent","EF","5","6","P.jpg","O.jpg","1","1","1","",""
"","feedback","","html-keyboard-response","388","507615","0.0-1.0-528.0-0.0","0","0","48790","","null","","","null","58","","","","","","","","","","","","","","","",""
"","ITI","","html-keyboard-response","389","508619","0.0-1.0-531.0","0","0","48790","","null","","","null","58","","","","","","","","","","","","","","","NaN",""
"","S1","","html-keyboard-response","390","508873","0.0-1.0-533.0","0","0","48790","","null","","","null","59","","","","","","","","","","","","","","","",""
"","ISI","","html-keyboard-response","391","509028","0.0-1.0-534.0","0","0","48790","","null","","","null","59","NaN","","","","","","","","","","","","","","",""
"","S2","","html-keyboard-response","392","509282","0.0-1.0-535.0","0","0","48790","","null","","","null","59","","NaN","","","","","","","","","","","","","",""
"","response","","html-keyboard-response","393","509737","0.0-1.0-536.0-0.0","0","0","48790","","452","","","75","59","","","2","59","training","adjacent","FG","6","7","O.jpg","L.jpg","0","1","0","",""
"","feedback","","html-keyboard-response","394","510739","0.0-1.0-537.0-0.0","0","0","48790","","null","","","null","59","","","","","","","","","","","","","","","",""
"","time_out","","html-keyboard-response","395","512741","0.0-1.0-539.0-0.0","0","0","48790","","null","","","null","59","","","","","","","","","","","","","","","",""
"","ITI","","html-keyboard-response","396","513743","0.0-1.0-540.0","0","0","48790","","null","","","null","59","","","","","","","","","","","","","","","NaN",""
"","S1","","html-keyboard-response","397","513996","0.0-1.0-542.0","0","0","48790","","null","","","null","60","","","","","","","","","","","","","","","",""
"","ISI","","html-keyboard-response","398","514149","0.0-1.0-543.0","0","0","48790","","null","","","null","60","NaN","","","","","","","","","","","","","","",""
"","S2","","html-keyboard-response","399","514401","0.0-1.0-544.0","0","0","48790","","null","","","null","60","","NaN","","","","","","","","","","","","","",""
"","response","","html-keyboard-response","400","514864","0.0-1.0-545.0-0.0","0","0","48790","","462","","","68","60","","","2","60","training","adjacent","BA","2","1","Q.jpg","N.jpg","1","0","0","",""
"","feedback","","html-keyboard-response","401","515867","0.0-1.0-546.0-0.0","0","0","48790","","null","","","null","60","","","","","","","","","","","","","","","",""
"","time_out","","html-keyboard-response","402","517871","0.0-1.0-548.0-0.0","0","0","48790","","null","","","null","60","","","","","","","","","","","","","","","",""
"","ITI","","html-keyboard-response","403","518874","0.0-1.0-549.0","0","0","48790","","null","","","null","60","","","","","","","","","","","","","","","NaN",""
"","S1","","html-keyboard-response","404","519127","0.0-1.0-551.0","0","0","48790","","null","","","null","61","","","","","","","","","","","","","","","",""
"","ISI","","html-keyboard-response","405","519280","0.0-1.0-552.0","0","0","48790","","null","","","null","61","NaN","","","","","","","","","","","","","","",""
"","S2","","html-keyboard-response","406","519532","0.0-1.0-553.0","0","0","48790","","null","","","null","61","","NaN","","","","","","","","","","","","","",""
"","response","","html-keyboard-response","407","519963","0.0-1.0-554.0-0.0","0","0","48790","","427","","","75","61","","","2","61","training","adjacent","CD","3","4","M.jpg","R.jpg","0","1","0","",""
"","feedback","","html-keyboard-response","408","520967","0.0-1.0-555.0-0.0","0","0","48790","","null","","","null","61","","","","","","","","","","","","","","","",""
"","time_out","","html-keyboard-response","409","522970","0.0-1.0-557.0-0.0","0","0","48790","","null","","","null","61","","","","","","","","","","","","","","","",""
"","ITI","","html-keyboard-response","410","523971","0.0-1.0-558.0","0","0","48790","","null","","","null","61","","","","","","","","","","","","","","","NaN",""
"","S1","","html-keyboard-response","411","524224","0.0-1.0-560.0","0","0","48790","","null","","","null","62","","","","","","","","","","","","","","","",""
"","ISI","","html-keyboard-response","412","524379","0.0-1.0-561.0","0","0","48790","","null","","","null","62","NaN","","","","","","","","","","","","","","",""
"","S2","","html-keyboard-response","413","524632","0.0-1.0-562.0","0","0","48790","","null","","","null","62","","NaN","","","","","","","","","","","","","",""
"","response","","html-keyboard-response","414","524995","0.0-1.0-563.0-0.0","0","0","48790","","360","","","68","62","","","2","62","training","adjacent","DC","4","3","R.jpg","M.jpg","1","0","0","",""
"","feedback","","html-keyboard-response","415","525999","0.0-1.0-564.0-0.0","0","0","48790","","null","","","null","62","","","","","","","","","","","","","","","",""
"","time_out","","html-keyboard-response","416","528002","0.0-1.0-566.0-0.0","0","0","48790","","null","","","null","62","","","","","","","","","","","","","","","",""
"","ITI","","html-keyboard-response","417","529016","0.0-1.0-567.0","0","0","48790","","null","","","null","62","","","","","","","","","","","","","","","NaN",""
"","S1","","html-keyboard-response","418","529270","0.0-1.0-569.0","0","0","48790","","null","","","null","63","","","","","","","","","","","","","","","",""
"","ISI","","html-keyboard-response","419","529423","0.0-1.0-570.0","0","0","48790","","null","","","null","63","NaN","","","","","","","","","","","","","","",""
"","S2","","html-keyboard-response","420","529680","0.0-1.0-571.0","0","0","48790","","null","","","null","63","","NaN","","","","","","","","","","","","","",""
"","response","","html-keyboard-response","421","530242","0.0-1.0-572.0-0.0","0","0","48790","","560","","","75","63","","","2","63","training","adjacent","BA","2","1","Q.jpg","N.jpg","0","0","1","",""
"","feedback","","html-keyboard-response","422","531245","0.0-1.0-573.0-0.0","0","0","48790","","null","","","null","63","","","","","","","","","","","","","","","",""
"","ITI","","html-keyboard-response","423","532249","0.0-1.0-576.0","0","0","48790","","null","","","null","63","","","","","","","","","","","","","","","NaN",""
"","S1","","html-keyboard-response","424","532503","0.0-1.0-578.0","0","0","48790","","null","","","null","64","","","","","","","","","","","","","","","",""
"","ISI","","html-keyboard-response","425","532657","0.0-1.0-579.0","0","0","48790","","null","","","null","64","NaN","","","","","","","","","","","","","","",""
"","S2","","html-keyboard-response","426","532911","0.0-1.0-580.0","0","0","48790","","null","","","null","64","","NaN","","","","","","","","","","","","","",""
"","response","","html-keyboard-response","427","533411","0.0-1.0-581.0-0.0","0","0","48790","","497","","","75","64","","","2","64","training","adjacent","CD","3","4","M.jpg","R.jpg","0","1","0","",""
"","feedback","","html-keyboard-response","428","534416","0.0-1.0-582.0-0.0","0","0","48790","","null","","","null","64","","","","","","","","","","","","","","","",""
"","time_out","","html-keyboard-response","429","536421","0.0-1.0-584.0-0.0","0","0","48790","","null","","","null","64","","","","","","","","","","","","","","","",""
"","ITI","","html-keyboard-response","430","537424","0.0-1.0-585.0","0","0","48790","","null","","","null","64","","","","","","","","","","","","","","","NaN",""
"","S1","","html-keyboard-response","431","537679","0.0-1.0-587.0","0","0","48790","","null","","","null","65","","","","","","","","","","","","","","","",""
"","ISI","","html-keyboard-response","432","537830","0.0-1.0-588.0","0","0","48790","","null","","","null","65","NaN","","","","","","","","","","","","","","",""
"","S2","","html-keyboard-response","433","538083","0.0-1.0-589.0","0","0","48790","","null","","","null","65","","NaN","","","","","","","","","","","","","",""
"","response","","html-keyboard-response","434","538195","0.0-1.0-590.0-0.0","0","0","48790","","109","","","68","65","","","2","65","training","adjacent","DE","4","5","R.jpg","P.jpg","1","1","1","",""
"","feedback","","html-keyboard-response","435","539200","0.0-1.0-591.0-0.0","0","0","48790","","null","","","null","65","","","","","","","","","","","","","","","",""
"","ITI","","html-keyboard-response","436","540204","0.0-1.0-594.0","0","0","48790","","null","","","null","65","","","","","","","","","","","","","","","NaN",""
"","S1","","html-keyboard-response","437","540460","0.0-1.0-596.0","0","0","48790","","null","","","null","66","","","","","","","","","","","","","","","",""
"","ISI","","html-keyboard-response","438","540613","0.0-1.0-597.0","0","0","48790","","null","","","null","66","NaN","","","","","","","","","","","","","","",""
"","S2","","html-keyboard-response","439","540873","0.0-1.0-598.0","0","0","48790","","null","","","null","66","","NaN","","","","","","","","","","","","","",""
"","response","","html-keyboard-response","440","541219","0.0-1.0-599.0-0.0","0","0","48790","","343","","","68","66","","","2","66","training","adjacent","FG","6","7","O.jpg","L.jpg","1","1","1","",""
"","feedback","","html-keyboard-response","441","542224","0.0-1.0-600.0-0.0","0","0","48790","","null","","","null","66","","","","","","","","","","","","","","","",""
"","ITI","","html-keyboard-response","442","543228","0.0-1.0-603.0","0","0","48790","","null","","","null","66","","","","","","","","","","","","","","","NaN",""
"","S1","","html-keyboard-response","443","543480","0.0-1.0-605.0","0","0","48790","","null","","","null","67","","","","","","","","","","","","","","","",""
"","ISI","","html-keyboard-response","444","543634","0.0-1.0-606.0","0","0","48790","","null","","","null","67","NaN","","","","","","","","","","","","","","",""
"","S2","","html-keyboard-response","445","543888","0.0-1.0-607.0","0","0","48790","","null","","","null","67","","NaN","","","","","","","","","","","","","",""
"","response","","html-keyboard-response","446","544216","0.0-1.0-608.0-0.0","0","0","48790","","326","","","68","67","","","2","67","training","adjacent","ED","5","4","P.jpg","R.jpg","1","0","0","",""
"","feedback","","html-keyboard-response","447","545219","0.0-1.0-609.0-0.0","0","0","48790","","null","","","null","67","","","","","","","","","","","","","","","",""
"","time_out","","html-keyboard-response","448","547223","0.0-1.0-611.0-0.0","0","0","48790","","null","","","null","67","","","","","","","","","","","","","","","",""
"","ITI","","html-keyboard-response","449","548228","0.0-1.0-612.0","0","0","48790","","null","","","null","67","","","","","","","","","","","","","","","NaN",""
"","S1","","html-keyboard-response","450","548481","0.0-1.0-614.0","0","0","48790","","null","","","null","68","","","","","","","","","","","","","","","",""
"","ISI","","html-keyboard-response","451","548634","0.0-1.0-615.0","0","0","48790","","null","","","null","68","NaN","","","","","","","","","","","","","","",""
"","S2","","html-keyboard-response","452","548887","0.0-1.0-616.0","0","0","48790","","null","","","null","68","","NaN","","","","","","","","","","","","","",""
"","response","","html-keyboard-response","453","549043","0.0-1.0-617.0-0.0","0","0","48790","","153","","","68","68","","","2","68","training","adjacent","FE","6","5","O.jpg","P.jpg","1","0","0","",""
"","feedback","","html-keyboard-response","454","550048","0.0-1.0-618.0-0.0","0","0","48790","","null","","","null","68","","","","","","","","","","","","","","","",""
"","time_out","","html-keyboard-response","455","552052","0.0-1.0-620.0-0.0","0","0","48790","","null","","","null","68","","","","","","","","","","","","","","","",""
"","ITI","","html-keyboard-response","456","553056","0.0-1.0-621.0","0","0","48790","","null","","","null","68","","","","","","","","","","","","","","","NaN",""
"","S1","","html-keyboard-response","457","553309","0.0-1.0-623.0","0","0","48790","","null","","","null","69","","","","","","","","","","","","","","","",""
"","ISI","","html-keyboard-response","458","553461","0.0-1.0-624.0","0","0","48790","","null","","","null","69","NaN","","","","","","","","","","","","","","",""
"","S2","","html-keyboard-response","459","553713","0.0-1.0-625.0","0","0","48790","","null","","","null","69","","NaN","","","","","","","","","","","","","",""
"","response","","html-keyboard-response","460","554115","0.0-1.0-626.0-0.0","0","0","48790","","398","","","75","69","","","2","69","training","adjacent","EF","5","6","P.jpg","O.jpg","0","1","0","",""
"","feedback","","html-keyboard-response","461","555118","0.0-1.0-627.0-0.0","0","0","48790","","null","","","null","69","","","","","","","","","","","","","","","",""
"","time_out","","html-keyboard-response","462","557123","0.0-1.0-629.0-0.0","0","0","48790","","null","","","null","69","","","","","","","","","","","","","","","",""
"","ITI","","html-keyboard-response","463","558128","0.0-1.0-630.0","0","0","48790","","null","","","null","69","","","","","","","","","","","","","","","NaN",""
"","S1","","html-keyboard-response","464","558382","0.0-1.0-632.0","0","0","48790","","null","","","null","70","","","","","","","","","","","","","","","",""
"","ISI","","html-keyboard-response","465","558535","0.0-1.0-633.0","0","0","48790","","null","","","null","70","NaN","","","","","","","","","","","","","","",""
"","S2","","html-keyboard-response","466","558789","0.0-1.0-634.0","0","0","48790","","null","","","null","70","","NaN","","","","","","","","","","","","","",""
"","response","","html-keyboard-response","467","559259","0.0-1.0-635.0-0.0","0","0","48790","","467","","","68","70","","","2","70","training","adjacent","FG","6","7","O.jpg","L.jpg","1","1","1","",""
"","feedback","","html-keyboard-response","468","560263","0.0-1.0-636.0-0.0","0","0","48790","","null","","","null","70","","","","","","","","","","","","","","","",""
"","ITI","","html-keyboard-response","469","561267","0.0-1.0-639.0","0","0","48790","","null","","","null","70","","","","","","","","","","","","","","","NaN",""
"","S1","","html-keyboard-response","470","561520","0.0-1.0-641.0","0","0","48790","","null","","","null","71","","","","","","","","","","","","","","","",""
"","ISI","","html-keyboard-response","471","561673","0.0-1.0-642.0","0","0","48790","","null","","","null","71","NaN","","","","","","","","","","","","","","",""
"","S2","","html-keyboard-response","472","561925","0.0-1.0-643.0","0","0","48790","","null","","","null","71","","NaN","","","","","","","","","","","","","",""
"","response","","html-keyboard-response","473","562432","0.0-1.0-644.0-0.0","0","0","48790","","507","","","68","71","","","2","71","training","adjacent","DE","4","5","R.jpg","P.jpg","1","1","1","",""
"","feedback","","html-keyboard-response","474","563440","0.0-1.0-645.0-0.0","0","0","48790","","null","","","null","71","","","","","","","","","","","","","","","",""
"","ITI","","html-keyboard-response","475","564443","0.0-1.0-648.0","0","0","48790","","null","","","null","71","","","","","","","","","","","","","","","NaN",""
"","S1","","html-keyboard-response","476","564697","0.0-1.0-650.0","0","0","48790","","null","","","null","72","","","","","","","","","","","","","","","",""
"","ISI","","html-keyboard-response","477","564849","0.0-1.0-651.0","0","0","48790","","null","","","null","72","NaN","","","","","","","","","","","","","","",""
"","S2","","html-keyboard-response","478","565102","0.0-1.0-652.0","0","0","48790","","null","","","null","72","","NaN","","","","","","","","","","","","","",""
"","response","","html-keyboard-response","479","565579","0.0-1.0-653.0-0.0","0","0","48790","","474","","","68","72","","","2","72","training","adjacent","EF","5","6","P.jpg","O.jpg","1","1","1","",""
"","feedback","","html-keyboard-response","480","566584","0.0-1.0-654.0-0.0","0","0","48790","","null","","","null","72","","","","","","","","","","","","","","","",""
"","ITI","","html-keyboard-response","481","567588","0.0-1.0-657.0","0","0","48790","","null","","","null","72","","","","","","","","","","","","","","","NaN",""
"","S1","","html-keyboard-response","482","567841","0.0-1.0-659.0","0","0","48790","","null","","","null","73","","","","","","","","","","","","","","","",""
"","ISI","","html-keyboard-response","483","567995","0.0-1.0-660.0","0","0","48790","","null","","","null","73","NaN","","","","","","","","","","","","","","",""
"","S2","","html-keyboard-response","484","568249","0.0-1.0-661.0","0","0","48790","","null","","","null","73","","NaN","","","","","","","","","","","","","",""
"","response","","html-keyboard-response","485","568627","0.0-1.0-662.0-0.0","0","0","48790","","375","","","68","73","","","2","73","training","adjacent","CD","3","4","M.jpg","R.jpg","1","1","1","",""
"","feedback","","html-keyboard-response","486","569631","0.0-1.0-663.0-0.0","0","0","48790","","null","","","null","73","","","","","","","","","","","","","","","",""
"","ITI","","html-keyboard-response","487","570634","0.0-1.0-666.0","0","0","48790","","null","","","null","73","","","","","","","","","","","","","","","NaN",""
"","S1","","html-keyboard-response","488","570889","0.0-1.0-668.0","0","0","48790","","null","","","null","74","","","","","","","","","","","","","","","",""
"","ISI","","html-keyboard-response","489","571042","0.0-1.0-669.0","0","0","48790","","null","","","null","74","NaN","","","","","","","","","","","","","","",""
"","S2","","html-keyboard-response","490","571295","0.0-1.0-670.0","0","0","48790","","null","","","null","74","","NaN","","","","","","","","","","","","","",""
"","response","","html-keyboard-response","491","571650","0.0-1.0-671.0-0.0","0","0","48790","","353","","","68","74","","","2","74","training","adjacent","CB","3","2","M.jpg","Q.jpg","1","0","0","",""
"","feedback","","html-keyboard-response","492","572652","0.0-1.0-672.0-0.0","0","0","48790","","null","","","null","74","","","","","","","","","","","","","","","",""
"","time_out","","html-keyboard-response","493","574655","0.0-1.0-674.0-0.0","0","0","48790","","null","","","null","74","","","","","","","","","","","","","","","",""
"","ITI","","html-keyboard-response","494","575659","0.0-1.0-675.0","0","0","48790","","null","","","null","74","","","","","","","","","","","","","","","NaN",""
"","S1","","html-keyboard-response","495","575913","0.0-1.0-677.0","0","0","48790","","null","","","null","75","","","","","","","","","","","","","","","",""
"","ISI","","html-keyboard-response","496","576067","0.0-1.0-678.0","0","0","48790","","null","","","null","75","NaN","","","","","","","","","","","","","","",""
"","S2","","html-keyboard-response","497","576322","0.0-1.0-679.0","0","0","48790","","null","","","null","75","","NaN","","","","","","","","","","","","","",""
"","response","","html-keyboard-response","498","576676","0.0-1.0-680.0-0.0","0","0","48790","","350","","","75","75","","","2","75","training","adjacent","FE","6","5","O.jpg","P.jpg","0","0","1","",""
"","feedback","","html-keyboard-response","499","577681","0.0-1.0-681.0-0.0","0","0","48790","","null","","","null","75","","","","","","","","","","","","","","","",""
"","ITI","","html-keyboard-response","500","578686","0.0-1.0-684.0","0","0","48790","","null","","","null","75","","","","","","","","","","","","","","","NaN",""
"","S1","","html-keyboard-response","501","578940","0.0-1.0-686.0","0","0","48790","","null","","","null","76","","","","","","","","","","","","","","","",""
"","ISI","","html-keyboard-response","502","579094","0.0-1.0-687.0","0","0","48790","","null","","","null","76","NaN","","","","","","","","","","","","","","",""
"","S2","","html-keyboard-response","503","579349","0.0-1.0-688.0","0","0","48790","","null","","","null","76","","NaN","","","","","","","","","","","","","",""
"","response","","html-keyboard-response","504","579779","0.0-1.0-689.0-0.0","0","0","48790","","426","","","75","76","","","2","76","training","adjacent","BA","2","1","Q.jpg","N.jpg","0","0","1","",""
"","feedback","","html-keyboard-response","505","580783","0.0-1.0-690.0-0.0","0","0","48790","","null","","","null","76","","","","","","","","","","","","","","","",""
"","ITI","","html-keyboard-response","506","581787","0.0-1.0-693.0","0","0","48790","","null","","","null","76","","","","","","","","","","","","","","","NaN",""
"","S1","","html-keyboard-response","507","582042","0.0-1.0-695.0","0","0","48790","","null","","","null","77","","","","","","","","","","","","","","","",""
"","ISI","","html-keyboard-response","508","582195","0.0-1.0-696.0","0","0","48790","","119","","","75","77","k","","","","","","","","","","","","","","",""
"","S2","","html-keyboard-response","509","582449","0.0-1.0-697.0","0","0","48790","","null","","","null","77","","NaN","","","","","","","","","","","","","",""
"","response","","html-keyboard-response","510","582619","0.0-1.0-698.0-0.0","0","0","48790","","167","","","75","77","","","2","77","training","adjacent","FE","6","5","O.jpg","P.jpg","0","0","1","",""
"","feedback","","html-keyboard-response","511","583624","0.0-1.0-699.0-0.0","0","0","48790","","null","","","null","77","","","","","","","","","","","","","","","",""
"","ITI","","html-keyboard-response","512","584628","0.0-1.0-702.0","0","0","48790","","null","","","null","77","","","","","","","","","","","","","","","NaN",""
"","S1","","html-keyboard-response","513","584880","0.0-1.0-704.0","0","0","48790","","null","","","null","78","","","","","","","","","","","","","","","",""
"","ISI","","html-keyboard-response","514","585033","0.0-1.0-705.0","0","0","48790","","null","","","null","78","NaN","","","","","","","","","","","","","","",""
"","S2","","html-keyboard-response","515","585287","0.0-1.0-706.0","0","0","48790","","null","","","null","78","","NaN","","","","","","","","","","","","","",""
"","response","","html-keyboard-response","516","586099","0.0-1.0-707.0-0.0","0","0","48790","","808","","","75","78","","","2","78","training","adjacent","ED","5","4","P.jpg","R.jpg","0","0","1","",""
"","feedback","","html-keyboard-response","517","587103","0.0-1.0-708.0-0.0","0","0","48790","","null","","","null","78","","","","","","","","","","","","","","","",""
"","ITI","","html-keyboard-response","518","588108","0.0-1.0-711.0","0","0","48790","","null","","","null","78","","","","","","","","","","","","","","","NaN",""
"","S1","","html-keyboard-response","519","588362","0.0-1.0-713.0","0","0","48790","","null","","","null","79","","","","","","","","","","","","","","","",""
"","ISI","","html-keyboard-response","520","588514","0.0-1.0-714.0","0","0","48790","","null","","","null","79","NaN","","","","","","","","","","","","","","",""
"","S2","","html-keyboard-response","521","588768","0.0-1.0-715.0","0","0","48790","","null","","","null","79","","NaN","","","","","","","","","","","","","",""
"","response","","html-keyboard-response","522","589235","0.0-1.0-716.0-0.0","0","0","48790","","463","","","75","79","","","2","79","training","adjacent","BA","2","1","Q.jpg","N.jpg","0","0","1","",""
"","feedback","","html-keyboard-response","523","590240","0.0-1.0-717.0-0.0","0","0","48790","","null","","","null","79","","","","","","","","","","","","","","","",""
"","ITI","","html-keyboard-response","524","591243","0.0-1.0-720.0","0","0","48790","","null","","","null","79","","","","","","","","","","","","","","","NaN",""
"","S1","","html-keyboard-response","525","591495","0.0-1.0-722.0","0","0","48790","","null","","","null","80","","","","","","","","","","","","","","","",""
"","ISI","","html-keyboard-response","526","591658","0.0-1.0-723.0","0","0","48790","","null","","","null","80","NaN","","","","","","","","","","","","","","",""
"","S2","","html-keyboard-response","527","591910","0.0-1.0-724.0","0","0","48790","","null","","","null","80","","NaN","","","","","","","","","","","","","",""
"","response","","html-keyboard-response","528","592507","0.0-1.0-725.0-0.0","0","0","48790","","595","","","75","80","","","2","80","training","adjacent","GF","7","6","L.jpg","O.jpg","0","0","1","",""
"","feedback","","html-keyboard-response","529","593514","0.0-1.0-726.0-0.0","0","0","48790","","null","","","null","80","","","","","","","","","","","","","","","",""
"","ITI","","html-keyboard-response","530","594518","0.0-1.0-729.0","0","0","48790","","null","","","null","80","","","","","","","","","","","","","","","NaN",""
"","S1","","html-keyboard-response","531","594772","0.0-1.0-731.0","0","0","48790","","null","","","null","81","","","","","","","","","","","","","","","",""
"","ISI","","html-keyboard-response","532","594926","0.0-1.0-732.0","0","0","48790","","null","","","null","81","NaN","","","","","","","","","","","","","","",""
"","S2","","html-keyboard-response","533","595180","0.0-1.0-733.0","0","0","48790","","null","","","null","81","","NaN","","","","","","","","","","","","","",""
"","response","","html-keyboard-response","534","595554","0.0-1.0-734.0-0.0","0","0","48790","","372","","","75","81","","","2","81","training","adjacent","GF","7","6","L.jpg","O.jpg","0","0","1","",""
"","feedback","","html-keyboard-response","535","596558","0.0-1.0-735.0-0.0","0","0","48790","","null","","","null","81","","","","","","","","","","","","","","","",""
"","ITI","","html-keyboard-response","536","597562","0.0-1.0-738.0","0","0","48790","","null","","","null","81","","","","","","","","","","","","","","","NaN",""
"","S1","","html-keyboard-response","537","597815","0.0-1.0-740.0","0","0","48790","","null","","","null","82","","","","","","","","","","","","","","","",""
"","ISI","","html-keyboard-response","538","597969","0.0-1.0-741.0","0","0","48790","","null","","","null","82","NaN","","","","","","","","","","","","","","",""
"","S2","","html-keyboard-response","539","598224","0.0-1.0-742.0","0","0","48790","","null","","","null","82","","NaN","","","","","","","","","","","","","",""
"","response","","html-keyboard-response","540","598730","0.0-1.0-743.0-0.0","0","0","48790","","504","","","75","82","","","2","82","training","adjacent","CB","3","2","M.jpg","Q.jpg","0","0","1","",""
"","feedback","","html-keyboard-response","541","599734","0.0-1.0-744.0-0.0","0","0","48790","","null","","","null","82","","","","","","","","","","","","","","","",""
"","ITI","","html-keyboard-response","542","600738","0.0-1.0-747.0","0","0","48790","","null","","","null","82","","","","","","","","","","","","","","","NaN",""
"","S1","","html-keyboard-response","543","600991","0.0-1.0-749.0","0","0","48790","","null","","","null","83","","","","","","","","","","","","","","","",""
"","ISI","","html-keyboard-response","544","601144","0.0-1.0-750.0","0","0","48790","","null","","","null","83","NaN","","","","","","","","","","","","","","",""
"","S2","","html-keyboard-response","545","601399","0.0-1.0-751.0","0","0","48790","","null","","","null","83","","NaN","","","","","","","","","","","","","",""
"","response","","html-keyboard-response","546","601740","0.0-1.0-752.0-0.0","0","0","48790","","338","","","75","83","","","2","83","training","adjacent","GF","7","6","L.jpg","O.jpg","0","0","1","",""
"","feedback","","html-keyboard-response","547","602745","0.0-1.0-753.0-0.0","0","0","48790","","null","","","null","83","","","","","","","","","","","","","","","",""
"","ITI","","html-keyboard-response","548","603749","0.0-1.0-756.0","0","0","48790","","null","","","null","83","","","","","","","","","","","","","","","NaN",""
"","S1","","html-keyboard-response","549","604003","0.0-1.0-758.0","0","0","48790","","null","","","null","84","","","","","","","","","","","","","","","",""
"","ISI","","html-keyboard-response","550","604165","0.0-1.0-759.0","0","0","48790","","null","","","null","84","NaN","","","","","","","","","","","","","","",""
"","S2","","html-keyboard-response","551","604417","0.0-1.0-760.0","0","0","48790","","null","","","null","84","","NaN","","","","","","","","","","","","","",""
"","response","","html-keyboard-response","552","604732","0.0-1.0-761.0-0.0","0","0","48790","","312","","","75","84","","","2","84","training","adjacent","AB","1","2","N.jpg","Q.jpg","0","1","0","",""
"","feedback","","html-keyboard-response","553","605736","0.0-1.0-762.0-0.0","0","0","48790","","null","","","null","84","","","","","","","","","","","","","","","",""
"","time_out","","html-keyboard-response","554","607741","0.0-1.0-764.0-0.0","0","0","48790","","null","","","null","84","","","","","","","","","","","","","","","",""
"","ITI","","html-keyboard-response","555","608745","0.0-1.0-765.0","0","0","48790","","388","","","68","84","","","","","","","","","","","","","","","d",""
"","S1","","html-keyboard-response","556","609000","0.0-1.0-767.0","0","0","48790","","null","","","null","85","","","","","","","","","","","","","","","",""
"","ISI","","html-keyboard-response","557","609152","0.0-1.0-768.0","0","0","48790","","129","","","68","85","d","","","","","","","","","","","","","","",""
"","S2","","html-keyboard-response","558","609407","0.0-1.0-769.0","0","0","48790","","null","","","null","85","","NaN","","","","","","","","","","","","","",""
"","response","","html-keyboard-response","559","609708","0.0-1.0-770.0-0.0","0","0","48790","","298","","","68","85","","","2","85","training","adjacent","DC","4","3","R.jpg","M.jpg","1","0","0","",""
"","feedback","","html-keyboard-response","560","610713","0.0-1.0-771.0-0.0","0","0","48790","","null","","","null","85","","","","","","","","","","","","","","","",""
"","time_out","","html-keyboard-response","561","612717","0.0-1.0-773.0-0.0","0","0","48790","","null","","","null","85","","","","","","","","","","","","","","","",""
"","ITI","","html-keyboard-response","562","613721","0.0-1.0-774.0","0","0","48790","","null","","","null","85","","","","","","","","","","","","","","","NaN",""
"","S1","","html-keyboard-response","563","613976","0.0-1.0-776.0","0","0","48790","","null","","","null","86","","","","","","","","","","","","","","","",""
"","ISI","","html-keyboard-response","564","614128","0.0-1.0-777.0","0","0","48790","","null","","","null","86","NaN","","","","","","","","","","","","","","",""
"","S2","","html-keyboard-response","565","614381","0.0-1.0-778.0","0","0","48790","","null","","","null","86","","NaN","","","","","","","","","","","","","",""
"","response","","html-keyboard-response","566","614694","0.0-1.0-779.0-0.0","0","0","48790","","310","","","75","86","","","2","86","training","adjacent","DC","4","3","R.jpg","M.jpg","0","0","1","",""
"","feedback","","html-keyboard-response","567","615699","0.0-1.0-780.0-0.0","0","0","48790","","null","","","null","86","","","","","","","","","","","","","","","",""
"","ITI","","html-keyboard-response","568","616703","0.0-1.0-783.0","0","0","48790","","null","","","null","86","","","","","","","","","","","","","","","NaN",""
"","S1","","html-keyboard-response","569","616957","0.0-1.0-785.0","0","0","48790","","null","","","null","87","","","","","","","","","","","","","","","",""
"","ISI","","html-keyboard-response","570","617110","0.0-1.0-786.0","0","0","48790","","null","","","null","87","NaN","","","","","","","","","","","","","","",""
"","S2","","html-keyboard-response","571","617364","0.0-1.0-787.0","0","0","48790","","null","","","null","87","","NaN","","","","","","","","","","","","","",""
"","response","","html-keyboard-response","572","618324","0.0-1.0-788.0-0.0","0","0","48790","","956","","","75","87","","","2","87","training","adjacent","CB","3","2","M.jpg","Q.jpg","0","0","1","",""
"","feedback","","html-keyboard-response","573","619329","0.0-1.0-789.0-0.0","0","0","48790","","null","","","null","87","","","","","","","","","","","","","","","",""
"","ITI","","html-keyboard-response","574","620333","0.0-1.0-792.0","0","0","48790","","null","","","null","87","","","","","","","","","","","","","","","NaN",""
"","S1","","html-keyboard-response","575","620587","0.0-1.0-794.0","0","0","48790","","null","","","null","88","","","","","","","","","","","","","","","",""
"","ISI","","html-keyboard-response","576","620740","0.0-1.0-795.0","0","0","48790","","null","","","null","88","NaN","","","","","","","","","","","","","","",""
"","S2","","html-keyboard-response","577","620994","0.0-1.0-796.0","0","0","48790","","null","","","null","88","","NaN","","","","","","","","","","","","","",""
"","response","","html-keyboard-response","578","621444","0.0-1.0-797.0-0.0","0","0","48790","","447","","","75","88","","","2","88","training","adjacent","DE","4","5","R.jpg","P.jpg","0","1","0","",""
"","feedback","","html-keyboard-response","579","622448","0.0-1.0-798.0-0.0","0","0","48790","","null","","","null","88","","","","","","","","","","","","","","","",""
"","time_out","","html-keyboard-response","580","624452","0.0-1.0-800.0-0.0","0","0","48790","","null","","","null","88","","","","","","","","","","","","","","","",""
