"success","ttype","start_time","trial_type","trial_index","time_elapsed","internal_node_id","warning","missed_checkup","PID","view_history","rt","responses","repeat_instructions","key_press","index","keypress_isi","keypress_S2","block","trial_num","phase","group_type","pair_type","S1_stim","S2_stim","S1_img","S2_img","S1_chosen","S1_higher","accuracy","keypress_iti","total_bonus_tally"
"true","full_screen","d04142023hr0328","fullscreen","0","22479","0.0-0.0","0","0","45569","","","","","","","","","","","","","","","","","","","","","",""
"","instructions","","instructions","1","84577","0.0-1.0-0.0-0.0","0","0","45569","[{""page_index"":0,""viewing_time"":7805},{""page_index"":1,""viewing_time"":32611},{""page_index"":2,""viewing_time"":18568},{""page_index"":3,""viewing_time"":3105}]","62089","","","","","","","","","","","","","","","","","","","",""
"","comprehension_check","","survey-multi-choice","2","109597","0.0-1.0-0.0-1.0","0","0","45569","","25011","{""Q0"":""True"",""Q1"":""K"",""Q2"":""Once the second image appears and while the screen 'MAKE A CHOICE' is shown"",""Q3"":""Green mark"",""Q4"":""either D or K""}","0","","","","","","","","","","","","","","","","","",""
"","start_exp","","html-keyboard-response","3","114980","0.0-1.0-1.0","0","0","45569","","5378","","","32","","","","","","","","","","","","","","","","",""
"","S1","","html-keyboard-response","4","115239","0.0-1.0-2.0","0","0","45569","","null","","","null","0","","","","","","","","","","","","","","","",""
"","ISI","","html-keyboard-response","5","116244","0.0-1.0-3.0","0","0","45569","","null","","","null","0","NaN","","","","","","","","","","","","","","",""
"","S2","","html-keyboard-response","6","116501","0.0-1.0-4.0","0","0","45569","","null","","","null","0","","NaN","","","","","","","","","","","","","",""
"","response","","html-keyboard-response","7","116975","0.0-1.0-5.0-0.0","0","0","45569","","467","","","68","0","","","1","0","training","adjacent","FG","6","7","M.jpg","P.jpg","0","1","0","",""
"","feedback","","html-keyboard-response","8","117985","0.0-1.0-6.0-0.0","0","0","45569","","null","","","null","0","","","","","","","","","","","","","","","",""
"","time_out","","html-keyboard-response","9","119994","0.0-1.0-8.0-0.0","0","0","45569","","null","","","null","0","","","","","","","","","","","","","","","",""
"","ITI","","html-keyboard-response","10","121000","0.0-1.0-9.0","0","0","45569","","null","","","null","0","","","","","","","","","","","","","","","NaN",""
"","S1","","html-keyboard-response","11","121260","0.0-1.0-11.0","0","0","45569","","null","","","null","1","","","","","","","","","","","","","","","",""
"","ISI","","html-keyboard-response","12","122268","0.0-1.0-12.0","0","0","45569","","null","","","null","1","NaN","","","","","","","","","","","","","","",""
"","S2","","html-keyboard-response","13","122528","0.0-1.0-13.0","0","0","45569","","null","","","null","1","","NaN","","","","","","","","","","","","","",""
"","response","","html-keyboard-response","14","122983","0.0-1.0-14.0-0.0","0","0","45569","","451","","","75","1","","","1","1","training","adjacent","GF","7","6","P.jpg","M.jpg","1","0","0","",""
"","feedback","","html-keyboard-response","15","123990","0.0-1.0-15.0-0.0","0","0","45569","","null","","","null","1","","","","","","","","","","","","","","","",""
"","time_out","","html-keyboard-response","16","125998","0.0-1.0-17.0-0.0","0","0","45569","","null","","","null","1","","","","","","","","","","","","","","","",""
"","ITI","","html-keyboard-response","17","127005","0.0-1.0-18.0","0","0","45569","","null","","","null","1","","","","","","","","","","","","","","","NaN",""
"","S1","","html-keyboard-response","18","127261","0.0-1.0-20.0","0","0","45569","","null","","","null","2","","","","","","","","","","","","","","","",""
"","ISI","","html-keyboard-response","19","128267","0.0-1.0-21.0","0","0","45569","","null","","","null","2","NaN","","","","","","","","","","","","","","",""
"","S2","","html-keyboard-response","20","128526","0.0-1.0-22.0","0","0","45569","","null","","","null","2","","NaN","","","","","","","","","","","","","",""
"","response","","html-keyboard-response","21","129813","0.0-1.0-23.0-0.0","0","0","45569","","1282","","","75","2","","","1","2","training","adjacent","CB","3","2","Q.jpg","R.jpg","1","0","0","",""
"","feedback","","html-keyboard-response","22","130819","0.0-1.0-24.0-0.0","0","0","45569","","null","","","null","2","","","","","","","","","","","","","","","",""
"","time_out","","html-keyboard-response","23","132825","0.0-1.0-26.0-0.0","0","0","45569","","null","","","null","2","","","","","","","","","","","","","","","",""
"","ITI","","html-keyboard-response","24","133831","0.0-1.0-27.0","0","0","45569","","null","","","null","2","","","","","","","","","","","","","","","NaN",""
"","S1","","html-keyboard-response","25","134086","0.0-1.0-29.0","0","0","45569","","null","","","null","3","","","","","","","","","","","","","","","",""
"","ISI","","html-keyboard-response","26","135092","0.0-1.0-30.0","0","0","45569","","null","","","null","3","NaN","","","","","","","","","","","","","","",""
"","S2","","html-keyboard-response","27","135351","0.0-1.0-31.0","0","0","45569","","null","","","null","3","","NaN","","","","","","","","","","","","","",""
"","response","","html-keyboard-response","28","136534","0.0-1.0-32.0-0.0","0","0","45569","","1179","","","68","3","","","1","3","training","adjacent","FE","6","5","M.jpg","O.jpg","0","0","1","",""
"","feedback","","html-keyboard-response","29","137543","0.0-1.0-33.0-0.0","0","0","45569","","null","","","null","3","","","","","","","","","","","","","","","",""
"","ITI","","html-keyboard-response","30","138548","0.0-1.0-36.0","0","0","45569","","null","","","null","3","","","","","","","","","","","","","","","NaN",""
"","S1","","html-keyboard-response","31","138806","0.0-1.0-38.0","0","0","45569","","null","","","null","4","","","","","","","","","","","","","","","",""
"","ISI","","html-keyboard-response","32","139814","0.0-1.0-39.0","0","0","45569","","null","","","null","4","NaN","","","","","","","","","","","","","","",""
"","S2","","html-keyboard-response","33","140073","0.0-1.0-40.0","0","0","45569","","null","","","null","4","","NaN","","","","","","","","","","","","","",""
"","response","","html-keyboard-response","34","141115","0.0-1.0-41.0-0.0","0","0","45569","","1038","","","68","4","","","1","4","training","adjacent","FE","6","5","M.jpg","O.jpg","0","0","1","",""
"","feedback","","html-keyboard-response","35","142124","0.0-1.0-42.0-0.0","0","0","45569","","null","","","null","4","","","","","","","","","","","","","","","",""
"","ITI","","html-keyboard-response","36","143130","0.0-1.0-45.0","0","0","45569","","null","","","null","4","","","","","","","","","","","","","","","NaN",""
"","S1","","html-keyboard-response","37","143388","0.0-1.0-47.0","0","0","45569","","null","","","null","5","","","","","","","","","","","","","","","",""
"","ISI","","html-keyboard-response","38","144397","0.0-1.0-48.0","0","0","45569","","null","","","null","5","NaN","","","","","","","","","","","","","","",""
"","S2","","html-keyboard-response","39","144655","0.0-1.0-49.0","0","0","45569","","null","","","null","5","","NaN","","","","","","","","","","","","","",""
"","response","","html-keyboard-response","40","145172","0.0-1.0-50.0-0.0","0","0","45569","","513","","","75","5","","","1","5","training","adjacent","EF","5","6","O.jpg","M.jpg","1","1","1","",""
"","feedback","","html-keyboard-response","41","146179","0.0-1.0-51.0-0.0","0","0","45569","","null","","","null","5","","","","","","","","","","","","","","","",""
"","ITI","","html-keyboard-response","42","147185","0.0-1.0-54.0","0","0","45569","","null","","","null","5","","","","","","","","","","","","","","","NaN",""
"","S1","","html-keyboard-response","43","147439","0.0-1.0-56.0","0","0","45569","","null","","","null","6","","","","","","","","","","","","","","","",""
"","ISI","","html-keyboard-response","44","148447","0.0-1.0-57.0","0","0","45569","","null","","","null","6","NaN","","","","","","","","","","","","","","",""
"","S2","","html-keyboard-response","45","148706","0.0-1.0-58.0","0","0","45569","","null","","","null","6","","NaN","","","","","","","","","","","","","",""
"","response","","html-keyboard-response","46","150075","0.0-1.0-59.0-0.0","0","0","45569","","1364","","","75","6","","","1","6","training","adjacent","DC","4","3","L.jpg","Q.jpg","1","0","0","",""
"","feedback","","html-keyboard-response","47","151083","0.0-1.0-60.0-0.0","0","0","45569","","null","","","null","6","","","","","","","","","","","","","","","",""
"","time_out","","html-keyboard-response","48","153089","0.0-1.0-62.0-0.0","0","0","45569","","null","","","null","6","","","","","","","","","","","","","","","",""
"","ITI","","html-keyboard-response","49","154095","0.0-1.0-63.0","0","0","45569","","null","","","null","6","","","","","","","","","","","","","","","NaN",""
"","S1","","html-keyboard-response","50","154349","0.0-1.0-65.0","0","0","45569","","null","","","null","7","","","","","","","","","","","","","","","",""
"","ISI","","html-keyboard-response","51","155353","0.0-1.0-66.0","0","0","45569","","null","","","null","7","NaN","","","","","","","","","","","","","","",""
"","S2","","html-keyboard-response","52","155613","0.0-1.0-67.0","0","0","45569","","null","","","null","7","","NaN","","","","","","","","","","","","","",""
"","response","","html-keyboard-response","53","156400","0.0-1.0-68.0-0.0","0","0","45569","","782","","","68","7","","","1","7","training","adjacent","DC","4","3","L.jpg","Q.jpg","0","0","1","",""
"","feedback","","html-keyboard-response","54","157405","0.0-1.0-69.0-0.0","0","0","45569","","null","","","null","7","","","","","","","","","","","","","","","",""
"","ITI","","html-keyboard-response","55","158411","0.0-1.0-72.0","0","0","45569","","null","","","null","7","","","","","","","","","","","","","","","NaN",""
"","S1","","html-keyboard-response","56","158668","0.0-1.0-74.0","0","0","45569","","null","","","null","8","","","","","","","","","","","","","","","",""
"","ISI","","html-keyboard-response","57","159676","0.0-1.0-75.0","0","0","45569","","null","","","null","8","NaN","","","","","","","","","","","","","","",""
"","S2","","html-keyboard-response","58","159935","0.0-1.0-76.0","0","0","45569","","null","","","null","8","","NaN","","","","","","","","","","","","","",""
"","response","","html-keyboard-response","59","160516","0.0-1.0-77.0-0.0","0","0","45569","","576","","","75","8","","","1","8","training","adjacent","ED","5","4","O.jpg","L.jpg","1","0","0","",""
"","feedback","","html-keyboard-response","60","161524","0.0-1.0-78.0-0.0","0","0","45569","","null","","","null","8","","","","","","","","","","","","","","","",""
"","time_out","","html-keyboard-response","61","163531","0.0-1.0-80.0-0.0","0","0","45569","","null","","","null","8","","","","","","","","","","","","","","","",""
"","ITI","","html-keyboard-response","62","164538","0.0-1.0-81.0","0","0","45569","","null","","","null","8","","","","","","","","","","","","","","","NaN",""
"","S1","","html-keyboard-response","63","164793","0.0-1.0-83.0","0","0","45569","","null","","","null","9","","","","","","","","","","","","","","","",""
"","ISI","","html-keyboard-response","64","165799","0.0-1.0-84.0","0","0","45569","","null","","","null","9","NaN","","","","","","","","","","","","","","",""
"","S2","","html-keyboard-response","65","166055","0.0-1.0-85.0","0","0","45569","","null","","","null","9","","NaN","","","","","","","","","","","","","",""
"","response","","html-keyboard-response","66","166990","0.0-1.0-86.0-0.0","0","0","45569","","931","","","68","9","","","1","9","training","adjacent","AB","1","2","N.jpg","R.jpg","0","1","0","",""
"","feedback","","html-keyboard-response","67","167998","0.0-1.0-87.0-0.0","0","0","45569","","null","","","null","9","","","","","","","","","","","","","","","",""
"","time_out","","html-keyboard-response","68","170006","0.0-1.0-89.0-0.0","0","0","45569","","null","","","null","9","","","","","","","","","","","","","","","",""
"","ITI","","html-keyboard-response","69","171013","0.0-1.0-90.0","0","0","45569","","null","","","null","9","","","","","","","","","","","","","","","NaN",""
"","S1","","html-keyboard-response","70","171272","0.0-1.0-92.0","0","0","45569","","null","","","null","10","","","","","","","","","","","","","","","",""
"","ISI","","html-keyboard-response","71","172280","0.0-1.0-93.0","0","0","45569","","null","","","null","10","NaN","","","","","","","","","","","","","","",""
"","S2","","html-keyboard-response","72","172540","0.0-1.0-94.0","0","0","45569","","null","","","null","10","","NaN","","","","","","","","","","","","","",""
"","response","","html-keyboard-response","73","173070","0.0-1.0-95.0-0.0","0","0","45569","","526","","","75","10","","","1","10","training","adjacent","CB","3","2","Q.jpg","R.jpg","1","0","0","",""
"","feedback","","html-keyboard-response","74","174077","0.0-1.0-96.0-0.0","0","0","45569","","null","","","null","10","","","","","","","","","","","","","","","",""
"","time_out","","html-keyboard-response","75","176085","0.0-1.0-98.0-0.0","0","0","45569","","null","","","null","10","","","","","","","","","","","","","","","",""
"","ITI","","html-keyboard-response","76","177093","0.0-1.0-99.0","0","0","45569","","null","","","null","10","","","","","","","","","","","","","","","NaN",""
"","S1","","html-keyboard-response","77","177351","0.0-1.0-101.0","0","0","45569","","null","","","null","11","","","","","","","","","","","","","","","",""
"","ISI","","html-keyboard-response","78","178359","0.0-1.0-102.0","0","0","45569","","null","","","null","11","NaN","","","","","","","","","","","","","","",""
"","S2","","html-keyboard-response","79","178618","0.0-1.0-103.0","0","0","45569","","null","","","null","11","","NaN","","","","","","","","","","","","","",""
"","response","","html-keyboard-response","80","179143","0.0-1.0-104.0-0.0","0","0","45569","","521","","","68","11","","","1","11","training","adjacent","FG","6","7","M.jpg","P.jpg","0","1","0","",""
"","feedback","","html-keyboard-response","81","180148","0.0-1.0-105.0-0.0","0","0","45569","","null","","","null","11","","","","","","","","","","","","","","","",""
"","time_out","","html-keyboard-response","82","182152","0.0-1.0-107.0-0.0","0","0","45569","","null","","","null","11","","","","","","","","","","","","","","","",""
"","ITI","","html-keyboard-response","83","183159","0.0-1.0-108.0","0","0","45569","","null","","","null","11","","","","","","","","","","","","","","","NaN",""
"","S1","","html-keyboard-response","84","183418","0.0-1.0-110.0","0","0","45569","","null","","","null","12","","","","","","","","","","","","","","","",""
"","ISI","","html-keyboard-response","85","184426","0.0-1.0-111.0","0","0","45569","","null","","","null","12","NaN","","","","","","","","","","","","","","",""
"","S2","","html-keyboard-response","86","184685","0.0-1.0-112.0","0","0","45569","","null","","","null","12","","NaN","","","","","","","","","","","","","",""
"","response","","html-keyboard-response","87","185232","0.0-1.0-113.0-0.0","0","0","45569","","544","","","68","12","","","1","12","training","adjacent","DC","4","3","L.jpg","Q.jpg","0","0","1","",""
"","feedback","","html-keyboard-response","88","186241","0.0-1.0-114.0-0.0","0","0","45569","","null","","","null","12","","","","","","","","","","","","","","","",""
"","ITI","","html-keyboard-response","89","187250","0.0-1.0-117.0","0","0","45569","","null","","","null","12","","","","","","","","","","","","","","","NaN",""
"","S1","","html-keyboard-response","90","187508","0.0-1.0-119.0","0","0","45569","","null","","","null","13","","","","","","","","","","","","","","","",""
"","ISI","","html-keyboard-response","91","188517","0.0-1.0-120.0","0","0","45569","","null","","","null","13","NaN","","","","","","","","","","","","","","",""
"","S2","","html-keyboard-response","92","188776","0.0-1.0-121.0","0","0","45569","","null","","","null","13","","NaN","","","","","","","","","","","","","",""
"","response","","html-keyboard-response","93","189500","0.0-1.0-122.0-0.0","0","0","45569","","721","","","75","13","","","1","13","training","adjacent","BA","2","1","R.jpg","N.jpg","1","0","0","",""
"","feedback","","html-keyboard-response","94","190510","0.0-1.0-123.0-0.0","0","0","45569","","null","","","null","13","","","","","","","","","","","","","","","",""
"","time_out","","html-keyboard-response","95","192518","0.0-1.0-125.0-0.0","0","0","45569","","null","","","null","13","","","","","","","","","","","","","","","",""
"","ITI","","html-keyboard-response","96","193524","0.0-1.0-126.0","0","0","45569","","null","","","null","13","","","","","","","","","","","","","","","NaN",""
"","S1","","html-keyboard-response","97","193783","0.0-1.0-128.0","0","0","45569","","null","","","null","14","","","","","","","","","","","","","","","",""
"","ISI","","html-keyboard-response","98","194792","0.0-1.0-129.0","0","0","45569","","null","","","null","14","NaN","","","","","","","","","","","","","","",""
"","S2","","html-keyboard-response","99","195047","0.0-1.0-130.0","0","0","45569","","null","","","null","14","","NaN","","","","","","","","","","","","","",""
"","response","","html-keyboard-response","100","195630","0.0-1.0-131.0-0.0","0","0","45569","","580","","","68","14","","","1","14","training","adjacent","ED","5","4","O.jpg","L.jpg","0","0","1","",""
"","feedback","","html-keyboard-response","101","196639","0.0-1.0-132.0-0.0","0","0","45569","","null","","","null","14","","","","","","","","","","","","","","","",""
"","ITI","","html-keyboard-response","102","197648","0.0-1.0-135.0","0","0","45569","","null","","","null","14","","","","","","","","","","","","","","","NaN",""
"","S1","","html-keyboard-response","103","197906","0.0-1.0-137.0","0","0","45569","","null","","","null","15","","","","","","","","","","","","","","","",""
"","ISI","","html-keyboard-response","104","198916","0.0-1.0-138.0","0","0","45569","","null","","","null","15","NaN","","","","","","","","","","","","","","",""
"","S2","","html-keyboard-response","105","199175","0.0-1.0-139.0","0","0","45569","","null","","","null","15","","NaN","","","","","","","","","","","","","",""
"","response","","html-keyboard-response","106","199588","0.0-1.0-140.0-0.0","0","0","45569","","409","","","68","15","","","1","15","training","adjacent","EF","5","6","O.jpg","M.jpg","0","1","0","",""
"","feedback","","html-keyboard-response","107","200592","0.0-1.0-141.0-0.0","0","0","45569","","null","","","null","15","","","","","","","","","","","","","","","",""
"","time_out","","html-keyboard-response","108","202599","0.0-1.0-143.0-0.0","0","0","45569","","null","","","null","15","","","","","","","","","","","","","","","",""
"","ITI","","html-keyboard-response","109","203606","0.0-1.0-144.0","0","0","45569","","null","","","null","15","","","","","","","","","","","","","","","NaN",""
"","S1","","html-keyboard-response","110","203862","0.0-1.0-146.0","0","0","45569","","null","","","null","16","","","","","","","","","","","","","","","",""
"","ISI","","html-keyboard-response","111","204870","0.0-1.0-147.0","0","0","45569","","null","","","null","16","NaN","","","","","","","","","","","","","","",""
"","S2","","html-keyboard-response","112","205129","0.0-1.0-148.0","0","0","45569","","null","","","null","16","","NaN","","","","","","","","","","","","","",""
"","response","","html-keyboard-response","113","205635","0.0-1.0-149.0-0.0","0","0","45569","","502","","","75","16","","","1","16","training","adjacent","EF","5","6","O.jpg","M.jpg","1","1","1","",""
"","feedback","","html-keyboard-response","114","206639","0.0-1.0-150.0-0.0","0","0","45569","","null","","","null","16","","","","","","","","","","","","","","","",""
"","ITI","","html-keyboard-response","115","207647","0.0-1.0-153.0","0","0","45569","","null","","","null","16","","","","","","","","","","","","","","","NaN",""
"","S1","","html-keyboard-response","116","207907","0.0-1.0-155.0","0","0","45569","","null","","","null","17","","","","","","","","","","","","","","","",""
"","ISI","","html-keyboard-response","117","208915","0.0-1.0-156.0","0","0","45569","","null","","","null","17","NaN","","","","","","","","","","","","","","",""
"","S2","","html-keyboard-response","118","209173","0.0-1.0-157.0","0","0","45569","","null","","","null","17","","NaN","","","","","","","","","","","","","",""
"","response","","html-keyboard-response","119","209933","0.0-1.0-158.0-0.0","0","0","45569","","756","","","68","17","","","1","17","training","adjacent","AB","1","2","N.jpg","R.jpg","0","1","0","",""
"","feedback","","html-keyboard-response","120","210939","0.0-1.0-159.0-0.0","0","0","45569","","null","","","null","17","","","","","","","","","","","","","","","",""
"","time_out","","html-keyboard-response","121","212943","0.0-1.0-161.0-0.0","0","0","45569","","null","","","null","17","","","","","","","","","","","","","","","",""
"","ITI","","html-keyboard-response","122","213948","0.0-1.0-162.0","0","0","45569","","null","","","null","17","","","","","","","","","","","","","","","NaN",""
"","S1","","html-keyboard-response","123","214207","0.0-1.0-164.0","0","0","45569","","null","","","null","18","","","","","","","","","","","","","","","",""
"","ISI","","html-keyboard-response","124","215215","0.0-1.0-165.0","0","0","45569","","null","","","null","18","NaN","","","","","","","","","","","","","","",""
"","S2","","html-keyboard-response","125","215472","0.0-1.0-166.0","0","0","45569","","null","","","null","18","","NaN","","","","","","","","","","","","","",""
"","response","","html-keyboard-response","126","216043","0.0-1.0-167.0-0.0","0","0","45569","","568","","","68","18","","","1","18","training","adjacent","BC","2","3","R.jpg","Q.jpg","0","1","0","",""
"","feedback","","html-keyboard-response","127","217052","0.0-1.0-168.0-0.0","0","0","45569","","null","","","null","18","","","","","","","","","","","","","","","",""
"","time_out","","html-keyboard-response","128","219061","0.0-1.0-170.0-0.0","0","0","45569","","null","","","null","18","","","","","","","","","","","","","","","",""
"","ITI","","html-keyboard-response","129","220066","0.0-1.0-171.0","0","0","45569","","null","","","null","18","","","","","","","","","","","","","","","NaN",""
"","S1","","html-keyboard-response","130","220326","0.0-1.0-173.0","0","0","45569","","null","","","null","19","","","","","","","","","","","","","","","",""
"","ISI","","html-keyboard-response","131","221334","0.0-1.0-174.0","0","0","45569","","null","","","null","19","NaN","","","","","","","","","","","","","","",""
"","S2","","html-keyboard-response","132","221593","0.0-1.0-175.0","0","0","45569","","null","","","null","19","","NaN","","","","","","","","","","","","","",""
"","response","","html-keyboard-response","133","222108","0.0-1.0-176.0-0.0","0","0","45569","","512","","","68","19","","","1","19","training","adjacent","ED","5","4","O.jpg","L.jpg","0","0","1","",""
"","feedback","","html-keyboard-response","134","223113","0.0-1.0-177.0-0.0","0","0","45569","","null","","","null","19","","","","","","","","","","","","","","","",""
"","ITI","","html-keyboard-response","135","224122","0.0-1.0-180.0","0","0","45569","","null","","","null","19","","","","","","","","","","","","","","","NaN",""
"","S1","","html-keyboard-response","136","224380","0.0-1.0-182.0","0","0","45569","","null","","","null","20","","","","","","","","","","","","","","","",""
"","ISI","","html-keyboard-response","137","225389","0.0-1.0-183.0","0","0","45569","","null","","","null","20","NaN","","","","","","","","","","","","","","",""
"","S2","","html-keyboard-response","138","225648","0.0-1.0-184.0","0","0","45569","","null","","","null","20","","NaN","","","","","","","","","","","","","",""
"","response","","html-keyboard-response","139","226348","0.0-1.0-185.0-0.0","0","0","45569","","697","","","68","20","","","1","20","training","adjacent","DE","4","5","L.jpg","O.jpg","0","1","0","",""
"","feedback","","html-keyboard-response","140","227356","0.0-1.0-186.0-0.0","0","0","45569","","null","","","null","20","","","","","","","","","","","","","","","",""
"","time_out","","html-keyboard-response","141","229359","0.0-1.0-188.0-0.0","0","0","45569","","null","","","null","20","","","","","","","","","","","","","","","",""
"","ITI","","html-keyboard-response","142","230364","0.0-1.0-189.0","0","0","45569","","null","","","null","20","","","","","","","","","","","","","","","NaN",""
"","S1","","html-keyboard-response","143","230623","0.0-1.0-191.0","0","0","45569","","null","","","null","21","","","","","","","","","","","","","","","",""
"","ISI","","html-keyboard-response","144","231631","0.0-1.0-192.0","0","0","45569","","null","","","null","21","NaN","","","","","","","","","","","","","","",""
"","S2","","html-keyboard-response","145","231890","0.0-1.0-193.0","0","0","45569","","null","","","null","21","","NaN","","","","","","","","","","","","","",""
"","response","","html-keyboard-response","146","232640","0.0-1.0-194.0-0.0","0","0","45569","","745","","","68","21","","","1","21","training","adjacent","GF","7","6","P.jpg","M.jpg","0","0","1","",""
"","feedback","","html-keyboard-response","147","233646","0.0-1.0-195.0-0.0","0","0","45569","","null","","","null","21","","","","","","","","","","","","","","","",""
"","ITI","","html-keyboard-response","148","234652","0.0-1.0-198.0","0","0","45569","","null","","","null","21","","","","","","","","","","","","","","","NaN",""
"","S1","","html-keyboard-response","149","234905","0.0-1.0-200.0","0","0","45569","","null","","","null","22","","","","","","","","","","","","","","","",""
"","ISI","","html-keyboard-response","150","235913","0.0-1.0-201.0","0","0","45569","","null","","","null","22","NaN","","","","","","","","","","","","","","",""
"","S2","","html-keyboard-response","151","236171","0.0-1.0-202.0","0","0","45569","","null","","","null","22","","NaN","","","","","","","","","","","","","",""
"","response","","html-keyboard-response","152","236851","0.0-1.0-203.0-0.0","0","0","45569","","675","","","68","22","","","1","22","training","adjacent","GF","7","6","P.jpg","M.jpg","0","0","1","",""
"","feedback","","html-keyboard-response","153","237855","0.0-1.0-204.0-0.0","0","0","45569","","null","","","null","22","","","","","","","","","","","","","","","",""
"","ITI","","html-keyboard-response","154","238859","0.0-1.0-207.0","0","0","45569","","null","","","null","22","","","","","","","","","","","","","","","NaN",""
"","S1","","html-keyboard-response","155","239117","0.0-1.0-209.0","0","0","45569","","null","","","null","23","","","","","","","","","","","","","","","",""
"","ISI","","html-keyboard-response","156","240127","0.0-1.0-210.0","0","0","45569","","null","","","null","23","NaN","","","","","","","","","","","","","","",""
"","S2","","html-keyboard-response","157","240385","0.0-1.0-211.0","0","0","45569","","null","","","null","23","","NaN","","","","","","","","","","","","","",""
"","response","","html-keyboard-response","158","240781","0.0-1.0-212.0-0.0","0","0","45569","","391","","","75","23","","","1","23","training","adjacent","ED","5","4","O.jpg","L.jpg","1","0","0","",""
"","feedback","","html-keyboard-response","159","241789","0.0-1.0-213.0-0.0","0","0","45569","","null","","","null","23","","","","","","","","","","","","","","","",""
"","time_out","","html-keyboard-response","160","243796","0.0-1.0-215.0-0.0","0","0","45569","","null","","","null","23","","","","","","","","","","","","","","","",""
"","ITI","","html-keyboard-response","161","244803","0.0-1.0-216.0","0","0","45569","","null","","","null","23","","","","","","","","","","","","","","","NaN",""
"","S1","","html-keyboard-response","162","245061","0.0-1.0-218.0","0","0","45569","","null","","","null","24","","","","","","","","","","","","","","","",""
"","ISI","","html-keyboard-response","163","246069","0.0-1.0-219.0","0","0","45569","","null","","","null","24","NaN","","","","","","","","","","","","","","",""
"","S2","","html-keyboard-response","164","246327","0.0-1.0-220.0","0","0","45569","","null","","","null","24","","NaN","","","","","","","","","","","","","",""
"","response","","html-keyboard-response","165","246839","0.0-1.0-221.0-0.0","0","0","45569","","510","","","68","24","","","1","24","training","adjacent","BC","2","3","R.jpg","Q.jpg","0","1","0","",""
"","feedback","","html-keyboard-response","166","247847","0.0-1.0-222.0-0.0","0","0","45569","","null","","","null","24","","","","","","","","","","","","","","","",""
"","time_out","","html-keyboard-response","167","249856","0.0-1.0-224.0-0.0","0","0","45569","","null","","","null","24","","","","","","","","","","","","","","","",""
"","ITI","","html-keyboard-response","168","250863","0.0-1.0-225.0","0","0","45569","","null","","","null","24","","","","","","","","","","","","","","","NaN",""
"","S1","","html-keyboard-response","169","251122","0.0-1.0-227.0","0","0","45569","","null","","","null","25","","","","","","","","","","","","","","","",""
"","ISI","","html-keyboard-response","170","252126","0.0-1.0-228.0","0","0","45569","","null","","","null","25","NaN","","","","","","","","","","","","","","",""
"","S2","","html-keyboard-response","171","252384","0.0-1.0-229.0","0","0","45569","","null","","","null","25","","NaN","","","","","","","","","","","","","",""
"","response","","html-keyboard-response","172","253537","0.0-1.0-230.0-0.0","0","0","45569","","1149","","","75","25","","","1","25","training","adjacent","FE","6","5","M.jpg","O.jpg","1","0","0","",""
"","feedback","","html-keyboard-response","173","254544","0.0-1.0-231.0-0.0","0","0","45569","","null","","","null","25","","","","","","","","","","","","","","","",""
"","time_out","","html-keyboard-response","174","256551","0.0-1.0-233.0-0.0","0","0","45569","","null","","","null","25","","","","","","","","","","","","","","","",""
"","ITI","","html-keyboard-response","175","257557","0.0-1.0-234.0","0","0","45569","","null","","","null","25","","","","","","","","","","","","","","","NaN",""
"","S1","","html-keyboard-response","176","257816","0.0-1.0-236.0","0","0","45569","","null","","","null","26","","","","","","","","","","","","","","","",""
"","ISI","","html-keyboard-response","177","258825","0.0-1.0-237.0","0","0","45569","","null","","","null","26","NaN","","","","","","","","","","","","","","",""
"","S2","","html-keyboard-response","178","259084","0.0-1.0-238.0","0","0","45569","","null","","","null","26","","NaN","","","","","","","","","","","","","",""
"","response","","html-keyboard-response","179","259809","0.0-1.0-239.0-0.0","0","0","45569","","722","","","75","26","","","1","26","training","adjacent","CB","3","2","Q.jpg","R.jpg","1","0","0","",""
"","feedback","","html-keyboard-response","180","260819","0.0-1.0-240.0-0.0","0","0","45569","","null","","","null","26","","","","","","","","","","","","","","","",""
"","time_out","","html-keyboard-response","181","262823","0.0-1.0-242.0-0.0","0","0","45569","","null","","","null","26","","","","","","","","","","","","","","","",""
"","ITI","","html-keyboard-response","182","263830","0.0-1.0-243.0","0","0","45569","","null","","","null","26","","","","","","","","","","","","","","","NaN",""
"","S1","","html-keyboard-response","183","264089","0.0-1.0-245.0","0","0","45569","","null","","","null","27","","","","","","","","","","","","","","","",""
"","ISI","","html-keyboard-response","184","265096","0.0-1.0-246.0","0","0","45569","","null","","","null","27","NaN","","","","","","","","","","","","","","",""
"","S2","","html-keyboard-response","185","265354","0.0-1.0-247.0","0","0","45569","","null","","","null","27","","NaN","","","","","","","","","","","","","",""
"","response","","html-keyboard-response","186","265956","0.0-1.0-248.0-0.0","0","0","45569","","598","","","68","27","","","1","27","training","adjacent","GF","7","6","P.jpg","M.jpg","0","0","1","",""
"","feedback","","html-keyboard-response","187","266964","0.0-1.0-249.0-0.0","0","0","45569","","null","","","null","27","","","","","","","","","","","","","","","",""
"","ITI","","html-keyboard-response","188","267973","0.0-1.0-252.0","0","0","45569","","null","","","null","27","","","","","","","","","","","","","","","NaN",""
"","S1","","html-keyboard-response","189","268232","0.0-1.0-254.0","0","0","45569","","null","","","null","28","","","","","","","","","","","","","","","",""
"","ISI","","html-keyboard-response","190","269241","0.0-1.0-255.0","0","0","45569","","null","","","null","28","NaN","","","","","","","","","","","","","","",""
"","S2","","html-keyboard-response","191","269499","0.0-1.0-256.0","0","0","45569","","null","","","null","28","","NaN","","","","","","","","","","","","","",""
"","response","","html-keyboard-response","192","270369","0.0-1.0-257.0-0.0","0","0","45569","","866","","","75","28","","","1","28","training","adjacent","BA","2","1","R.jpg","N.jpg","1","0","0","",""
"","feedback","","html-keyboard-response","193","271377","0.0-1.0-258.0-0.0","0","0","45569","","null","","","null","28","","","","","","","","","","","","","","","",""
"","time_out","","html-keyboard-response","194","273384","0.0-1.0-260.0-0.0","0","0","45569","","null","","","null","28","","","","","","","","","","","","","","","",""
"","ITI","","html-keyboard-response","195","274391","0.0-1.0-261.0","0","0","45569","","null","","","null","28","","","","","","","","","","","","","","","NaN",""
"","S1","","html-keyboard-response","196","274650","0.0-1.0-263.0","0","0","45569","","null","","","null","29","","","","","","","","","","","","","","","",""
"","ISI","","html-keyboard-response","197","275655","0.0-1.0-264.0","0","0","45569","","null","","","null","29","NaN","","","","","","","","","","","","","","",""
"","S2","","html-keyboard-response","198","275914","0.0-1.0-265.0","0","0","45569","","null","","","null","29","","NaN","","","","","","","","","","","","","",""
"","response","","html-keyboard-response","199","277045","0.0-1.0-266.0-0.0","0","0","45569","","1128","","","75","29","","","1","29","training","adjacent","CD","3","4","Q.jpg","L.jpg","1","1","1","",""
"","feedback","","html-keyboard-response","200","278053","0.0-1.0-267.0-0.0","0","0","45569","","null","","","null","29","","","","","","","","","","","","","","","",""
"","ITI","","html-keyboard-response","201","279059","0.0-1.0-270.0","0","0","45569","","null","","","null","29","","","","","","","","","","","","","","","NaN",""
"","S1","","html-keyboard-response","202","279317","0.0-1.0-272.0","0","0","45569","","null","","","null","30","","","","","","","","","","","","","","","",""
"","ISI","","html-keyboard-response","203","280326","0.0-1.0-273.0","0","0","45569","","null","","","null","30","NaN","","","","","","","","","","","","","","",""
"","S2","","html-keyboard-response","204","280585","0.0-1.0-274.0","0","0","45569","","null","","","null","30","","NaN","","","","","","","","","","","","","",""
"","response","","html-keyboard-response","205","281131","0.0-1.0-275.0-0.0","0","0","45569","","542","","","75","30","","","1","30","training","adjacent","CD","3","4","Q.jpg","L.jpg","1","1","1","",""
"","feedback","","html-keyboard-response","206","282135","0.0-1.0-276.0-0.0","0","0","45569","","null","","","null","30","","","","","","","","","","","","","","","",""
"","ITI","","html-keyboard-response","207","283144","0.0-1.0-279.0","0","0","45569","","null","","","null","30","","","","","","","","","","","","","","","NaN",""
"","S1","","html-keyboard-response","208","283402","0.0-1.0-281.0","0","0","45569","","null","","","null","31","","","","","","","","","","","","","","","",""
"","ISI","","html-keyboard-response","209","284411","0.0-1.0-282.0","0","0","45569","","null","","","null","31","NaN","","","","","","","","","","","","","","",""
"","S2","","html-keyboard-response","210","284665","0.0-1.0-283.0","0","0","45569","","null","","","null","31","","NaN","","","","","","","","","","","","","",""
"","response","","html-keyboard-response","211","285582","0.0-1.0-284.0-0.0","0","0","45569","","913","","","75","31","","","1","31","training","adjacent","EF","5","6","O.jpg","M.jpg","1","1","1","",""
"","feedback","","html-keyboard-response","212","286590","0.0-1.0-285.0-0.0","0","0","45569","","null","","","null","31","","","","","","","","","","","","","","","",""
"","ITI","","html-keyboard-response","213","287595","0.0-1.0-288.0","0","0","45569","","null","","","null","31","","","","","","","","","","","","","","","NaN",""
"","S1","","html-keyboard-response","214","287855","0.0-1.0-290.0","0","0","45569","","null","","","null","32","","","","","","","","","","","","","","","",""
"","ISI","","html-keyboard-response","215","288863","0.0-1.0-291.0","0","0","45569","","null","","","null","32","NaN","","","","","","","","","","","","","","",""
"","S2","","html-keyboard-response","216","289122","0.0-1.0-292.0","0","0","45569","","null","","","null","32","","NaN","","","","","","","","","","","","","",""
"","response","","html-keyboard-response","217","289654","0.0-1.0-293.0-0.0","0","0","45569","","528","","","75","32","","","1","32","training","adjacent","CB","3","2","Q.jpg","R.jpg","1","0","0","",""
"","feedback","","html-keyboard-response","218","290662","0.0-1.0-294.0-0.0","0","0","45569","","null","","","null","32","","","","","","","","","","","","","","","",""
"","time_out","","html-keyboard-response","219","292670","0.0-1.0-296.0-0.0","0","0","45569","","null","","","null","32","","","","","","","","","","","","","","","",""
"","ITI","","html-keyboard-response","220","293677","0.0-1.0-297.0","0","0","45569","","null","","","null","32","","","","","","","","","","","","","","","NaN",""
"","S1","","html-keyboard-response","221","293935","0.0-1.0-299.0","0","0","45569","","null","","","null","33","","","","","","","","","","","","","","","",""
"","ISI","","html-keyboard-response","222","294943","0.0-1.0-300.0","0","0","45569","","null","","","null","33","NaN","","","","","","","","","","","","","","",""
"","S2","","html-keyboard-response","223","295201","0.0-1.0-301.0","0","0","45569","","null","","","null","33","","NaN","","","","","","","","","","","","","",""
"","response","","html-keyboard-response","224","295753","0.0-1.0-302.0-0.0","0","0","45569","","549","","","68","33","","","1","33","training","adjacent","DC","4","3","L.jpg","Q.jpg","0","0","1","",""
"","feedback","","html-keyboard-response","225","296760","0.0-1.0-303.0-0.0","0","0","45569","","null","","","null","33","","","","","","","","","","","","","","","",""
"","ITI","","html-keyboard-response","226","297767","0.0-1.0-306.0","0","0","45569","","null","","","null","33","","","","","","","","","","","","","","","NaN",""
"","S1","","html-keyboard-response","227","298021","0.0-1.0-308.0","0","0","45569","","null","","","null","34","","","","","","","","","","","","","","","",""
"","ISI","","html-keyboard-response","228","299026","0.0-1.0-309.0","0","0","45569","","null","","","null","34","NaN","","","","","","","","","","","","","","",""
"","S2","","html-keyboard-response","229","299284","0.0-1.0-310.0","0","0","45569","","null","","","null","34","","NaN","","","","","","","","","","","","","",""
"","response","","html-keyboard-response","230","299960","0.0-1.0-311.0-0.0","0","0","45569","","671","","","75","34","","","1","34","training","adjacent","AB","1","2","N.jpg","R.jpg","1","1","1","",""
"","feedback","","html-keyboard-response","231","300968","0.0-1.0-312.0-0.0","0","0","45569","","null","","","null","34","","","","","","","","","","","","","","","",""
"","ITI","","html-keyboard-response","232","301974","0.0-1.0-315.0","0","0","45569","","null","","","null","34","","","","","","","","","","","","","","","NaN",""
"","S1","","html-keyboard-response","233","302233","0.0-1.0-317.0","0","0","45569","","null","","","null","35","","","","","","","","","","","","","","","",""
"","ISI","","html-keyboard-response","234","303241","0.0-1.0-318.0","0","0","45569","","null","","","null","35","NaN","","","","","","","","","","","","","","",""
"","S2","","html-keyboard-response","235","303495","0.0-1.0-319.0","0","0","45569","","null","","","null","35","","NaN","","","","","","","","","","","","","",""
"","response","","html-keyboard-response","236","304494","0.0-1.0-320.0-0.0","0","0","45569","","996","","","75","35","","","1","35","training","adjacent","BC","2","3","R.jpg","Q.jpg","1","1","1","",""
"","feedback","","html-keyboard-response","237","305500","0.0-1.0-321.0-0.0","0","0","45569","","null","","","null","35","","","","","","","","","","","","","","","",""
"","ITI","","html-keyboard-response","238","306507","0.0-1.0-324.0","0","0","45569","","null","","","null","35","","","","","","","","","","","","","","","NaN",""
"","S1","","html-keyboard-response","239","306766","0.0-1.0-326.0","0","0","45569","","null","","","null","36","","","","","","","","","","","","","","","",""
"","ISI","","html-keyboard-response","240","307775","0.0-1.0-327.0","0","0","45569","","null","","","null","36","NaN","","","","","","","","","","","","","","",""
"","S2","","html-keyboard-response","241","308031","0.0-1.0-328.0","0","0","45569","","null","","","null","36","","NaN","","","","","","","","","","","","","",""
"","response","","html-keyboard-response","242","309180","0.0-1.0-329.0-0.0","0","0","45569","","1145","","","75","36","","","1","36","training","adjacent","FG","6","7","M.jpg","P.jpg","1","1","1","",""
"","feedback","","html-keyboard-response","243","310189","0.0-1.0-330.0-0.0","0","0","45569","","null","","","null","36","","","","","","","","","","","","","","","",""
"","ITI","","html-keyboard-response","244","311195","0.0-1.0-333.0","0","0","45569","","null","","","null","36","","","","","","","","","","","","","","","NaN",""
"","S1","","html-keyboard-response","245","311450","0.0-1.0-335.0","0","0","45569","","null","","","null","37","","","","","","","","","","","","","","","",""
"","ISI","","html-keyboard-response","246","312458","0.0-1.0-336.0","0","0","45569","","null","","","null","37","NaN","","","","","","","","","","","","","","",""
"","S2","","html-keyboard-response","247","312717","0.0-1.0-337.0","0","0","45569","","null","","","null","37","","NaN","","","","","","","","","","","","","",""
"","response","","html-keyboard-response","248","313665","0.0-1.0-338.0-0.0","0","0","45569","","944","","","68","37","","","1","37","training","adjacent","BA","2","1","R.jpg","N.jpg","0","0","1","",""
"","feedback","","html-keyboard-response","249","314674","0.0-1.0-339.0-0.0","0","0","45569","","null","","","null","37","","","","","","","","","","","","","","","",""
"","ITI","","html-keyboard-response","250","315680","0.0-1.0-342.0","0","0","45569","","null","","","null","37","","","","","","","","","","","","","","","NaN",""
"","S1","","html-keyboard-response","251","315939","0.0-1.0-344.0","0","0","45569","","null","","","null","38","","","","","","","","","","","","","","","",""
"","ISI","","html-keyboard-response","252","316948","0.0-1.0-345.0","0","0","45569","","null","","","null","38","NaN","","","","","","","","","","","","","","",""
"","S2","","html-keyboard-response","253","317206","0.0-1.0-346.0","0","0","45569","","null","","","null","38","","NaN","","","","","","","","","","","","","",""
"","response","","html-keyboard-response","254","317844","0.0-1.0-347.0-0.0","0","0","45569","","633","","","75","38","","","1","38","training","adjacent","FE","6","5","M.jpg","O.jpg","1","0","0","",""
"","feedback","","html-keyboard-response","255","318851","0.0-1.0-348.0-0.0","0","0","45569","","null","","","null","38","","","","","","","","","","","","","","","",""
"","time_out","","html-keyboard-response","256","320859","0.0-1.0-350.0-0.0","0","0","45569","","null","","","null","38","","","","","","","","","","","","","","","",""
"","ITI","","html-keyboard-response","257","321865","0.0-1.0-351.0","0","0","45569","","null","","","null","38","","","","","","","","","","","","","","","NaN",""
"","S1","","html-keyboard-response","258","322122","0.0-1.0-353.0","0","0","45569","","null","","","null","39","","","","","","","","","","","","","","","",""
"","ISI","","html-keyboard-response","259","323128","0.0-1.0-354.0","0","0","45569","","null","","","null","39","NaN","","","","","","","","","","","","","","",""
"","S2","","html-keyboard-response","260","323386","0.0-1.0-355.0","0","0","45569","","null","","","null","39","","NaN","","","","","","","","","","","","","",""
"","response","","html-keyboard-response","261","323929","0.0-1.0-356.0-0.0","0","0","45569","","538","","","68","39","","","1","39","training","adjacent","DE","4","5","L.jpg","O.jpg","0","1","0","",""
"","feedback","","html-keyboard-response","262","324938","0.0-1.0-357.0-0.0","0","0","45569","","null","","","null","39","","","","","","","","","","","","","","","",""
"","time_out","","html-keyboard-response","263","326943","0.0-1.0-359.0-0.0","0","0","45569","","null","","","null","39","","","","","","","","","","","","","","","",""
"","ITI","","html-keyboard-response","264","327949","0.0-1.0-360.0","0","0","45569","","null","","","null","39","","","","","","","","","","","","","","","NaN",""
"","S1","","html-keyboard-response","265","328207","0.0-1.0-362.0","0","0","45569","","null","","","null","40","","","","","","","","","","","","","","","",""
"","ISI","","html-keyboard-response","266","329216","0.0-1.0-363.0","0","0","45569","","null","","","null","40","NaN","","","","","","","","","","","","","","",""
"","S2","","html-keyboard-response","267","329474","0.0-1.0-364.0","0","0","45569","","null","","","null","40","","NaN","","","","","","","","","","","","","",""
"","response","","html-keyboard-response","268","330424","0.0-1.0-365.0-0.0","0","0","45569","","945","","","75","40","","","1","40","training","adjacent","BA","2","1","R.jpg","N.jpg","1","0","0","",""
"","feedback","","html-keyboard-response","269","331431","0.0-1.0-366.0-0.0","0","0","45569","","null","","","null","40","","","","","","","","","","","","","","","",""
"","time_out","","html-keyboard-response","270","333440","0.0-1.0-368.0-0.0","0","0","45569","","null","","","null","40","","","","","","","","","","","","","","","",""
"","ITI","","html-keyboard-response","271","334446","0.0-1.0-369.0","0","0","45569","","null","","","null","40","","","","","","","","","","","","","","","NaN",""
"","S1","","html-keyboard-response","272","334705","0.0-1.0-371.0","0","0","45569","","null","","","null","41","","","","","","","","","","","","","","","",""
"","ISI","","html-keyboard-response","273","335709","0.0-1.0-372.0","0","0","45569","","null","","","null","41","NaN","","","","","","","","","","","","","","",""
"","S2","","html-keyboard-response","274","335968","0.0-1.0-373.0","0","0","45569","","null","","","null","41","","NaN","","","","","","","","","","","","","",""
"","response","","html-keyboard-response","275","336683","0.0-1.0-374.0-0.0","0","0","45569","","711","","","75","41","","","1","41","training","adjacent","DE","4","5","L.jpg","O.jpg","1","1","1","",""
"","feedback","","html-keyboard-response","276","337692","0.0-1.0-375.0-0.0","0","0","45569","","null","","","null","41","","","","","","","","","","","","","","","",""
"","ITI","","html-keyboard-response","277","338700","0.0-1.0-378.0","0","0","45569","","null","","","null","41","","","","","","","","","","","","","","","NaN",""
"","S1","","html-keyboard-response","278","338957","0.0-1.0-380.0","0","0","45569","","null","","","null","42","","","","","","","","","","","","","","","",""
"","ISI","","html-keyboard-response","279","339963","0.0-1.0-381.0","0","0","45569","","null","","","null","42","NaN","","","","","","","","","","","","","","",""
"","S2","","html-keyboard-response","280","340221","0.0-1.0-382.0","0","0","45569","","null","","","null","42","","NaN","","","","","","","","","","","","","",""
"","response","","html-keyboard-response","281","340801","0.0-1.0-383.0-0.0","0","0","45569","","576","","","68","42","","","1","42","training","adjacent","AB","1","2","N.jpg","R.jpg","0","1","0","",""
"","feedback","","html-keyboard-response","282","341811","0.0-1.0-384.0-0.0","0","0","45569","","null","","","null","42","","","","","","","","","","","","","","","",""
"","time_out","","html-keyboard-response","283","343820","0.0-1.0-386.0-0.0","0","0","45569","","null","","","null","42","","","","","","","","","","","","","","","",""
"","ITI","","html-keyboard-response","284","344826","0.0-1.0-387.0","0","0","45569","","null","","","null","42","","","","","","","","","","","","","","","NaN",""
"","S1","","html-keyboard-response","285","345086","0.0-1.0-389.0","0","0","45569","","null","","","null","43","","","","","","","","","","","","","","","",""
"","ISI","","html-keyboard-response","286","346094","0.0-1.0-390.0","0","0","45569","","null","","","null","43","NaN","","","","","","","","","","","","","","",""
"","S2","","html-keyboard-response","287","346353","0.0-1.0-391.0","0","0","45569","","null","","","null","43","","NaN","","","","","","","","","","","","","",""
"","response","","html-keyboard-response","288","347145","0.0-1.0-392.0-0.0","0","0","45569","","788","","","75","43","","","1","43","training","adjacent","DE","4","5","L.jpg","O.jpg","1","1","1","",""
"","feedback","","html-keyboard-response","289","348153","0.0-1.0-393.0-0.0","0","0","45569","","null","","","null","43","","","","","","","","","","","","","","","",""
"","ITI","","html-keyboard-response","290","349160","0.0-1.0-396.0","0","0","45569","","null","","","null","43","","","","","","","","","","","","","","","NaN",""
"","S1","","html-keyboard-response","291","349418","0.0-1.0-398.0","0","0","45569","","null","","","null","44","","","","","","","","","","","","","","","",""
"","ISI","","html-keyboard-response","292","350427","0.0-1.0-399.0","0","0","45569","","null","","","null","44","NaN","","","","","","","","","","","","","","",""
"","S2","","html-keyboard-response","293","350684","0.0-1.0-400.0","0","0","45569","","null","","","null","44","","NaN","","","","","","","","","","","","","",""
"","response","","html-keyboard-response","294","351150","0.0-1.0-401.0-0.0","0","0","45569","","463","","","75","44","","","1","44","training","adjacent","CD","3","4","Q.jpg","L.jpg","1","1","1","",""
"","feedback","","html-keyboard-response","295","352158","0.0-1.0-402.0-0.0","0","0","45569","","null","","","null","44","","","","","","","","","","","","","","","",""
"","ITI","","html-keyboard-response","296","353166","0.0-1.0-405.0","0","0","45569","","null","","","null","44","","","","","","","","","","","","","","","NaN",""
"","S1","","html-keyboard-response","297","353426","0.0-1.0-407.0","0","0","45569","","null","","","null","45","","","","","","","","","","","","","","","",""
"","ISI","","html-keyboard-response","298","354431","0.0-1.0-408.0","0","0","45569","","null","","","null","45","NaN","","","","","","","","","","","","","","",""
"","S2","","html-keyboard-response","299","354687","0.0-1.0-409.0","0","0","45569","","null","","","null","45","","NaN","","","","","","","","","","","","","",""
"","response","","html-keyboard-response","300","355151","0.0-1.0-410.0-0.0","0","0","45569","","460","","","68","45","","","1","45","training","adjacent","FG","6","7","M.jpg","P.jpg","0","1","0","",""
"","feedback","","html-keyboard-response","301","356160","0.0-1.0-411.0-0.0","0","0","45569","","null","","","null","45","","","","","","","","","","","","","","","",""
"","time_out","","html-keyboard-response","302","358169","0.0-1.0-413.0-0.0","0","0","45569","","null","","","null","45","","","","","","","","","","","","","","","",""
"","ITI","","html-keyboard-response","303","359175","0.0-1.0-414.0","0","0","45569","","null","","","null","45","","","","","","","","","","","","","","","NaN",""
"","S1","","html-keyboard-response","304","359434","0.0-1.0-416.0","0","0","45569","","null","","","null","46","","","","","","","","","","","","","","","",""
"","ISI","","html-keyboard-response","305","360442","0.0-1.0-417.0","0","0","45569","","null","","","null","46","NaN","","","","","","","","","","","","","","",""
"","S2","","html-keyboard-response","306","360702","0.0-1.0-418.0","0","0","45569","","null","","","null","46","","NaN","","","","","","","","","","","","","",""
"","response","","html-keyboard-response","307","361146","0.0-1.0-419.0-0.0","0","0","45569","","441","","","75","46","","","1","46","training","adjacent","BC","2","3","R.jpg","Q.jpg","1","1","1","",""
"","feedback","","html-keyboard-response","308","362150","0.0-1.0-420.0-0.0","0","0","45569","","null","","","null","46","","","","","","","","","","","","","","","",""
"","ITI","","html-keyboard-response","309","363156","0.0-1.0-423.0","0","0","45569","","null","","","null","46","","","","","","","","","","","","","","","NaN",""
"","S1","","html-keyboard-response","310","363415","0.0-1.0-425.0","0","0","45569","","null","","","null","47","","","","","","","","","","","","","","","",""
"","ISI","","html-keyboard-response","311","364421","0.0-1.0-426.0","0","0","45569","","null","","","null","47","NaN","","","","","","","","","","","","","","",""
"","S2","","html-keyboard-response","312","364680","0.0-1.0-427.0","0","0","45569","","null","","","null","47","","NaN","","","","","","","","","","","","","",""
"","response","","html-keyboard-response","313","365119","0.0-1.0-428.0-0.0","0","0","45569","","435","","","75","47","","","1","47","training","adjacent","CD","3","4","Q.jpg","L.jpg","1","1","1","",""
"","feedback","","html-keyboard-response","314","366128","0.0-1.0-429.0-0.0","0","0","45569","","null","","","null","47","","","","","","","","","","","","","","","",""
"","ITI","","html-keyboard-response","315","367138","0.0-1.0-432.0","0","0","45569","","null","","","null","47","","","","","","","","","","","","","","","NaN",""
"","block_over","","html-keyboard-response","316","374758","0.0-1.0-433.0-0.0","0","0","45569","","7614","","","32","47","","","","","","","","","","","","","","","",""
"","S1","","html-keyboard-response","317","375017","0.0-1.0-434.0","0","0","45569","","null","","","null","48","","","","","","","","","","","","","","","",""
"","ISI","","html-keyboard-response","318","376026","0.0-1.0-435.0","0","0","45569","","null","","","null","48","NaN","","","","","","","","","","","","","","",""
"","S2","","html-keyboard-response","319","376285","0.0-1.0-436.0","0","0","45569","","null","","","null","48","","NaN","","","","","","","","","","","","","",""
"","response","","html-keyboard-response","320","376778","0.0-1.0-437.0-0.0","0","0","45569","","488","","","68","48","","","2","48","training","adjacent","FE","6","5","M.jpg","O.jpg","0","0","1","",""
"","feedback","","html-keyboard-response","321","377785","0.0-1.0-438.0-0.0","0","0","45569","","null","","","null","48","","","","","","","","","","","","","","","",""
"","ITI","","html-keyboard-response","322","378791","0.0-1.0-441.0","0","0","45569","","null","","","null","48","","","","","","","","","","","","","","","NaN",""
"","S1","","html-keyboard-response","323","379049","0.0-1.0-443.0","0","0","45569","","null","","","null","49","","","","","","","","","","","","","","","",""
"","ISI","","html-keyboard-response","324","380057","0.0-1.0-444.0","0","0","45569","","null","","","null","49","NaN","","","","","","","","","","","","","","",""
"","S2","","html-keyboard-response","325","380314","0.0-1.0-445.0","0","0","45569","","null","","","null","49","","NaN","","","","","","","","","","","","","",""
"","response","","html-keyboard-response","326","380665","0.0-1.0-446.0-0.0","0","0","45569","","347","","","68","49","","","2","49","training","adjacent","FG","6","7","M.jpg","P.jpg","0","1","0","",""
"","feedback","","html-keyboard-response","327","381675","0.0-1.0-447.0-0.0","0","0","45569","","null","","","null","49","","","","","","","","","","","","","","","",""
"","time_out","","html-keyboard-response","328","383681","0.0-1.0-449.0-0.0","0","0","45569","","null","","","null","49","","","","","","","","","","","","","","","",""
"","ITI","","html-keyboard-response","329","384688","0.0-1.0-450.0","0","0","45569","","null","","","null","49","","","","","","","","","","","","","","","NaN",""
"","S1","","html-keyboard-response","330","384947","0.0-1.0-452.0","0","0","45569","","null","","","null","50","","","","","","","","","","","","","","","",""
"","ISI","","html-keyboard-response","331","385955","0.0-1.0-453.0","0","0","45569","","null","","","null","50","NaN","","","","","","","","","","","","","","",""
"","S2","","html-keyboard-response","332","386213","0.0-1.0-454.0","0","0","45569","","null","","","null","50","","NaN","","","","","","","","","","","","","",""
"","response","","html-keyboard-response","333","386783","0.0-1.0-455.0-0.0","0","0","45569","","566","","","75","50","","","2","50","training","adjacent","CD","3","4","Q.jpg","L.jpg","1","1","1","",""
"","feedback","","html-keyboard-response","334","387789","0.0-1.0-456.0-0.0","0","0","45569","","null","","","null","50","","","","","","","","","","","","","","","",""
"","ITI","","html-keyboard-response","335","388797","0.0-1.0-459.0","0","0","45569","","null","","","null","50","","","","","","","","","","","","","","","NaN",""
"","S1","","html-keyboard-response","336","389055","0.0-1.0-461.0","0","0","45569","","null","","","null","51","","","","","","","","","","","","","","","",""
"","ISI","","html-keyboard-response","337","390065","0.0-1.0-462.0","0","0","45569","","null","","","null","51","NaN","","","","","","","","","","","","","","",""
"","S2","","html-keyboard-response","338","390321","0.0-1.0-463.0","0","0","45569","","null","","","null","51","","NaN","","","","","","","","","","","","","",""
"","response","","html-keyboard-response","339","390727","0.0-1.0-464.0-0.0","0","0","45569","","402","","","75","51","","","2","51","training","adjacent","DC","4","3","L.jpg","Q.jpg","1","0","0","",""
"","feedback","","html-keyboard-response","340","391734","0.0-1.0-465.0-0.0","0","0","45569","","null","","","null","51","","","","","","","","","","","","","","","",""
"","time_out","","html-keyboard-response","341","393742","0.0-1.0-467.0-0.0","0","0","45569","","null","","","null","51","","","","","","","","","","","","","","","",""
"","ITI","","html-keyboard-response","342","394748","0.0-1.0-468.0","0","0","45569","","null","","","null","51","","","","","","","","","","","","","","","NaN",""
"","S1","","html-keyboard-response","343","395007","0.0-1.0-470.0","0","0","45569","","null","","","null","52","","","","","","","","","","","","","","","",""
"","ISI","","html-keyboard-response","344","396013","0.0-1.0-471.0","0","0","45569","","null","","","null","52","NaN","","","","","","","","","","","","","","",""
"","S2","","html-keyboard-response","345","396268","0.0-1.0-472.0","0","0","45569","","null","","","null","52","","NaN","","","","","","","","","","","","","",""
"","response","","html-keyboard-response","346","396807","0.0-1.0-473.0-0.0","0","0","45569","","535","","","68","52","","","2","52","training","adjacent","EF","5","6","O.jpg","M.jpg","0","1","0","",""
"","feedback","","html-keyboard-response","347","397817","0.0-1.0-474.0-0.0","0","0","45569","","null","","","null","52","","","","","","","","","","","","","","","",""
"","time_out","","html-keyboard-response","348","399826","0.0-1.0-476.0-0.0","0","0","45569","","null","","","null","52","","","","","","","","","","","","","","","",""
"","ITI","","html-keyboard-response","349","400832","0.0-1.0-477.0","0","0","45569","","null","","","null","52","","","","","","","","","","","","","","","NaN",""
"","S1","","html-keyboard-response","350","401091","0.0-1.0-479.0","0","0","45569","","null","","","null","53","","","","","","","","","","","","","","","",""
"","ISI","","html-keyboard-response","351","402099","0.0-1.0-480.0","0","0","45569","","null","","","null","53","NaN","","","","","","","","","","","","","","",""
"","S2","","html-keyboard-response","352","402356","0.0-1.0-481.0","0","0","45569","","null","","","null","53","","NaN","","","","","","","","","","","","","",""
"","response","","html-keyboard-response","353","403087","0.0-1.0-482.0-0.0","0","0","45569","","726","","","75","53","","","2","53","training","adjacent","BC","2","3","R.jpg","Q.jpg","1","1","1","",""
"","feedback","","html-keyboard-response","354","404090","0.0-1.0-483.0-0.0","0","0","45569","","null","","","null","53","","","","","","","","","","","","","","","",""
"","ITI","","html-keyboard-response","355","405096","0.0-1.0-486.0","0","0","45569","","null","","","null","53","","","","","","","","","","","","","","","NaN",""
"","S1","","html-keyboard-response","356","405355","0.0-1.0-488.0","0","0","45569","","null","","","null","54","","","","","","","","","","","","","","","",""
"","ISI","","html-keyboard-response","357","406362","0.0-1.0-489.0","0","0","45569","","null","","","null","54","NaN","","","","","","","","","","","","","","",""
"","S2","","html-keyboard-response","358","406620","0.0-1.0-490.0","0","0","45569","","null","","","null","54","","NaN","","","","","","","","","","","","","",""
"","response","","html-keyboard-response","359","407427","0.0-1.0-491.0-0.0","0","0","45569","","803","","","75","54","","","2","54","training","adjacent","BC","2","3","R.jpg","Q.jpg","1","1","1","",""
"","feedback","","html-keyboard-response","360","408436","0.0-1.0-492.0-0.0","0","0","45569","","null","","","null","54","","","","","","","","","","","","","","","",""
"","ITI","","html-keyboard-response","361","409440","0.0-1.0-495.0","0","0","45569","","null","","","null","54","","","","","","","","","","","","","","","NaN",""
"","S1","","html-keyboard-response","362","409695","0.0-1.0-497.0","0","0","45569","","null","","","null","55","","","","","","","","","","","","","","","",""
"","ISI","","html-keyboard-response","363","410701","0.0-1.0-498.0","0","0","45569","","null","","","null","55","NaN","","","","","","","","","","","","","","",""
"","S2","","html-keyboard-response","364","410955","0.0-1.0-499.0","0","0","45569","","null","","","null","55","","NaN","","","","","","","","","","","","","",""
"","response","","html-keyboard-response","365","411852","0.0-1.0-500.0-0.0","0","0","45569","","894","","","75","55","","","2","55","training","adjacent","ED","5","4","O.jpg","L.jpg","1","0","0","",""
"","feedback","","html-keyboard-response","366","412860","0.0-1.0-501.0-0.0","0","0","45569","","null","","","null","55","","","","","","","","","","","","","","","",""
"","time_out","","html-keyboard-response","367","414868","0.0-1.0-503.0-0.0","0","0","45569","","null","","","null","55","","","","","","","","","","","","","","","",""
"","ITI","","html-keyboard-response","368","415874","0.0-1.0-504.0","0","0","45569","","null","","","null","55","","","","","","","","","","","","","","","NaN",""
"","S1","","html-keyboard-response","369","416133","0.0-1.0-506.0","0","0","45569","","null","","","null","56","","","","","","","","","","","","","","","",""
"","ISI","","html-keyboard-response","370","417142","0.0-1.0-507.0","0","0","45569","","null","","","null","56","NaN","","","","","","","","","","","","","","",""
"","S2","","html-keyboard-response","371","417400","0.0-1.0-508.0","0","0","45569","","null","","","null","56","","NaN","","","","","","","","","","","","","",""
"","response","","html-keyboard-response","372","418126","0.0-1.0-509.0-0.0","0","0","45569","","721","","","68","56","","","2","56","training","adjacent","DC","4","3","L.jpg","Q.jpg","0","0","1","",""
"","feedback","","html-keyboard-response","373","419133","0.0-1.0-510.0-0.0","0","0","45569","","null","","","null","56","","","","","","","","","","","","","","","",""
"","ITI","","html-keyboard-response","374","420138","0.0-1.0-513.0","0","0","45569","","null","","","null","56","","","","","","","","","","","","","","","NaN",""
"","S1","","html-keyboard-response","375","420398","0.0-1.0-515.0","0","0","45569","","null","","","null","57","","","","","","","","","","","","","","","",""
"","ISI","","html-keyboard-response","376","421406","0.0-1.0-516.0","0","0","45569","","null","","","null","57","NaN","","","","","","","","","","","","","","",""
"","S2","","html-keyboard-response","377","421664","0.0-1.0-517.0","0","0","45569","","null","","","null","57","","NaN","","","","","","","","","","","","","",""
"","response","","html-keyboard-response","378","422860","0.0-1.0-518.0-0.0","0","0","45569","","1191","","","75","57","","","2","57","training","adjacent","ED","5","4","O.jpg","L.jpg","1","0","0","",""
"","feedback","","html-keyboard-response","379","423869","0.0-1.0-519.0-0.0","0","0","45569","","null","","","null","57","","","","","","","","","","","","","","","",""
"","time_out","","html-keyboard-response","380","425873","0.0-1.0-521.0-0.0","0","0","45569","","null","","","null","57","","","","","","","","","","","","","","","",""
"","ITI","","html-keyboard-response","381","426880","0.0-1.0-522.0","0","0","45569","","null","","","null","57","","","","","","","","","","","","","","","NaN",""
"","S1","","html-keyboard-response","382","427140","0.0-1.0-524.0","0","0","45569","","null","","","null","58","","","","","","","","","","","","","","","",""
"","ISI","","html-keyboard-response","383","428143","0.0-1.0-525.0","0","0","45569","","null","","","null","58","NaN","","","","","","","","","","","","","","",""
"","S2","","html-keyboard-response","384","428402","0.0-1.0-526.0","0","0","45569","","null","","","null","58","","NaN","","","","","","","","","","","","","",""
"","response","","html-keyboard-response","385","429256","0.0-1.0-527.0-0.0","0","0","45569","","850","","","75","58","","","2","58","training","adjacent","AB","1","2","N.jpg","R.jpg","1","1","1","",""
"","feedback","","html-keyboard-response","386","430263","0.0-1.0-528.0-0.0","0","0","45569","","null","","","null","58","","","","","","","","","","","","","","","",""
"","ITI","","html-keyboard-response","387","431269","0.0-1.0-531.0","0","0","45569","","null","","","null","58","","","","","","","","","","","","","","","NaN",""
"","S1","","html-keyboard-response","388","431529","0.0-1.0-533.0","0","0","45569","","null","","","null","59","","","","","","","","","","","","","","","",""
"","ISI","","html-keyboard-response","389","432537","0.0-1.0-534.0","0","0","45569","","null","","","null","59","NaN","","","","","","","","","","","","","","",""
"","S2","","html-keyboard-response","390","432796","0.0-1.0-535.0","0","0","45569","","null","","","null","59","","NaN","","","","","","","","","","","","","",""
"","response","","html-keyboard-response","391","433195","0.0-1.0-536.0-0.0","0","0","45569","","395","","","68","59","","","2","59","training","adjacent","BA","2","1","R.jpg","N.jpg","0","0","1","",""
"","feedback","","html-keyboard-response","392","434205","0.0-1.0-537.0-0.0","0","0","45569","","null","","","null","59","","","","","","","","","","","","","","","",""
"","ITI","","html-keyboard-response","393","435212","0.0-1.0-540.0","0","0","45569","","null","","","null","59","","","","","","","","","","","","","","","NaN",""
"","S1","","html-keyboard-response","394","435471","0.0-1.0-542.0","0","0","45569","","null","","","null","60","","","","","","","","","","","","","","","",""
"","ISI","","html-keyboard-response","395","436479","0.0-1.0-543.0","0","0","45569","","null","","","null","60","NaN","","","","","","","","","","","","","","",""
"","S2","","html-keyboard-response","396","436738","0.0-1.0-544.0","0","0","45569","","null","","","null","60","","NaN","","","","","","","","","","","","","",""
"","response","","html-keyboard-response","397","437189","0.0-1.0-545.0-0.0","0","0","45569","","448","","","75","60","","","2","60","training","adjacent","AB","1","2","N.jpg","R.jpg","1","1","1","",""
"","feedback","","html-keyboard-response","398","438199","0.0-1.0-546.0-0.0","0","0","45569","","null","","","null","60","","","","","","","","","","","","","","","",""
"","ITI","","html-keyboard-response","399","439208","0.0-1.0-549.0","0","0","45569","","null","","","null","60","","","","","","","","","","","","","","","NaN",""
"","S1","","html-keyboard-response","400","439466","0.0-1.0-551.0","0","0","45569","","null","","","null","61","","","","","","","","","","","","","","","",""
"","ISI","","html-keyboard-response","401","440475","0.0-1.0-552.0","0","0","45569","","null","","","null","61","NaN","","","","","","","","","","","","","","",""
"","S2","","html-keyboard-response","402","440734","0.0-1.0-553.0","0","0","45569","","null","","","null","61","","NaN","","","","","","","","","","","","","",""
"","response","","html-keyboard-response","403","441154","0.0-1.0-554.0-0.0","0","0","45569","","417","","","68","61","","","2","61","training","adjacent","BC","2","3","R.jpg","Q.jpg","0","1","0","",""
"","feedback","","html-keyboard-response","404","442164","0.0-1.0-555.0-0.0","0","0","45569","","null","","","null","61","","","","","","","","","","","","","","","",""
"","time_out","","html-keyboard-response","405","444172","0.0-1.0-557.0-0.0","0","0","45569","","null","","","null","61","","","","","","","","","","","","","","","",""
"","ITI","","html-keyboard-response","406","445179","0.0-1.0-558.0","0","0","45569","","null","","","null","61","","","","","","","","","","","","","","","NaN",""
"","S1","","html-keyboard-response","407","445438","0.0-1.0-560.0","0","0","45569","","null","","","null","62","","","","","","","","","","","","","","","",""
"","ISI","","html-keyboard-response","408","446447","0.0-1.0-561.0","0","0","45569","","null","","","null","62","NaN","","","","","","","","","","","","","","",""
"","S2","","html-keyboard-response","409","446705","0.0-1.0-562.0","0","0","45569","","null","","","null","62","","NaN","","","","","","","","","","","","","",""
"","response","","html-keyboard-response","410","447155","0.0-1.0-563.0-0.0","0","0","45569","","446","","","68","62","","","2","62","training","adjacent","DC","4","3","L.jpg","Q.jpg","0","0","1","",""
"","feedback","","html-keyboard-response","411","448165","0.0-1.0-564.0-0.0","0","0","45569","","null","","","null","62","","","","","","","","","","","","","","","",""
"","ITI","","html-keyboard-response","412","449174","0.0-1.0-567.0","0","0","45569","","null","","","null","62","","","","","","","","","","","","","","","NaN",""
"","S1","","html-keyboard-response","413","449432","0.0-1.0-569.0","0","0","45569","","null","","","null","63","","","","","","","","","","","","","","","",""
"","ISI","","html-keyboard-response","414","450438","0.0-1.0-570.0","0","0","45569","","null","","","null","63","NaN","","","","","","","","","","","","","","",""
"","S2","","html-keyboard-response","415","450697","0.0-1.0-571.0","0","0","45569","","null","","","null","63","","NaN","","","","","","","","","","","","","",""
"","response","","html-keyboard-response","416","451305","0.0-1.0-572.0-0.0","0","0","45569","","604","","","68","63","","","2","63","training","adjacent","EF","5","6","O.jpg","M.jpg","0","1","0","",""
"","feedback","","html-keyboard-response","417","452314","0.0-1.0-573.0-0.0","0","0","45569","","null","","","null","63","","","","","","","","","","","","","","","",""
"","time_out","","html-keyboard-response","418","454323","0.0-1.0-575.0-0.0","0","0","45569","","null","","","null","63","","","","","","","","","","","","","","","",""
"","ITI","","html-keyboard-response","419","455328","0.0-1.0-576.0","0","0","45569","","null","","","null","63","","","","","","","","","","","","","","","NaN",""
"","S1","","html-keyboard-response","420","455584","0.0-1.0-578.0","0","0","45569","","null","","","null","64","","","","","","","","","","","","","","","",""
"","ISI","","html-keyboard-response","421","456589","0.0-1.0-579.0","0","0","45569","","null","","","null","64","NaN","","","","","","","","","","","","","","",""
"","S2","","html-keyboard-response","422","456849","0.0-1.0-580.0","0","0","45569","","null","","","null","64","","NaN","","","","","","","","","","","","","",""
"","response","","html-keyboard-response","423","457544","0.0-1.0-581.0-0.0","0","0","45569","","690","","","68","64","","","2","64","training","adjacent","BA","2","1","R.jpg","N.jpg","0","0","1","",""
"","feedback","","html-keyboard-response","424","458553","0.0-1.0-582.0-0.0","0","0","45569","","null","","","null","64","","","","","","","","","","","","","","","",""
"","ITI","","html-keyboard-response","425","459562","0.0-1.0-585.0","0","0","45569","","null","","","null","64","","","","","","","","","","","","","","","NaN",""
"","S1","","html-keyboard-response","426","459817","0.0-1.0-587.0","0","0","45569","","null","","","null","65","","","","","","","","","","","","","","","",""
"","ISI","","html-keyboard-response","427","460821","0.0-1.0-588.0","0","0","45569","","null","","","null","65","NaN","","","","","","","","","","","","","","",""
"","S2","","html-keyboard-response","428","461080","0.0-1.0-589.0","0","0","45569","","null","","","null","65","","NaN","","","","","","","","","","","","","",""
"","response","","html-keyboard-response","429","461706","0.0-1.0-590.0-0.0","0","0","45569","","621","","","68","65","","","2","65","training","adjacent","FE","6","5","M.jpg","O.jpg","0","0","1","",""
"","feedback","","html-keyboard-response","430","462712","0.0-1.0-591.0-0.0","0","0","45569","","null","","","null","65","","","","","","","","","","","","","","","",""
"","ITI","","html-keyboard-response","431","463716","0.0-1.0-594.0","0","0","45569","","null","","","null","65","","","","","","","","","","","","","","","NaN",""
"","S1","","html-keyboard-response","432","463976","0.0-1.0-596.0","0","0","45569","","null","","","null","66","","","","","","","","","","","","","","","",""
"","ISI","","html-keyboard-response","433","464984","0.0-1.0-597.0","0","0","45569","","null","","","null","66","NaN","","","","","","","","","","","","","","",""
"","S2","","html-keyboard-response","434","465243","0.0-1.0-598.0","0","0","45569","","null","","","null","66","","NaN","","","","","","","","","","","","","",""
"","response","","html-keyboard-response","435","465801","0.0-1.0-599.0-0.0","0","0","45569","","555","","","68","66","","","2","66","training","adjacent","CD","3","4","Q.jpg","L.jpg","0","1","0","",""
"","feedback","","html-keyboard-response","436","466810","0.0-1.0-600.0-0.0","0","0","45569","","null","","","null","66","","","","","","","","","","","","","","","",""
"","time_out","","html-keyboard-response","437","468820","0.0-1.0-602.0-0.0","0","0","45569","","null","","","null","66","","","","","","","","","","","","","","","",""
"","ITI","","html-keyboard-response","438","469826","0.0-1.0-603.0","0","0","45569","","null","","","null","66","","","","","","","","","","","","","","","NaN",""
"","S1","","html-keyboard-response","439","470085","0.0-1.0-605.0","0","0","45569","","null","","","null","67","","","","","","","","","","","","","","","",""
"","ISI","","html-keyboard-response","440","471094","0.0-1.0-606.0","0","0","45569","","null","","","null","67","NaN","","","","","","","","","","","","","","",""
"","S2","","html-keyboard-response","441","471353","0.0-1.0-607.0","0","0","45569","","null","","","null","67","","NaN","","","","","","","","","","","","","",""
"","response","","html-keyboard-response","442","472184","0.0-1.0-608.0-0.0","0","0","45569","","828","","","68","67","","","2","67","training","adjacent","CB","3","2","Q.jpg","R.jpg","0","0","1","",""
"","feedback","","html-keyboard-response","443","473192","0.0-1.0-609.0-0.0","0","0","45569","","null","","","null","67","","","","","","","","","","","","","","","",""
"","ITI","","html-keyboard-response","444","474199","0.0-1.0-612.0","0","0","45569","","null","","","null","67","","","","","","","","","","","","","","","NaN",""
"","S1","","html-keyboard-response","445","474458","0.0-1.0-614.0","0","0","45569","","null","","","null","68","","","","","","","","","","","","","","","",""
"","ISI","","html-keyboard-response","446","475467","0.0-1.0-615.0","0","0","45569","","null","","","null","68","NaN","","","","","","","","","","","","","","",""
"","S2","","html-keyboard-response","447","475726","0.0-1.0-616.0","0","0","45569","","null","","","null","68","","NaN","","","","","","","","","","","","","",""
"","response","","html-keyboard-response","448","476404","0.0-1.0-617.0-0.0","0","0","45569","","674","","","68","68","","","2","68","training","adjacent","BC","2","3","R.jpg","Q.jpg","0","1","0","",""
"","feedback","","html-keyboard-response","449","477410","0.0-1.0-618.0-0.0","0","0","45569","","null","","","null","68","","","","","","","","","","","","","","","",""
"","time_out","","html-keyboard-response","450","479417","0.0-1.0-620.0-0.0","0","0","45569","","null","","","null","68","","","","","","","","","","","","","","","",""
"","ITI","","html-keyboard-response","451","480426","0.0-1.0-621.0","0","0","45569","","null","","","null","68","","","","","","","","","","","","","","","NaN",""
"","S1","","html-keyboard-response","452","480684","0.0-1.0-623.0","0","0","45569","","null","","","null","69","","","","","","","","","","","","","","","",""
"","ISI","","html-keyboard-response","453","481692","0.0-1.0-624.0","0","0","45569","","null","","","null","69","NaN","","","","","","","","","","","","","","",""
"","S2","","html-keyboard-response","454","481951","0.0-1.0-625.0","0","0","45569","","null","","","null","69","","NaN","","","","","","","","","","","","","",""
"","response","","html-keyboard-response","455","482694","0.0-1.0-626.0-0.0","0","0","45569","","741","","","75","69","","","2","69","training","adjacent","DE","4","5","L.jpg","O.jpg","1","1","1","",""
"","feedback","","html-keyboard-response","456","483703","0.0-1.0-627.0-0.0","0","0","45569","","null","","","null","69","","","","","","","","","","","","","","","",""
"","ITI","","html-keyboard-response","457","484709","0.0-1.0-630.0","0","0","45569","","null","","","null","69","","","","","","","","","","","","","","","NaN",""
"","S1","","html-keyboard-response","458","484968","0.0-1.0-632.0","0","0","45569","","null","","","null","70","","","","","","","","","","","","","","","",""
"","ISI","","html-keyboard-response","459","485976","0.0-1.0-633.0","0","0","45569","","null","","","null","70","NaN","","","","","","","","","","","","","","",""
"","S2","","html-keyboard-response","460","486235","0.0-1.0-634.0","0","0","45569","","null","","","null","70","","NaN","","","","","","","","","","","","","",""
"","response","","html-keyboard-response","461","487001","0.0-1.0-635.0-0.0","0","0","45569","","760","","","75","70","","","2","70","training","adjacent","GF","7","6","P.jpg","M.jpg","1","0","0","",""
"","feedback","","html-keyboard-response","462","488007","0.0-1.0-636.0-0.0","0","0","45569","","null","","","null","70","","","","","","","","","","","","","","","",""
"","time_out","","html-keyboard-response","463","490017","0.0-1.0-638.0-0.0","0","0","45569","","null","","","null","70","","","","","","","","","","","","","","","",""
"","ITI","","html-keyboard-response","464","491024","0.0-1.0-639.0","0","0","45569","","null","","","null","70","","","","","","","","","","","","","","","NaN",""
"","S1","","html-keyboard-response","465","491282","0.0-1.0-641.0","0","0","45569","","null","","","null","71","","","","","","","","","","","","","","","",""
"","ISI","","html-keyboard-response","466","492292","0.0-1.0-642.0","0","0","45569","","null","","","null","71","NaN","","","","","","","","","","","","","","",""
"","S2","","html-keyboard-response","467","492551","0.0-1.0-643.0","0","0","45569","","null","","","null","71","","NaN","","","","","","","","","","","","","",""
"","response","","html-keyboard-response","468","493079","0.0-1.0-644.0-0.0","0","0","45569","","524","","","68","71","","","2","71","training","adjacent","EF","5","6","O.jpg","M.jpg","0","1","0","",""
"","feedback","","html-keyboard-response","469","494089","0.0-1.0-645.0-0.0","0","0","45569","","null","","","null","71","","","","","","","","","","","","","","","",""
"","time_out","","html-keyboard-response","470","496098","0.0-1.0-647.0-0.0","0","0","45569","","null","","","null","71","","","","","","","","","","","","","","","",""
"","ITI","","html-keyboard-response","471","497105","0.0-1.0-648.0","0","0","45569","","null","","","null","71","","","","","","","","","","","","","","","NaN",""
"","S1","","html-keyboard-response","472","497364","0.0-1.0-650.0","0","0","45569","","null","","","null","72","","","","","","","","","","","","","","","",""
"","ISI","","html-keyboard-response","473","498372","0.0-1.0-651.0","0","0","45569","","null","","","null","72","NaN","","","","","","","","","","","","","","",""
"","S2","","html-keyboard-response","474","498631","0.0-1.0-652.0","0","0","45569","","null","","","null","72","","NaN","","","","","","","","","","","","","",""
"","response","","html-keyboard-response","475","499234","0.0-1.0-653.0-0.0","0","0","45569","","600","","","75","72","","","2","72","training","adjacent","DE","4","5","L.jpg","O.jpg","1","1","1","",""
"","feedback","","html-keyboard-response","476","500243","0.0-1.0-654.0-0.0","0","0","45569","","null","","","null","72","","","","","","","","","","","","","","","",""
"","ITI","","html-keyboard-response","477","501252","0.0-1.0-657.0","0","0","45569","","null","","","null","72","","","","","","","","","","","","","","","NaN",""
"","S1","","html-keyboard-response","478","501511","0.0-1.0-659.0","0","0","45569","","null","","","null","73","","","","","","","","","","","","","","","",""
"","ISI","","html-keyboard-response","479","502520","0.0-1.0-660.0","0","0","45569","","null","","","null","73","NaN","","","","","","","","","","","","","","",""
"","S2","","html-keyboard-response","480","502779","0.0-1.0-661.0","0","0","45569","","null","","","null","73","","NaN","","","","","","","","","","","","","",""
"","response","","html-keyboard-response","481","503414","0.0-1.0-662.0-0.0","0","0","45569","","631","","","68","73","","","2","73","training","adjacent","DE","4","5","L.jpg","O.jpg","0","1","0","",""
"","feedback","","html-keyboard-response","482","504418","0.0-1.0-663.0-0.0","0","0","45569","","null","","","null","73","","","","","","","","","","","","","","","",""
"","time_out","","html-keyboard-response","483","506428","0.0-1.0-665.0-0.0","0","0","45569","","null","","","null","73","","","","","","","","","","","","","","","",""
"","ITI","","html-keyboard-response","484","507434","0.0-1.0-666.0","0","0","45569","","null","","","null","73","","","","","","","","","","","","","","","NaN",""
"","S1","","html-keyboard-response","485","507693","0.0-1.0-668.0","0","0","45569","","null","","","null","74","","","","","","","","","","","","","","","",""
"","ISI","","html-keyboard-response","486","508698","0.0-1.0-669.0","0","0","45569","","null","","","null","74","NaN","","","","","","","","","","","","","","",""
"","S2","","html-keyboard-response","487","508957","0.0-1.0-670.0","0","0","45569","","null","","","null","74","","NaN","","","","","","","","","","","","","",""
"","response","","html-keyboard-response","488","510044","0.0-1.0-671.0-0.0","0","0","45569","","1082","","","75","74","","","2","74","training","adjacent","FG","6","7","M.jpg","P.jpg","1","1","1","",""
"","feedback","","html-keyboard-response","489","511051","0.0-1.0-672.0-0.0","0","0","45569","","null","","","null","74","","","","","","","","","","","","","","","",""
"","ITI","","html-keyboard-response","490","512058","0.0-1.0-675.0","0","0","45569","","null","","","null","74","","","","","","","","","","","","","","","NaN",""
"","S1","","html-keyboard-response","491","512318","0.0-1.0-677.0","0","0","45569","","null","","","null","75","","","","","","","","","","","","","","","",""
"","ISI","","html-keyboard-response","492","513327","0.0-1.0-678.0","0","0","45569","","null","","","null","75","NaN","","","","","","","","","","","","","","",""
"","S2","","html-keyboard-response","493","513585","0.0-1.0-679.0","0","0","45569","","null","","","null","75","","NaN","","","","","","","","","","","","","",""
"","response","","html-keyboard-response","494","513926","0.0-1.0-680.0-0.0","0","0","45569","","336","","","68","75","","","2","75","training","adjacent","DC","4","3","L.jpg","Q.jpg","0","0","1","",""
"","feedback","","html-keyboard-response","495","514935","0.0-1.0-681.0-0.0","0","0","45569","","null","","","null","75","","","","","","","","","","","","","","","",""
"","ITI","","html-keyboard-response","496","515944","0.0-1.0-684.0","0","0","45569","","null","","","null","75","","","","","","","","","","","","","","","NaN",""
"","S1","","html-keyboard-response","497","516201","0.0-1.0-686.0","0","0","45569","","null","","","null","76","","","","","","","","","","","","","","","",""
"","ISI","","html-keyboard-response","498","517207","0.0-1.0-687.0","0","0","45569","","null","","","null","76","NaN","","","","","","","","","","","","","","",""
"","S2","","html-keyboard-response","499","517464","0.0-1.0-688.0","0","0","45569","","null","","","null","76","","NaN","","","","","","","","","","","","","",""
"","response","","html-keyboard-response","500","518293","0.0-1.0-689.0-0.0","0","0","45569","","825","","","75","76","","","2","76","training","adjacent","EF","5","6","O.jpg","M.jpg","1","1","1","",""
"","feedback","","html-keyboard-response","501","519301","0.0-1.0-690.0-0.0","0","0","45569","","null","","","null","76","","","","","","","","","","","","","","","",""
"","ITI","","html-keyboard-response","502","520308","0.0-1.0-693.0","0","0","45569","","null","","","null","76","","","","","","","","","","","","","","","NaN",""
"","S1","","html-keyboard-response","503","520567","0.0-1.0-695.0","0","0","45569","","null","","","null","77","","","","","","","","","","","","","","","",""
"","ISI","","html-keyboard-response","504","521576","0.0-1.0-696.0","0","0","45569","","null","","","null","77","NaN","","","","","","","","","","","","","","",""
"","S2","","html-keyboard-response","505","521834","0.0-1.0-697.0","0","0","45569","","null","","","null","77","","NaN","","","","","","","","","","","","","",""
"","response","","html-keyboard-response","506","522350","0.0-1.0-698.0-0.0","0","0","45569","","511","","","68","77","","","2","77","training","adjacent","FG","6","7","M.jpg","P.jpg","0","1","0","",""
"","feedback","","html-keyboard-response","507","523359","0.0-1.0-699.0-0.0","0","0","45569","","null","","","null","77","","","","","","","","","","","","","","","",""
"","time_out","","html-keyboard-response","508","525369","0.0-1.0-701.0-0.0","0","0","45569","","null","","","null","77","","","","","","","","","","","","","","","",""
"","ITI","","html-keyboard-response","509","526375","0.0-1.0-702.0","0","0","45569","","null","","","null","77","","","","","","","","","","","","","","","NaN",""
"","S1","","html-keyboard-response","510","526634","0.0-1.0-704.0","0","0","45569","","null","","","null","78","","","","","","","","","","","","","","","",""
"","ISI","","html-keyboard-response","511","527638","0.0-1.0-705.0","0","0","45569","","null","","","null","78","NaN","","","","","","","","","","","","","","",""
"","S2","","html-keyboard-response","512","527896","0.0-1.0-706.0","0","0","45569","","null","","","null","78","","NaN","","","","","","","","","","","","","",""
"","response","","html-keyboard-response","513","528320","0.0-1.0-707.0-0.0","0","0","45569","","419","","","75","78","","","2","78","training","adjacent","CD","3","4","Q.jpg","L.jpg","1","1","1","",""
"","feedback","","html-keyboard-response","514","529329","0.0-1.0-708.0-0.0","0","0","45569","","null","","","null","78","","","","","","","","","","","","","","","",""
"","ITI","","html-keyboard-response","515","530339","0.0-1.0-711.0","0","0","45569","","null","","","null","78","","","","","","","","","","","","","","","NaN",""
"","S1","","html-keyboard-response","516","530597","0.0-1.0-713.0","0","0","45569","","null","","","null","79","","","","","","","","","","","","","","","",""
"","ISI","","html-keyboard-response","517","531602","0.0-1.0-714.0","0","0","45569","","null","","","null","79","NaN","","","","","","","","","","","","","","",""
"","S2","","html-keyboard-response","518","531861","0.0-1.0-715.0","0","0","45569","","null","","","null","79","","NaN","","","","","","","","","","","","","",""
"","response","","html-keyboard-response","519","532724","0.0-1.0-716.0-0.0","0","0","45569","","859","","","75","79","","","2","79","training","adjacent","FE","6","5","M.jpg","O.jpg","1","0","0","",""
"","feedback","","html-keyboard-response","520","533731","0.0-1.0-717.0-0.0","0","0","45569","","null","","","null","79","","","","","","","","","","","","","","","",""
"","time_out","","html-keyboard-response","521","535737","0.0-1.0-719.0-0.0","0","0","45569","","null","","","null","79","","","","","","","","","","","","","","","",""
"","ITI","","html-keyboard-response","522","536744","0.0-1.0-720.0","0","0","45569","","null","","","null","79","","","","","","","","","","","","","","","NaN",""
"","S1","","html-keyboard-response","523","537003","0.0-1.0-722.0","0","0","45569","","null","","","null","80","","","","","","","","","","","","","","","",""
"","ISI","","html-keyboard-response","524","538012","0.0-1.0-723.0","0","0","45569","","null","","","null","80","NaN","","","","","","","","","","","","","","",""
"","S2","","html-keyboard-response","525","538271","0.0-1.0-724.0","0","0","45569","","null","","","null","80","","NaN","","","","","","","","","","","","","",""
"","response","","html-keyboard-response","526","538669","0.0-1.0-725.0-0.0","0","0","45569","","394","","","75","80","","","2","80","training","adjacent","CD","3","4","Q.jpg","L.jpg","1","1","1","",""
"","feedback","","html-keyboard-response","527","539678","0.0-1.0-726.0-0.0","0","0","45569","","null","","","null","80","","","","","","","","","","","","","","","",""
"","ITI","","html-keyboard-response","528","540687","0.0-1.0-729.0","0","0","45569","","null","","","null","80","","","","","","","","","","","","","","","NaN",""
"","S1","","html-keyboard-response","529","540943","0.0-1.0-731.0","0","0","45569","","null","","","null","81","","","","","","","","","","","","","","","",""
"","ISI","","html-keyboard-response","530","541949","0.0-1.0-732.0","0","0","45569","","null","","","null","81","NaN","","","","","","","","","","","","","","",""
"","S2","","html-keyboard-response","531","542208","0.0-1.0-733.0","0","0","45569","","null","","","null","81","","NaN","","","","","","","","","","","","","",""
"","response","","html-keyboard-response","532","542641","0.0-1.0-734.0-0.0","0","0","45569","","429","","","75","81","","","2","81","training","adjacent","AB","1","2","N.jpg","R.jpg","1","1","1","",""
"","feedback","","html-keyboard-response","533","543651","0.0-1.0-735.0-0.0","0","0","45569","","null","","","null","81","","","","","","","","","","","","","","","",""
"","ITI","","html-keyboard-response","534","544660","0.0-1.0-738.0","0","0","45569","","null","","","null","81","","","","","","","","","","","","","","","NaN",""
"","S1","","html-keyboard-response","535","544919","0.0-1.0-740.0","0","0","45569","","null","","","null","82","","","","","","","","","","","","","","","",""
"","ISI","","html-keyboard-response","536","545927","0.0-1.0-741.0","0","0","45569","","null","","","null","82","NaN","","","","","","","","","","","","","","",""
"","S2","","html-keyboard-response","537","546185","0.0-1.0-742.0","0","0","45569","","null","","","null","82","","NaN","","","","","","","","","","","","","",""
"","response","","html-keyboard-response","538","546565","0.0-1.0-743.0-0.0","0","0","45569","","375","","","75","82","","","2","82","training","adjacent","GF","7","6","P.jpg","M.jpg","1","0","0","",""
"","feedback","","html-keyboard-response","539","547575","0.0-1.0-744.0-0.0","0","0","45569","","null","","","null","82","","","","","","","","","","","","","","","",""
"","time_out","","html-keyboard-response","540","549583","0.0-1.0-746.0-0.0","0","0","45569","","null","","","null","82","","","","","","","","","","","","","","","",""
"","ITI","","html-keyboard-response","541","550592","0.0-1.0-747.0","0","0","45569","","null","","","null","82","","","","","","","","","","","","","","","NaN",""
"","S1","","html-keyboard-response","542","550851","0.0-1.0-749.0","0","0","45569","","null","","","null","83","","","","","","","","","","","","","","","",""
"","ISI","","html-keyboard-response","543","551859","0.0-1.0-750.0","0","0","45569","","null","","","null","83","NaN","","","","","","","","","","","","","","",""
"","S2","","html-keyboard-response","544","552116","0.0-1.0-751.0","0","0","45569","","null","","","null","83","","NaN","","","","","","","","","","","","","",""
"","response","","html-keyboard-response","545","552406","0.0-1.0-752.0-0.0","0","0","45569","","285","","","75","83","","","2","83","training","adjacent","AB","1","2","N.jpg","R.jpg","1","1","1","",""
"","feedback","","html-keyboard-response","546","553415","0.0-1.0-753.0-0.0","0","0","45569","","null","","","null","83","","","","","","","","","","","","","","","",""
"","ITI","","html-keyboard-response","547","554425","0.0-1.0-756.0","0","0","45569","","null","","","null","83","","","","","","","","","","","","","","","NaN",""
"","S1","","html-keyboard-response","548","554682","0.0-1.0-758.0","0","0","45569","","null","","","null","84","","","","","","","","","","","","","","","",""
"","ISI","","html-keyboard-response","549","555688","0.0-1.0-759.0","0","0","45569","","null","","","null","84","NaN","","","","","","","","","","","","","","",""
"","S2","","html-keyboard-response","550","555946","0.0-1.0-760.0","0","0","45569","","null","","","null","84","","NaN","","","","","","","","","","","","","",""
"","response","","html-keyboard-response","551","556282","0.0-1.0-761.0-0.0","0","0","45569","","332","","","68","84","","","2","84","training","adjacent","GF","7","6","P.jpg","M.jpg","0","0","1","",""
"","feedback","","html-keyboard-response","552","557292","0.0-1.0-762.0-0.0","0","0","45569","","null","","","null","84","","","","","","","","","","","","","","","",""
"","ITI","","html-keyboard-response","553","558300","0.0-1.0-765.0","0","0","45569","","null","","","null","84","","","","","","","","","","","","","","","NaN",""
"","S1","","html-keyboard-response","554","558559","0.0-1.0-767.0","0","0","45569","","null","","","null","85","","","","","","","","","","","","","","","",""
"","ISI","","html-keyboard-response","555","559565","0.0-1.0-768.0","0","0","45569","","null","","","null","85","NaN","","","","","","","","","","","","","","",""
"","S2","","html-keyboard-response","556","559824","0.0-1.0-769.0","0","0","45569","","null","","","null","85","","NaN","","","","","","","","","","","","","",""
"","response","","html-keyboard-response","557","560473","0.0-1.0-770.0-0.0","0","0","45569","","646","","","75","85","","","2","85","training","adjacent","ED","5","4","O.jpg","L.jpg","1","0","0","",""
"","feedback","","html-keyboard-response","558","561483","0.0-1.0-771.0-0.0","0","0","45569","","null","","","null","85","","","","","","","","","","","","","","","",""
"","time_out","","html-keyboard-response","559","563488","0.0-1.0-773.0-0.0","0","0","45569","","null","","","null","85","","","","","","","","","","","","","","","",""
"","ITI","","html-keyboard-response","560","564495","0.0-1.0-774.0","0","0","45569","","null","","","null","85","","","","","","","","","","","","","","","NaN",""
"","S1","","html-keyboard-response","561","564753","0.0-1.0-776.0","0","0","45569","","null","","","null","86","","","","","","","","","","","","","","","",""
"","ISI","","html-keyboard-response","562","565761","0.0-1.0-777.0","0","0","45569","","null","","","null","86","NaN","","","","","","","","","","","","","","",""
"","S2","","html-keyboard-response","563","566020","0.0-1.0-778.0","0","0","45569","","null","","","null","86","","NaN","","","","","","","","","","","","","",""
"","response","","html-keyboard-response","564","566503","0.0-1.0-779.0-0.0","0","0","45569","","478","","","75","86","","","2","86","training","adjacent","FE","6","5","M.jpg","O.jpg","1","0","0","",""
"","feedback","","html-keyboard-response","565","567507","0.0-1.0-780.0-0.0","0","0","45569","","null","","","null","86","","","","","","","","","","","","","","","",""
"","time_out","","html-keyboard-response","566","569512","0.0-1.0-782.0-0.0","0","0","45569","","null","","","null","86","","","","","","","","","","","","","","","",""
"","ITI","","html-keyboard-response","567","570519","0.0-1.0-783.0","0","0","45569","","null","","","null","86","","","","","","","","","","","","","","","NaN",""
"","S1","","html-keyboard-response","568","570778","0.0-1.0-785.0","0","0","45569","","null","","","null","87","","","","","","","","","","","","","","","",""
"","ISI","","html-keyboard-response","569","571787","0.0-1.0-786.0","0","0","45569","","null","","","null","87","NaN","","","","","","","","","","","","","","",""
"","S2","","html-keyboard-response","570","572045","0.0-1.0-787.0","0","0","45569","","null","","","null","87","","NaN","","","","","","","","","","","","","",""
"","response","","html-keyboard-response","571","572718","0.0-1.0-788.0-0.0","0","0","45569","","670","","","68","87","","","2","87","training","adjacent","GF","7","6","P.jpg","M.jpg","0","0","1","",""
"","feedback","","html-keyboard-response","572","573727","0.0-1.0-789.0-0.0","0","0","45569","","null","","","null","87","","","","","","","","","","","","","","","",""
"","ITI","","html-keyboard-response","573","574737","0.0-1.0-792.0","0","0","45569","","null","","","null","87","","","","","","","","","","","","","","","NaN",""
"","S1","","html-keyboard-response","574","574994","0.0-1.0-794.0","0","0","45569","","null","","","null","88","","","","","","","","","","","","","","","",""
"","ISI","","html-keyboard-response","575","576001","0.0-1.0-795.0","0","0","45569","","null","","","null","88","NaN","","","","","","","","","","","","","","",""
"","S2","","html-keyboard-response","576","576260","0.0-1.0-796.0","0","0","45569","","null","","","null","88","","NaN","","","","","","","","","","","","","",""
"","response","","html-keyboard-response","577","576673","0.0-1.0-797.0-0.0","0","0","45569","","411","","","68","88","","","2","88","training","adjacent","BA","2","1","R.jpg","N.jpg","0","0","1","",""
"","feedback","","html-keyboard-response","578","577683","0.0-1.0-798.0-0.0","0","0","45569","","null","","","null","88","","","","","","","","","","","","","","","",""
"","ITI","","html-keyboard-response","579","578692","0.0-1.0-801.0","0","0","45569","","null","","","null","88","","","","","","","","","","","","","","","NaN",""
"","S1","","html-keyboard-response","580","578951","0.0-1.0-803.0","0","0","45569","","null","","","null","89","","","","","","","","","","","","","","","",""
"","ISI","","html-keyboard-response","581","579955","0.0-1.0-804.0","0","0","45569","","null","","","null","89","NaN","","","","","","","","","","","","","","",""
"","S2","","html-keyboard-response","582","580215","0.0-1.0-805.0","0","0","45569","","null","","","null","89","","NaN","","","","","","","","","","","","","",""
