"success","ttype","start_time","trial_type","trial_index","time_elapsed","internal_node_id","warning","missed_checkup","PID","view_history","rt","responses","repeat_instructions","key_press","index","keypress_isi","keypress_S2","block","trial_num","phase","group_type","pair_type","S1_stim","S2_stim","S1_img","S2_img","S1_chosen","S1_higher","accuracy","keypress_iti","total_bonus_tally"
"true","full_screen","d08052022hr1339","fullscreen","0","8521","0.0-0.0","0","0","89750","","","","","","","","","","","","","","","","","","","","","",""
"","instructions","","instructions","1","42937","0.0-1.0-0.0-0.0","0","0","89750","[{""page_index"":0,""viewing_time"":4736},{""page_index"":1,""viewing_time"":19026},{""page_index"":2,""viewing_time"":8832},{""page_index"":3,""viewing_time"":1820}]","34414","","","","","","","","","","","","","","","","","","","",""
"","comprehension_check","","survey-multi-choice","2","65918","0.0-1.0-0.0-1.0","0","0","89750","","22977","{""Q0"":""True"",""Q1"":""D"",""Q2"":""Once the second image appears and while the screen 'MAKE A CHOICE' is shown"",""Q3"":""Green mark"",""Q4"":""either D or K""}","0","","","","","","","","","","","","","","","","","",""
"","start_exp","","html-keyboard-response","3","68882","0.0-1.0-1.0","0","0","89750","","2960","","","32","","","","","","","","","","","","","","","","",""
"","S1","","html-keyboard-response","4","69137","0.0-1.0-2.0","0","0","89750","","null","","","null","0","","","","","","","","","","","","","","","",""
"","ISI","","html-keyboard-response","5","71141","0.0-1.0-3.0","0","0","89750","","null","","","null","0","NaN","","","","","","","","","","","","","","",""
"","S2","","html-keyboard-response","6","71396","0.0-1.0-4.0","0","0","89750","","null","","","null","0","","NaN","","","","","","","","","","","","","",""
"","response","","html-keyboard-response","7","72018","0.0-1.0-5.0-0.0","0","0","89750","","618","","","75","0","","","1","0","training","adjacent","FG","6","7","Q.jpg","R.jpg","0","1","0","",""
"","feedback","","html-keyboard-response","8","73022","0.0-1.0-6.0-0.0","0","0","89750","","null","","","null","0","","","","","","","","","","","","","","","",""
"","time_out","","html-keyboard-response","9","75028","0.0-1.0-8.0-0.0","0","0","89750","","null","","","null","0","","","","","","","","","","","","","","","",""
"","ITI","","html-keyboard-response","10","76032","0.0-1.0-9.0","0","0","89750","","null","","","null","0","","","","","","","","","","","","","","","NaN",""
"","S1","","html-keyboard-response","11","76287","0.0-1.0-11.0","0","0","89750","","null","","","null","1","","","","","","","","","","","","","","","",""
"","ISI","","html-keyboard-response","12","78291","0.0-1.0-12.0","0","0","89750","","null","","","null","1","NaN","","","","","","","","","","","","","","",""
"","S2","","html-keyboard-response","13","78546","0.0-1.0-13.0","0","0","89750","","null","","","null","1","","NaN","","","","","","","","","","","","","",""
"","response","","html-keyboard-response","14","79177","0.0-1.0-14.0-0.0","0","0","89750","","629","","","75","1","","","1","1","training","adjacent","EF","5","6","L.jpg","Q.jpg","0","1","0","",""
"","feedback","","html-keyboard-response","15","80182","0.0-1.0-15.0-0.0","0","0","89750","","null","","","null","1","","","","","","","","","","","","","","","",""
"","time_out","","html-keyboard-response","16","82186","0.0-1.0-17.0-0.0","0","0","89750","","null","","","null","1","","","","","","","","","","","","","","","",""
"","ITI","","html-keyboard-response","17","83190","0.0-1.0-18.0","0","0","89750","","null","","","null","1","","","","","","","","","","","","","","","NaN",""
"","S1","","html-keyboard-response","18","83445","0.0-1.0-20.0","0","0","89750","","null","","","null","2","","","","","","","","","","","","","","","",""
"","ISI","","html-keyboard-response","19","85449","0.0-1.0-21.0","0","0","89750","","null","","","null","2","NaN","","","","","","","","","","","","","","",""
"","S2","","html-keyboard-response","20","85705","0.0-1.0-22.0","0","0","89750","","null","","","null","2","","NaN","","","","","","","","","","","","","",""
"","response","","html-keyboard-response","21","85903","0.0-1.0-23.0-0.0","0","0","89750","","197","","","75","2","","","1","2","training","adjacent","CD","3","4","O.jpg","P.jpg","0","1","0","",""
"","feedback","","html-keyboard-response","22","86908","0.0-1.0-24.0-0.0","0","0","89750","","null","","","null","2","","","","","","","","","","","","","","","",""
"","time_out","","html-keyboard-response","23","88912","0.0-1.0-26.0-0.0","0","0","89750","","null","","","null","2","","","","","","","","","","","","","","","",""
"","ITI","","html-keyboard-response","24","89916","0.0-1.0-27.0","0","0","89750","","null","","","null","2","","","","","","","","","","","","","","","NaN",""
"","S1","","html-keyboard-response","25","90170","0.0-1.0-29.0","0","0","89750","","null","","","null","3","","","","","","","","","","","","","","","",""
"","ISI","","html-keyboard-response","26","92174","0.0-1.0-30.0","0","0","89750","","null","","","null","3","NaN","","","","","","","","","","","","","","",""
"","S2","","html-keyboard-response","27","92429","0.0-1.0-31.0","0","0","89750","","null","","","null","3","","NaN","","","","","","","","","","","","","",""
"","response","","html-keyboard-response","28","93377","0.0-1.0-32.0-0.0","0","0","89750","","944","","","68","3","","","1","3","training","adjacent","CD","3","4","O.jpg","P.jpg","1","1","1","",""
"","feedback","","html-keyboard-response","29","94382","0.0-1.0-33.0-0.0","0","0","89750","","null","","","null","3","","","","","","","","","","","","","","","",""
"","ITI","","html-keyboard-response","30","95385","0.0-1.0-36.0","0","0","89750","","null","","","null","3","","","","","","","","","","","","","","","NaN",""
"","S1","","html-keyboard-response","31","95639","0.0-1.0-38.0","0","0","89750","","null","","","null","4","","","","","","","","","","","","","","","",""
"","ISI","","html-keyboard-response","32","97642","0.0-1.0-39.0","0","0","89750","","null","","","null","4","NaN","","","","","","","","","","","","","","",""
"","S2","","html-keyboard-response","33","97896","0.0-1.0-40.0","0","0","89750","","null","","","null","4","","NaN","","","","","","","","","","","","","",""
"","response","","html-keyboard-response","34","98841","0.0-1.0-41.0-0.0","0","0","89750","","941","","","68","4","","","1","4","training","adjacent","AB","1","2","M.jpg","N.jpg","1","1","1","",""
"","feedback","","html-keyboard-response","35","99846","0.0-1.0-42.0-0.0","0","0","89750","","null","","","null","4","","","","","","","","","","","","","","","",""
"","ITI","","html-keyboard-response","36","100850","0.0-1.0-45.0","0","0","89750","","null","","","null","4","","","","","","","","","","","","","","","NaN",""
"","S1","","html-keyboard-response","37","101104","0.0-1.0-47.0","0","0","89750","","null","","","null","5","","","","","","","","","","","","","","","",""
"","ISI","","html-keyboard-response","38","103108","0.0-1.0-48.0","0","0","89750","","null","","","null","5","NaN","","","","","","","","","","","","","","",""
"","S2","","html-keyboard-response","39","103362","0.0-1.0-49.0","0","0","89750","","null","","","null","5","","NaN","","","","","","","","","","","","","",""
"","response","","html-keyboard-response","40","103969","0.0-1.0-50.0-0.0","0","0","89750","","603","","","68","5","","","1","5","training","adjacent","DE","4","5","P.jpg","L.jpg","1","1","1","",""
"","feedback","","html-keyboard-response","41","104974","0.0-1.0-51.0-0.0","0","0","89750","","null","","","null","5","","","","","","","","","","","","","","","",""
"","ITI","","html-keyboard-response","42","105980","0.0-1.0-54.0","0","0","89750","","null","","","null","5","","","","","","","","","","","","","","","NaN",""
"","S1","","html-keyboard-response","43","106234","0.0-1.0-56.0","0","0","89750","","null","","","null","6","","","","","","","","","","","","","","","",""
"","ISI","","html-keyboard-response","44","108237","0.0-1.0-57.0","0","0","89750","","null","","","null","6","NaN","","","","","","","","","","","","","","",""
"","S2","","html-keyboard-response","45","108492","0.0-1.0-58.0","0","0","89750","","null","","","null","6","","NaN","","","","","","","","","","","","","",""
"","response","","html-keyboard-response","46","109009","0.0-1.0-59.0-0.0","0","0","89750","","513","","","68","6","","","1","6","training","adjacent","DE","4","5","P.jpg","L.jpg","1","1","1","",""
"","feedback","","html-keyboard-response","47","110015","0.0-1.0-60.0-0.0","0","0","89750","","null","","","null","6","","","","","","","","","","","","","","","",""
"","ITI","","html-keyboard-response","48","111019","0.0-1.0-63.0","0","0","89750","","null","","","null","6","","","","","","","","","","","","","","","NaN",""
"","S1","","html-keyboard-response","49","111272","0.0-1.0-65.0","0","0","89750","","null","","","null","7","","","","","","","","","","","","","","","",""
"","ISI","","html-keyboard-response","50","113276","0.0-1.0-66.0","0","0","89750","","null","","","null","7","NaN","","","","","","","","","","","","","","",""
"","S2","","html-keyboard-response","51","113531","0.0-1.0-67.0","0","0","89750","","null","","","null","7","","NaN","","","","","","","","","","","","","",""
"","response","","html-keyboard-response","52","113993","0.0-1.0-68.0-0.0","0","0","89750","","458","","","68","7","","","1","7","training","adjacent","DE","4","5","P.jpg","L.jpg","1","1","1","",""
"","feedback","","html-keyboard-response","53","114998","0.0-1.0-69.0-0.0","0","0","89750","","null","","","null","7","","","","","","","","","","","","","","","",""
"","ITI","","html-keyboard-response","54","116003","0.0-1.0-72.0","0","0","89750","","null","","","null","7","","","","","","","","","","","","","","","NaN",""
"","S1","","html-keyboard-response","55","116258","0.0-1.0-74.0","0","0","89750","","null","","","null","8","","","","","","","","","","","","","","","",""
"","ISI","","html-keyboard-response","56","118262","0.0-1.0-75.0","0","0","89750","","null","","","null","8","NaN","","","","","","","","","","","","","","",""
"","S2","","html-keyboard-response","57","118516","0.0-1.0-76.0","0","0","89750","","null","","","null","8","","NaN","","","","","","","","","","","","","",""
"","response","","html-keyboard-response","58","118993","0.0-1.0-77.0-0.0","0","0","89750","","474","","","68","8","","","1","8","training","adjacent","CB","3","2","O.jpg","N.jpg","1","0","0","",""
"","feedback","","html-keyboard-response","59","119996","0.0-1.0-78.0-0.0","0","0","89750","","null","","","null","8","","","","","","","","","","","","","","","",""
"","time_out","","html-keyboard-response","60","122000","0.0-1.0-80.0-0.0","0","0","89750","","null","","","null","8","","","","","","","","","","","","","","","",""
"","ITI","","html-keyboard-response","61","123004","0.0-1.0-81.0","0","0","89750","","null","","","null","8","","","","","","","","","","","","","","","NaN",""
"","S1","","html-keyboard-response","62","123259","0.0-1.0-83.0","0","0","89750","","null","","","null","9","","","","","","","","","","","","","","","",""
"","ISI","","html-keyboard-response","63","125263","0.0-1.0-84.0","0","0","89750","","null","","","null","9","NaN","","","","","","","","","","","","","","",""
"","S2","","html-keyboard-response","64","125516","0.0-1.0-85.0","0","0","89750","","null","","","null","9","","NaN","","","","","","","","","","","","","",""
"","response","","html-keyboard-response","65","125865","0.0-1.0-86.0-0.0","0","0","89750","","345","","","68","9","","","1","9","training","adjacent","AB","1","2","M.jpg","N.jpg","1","1","1","",""
"","feedback","","html-keyboard-response","66","126870","0.0-1.0-87.0-0.0","0","0","89750","","null","","","null","9","","","","","","","","","","","","","","","",""
"","ITI","","html-keyboard-response","67","127873","0.0-1.0-90.0","0","0","89750","","null","","","null","9","","","","","","","","","","","","","","","NaN",""
"","S1","","html-keyboard-response","68","128129","0.0-1.0-92.0","0","0","89750","","null","","","null","10","","","","","","","","","","","","","","","",""
"","ISI","","html-keyboard-response","69","130133","0.0-1.0-93.0","0","0","89750","","null","","","null","10","NaN","","","","","","","","","","","","","","",""
"","S2","","html-keyboard-response","70","130387","0.0-1.0-94.0","0","0","89750","","null","","","null","10","","NaN","","","","","","","","","","","","","",""
"","response","","html-keyboard-response","71","130751","0.0-1.0-95.0-0.0","0","0","89750","","363","","","68","10","","","1","10","training","adjacent","DC","4","3","P.jpg","O.jpg","1","0","0","",""
"","feedback","","html-keyboard-response","72","131755","0.0-1.0-96.0-0.0","0","0","89750","","null","","","null","10","","","","","","","","","","","","","","","",""
"","time_out","","html-keyboard-response","73","133759","0.0-1.0-98.0-0.0","0","0","89750","","null","","","null","10","","","","","","","","","","","","","","","",""
"","ITI","","html-keyboard-response","74","134762","0.0-1.0-99.0","0","0","89750","","null","","","null","10","","","","","","","","","","","","","","","NaN",""
"","S1","","html-keyboard-response","75","135017","0.0-1.0-101.0","0","0","89750","","null","","","null","11","","","","","","","","","","","","","","","",""
"","ISI","","html-keyboard-response","76","137021","0.0-1.0-102.0","0","0","89750","","null","","","null","11","NaN","","","","","","","","","","","","","","",""
"","S2","","html-keyboard-response","77","137275","0.0-1.0-103.0","0","0","89750","","null","","","null","11","","NaN","","","","","","","","","","","","","",""
"","response","","html-keyboard-response","78","137623","0.0-1.0-104.0-0.0","0","0","89750","","346","","","68","11","","","1","11","training","adjacent","FG","6","7","Q.jpg","R.jpg","1","1","1","",""
"","feedback","","html-keyboard-response","79","138627","0.0-1.0-105.0-0.0","0","0","89750","","null","","","null","11","","","","","","","","","","","","","","","",""
"","ITI","","html-keyboard-response","80","139631","0.0-1.0-108.0","0","0","89750","","null","","","null","11","","","","","","","","","","","","","","","NaN",""
"","S1","","html-keyboard-response","81","139885","0.0-1.0-110.0","0","0","89750","","null","","","null","12","","","","","","","","","","","","","","","",""
"","ISI","","html-keyboard-response","82","141889","0.0-1.0-111.0","0","0","89750","","null","","","null","12","NaN","","","","","","","","","","","","","","",""
"","S2","","html-keyboard-response","83","142145","0.0-1.0-112.0","0","0","89750","","null","","","null","12","","NaN","","","","","","","","","","","","","",""
"","response","","html-keyboard-response","84","142640","0.0-1.0-113.0-0.0","0","0","89750","","492","","","75","12","","","1","12","training","adjacent","BC","2","3","N.jpg","O.jpg","0","1","0","",""
"","feedback","","html-keyboard-response","85","143645","0.0-1.0-114.0-0.0","0","0","89750","","null","","","null","12","","","","","","","","","","","","","","","",""
"","time_out","","html-keyboard-response","86","145649","0.0-1.0-116.0-0.0","0","0","89750","","null","","","null","12","","","","","","","","","","","","","","","",""
"","ITI","","html-keyboard-response","87","146661","0.0-1.0-117.0","0","0","89750","","null","","","null","12","","","","","","","","","","","","","","","NaN",""
"","S1","","html-keyboard-response","88","146915","0.0-1.0-119.0","0","0","89750","","null","","","null","13","","","","","","","","","","","","","","","",""
"","ISI","","html-keyboard-response","89","148919","0.0-1.0-120.0","0","0","89750","","null","","","null","13","NaN","","","","","","","","","","","","","","",""
"","S2","","html-keyboard-response","90","149174","0.0-1.0-121.0","0","0","89750","","null","","","null","13","","NaN","","","","","","","","","","","","","",""
"","response","","html-keyboard-response","91","149273","0.0-1.0-122.0-0.0","0","0","89750","","96","","","68","13","","","1","13","training","adjacent","FG","6","7","Q.jpg","R.jpg","1","1","1","",""
"","feedback","","html-keyboard-response","92","150279","0.0-1.0-123.0-0.0","0","0","89750","","null","","","null","13","","","","","","","","","","","","","","","",""
"","ITI","","html-keyboard-response","93","151283","0.0-1.0-126.0","0","0","89750","","null","","","null","13","","","","","","","","","","","","","","","NaN",""
"","S1","","html-keyboard-response","94","151538","0.0-1.0-128.0","0","0","89750","","null","","","null","14","","","","","","","","","","","","","","","",""
"","ISI","","html-keyboard-response","95","153542","0.0-1.0-129.0","0","0","89750","","null","","","null","14","NaN","","","","","","","","","","","","","","",""
"","S2","","html-keyboard-response","96","153797","0.0-1.0-130.0","0","0","89750","","null","","","null","14","","NaN","","","","","","","","","","","","","",""
"","response","","html-keyboard-response","97","153977","0.0-1.0-131.0-0.0","0","0","89750","","177","","","68","14","","","1","14","training","adjacent","BC","2","3","N.jpg","O.jpg","1","1","1","",""
"","feedback","","html-keyboard-response","98","154981","0.0-1.0-132.0-0.0","0","0","89750","","null","","","null","14","","","","","","","","","","","","","","","",""
"","ITI","","html-keyboard-response","99","155985","0.0-1.0-135.0","0","0","89750","","null","","","null","14","","","","","","","","","","","","","","","NaN",""
"","S1","","html-keyboard-response","100","156240","0.0-1.0-137.0","0","0","89750","","null","","","null","15","","","","","","","","","","","","","","","",""
"","ISI","","html-keyboard-response","101","158243","0.0-1.0-138.0","0","0","89750","","null","","","null","15","NaN","","","","","","","","","","","","","","",""
"","S2","","html-keyboard-response","102","158496","0.0-1.0-139.0","0","0","89750","","null","","","null","15","","NaN","","","","","","","","","","","","","",""
"","response","","html-keyboard-response","103","158857","0.0-1.0-140.0-0.0","0","0","89750","","357","","","68","15","","","1","15","training","adjacent","CB","3","2","O.jpg","N.jpg","1","0","0","",""
"","feedback","","html-keyboard-response","104","159862","0.0-1.0-141.0-0.0","0","0","89750","","null","","","null","15","","","","","","","","","","","","","","","",""
"","time_out","","html-keyboard-response","105","161866","0.0-1.0-143.0-0.0","0","0","89750","","null","","","null","15","","","","","","","","","","","","","","","",""
"","ITI","","html-keyboard-response","106","162871","0.0-1.0-144.0","0","0","89750","","null","","","null","15","","","","","","","","","","","","","","","NaN",""
"","S1","","html-keyboard-response","107","163126","0.0-1.0-146.0","0","0","89750","","null","","","null","16","","","","","","","","","","","","","","","",""
"","ISI","","html-keyboard-response","108","165130","0.0-1.0-147.0","0","0","89750","","null","","","null","16","NaN","","","","","","","","","","","","","","",""
"","S2","","html-keyboard-response","109","165384","0.0-1.0-148.0","0","0","89750","","null","","","null","16","","NaN","","","","","","","","","","","","","",""
"","response","","html-keyboard-response","110","165497","0.0-1.0-149.0-0.0","0","0","89750","","109","","","68","16","","","1","16","training","adjacent","ED","5","4","L.jpg","P.jpg","1","0","0","",""
"","feedback","","html-keyboard-response","111","166501","0.0-1.0-150.0-0.0","0","0","89750","","null","","","null","16","","","","","","","","","","","","","","","",""
"","time_out","","html-keyboard-response","112","168505","0.0-1.0-152.0-0.0","0","0","89750","","null","","","null","16","","","","","","","","","","","","","","","",""
"","ITI","","html-keyboard-response","113","169508","0.0-1.0-153.0","0","0","89750","","null","","","null","16","","","","","","","","","","","","","","","NaN",""
"","S1","","html-keyboard-response","114","169764","0.0-1.0-155.0","0","0","89750","","null","","","null","17","","","","","","","","","","","","","","","",""
"","ISI","","html-keyboard-response","115","171767","0.0-1.0-156.0","0","0","89750","","null","","","null","17","NaN","","","","","","","","","","","","","","",""
"","S2","","html-keyboard-response","116","172022","0.0-1.0-157.0","0","0","89750","","null","","","null","17","","NaN","","","","","","","","","","","","","",""
"","response","","html-keyboard-response","117","172353","0.0-1.0-158.0-0.0","0","0","89750","","327","","","75","17","","","1","17","training","adjacent","ED","5","4","L.jpg","P.jpg","0","0","1","",""
"","feedback","","html-keyboard-response","118","173357","0.0-1.0-159.0-0.0","0","0","89750","","null","","","null","17","","","","","","","","","","","","","","","",""
"","ITI","","html-keyboard-response","119","174362","0.0-1.0-162.0","0","0","89750","","null","","","null","17","","","","","","","","","","","","","","","NaN",""
"","S1","","html-keyboard-response","120","174616","0.0-1.0-164.0","0","0","89750","","null","","","null","18","","","","","","","","","","","","","","","",""
"","ISI","","html-keyboard-response","121","176620","0.0-1.0-165.0","0","0","89750","","null","","","null","18","NaN","","","","","","","","","","","","","","",""
"","S2","","html-keyboard-response","122","176874","0.0-1.0-166.0","0","0","89750","","null","","","null","18","","NaN","","","","","","","","","","","","","",""
"","response","","html-keyboard-response","123","177017","0.0-1.0-167.0-0.0","0","0","89750","","139","","","75","18","","","1","18","training","adjacent","GF","7","6","R.jpg","Q.jpg","0","0","1","",""
"","feedback","","html-keyboard-response","124","178022","0.0-1.0-168.0-0.0","0","0","89750","","null","","","null","18","","","","","","","","","","","","","","","",""
"","ITI","","html-keyboard-response","125","179027","0.0-1.0-171.0","0","0","89750","","null","","","null","18","","","","","","","","","","","","","","","NaN",""
"","S1","","html-keyboard-response","126","179281","0.0-1.0-173.0","0","0","89750","","null","","","null","19","","","","","","","","","","","","","","","",""
"","ISI","","html-keyboard-response","127","181285","0.0-1.0-174.0","0","0","89750","","null","","","null","19","NaN","","","","","","","","","","","","","","",""
"","S2","","html-keyboard-response","128","181539","0.0-1.0-175.0","0","0","89750","","null","","","null","19","","NaN","","","","","","","","","","","","","",""
"","response","","html-keyboard-response","129","181825","0.0-1.0-176.0-0.0","0","0","89750","","282","","","75","19","","","1","19","training","adjacent","BA","2","1","N.jpg","M.jpg","0","0","1","",""
"","feedback","","html-keyboard-response","130","182830","0.0-1.0-177.0-0.0","0","0","89750","","null","","","null","19","","","","","","","","","","","","","","","",""
"","ITI","","html-keyboard-response","131","183834","0.0-1.0-180.0","0","0","89750","","null","","","null","19","","","","","","","","","","","","","","","NaN",""
"","S1","","html-keyboard-response","132","184089","0.0-1.0-182.0","0","0","89750","","null","","","null","20","","","","","","","","","","","","","","","",""
"","ISI","","html-keyboard-response","133","186093","0.0-1.0-183.0","0","0","89750","","null","","","null","20","NaN","","","","","","","","","","","","","","",""
"","S2","","html-keyboard-response","134","186347","0.0-1.0-184.0","0","0","89750","","null","","","null","20","","NaN","","","","","","","","","","","","","",""
"","response","","html-keyboard-response","135","186425","0.0-1.0-185.0-0.0","0","0","89750","","74","","","75","20","","","1","20","training","adjacent","EF","5","6","L.jpg","Q.jpg","0","1","0","",""
"","feedback","","html-keyboard-response","136","187430","0.0-1.0-186.0-0.0","0","0","89750","","null","","","null","20","","","","","","","","","","","","","","","",""
"","time_out","","html-keyboard-response","137","189433","0.0-1.0-188.0-0.0","0","0","89750","","null","","","null","20","","","","","","","","","","","","","","","",""
"","ITI","","html-keyboard-response","138","190438","0.0-1.0-189.0","0","0","89750","","null","","","null","20","","","","","","","","","","","","","","","NaN",""
"","S1","","html-keyboard-response","139","190693","0.0-1.0-191.0","0","0","89750","","null","","","null","21","","","","","","","","","","","","","","","",""
"","ISI","","html-keyboard-response","140","192698","0.0-1.0-192.0","0","0","89750","","null","","","null","21","NaN","","","","","","","","","","","","","","",""
"","S2","","html-keyboard-response","141","192953","0.0-1.0-193.0","0","0","89750","","null","","","null","21","","NaN","","","","","","","","","","","","","",""
"","response","","html-keyboard-response","142","193169","0.0-1.0-194.0-0.0","0","0","89750","","213","","","68","21","","","1","21","training","adjacent","BC","2","3","N.jpg","O.jpg","1","1","1","",""
"","feedback","","html-keyboard-response","143","194174","0.0-1.0-195.0-0.0","0","0","89750","","null","","","null","21","","","","","","","","","","","","","","","",""
"","ITI","","html-keyboard-response","144","195178","0.0-1.0-198.0","0","0","89750","","null","","","null","21","","","","","","","","","","","","","","","NaN",""
"","S1","","html-keyboard-response","145","195432","0.0-1.0-200.0","0","0","89750","","null","","","null","22","","","","","","","","","","","","","","","",""
"","ISI","","html-keyboard-response","146","197436","0.0-1.0-201.0","0","0","89750","","null","","","null","22","NaN","","","","","","","","","","","","","","",""
"","S2","","html-keyboard-response","147","197690","0.0-1.0-202.0","0","0","89750","","null","","","null","22","","NaN","","","","","","","","","","","","","",""
"","response","","html-keyboard-response","148","197878","0.0-1.0-203.0-0.0","0","0","89750","","187","","","68","22","","","1","22","training","adjacent","BA","2","1","N.jpg","M.jpg","1","0","0","",""
"","feedback","","html-keyboard-response","149","198882","0.0-1.0-204.0-0.0","0","0","89750","","null","","","null","22","","","","","","","","","","","","","","","",""
"","time_out","","html-keyboard-response","150","200887","0.0-1.0-206.0-0.0","0","0","89750","","null","","","null","22","","","","","","","","","","","","","","","",""
"","ITI","","html-keyboard-response","151","201890","0.0-1.0-207.0","0","0","89750","","null","","","null","22","","","","","","","","","","","","","","","NaN",""
"","S1","","html-keyboard-response","152","202156","0.0-1.0-209.0","0","0","89750","","null","","","null","23","","","","","","","","","","","","","","","",""
"","ISI","","html-keyboard-response","153","204160","0.0-1.0-210.0","0","0","89750","","null","","","null","23","NaN","","","","","","","","","","","","","","",""
"","S2","","html-keyboard-response","154","204415","0.0-1.0-211.0","0","0","89750","","null","","","null","23","","NaN","","","","","","","","","","","","","",""
"","response","","html-keyboard-response","155","204505","0.0-1.0-212.0-0.0","0","0","89750","","87","","","75","23","","","1","23","training","adjacent","FE","6","5","Q.jpg","L.jpg","0","0","1","",""
"","feedback","","html-keyboard-response","156","205508","0.0-1.0-213.0-0.0","0","0","89750","","null","","","null","23","","","","","","","","","","","","","","","",""
"","ITI","","html-keyboard-response","157","206512","0.0-1.0-216.0","0","0","89750","","null","","","null","23","","","","","","","","","","","","","","","NaN",""
"","S1","","html-keyboard-response","158","206766","0.0-1.0-218.0","0","0","89750","","null","","","null","24","","","","","","","","","","","","","","","",""
"","ISI","","html-keyboard-response","159","208770","0.0-1.0-219.0","0","0","89750","","null","","","null","24","NaN","","","","","","","","","","","","","","",""
"","S2","","html-keyboard-response","160","209026","0.0-1.0-220.0","0","0","89750","","null","","","null","24","","NaN","","","","","","","","","","","","","",""
"","response","","html-keyboard-response","161","209201","0.0-1.0-221.0-0.0","0","0","89750","","171","","","75","24","","","1","24","training","adjacent","GF","7","6","R.jpg","Q.jpg","0","0","1","",""
"","feedback","","html-keyboard-response","162","210206","0.0-1.0-222.0-0.0","0","0","89750","","null","","","null","24","","","","","","","","","","","","","","","",""
"","ITI","","html-keyboard-response","163","211209","0.0-1.0-225.0","0","0","89750","","null","","","null","24","","","","","","","","","","","","","","","NaN",""
"","S1","","html-keyboard-response","164","211464","0.0-1.0-227.0","0","0","89750","","null","","","null","25","","","","","","","","","","","","","","","",""
"","ISI","","html-keyboard-response","165","213467","0.0-1.0-228.0","0","0","89750","","null","","","null","25","NaN","","","","","","","","","","","","","","",""
"","S2","","html-keyboard-response","166","213722","0.0-1.0-229.0","0","0","89750","","null","","","null","25","","NaN","","","","","","","","","","","","","",""
"","response","","html-keyboard-response","167","213930","0.0-1.0-230.0-0.0","0","0","89750","","205","","","68","25","","","1","25","training","adjacent","DC","4","3","P.jpg","O.jpg","1","0","0","",""
"","feedback","","html-keyboard-response","168","214935","0.0-1.0-231.0-0.0","0","0","89750","","null","","","null","25","","","","","","","","","","","","","","","",""
"","time_out","","html-keyboard-response","169","216939","0.0-1.0-233.0-0.0","0","0","89750","","null","","","null","25","","","","","","","","","","","","","","","",""
"","ITI","","html-keyboard-response","170","217944","0.0-1.0-234.0","0","0","89750","","null","","","null","25","","","","","","","","","","","","","","","NaN",""
"","S1","","html-keyboard-response","171","218198","0.0-1.0-236.0","0","0","89750","","null","","","null","26","","","","","","","","","","","","","","","",""
"","ISI","","html-keyboard-response","172","220203","0.0-1.0-237.0","0","0","89750","","null","","","null","26","NaN","","","","","","","","","","","","","","",""
"","S2","","html-keyboard-response","173","220457","0.0-1.0-238.0","0","0","89750","","null","","","null","26","","NaN","","","","","","","","","","","","","",""
"","response","","html-keyboard-response","174","220594","0.0-1.0-239.0-0.0","0","0","89750","","133","","","68","26","","","1","26","training","adjacent","DC","4","3","P.jpg","O.jpg","1","0","0","",""
"","feedback","","html-keyboard-response","175","221598","0.0-1.0-240.0-0.0","0","0","89750","","null","","","null","26","","","","","","","","","","","","","","","",""
"","time_out","","html-keyboard-response","176","223603","0.0-1.0-242.0-0.0","0","0","89750","","null","","","null","26","","","","","","","","","","","","","","","",""
"","ITI","","html-keyboard-response","177","224606","0.0-1.0-243.0","0","0","89750","","null","","","null","26","","","","","","","","","","","","","","","NaN",""
"","S1","","html-keyboard-response","178","224860","0.0-1.0-245.0","0","0","89750","","null","","","null","27","","","","","","","","","","","","","","","",""
"","ISI","","html-keyboard-response","179","226864","0.0-1.0-246.0","0","0","89750","","null","","","null","27","NaN","","","","","","","","","","","","","","",""
"","S2","","html-keyboard-response","180","227119","0.0-1.0-247.0","0","0","89750","","null","","","null","27","","NaN","","","","","","","","","","","","","",""
"","response","","html-keyboard-response","181","227298","0.0-1.0-248.0-0.0","0","0","89750","","175","","","75","27","","","1","27","training","adjacent","DC","4","3","P.jpg","O.jpg","0","0","1","",""
"","feedback","","html-keyboard-response","182","228303","0.0-1.0-249.0-0.0","0","0","89750","","null","","","null","27","","","","","","","","","","","","","","","",""
"","ITI","","html-keyboard-response","183","229307","0.0-1.0-252.0","0","0","89750","","null","","","null","27","","","","","","","","","","","","","","","NaN",""
"","S1","","html-keyboard-response","184","229560","0.0-1.0-254.0","0","0","89750","","null","","","null","28","","","","","","","","","","","","","","","",""
"","ISI","","html-keyboard-response","185","231564","0.0-1.0-255.0","0","0","89750","","null","","","null","28","NaN","","","","","","","","","","","","","","",""
"","S2","","html-keyboard-response","186","231818","0.0-1.0-256.0","0","0","89750","","null","","","null","28","","NaN","","","","","","","","","","","","","",""
"","response","","html-keyboard-response","187","231826","0.0-1.0-257.0-0.0","0","0","89750","","4","","","75","28","","","1","28","training","adjacent","BA","2","1","N.jpg","M.jpg","0","0","1","",""
"","feedback","","html-keyboard-response","188","232830","0.0-1.0-258.0-0.0","0","0","89750","","null","","","null","28","","","","","","","","","","","","","","","",""
"","ITI","","html-keyboard-response","189","233835","0.0-1.0-261.0","0","0","89750","","null","","","null","28","","","","","","","","","","","","","","","NaN",""
"","S1","","html-keyboard-response","190","234090","0.0-1.0-263.0","0","0","89750","","null","","","null","29","","","","","","","","","","","","","","","",""
"","ISI","","html-keyboard-response","191","236093","0.0-1.0-264.0","0","0","89750","","null","","","null","29","NaN","","","","","","","","","","","","","","",""
"","S2","","html-keyboard-response","192","236348","0.0-1.0-265.0","0","0","89750","","null","","","null","29","","NaN","","","","","","","","","","","","","",""
"","response","","html-keyboard-response","193","236449","0.0-1.0-266.0-0.0","0","0","89750","","98","","","75","29","","","1","29","training","adjacent","EF","5","6","L.jpg","Q.jpg","0","1","0","",""
"","feedback","","html-keyboard-response","194","237454","0.0-1.0-267.0-0.0","0","0","89750","","null","","","null","29","","","","","","","","","","","","","","","",""
"","time_out","","html-keyboard-response","195","239456","0.0-1.0-269.0-0.0","0","0","89750","","null","","","null","29","","","","","","","","","","","","","","","",""
"","ITI","","html-keyboard-response","196","240458","0.0-1.0-270.0","0","0","89750","","null","","","null","29","","","","","","","","","","","","","","","NaN",""
"","S1","","html-keyboard-response","197","240711","0.0-1.0-272.0","0","0","89750","","null","","","null","30","","","","","","","","","","","","","","","",""
"","ISI","","html-keyboard-response","198","242715","0.0-1.0-273.0","0","0","89750","","null","","","null","30","NaN","","","","","","","","","","","","","","",""
"","S2","","html-keyboard-response","199","242970","0.0-1.0-274.0","0","0","89750","","null","","","null","30","","NaN","","","","","","","","","","","","","",""
"","response","","html-keyboard-response","200","243122","0.0-1.0-275.0-0.0","0","0","89750","","149","","","75","30","","","1","30","training","adjacent","ED","5","4","L.jpg","P.jpg","0","0","1","",""
"","feedback","","html-keyboard-response","201","244127","0.0-1.0-276.0-0.0","0","0","89750","","null","","","null","30","","","","","","","","","","","","","","","",""
"","ITI","","html-keyboard-response","202","245132","0.0-1.0-279.0","0","0","89750","","null","","","null","30","","","","","","","","","","","","","","","NaN",""
"","S1","","html-keyboard-response","203","245387","0.0-1.0-281.0","0","0","89750","","null","","","null","31","","","","","","","","","","","","","","","",""
"","ISI","","html-keyboard-response","204","247391","0.0-1.0-282.0","0","0","89750","","null","","","null","31","NaN","","","","","","","","","","","","","","",""
"","S2","","html-keyboard-response","205","247645","0.0-1.0-283.0","0","0","89750","","null","","","null","31","","NaN","","","","","","","","","","","","","",""
"","response","","html-keyboard-response","206","247688","0.0-1.0-284.0-0.0","0","0","89750","","40","","","75","31","","","1","31","training","adjacent","FG","6","7","Q.jpg","R.jpg","0","1","0","",""
"","feedback","","html-keyboard-response","207","248691","0.0-1.0-285.0-0.0","0","0","89750","","null","","","null","31","","","","","","","","","","","","","","","",""
"","time_out","","html-keyboard-response","208","250695","0.0-1.0-287.0-0.0","0","0","89750","","null","","","null","31","","","","","","","","","","","","","","","",""
"","ITI","","html-keyboard-response","209","251700","0.0-1.0-288.0","0","0","89750","","null","","","null","31","","","","","","","","","","","","","","","NaN",""
"","S1","","html-keyboard-response","210","251967","0.0-1.0-290.0","0","0","89750","","null","","","null","32","","","","","","","","","","","","","","","",""
"","ISI","","html-keyboard-response","211","253971","0.0-1.0-291.0","0","0","89750","","null","","","null","32","NaN","","","","","","","","","","","","","","",""
"","S2","","html-keyboard-response","212","254225","0.0-1.0-292.0","0","0","89750","","null","","","null","32","","NaN","","","","","","","","","","","","","",""
"","response","","html-keyboard-response","213","254274","0.0-1.0-293.0-0.0","0","0","89750","","45","","","68","32","","","1","32","training","adjacent","ED","5","4","L.jpg","P.jpg","1","0","0","",""
"","feedback","","html-keyboard-response","214","255279","0.0-1.0-294.0-0.0","0","0","89750","","null","","","null","32","","","","","","","","","","","","","","","",""
"","time_out","","html-keyboard-response","215","257283","0.0-1.0-296.0-0.0","0","0","89750","","null","","","null","32","","","","","","","","","","","","","","","",""
"","ITI","","html-keyboard-response","216","258288","0.0-1.0-297.0","0","0","89750","","null","","","null","32","","","","","","","","","","","","","","","NaN",""
"","S1","","html-keyboard-response","217","258541","0.0-1.0-299.0","0","0","89750","","null","","","null","33","","","","","","","","","","","","","","","",""
"","ISI","","html-keyboard-response","218","260546","0.0-1.0-300.0","0","0","89750","","null","","","null","33","NaN","","","","","","","","","","","","","","",""
"","S2","","html-keyboard-response","219","260800","0.0-1.0-301.0","0","0","89750","","null","","","null","33","","NaN","","","","","","","","","","","","","",""
"","response","","html-keyboard-response","220","260874","0.0-1.0-302.0-0.0","0","0","89750","","71","","","68","33","","","1","33","training","adjacent","BA","2","1","N.jpg","M.jpg","1","0","0","",""
"","feedback","","html-keyboard-response","221","261879","0.0-1.0-303.0-0.0","0","0","89750","","null","","","null","33","","","","","","","","","","","","","","","",""
"","time_out","","html-keyboard-response","222","263883","0.0-1.0-305.0-0.0","0","0","89750","","null","","","null","33","","","","","","","","","","","","","","","",""
"","ITI","","html-keyboard-response","223","264887","0.0-1.0-306.0","0","0","89750","","null","","","null","33","","","","","","","","","","","","","","","NaN",""
"","S1","","html-keyboard-response","224","265141","0.0-1.0-308.0","0","0","89750","","null","","","null","34","","","","","","","","","","","","","","","",""
"","ISI","","html-keyboard-response","225","267146","0.0-1.0-309.0","0","0","89750","","null","","","null","34","NaN","","","","","","","","","","","","","","",""
"","S2","","html-keyboard-response","226","267400","0.0-1.0-310.0","0","0","89750","","null","","","null","34","","NaN","","","","","","","","","","","","","",""
"","response","","html-keyboard-response","227","267441","0.0-1.0-311.0-0.0","0","0","89750","","38","","","75","34","","","1","34","training","adjacent","CD","3","4","O.jpg","P.jpg","0","1","0","",""
"","feedback","","html-keyboard-response","228","268446","0.0-1.0-312.0-0.0","0","0","89750","","null","","","null","34","","","","","","","","","","","","","","","",""
"","time_out","","html-keyboard-response","229","270450","0.0-1.0-314.0-0.0","0","0","89750","","null","","","null","34","","","","","","","","","","","","","","","",""
"","ITI","","html-keyboard-response","230","271453","0.0-1.0-315.0","0","0","89750","","null","","","null","34","","","","","","","","","","","","","","","NaN",""
"","S1","","html-keyboard-response","231","271708","0.0-1.0-317.0","0","0","89750","","null","","","null","35","","","","","","","","","","","","","","","",""
"","ISI","","html-keyboard-response","232","273712","0.0-1.0-318.0","0","0","89750","","null","","","null","35","NaN","","","","","","","","","","","","","","",""
"","S2","","html-keyboard-response","233","273966","0.0-1.0-319.0","0","0","89750","","null","","","null","35","","NaN","","","","","","","","","","","","","",""
"","response","","html-keyboard-response","234","274009","0.0-1.0-320.0-0.0","0","0","89750","","39","","","75","35","","","1","35","training","adjacent","DE","4","5","P.jpg","L.jpg","0","1","0","",""
"","feedback","","html-keyboard-response","235","275014","0.0-1.0-321.0-0.0","0","0","89750","","null","","","null","35","","","","","","","","","","","","","","","",""
"","time_out","","html-keyboard-response","236","277017","0.0-1.0-323.0-0.0","0","0","89750","","null","","","null","35","","","","","","","","","","","","","","","",""
"","ITI","","html-keyboard-response","237","278021","0.0-1.0-324.0","0","0","89750","","null","","","null","35","","","","","","","","","","","","","","","NaN",""
"","S1","","html-keyboard-response","238","278275","0.0-1.0-326.0","0","0","89750","","null","","","null","36","","","","","","","","","","","","","","","",""
"","ISI","","html-keyboard-response","239","280278","0.0-1.0-327.0","0","0","89750","","null","","","null","36","NaN","","","","","","","","","","","","","","",""
"","S2","","html-keyboard-response","240","280531","0.0-1.0-328.0","0","0","89750","","null","","","null","36","","NaN","","","","","","","","","","","","","",""
"","response","","html-keyboard-response","241","280721","0.0-1.0-329.0-0.0","0","0","89750","","187","","","75","36","","","1","36","training","adjacent","AB","1","2","M.jpg","N.jpg","0","1","0","",""
"","feedback","","html-keyboard-response","242","281729","0.0-1.0-330.0-0.0","0","0","89750","","null","","","null","36","","","","","","","","","","","","","","","",""
"","time_out","","html-keyboard-response","243","283733","0.0-1.0-332.0-0.0","0","0","89750","","null","","","null","36","","","","","","","","","","","","","","","",""
"","ITI","","html-keyboard-response","244","284736","0.0-1.0-333.0","0","0","89750","","null","","","null","36","","","","","","","","","","","","","","","NaN",""
"","S1","","html-keyboard-response","245","284991","0.0-1.0-335.0","0","0","89750","","null","","","null","37","","","","","","","","","","","","","","","",""
"","ISI","","html-keyboard-response","246","286995","0.0-1.0-336.0","0","0","89750","","null","","","null","37","NaN","","","","","","","","","","","","","","",""
"","S2","","html-keyboard-response","247","287249","0.0-1.0-337.0","0","0","89750","","null","","","null","37","","NaN","","","","","","","","","","","","","",""
"","response","","html-keyboard-response","248","287361","0.0-1.0-338.0-0.0","0","0","89750","","109","","","68","37","","","1","37","training","adjacent","FE","6","5","Q.jpg","L.jpg","1","0","0","",""
"","feedback","","html-keyboard-response","249","288367","0.0-1.0-339.0-0.0","0","0","89750","","null","","","null","37","","","","","","","","","","","","","","","",""
"","time_out","","html-keyboard-response","250","290372","0.0-1.0-341.0-0.0","0","0","89750","","null","","","null","37","","","","","","","","","","","","","","","",""
"","ITI","","html-keyboard-response","251","291376","0.0-1.0-342.0","0","0","89750","","null","","","null","37","","","","","","","","","","","","","","","NaN",""
"","S1","","html-keyboard-response","252","291631","0.0-1.0-344.0","0","0","89750","","null","","","null","38","","","","","","","","","","","","","","","",""
"","ISI","","html-keyboard-response","253","293634","0.0-1.0-345.0","0","0","89750","","null","","","null","38","NaN","","","","","","","","","","","","","","",""
"","S2","","html-keyboard-response","254","293888","0.0-1.0-346.0","0","0","89750","","null","","","null","38","","NaN","","","","","","","","","","","","","",""
"","response","","html-keyboard-response","255","293891","0.0-1.0-347.0-0.0","0","0","89750","","0","","","75","38","","","1","38","training","adjacent","GF","7","6","R.jpg","Q.jpg","0","0","1","",""
"","feedback","","html-keyboard-response","256","294895","0.0-1.0-348.0-0.0","0","0","89750","","null","","","null","38","","","","","","","","","","","","","","","",""
"","ITI","","html-keyboard-response","257","295900","0.0-1.0-351.0","0","0","89750","","null","","","null","38","","","","","","","","","","","","","","","NaN",""
"","S1","","html-keyboard-response","258","296157","0.0-1.0-353.0","0","0","89750","","null","","","null","39","","","","","","","","","","","","","","","",""
"","ISI","","html-keyboard-response","259","298162","0.0-1.0-354.0","0","0","89750","","null","","","null","39","NaN","","","","","","","","","","","","","","",""
"","S2","","html-keyboard-response","260","298416","0.0-1.0-355.0","0","0","89750","","null","","","null","39","","NaN","","","","","","","","","","","","","",""
"","response","","html-keyboard-response","261","298441","0.0-1.0-356.0-0.0","0","0","89750","","21","","","68","39","","","1","39","training","adjacent","FE","6","5","Q.jpg","L.jpg","1","0","0","",""
"","feedback","","html-keyboard-response","262","299446","0.0-1.0-357.0-0.0","0","0","89750","","null","","","null","39","","","","","","","","","","","","","","","",""
"","time_out","","html-keyboard-response","263","301450","0.0-1.0-359.0-0.0","0","0","89750","","null","","","null","39","","","","","","","","","","","","","","","",""
"","ITI","","html-keyboard-response","264","302455","0.0-1.0-360.0","0","0","89750","","null","","","null","39","","","","","","","","","","","","","","","NaN",""
"","S1","","html-keyboard-response","265","302710","0.0-1.0-362.0","0","0","89750","","null","","","null","40","","","","","","","","","","","","","","","",""
"","ISI","","html-keyboard-response","266","304714","0.0-1.0-363.0","0","0","89750","","null","","","null","40","NaN","","","","","","","","","","","","","","",""
"","S2","","html-keyboard-response","267","304945","0.0-1.0-364.0","0","0","89750","","228","","","75","40","","k","1","40","training","adjacent","AB","1","2","M.jpg","N.jpg","0","1","0","",""
"","feedback","","html-keyboard-response","268","305949","0.0-1.0-366.0-0.0","0","0","89750","","null","","","null","40","","","","","","","","","","","","","","","",""
"","time_out","","html-keyboard-response","269","307954","0.0-1.0-368.0-0.0","0","0","89750","","null","","","null","40","","","","","","","","","","","","","","","",""
"","ITI","","html-keyboard-response","270","308957","0.0-1.0-369.0","0","0","89750","","null","","","null","40","","","","","","","","","","","","","","","NaN",""
"","S1","","html-keyboard-response","271","309213","0.0-1.0-371.0","0","0","89750","","null","","","null","41","","","","","","","","","","","","","","","",""
"","ISI","","html-keyboard-response","272","311216","0.0-1.0-372.0","0","0","89750","","null","","","null","41","NaN","","","","","","","","","","","","","","",""
"","S2","","html-keyboard-response","273","311441","0.0-1.0-373.0","0","0","89750","","222","","","68","41","","d","1","41","training","adjacent","EF","5","6","L.jpg","Q.jpg","1","1","1","",""
"","feedback","","html-keyboard-response","274","312445","0.0-1.0-375.0-0.0","0","0","89750","","null","","","null","41","","","","","","","","","","","","","","","",""
"","ITI","","html-keyboard-response","275","313450","0.0-1.0-378.0","0","0","89750","","null","","","null","41","","","","","","","","","","","","","","","NaN",""
"","S1","","html-keyboard-response","276","313704","0.0-1.0-380.0","0","0","89750","","null","","","null","42","","","","","","","","","","","","","","","",""
"","ISI","","html-keyboard-response","277","315708","0.0-1.0-381.0","0","0","89750","","null","","","null","42","NaN","","","","","","","","","","","","","","",""
"","S2","","html-keyboard-response","278","315962","0.0-1.0-382.0","0","0","89750","","null","","","null","42","","NaN","","","","","","","","","","","","","",""
"","response","","html-keyboard-response","279","316015","0.0-1.0-383.0-0.0","0","0","89750","","51","","","68","42","","","1","42","training","adjacent","CB","3","2","O.jpg","N.jpg","1","0","0","",""
"","feedback","","html-keyboard-response","280","317019","0.0-1.0-384.0-0.0","0","0","89750","","null","","","null","42","","","","","","","","","","","","","","","",""
"","time_out","","html-keyboard-response","281","319024","0.0-1.0-386.0-0.0","0","0","89750","","null","","","null","42","","","","","","","","","","","","","","","",""
"","ITI","","html-keyboard-response","282","320028","0.0-1.0-387.0","0","0","89750","","null","","","null","42","","","","","","","","","","","","","","","NaN",""
"","S1","","html-keyboard-response","283","320284","0.0-1.0-389.0","0","0","89750","","null","","","null","43","","","","","","","","","","","","","","","",""
"","ISI","","html-keyboard-response","284","322288","0.0-1.0-390.0","0","0","89750","","null","","","null","43","NaN","","","","","","","","","","","","","","",""
"","S2","","html-keyboard-response","285","322520","0.0-1.0-391.0","0","0","89750","","229","","","68","43","","d","1","43","training","adjacent","CD","3","4","O.jpg","P.jpg","1","1","1","",""
"","feedback","","html-keyboard-response","286","323525","0.0-1.0-393.0-0.0","0","0","89750","","null","","","null","43","","","","","","","","","","","","","","","",""
"","ITI","","html-keyboard-response","287","324529","0.0-1.0-396.0","0","0","89750","","null","","","null","43","","","","","","","","","","","","","","","NaN",""
"","S1","","html-keyboard-response","288","324785","0.0-1.0-398.0","0","0","89750","","null","","","null","44","","","","","","","","","","","","","","","",""
"","ISI","","html-keyboard-response","289","326790","0.0-1.0-399.0","0","0","89750","","null","","","null","44","NaN","","","","","","","","","","","","","","",""
"","S2","","html-keyboard-response","290","327051","0.0-1.0-400.0","0","0","89750","","null","","","null","44","","NaN","","","","","","","","","","","","","",""
"","response","","html-keyboard-response","291","327177","0.0-1.0-401.0-0.0","0","0","89750","","123","","","68","44","","","1","44","training","adjacent","CB","3","2","O.jpg","N.jpg","1","0","0","",""
"","feedback","","html-keyboard-response","292","328182","0.0-1.0-402.0-0.0","0","0","89750","","null","","","null","44","","","","","","","","","","","","","","","",""
"","time_out","","html-keyboard-response","293","330186","0.0-1.0-404.0-0.0","0","0","89750","","null","","","null","44","","","","","","","","","","","","","","","",""
"","ITI","","html-keyboard-response","294","331191","0.0-1.0-405.0","0","0","89750","","null","","","null","44","","","","","","","","","","","","","","","NaN",""
"","S1","","html-keyboard-response","295","331446","0.0-1.0-407.0","0","0","89750","","null","","","null","45","","","","","","","","","","","","","","","",""
"","ISI","","html-keyboard-response","296","333450","0.0-1.0-408.0","0","0","89750","","null","","","null","45","NaN","","","","","","","","","","","","","","",""
"","S2","","html-keyboard-response","297","333681","0.0-1.0-409.0","0","0","89750","","227","","","68","45","","d","1","45","training","adjacent","GF","7","6","R.jpg","Q.jpg","1","0","0","",""
"","feedback","","html-keyboard-response","298","334685","0.0-1.0-411.0-0.0","0","0","89750","","null","","","null","45","","","","","","","","","","","","","","","",""
"","time_out","","html-keyboard-response","299","336690","0.0-1.0-413.0-0.0","0","0","89750","","null","","","null","45","","","","","","","","","","","","","","","",""
"","ITI","","html-keyboard-response","300","337693","0.0-1.0-414.0","0","0","89750","","null","","","null","45","","","","","","","","","","","","","","","NaN",""
"","S1","","html-keyboard-response","301","337947","0.0-1.0-416.0","0","0","89750","","null","","","null","46","","","","","","","","","","","","","","","",""
"","ISI","","html-keyboard-response","302","339951","0.0-1.0-417.0","0","0","89750","","null","","","null","46","NaN","","","","","","","","","","","","","","",""
"","S2","","html-keyboard-response","303","340206","0.0-1.0-418.0","0","0","89750","","null","","","null","46","","NaN","","","","","","","","","","","","","",""
"","response","","html-keyboard-response","304","340217","0.0-1.0-419.0-0.0","0","0","89750","","7","","","75","46","","","1","46","training","adjacent","BC","2","3","N.jpg","O.jpg","0","1","0","",""
"","feedback","","html-keyboard-response","305","341222","0.0-1.0-420.0-0.0","0","0","89750","","null","","","null","46","","","","","","","","","","","","","","","",""
"","time_out","","html-keyboard-response","306","343225","0.0-1.0-422.0-0.0","0","0","89750","","null","","","null","46","","","","","","","","","","","","","","","",""
"","ITI","","html-keyboard-response","307","344228","0.0-1.0-423.0","0","0","89750","","null","","","null","46","","","","","","","","","","","","","","","NaN",""
"","S1","","html-keyboard-response","308","344484","0.0-1.0-425.0","0","0","89750","","null","","","null","47","","","","","","","","","","","","","","","",""
"","ISI","","html-keyboard-response","309","346488","0.0-1.0-426.0","0","0","89750","","null","","","null","47","NaN","","","","","","","","","","","","","","",""
"","S2","","html-keyboard-response","310","346742","0.0-1.0-427.0","0","0","89750","","null","","","null","47","","NaN","","","","","","","","","","","","","",""
"","response","","html-keyboard-response","311","346752","0.0-1.0-428.0-0.0","0","0","89750","","7","","","68","47","","","1","47","training","adjacent","FE","6","5","Q.jpg","L.jpg","1","0","0","",""
"","feedback","","html-keyboard-response","312","347757","0.0-1.0-429.0-0.0","0","0","89750","","null","","","null","47","","","","","","","","","","","","","","","",""
"","time_out","","html-keyboard-response","313","349761","0.0-1.0-431.0-0.0","0","0","89750","","null","","","null","47","","","","","","","","","","","","","","","",""
"","ITI","","html-keyboard-response","314","350764","0.0-1.0-432.0","0","0","89750","","null","","","null","47","","","","","","","","","","","","","","","NaN",""
"","block_over","","html-keyboard-response","315","360784","0.0-1.0-433.0-0.0","0","0","89750","","10017","","","32","47","","","","","","","","","","","","","","","",""
"","S1","","html-keyboard-response","316","361038","0.0-1.0-434.0","0","0","89750","","null","","","null","48","","","","","","","","","","","","","","","",""
"","ISI","","html-keyboard-response","317","363042","0.0-1.0-435.0","0","0","89750","","null","","","null","48","NaN","","","","","","","","","","","","","","",""
"","S2","","html-keyboard-response","318","363296","0.0-1.0-436.0","0","0","89750","","null","","","null","48","","NaN","","","","","","","","","","","","","",""
"","response","","html-keyboard-response","319","363456","0.0-1.0-437.0-0.0","0","0","89750","","158","","","75","48","","","2","48","training","adjacent","DE","4","5","P.jpg","L.jpg","0","1","0","",""
"","feedback","","html-keyboard-response","320","364461","0.0-1.0-438.0-0.0","0","0","89750","","null","","","null","48","","","","","","","","","","","","","","","",""
"","time_out","","html-keyboard-response","321","366466","0.0-1.0-440.0-0.0","0","0","89750","","null","","","null","48","","","","","","","","","","","","","","","",""
"","ITI","","html-keyboard-response","322","367470","0.0-1.0-441.0","0","0","89750","","null","","","null","48","","","","","","","","","","","","","","","NaN",""
"","S1","","html-keyboard-response","323","367735","0.0-1.0-443.0","0","0","89750","","null","","","null","49","","","","","","","","","","","","","","","",""
"","ISI","","html-keyboard-response","324","369740","0.0-1.0-444.0","0","0","89750","","null","","","null","49","NaN","","","","","","","","","","","","","","",""
"","S2","","html-keyboard-response","325","369997","0.0-1.0-445.0","0","0","89750","","null","","","null","49","","NaN","","","","","","","","","","","","","",""
"","response","","html-keyboard-response","326","370089","0.0-1.0-446.0-0.0","0","0","89750","","88","","","75","49","","","2","49","training","adjacent","CB","3","2","O.jpg","N.jpg","0","0","1","",""
"","feedback","","html-keyboard-response","327","371095","0.0-1.0-447.0-0.0","0","0","89750","","null","","","null","49","","","","","","","","","","","","","","","",""
"","ITI","","html-keyboard-response","328","372099","0.0-1.0-450.0","0","0","89750","","null","","","null","49","","","","","","","","","","","","","","","NaN",""
"","S1","","html-keyboard-response","329","372356","0.0-1.0-452.0","0","0","89750","","null","","","null","50","","","","","","","","","","","","","","","",""
"","ISI","","html-keyboard-response","330","374359","0.0-1.0-453.0","0","0","89750","","null","","","null","50","NaN","","","","","","","","","","","","","","",""
"","S2","","html-keyboard-response","331","374617","0.0-1.0-454.0","0","0","89750","","null","","","null","50","","NaN","","","","","","","","","","","","","",""
"","response","","html-keyboard-response","332","375049","0.0-1.0-455.0-0.0","0","0","89750","","428","","","68","50","","","2","50","training","adjacent","CB","3","2","O.jpg","N.jpg","1","0","0","",""
"","feedback","","html-keyboard-response","333","376055","0.0-1.0-456.0-0.0","0","0","89750","","null","","","null","50","","","","","","","","","","","","","","","",""
"","time_out","","html-keyboard-response","334","378059","0.0-1.0-458.0-0.0","0","0","89750","","null","","","null","50","","","","","","","","","","","","","","","",""
"","ITI","","html-keyboard-response","335","379076","0.0-1.0-459.0","0","0","89750","","null","","","null","50","","","","","","","","","","","","","","","NaN",""
"","S1","","html-keyboard-response","336","379330","0.0-1.0-461.0","0","0","89750","","null","","","null","51","","","","","","","","","","","","","","","",""
"","ISI","","html-keyboard-response","337","381334","0.0-1.0-462.0","0","0","89750","","null","","","null","51","NaN","","","","","","","","","","","","","","",""
"","S2","","html-keyboard-response","338","381589","0.0-1.0-463.0","0","0","89750","","null","","","null","51","","NaN","","","","","","","","","","","","","",""
"","response","","html-keyboard-response","339","381929","0.0-1.0-464.0-0.0","0","0","89750","","336","","","75","51","","","2","51","training","adjacent","BC","2","3","N.jpg","O.jpg","0","1","0","",""
"","feedback","","html-keyboard-response","340","382934","0.0-1.0-465.0-0.0","0","0","89750","","null","","","null","51","","","","","","","","","","","","","","","",""
"","time_out","","html-keyboard-response","341","384939","0.0-1.0-467.0-0.0","0","0","89750","","null","","","null","51","","","","","","","","","","","","","","","",""
"","ITI","","html-keyboard-response","342","385952","0.0-1.0-468.0","0","0","89750","","null","","","null","51","","","","","","","","","","","","","","","NaN",""
"","S1","","html-keyboard-response","343","386207","0.0-1.0-470.0","0","0","89750","","null","","","null","52","","","","","","","","","","","","","","","",""
"","ISI","","html-keyboard-response","344","388211","0.0-1.0-471.0","0","0","89750","","null","","","null","52","NaN","","","","","","","","","","","","","","",""
"","S2","","html-keyboard-response","345","388465","0.0-1.0-472.0","0","0","89750","","null","","","null","52","","NaN","","","","","","","","","","","","","",""
"","response","","html-keyboard-response","346","388470","0.0-1.0-473.0-0.0","0","0","89750","","3","","","75","52","","","2","52","training","adjacent","AB","1","2","M.jpg","N.jpg","0","1","0","",""
"","feedback","","html-keyboard-response","347","389475","0.0-1.0-474.0-0.0","0","0","89750","","null","","","null","52","","","","","","","","","","","","","","","",""
"","time_out","","html-keyboard-response","348","391477","0.0-1.0-476.0-0.0","0","0","89750","","null","","","null","52","","","","","","","","","","","","","","","",""
"","ITI","","html-keyboard-response","349","392480","0.0-1.0-477.0","0","0","89750","","null","","","null","52","","","","","","","","","","","","","","","NaN",""
"","S1","","html-keyboard-response","350","392734","0.0-1.0-479.0","0","0","89750","","null","","","null","53","","","","","","","","","","","","","","","",""
"","ISI","","html-keyboard-response","351","394738","0.0-1.0-480.0","0","0","89750","","null","","","null","53","NaN","","","","","","","","","","","","","","",""
"","S2","","html-keyboard-response","352","394993","0.0-1.0-481.0","0","0","89750","","null","","","null","53","","NaN","","","","","","","","","","","","","",""
"","response","","html-keyboard-response","353","395033","0.0-1.0-482.0-0.0","0","0","89750","","36","","","68","53","","","2","53","training","adjacent","EF","5","6","L.jpg","Q.jpg","1","1","1","",""
"","feedback","","html-keyboard-response","354","396037","0.0-1.0-483.0-0.0","0","0","89750","","null","","","null","53","","","","","","","","","","","","","","","",""
"","ITI","","html-keyboard-response","355","397042","0.0-1.0-486.0","0","0","89750","","null","","","null","53","","","","","","","","","","","","","","","NaN",""
"","S1","","html-keyboard-response","356","397297","0.0-1.0-488.0","0","0","89750","","null","","","null","54","","","","","","","","","","","","","","","",""
"","ISI","","html-keyboard-response","357","399302","0.0-1.0-489.0","0","0","89750","","null","","","null","54","NaN","","","","","","","","","","","","","","",""
"","S2","","html-keyboard-response","358","399556","0.0-1.0-490.0","0","0","89750","","null","","","null","54","","NaN","","","","","","","","","","","","","",""
"","response","","html-keyboard-response","359","399608","0.0-1.0-491.0-0.0","0","0","89750","","49","","","75","54","","","2","54","training","adjacent","BA","2","1","N.jpg","M.jpg","0","0","1","",""
"","feedback","","html-keyboard-response","360","400613","0.0-1.0-492.0-0.0","0","0","89750","","null","","","null","54","","","","","","","","","","","","","","","",""
"","ITI","","html-keyboard-response","361","401618","0.0-1.0-495.0","0","0","89750","","null","","","null","54","","","","","","","","","","","","","","","NaN",""
"","S1","","html-keyboard-response","362","401874","0.0-1.0-497.0","0","0","89750","","null","","","null","55","","","","","","","","","","","","","","","",""
"","ISI","","html-keyboard-response","363","403878","0.0-1.0-498.0","0","0","89750","","null","","","null","55","NaN","","","","","","","","","","","","","","",""
"","S2","","html-keyboard-response","364","404133","0.0-1.0-499.0","0","0","89750","","null","","","null","55","","NaN","","","","","","","","","","","","","",""
"","response","","html-keyboard-response","365","404225","0.0-1.0-500.0-0.0","0","0","89750","","88","","","68","55","","","2","55","training","adjacent","ED","5","4","L.jpg","P.jpg","1","0","0","",""
"","feedback","","html-keyboard-response","366","405231","0.0-1.0-501.0-0.0","0","0","89750","","null","","","null","55","","","","","","","","","","","","","","","",""
"","time_out","","html-keyboard-response","367","407236","0.0-1.0-503.0-0.0","0","0","89750","","null","","","null","55","","","","","","","","","","","","","","","",""
"","ITI","","html-keyboard-response","368","408238","0.0-1.0-504.0","0","0","89750","","null","","","null","55","","","","","","","","","","","","","","","NaN",""
"","S1","","html-keyboard-response","369","408493","0.0-1.0-506.0","0","0","89750","","null","","","null","56","","","","","","","","","","","","","","","",""
"","ISI","","html-keyboard-response","370","410497","0.0-1.0-507.0","0","0","89750","","null","","","null","56","NaN","","","","","","","","","","","","","","",""
"","S2","","html-keyboard-response","371","410751","0.0-1.0-508.0","0","0","89750","","null","","","null","56","","NaN","","","","","","","","","","","","","",""
"","response","","html-keyboard-response","372","410785","0.0-1.0-509.0-0.0","0","0","89750","","30","","","68","56","","","2","56","training","adjacent","GF","7","6","R.jpg","Q.jpg","1","0","0","",""
"","feedback","","html-keyboard-response","373","411800","0.0-1.0-510.0-0.0","0","0","89750","","null","","","null","56","","","","","","","","","","","","","","","",""
"","time_out","","html-keyboard-response","374","413804","0.0-1.0-512.0-0.0","0","0","89750","","null","","","null","56","","","","","","","","","","","","","","","",""
"","ITI","","html-keyboard-response","375","414808","0.0-1.0-513.0","0","0","89750","","null","","","null","56","","","","","","","","","","","","","","","NaN",""
"","S1","","html-keyboard-response","376","415063","0.0-1.0-515.0","0","0","89750","","null","","","null","57","","","","","","","","","","","","","","","",""
"","ISI","","html-keyboard-response","377","417066","0.0-1.0-516.0","0","0","89750","","null","","","null","57","NaN","","","","","","","","","","","","","","",""
"","S2","","html-keyboard-response","378","417320","0.0-1.0-517.0","0","0","89750","","null","","","null","57","","NaN","","","","","","","","","","","","","",""
"","response","","html-keyboard-response","379","417335","0.0-1.0-518.0-0.0","0","0","89750","","13","","","68","57","","","2","57","training","adjacent","GF","7","6","R.jpg","Q.jpg","1","0","0","",""
"","feedback","","html-keyboard-response","380","418338","0.0-1.0-519.0-0.0","0","0","89750","","null","","","null","57","","","","","","","","","","","","","","","",""
"","time_out","","html-keyboard-response","381","420342","0.0-1.0-521.0-0.0","0","0","89750","","null","","","null","57","","","","","","","","","","","","","","","",""
"","ITI","","html-keyboard-response","382","421345","0.0-1.0-522.0","0","0","89750","","null","","","null","57","","","","","","","","","","","","","","","NaN",""
"","S1","","html-keyboard-response","383","421600","0.0-1.0-524.0","0","0","89750","","null","","","null","58","","","","","","","","","","","","","","","",""
"","ISI","","html-keyboard-response","384","423604","0.0-1.0-525.0","0","0","89750","","null","","","null","58","NaN","","","","","","","","","","","","","","",""
"","S2","","html-keyboard-response","385","423858","0.0-1.0-526.0","0","0","89750","","null","","","null","58","","NaN","","","","","","","","","","","","","",""
"","response","","html-keyboard-response","386","423863","0.0-1.0-527.0-0.0","0","0","89750","","3","","","75","58","","","2","58","training","adjacent","BA","2","1","N.jpg","M.jpg","0","0","1","",""
"","feedback","","html-keyboard-response","387","424867","0.0-1.0-528.0-0.0","0","0","89750","","null","","","null","58","","","","","","","","","","","","","","","",""
"","ITI","","html-keyboard-response","388","425872","0.0-1.0-531.0","0","0","89750","","null","","","null","58","","","","","","","","","","","","","","","NaN",""
"","S1","","html-keyboard-response","389","426126","0.0-1.0-533.0","0","0","89750","","null","","","null","59","","","","","","","","","","","","","","","",""
"","ISI","","html-keyboard-response","390","428131","0.0-1.0-534.0","0","0","89750","","null","","","null","59","NaN","","","","","","","","","","","","","","",""
"","S2","","html-keyboard-response","391","428386","0.0-1.0-535.0","0","0","89750","","null","","","null","59","","NaN","","","","","","","","","","","","","",""
"","response","","html-keyboard-response","392","428423","0.0-1.0-536.0-0.0","0","0","89750","","34","","","68","59","","","2","59","training","adjacent","GF","7","6","R.jpg","Q.jpg","1","0","0","",""
"","feedback","","html-keyboard-response","393","429426","0.0-1.0-537.0-0.0","0","0","89750","","null","","","null","59","","","","","","","","","","","","","","","",""
"","time_out","","html-keyboard-response","394","431430","0.0-1.0-539.0-0.0","0","0","89750","","null","","","null","59","","","","","","","","","","","","","","","",""
"","ITI","","html-keyboard-response","395","432434","0.0-1.0-540.0","0","0","89750","","null","","","null","59","","","","","","","","","","","","","","","NaN",""
"","S1","","html-keyboard-response","396","432689","0.0-1.0-542.0","0","0","89750","","null","","","null","60","","","","","","","","","","","","","","","",""
"","ISI","","html-keyboard-response","397","434692","0.0-1.0-543.0","0","0","89750","","null","","","null","60","NaN","","","","","","","","","","","","","","",""
"","S2","","html-keyboard-response","398","434947","0.0-1.0-544.0","0","0","89750","","null","","","null","60","","NaN","","","","","","","","","","","","","",""
"","response","","html-keyboard-response","399","434961","0.0-1.0-545.0-0.0","0","0","89750","","10","","","75","60","","","2","60","training","adjacent","DE","4","5","P.jpg","L.jpg","0","1","0","",""
"","feedback","","html-keyboard-response","400","435966","0.0-1.0-546.0-0.0","0","0","89750","","null","","","null","60","","","","","","","","","","","","","","","",""
"","time_out","","html-keyboard-response","401","437970","0.0-1.0-548.0-0.0","0","0","89750","","null","","","null","60","","","","","","","","","","","","","","","",""
"","ITI","","html-keyboard-response","402","438975","0.0-1.0-549.0","0","0","89750","","null","","","null","60","","","","","","","","","","","","","","","NaN",""
"","S1","","html-keyboard-response","403","439229","0.0-1.0-551.0","0","0","89750","","null","","","null","61","","","","","","","","","","","","","","","",""
"","ISI","","html-keyboard-response","404","441234","0.0-1.0-552.0","0","0","89750","","null","","","null","61","NaN","","","","","","","","","","","","","","",""
"","S2","","html-keyboard-response","405","441465","0.0-1.0-553.0","0","0","89750","","227","","","75","61","","k","2","61","training","adjacent","FG","6","7","Q.jpg","R.jpg","0","1","0","",""
"","feedback","","html-keyboard-response","406","442470","0.0-1.0-555.0-0.0","0","0","89750","","null","","","null","61","","","","","","","","","","","","","","","",""
"","time_out","","html-keyboard-response","407","444474","0.0-1.0-557.0-0.0","0","0","89750","","null","","","null","61","","","","","","","","","","","","","","","",""
"","ITI","","html-keyboard-response","408","445478","0.0-1.0-558.0","0","0","89750","","null","","","null","61","","","","","","","","","","","","","","","NaN",""
"","S1","","html-keyboard-response","409","445734","0.0-1.0-560.0","0","0","89750","","null","","","null","62","","","","","","","","","","","","","","","",""
"","ISI","","html-keyboard-response","410","447739","0.0-1.0-561.0","0","0","89750","","null","","","null","62","NaN","","","","","","","","","","","","","","",""
"","S2","","html-keyboard-response","411","447993","0.0-1.0-562.0","0","0","89750","","null","","","null","62","","NaN","","","","","","","","","","","","","",""
"","response","","html-keyboard-response","412","448049","0.0-1.0-563.0-0.0","0","0","89750","","53","","","68","62","","","2","62","training","adjacent","CB","3","2","O.jpg","N.jpg","1","0","0","",""
"","feedback","","html-keyboard-response","413","449054","0.0-1.0-564.0-0.0","0","0","89750","","null","","","null","62","","","","","","","","","","","","","","","",""
"","time_out","","html-keyboard-response","414","451059","0.0-1.0-566.0-0.0","0","0","89750","","null","","","null","62","","","","","","","","","","","","","","","",""
"","ITI","","html-keyboard-response","415","452068","0.0-1.0-567.0","0","0","89750","","null","","","null","62","","","","","","","","","","","","","","","NaN",""
"","S1","","html-keyboard-response","416","452329","0.0-1.0-569.0","0","0","89750","","null","","","null","63","","","","","","","","","","","","","","","",""
"","ISI","","html-keyboard-response","417","454332","0.0-1.0-570.0","0","0","89750","","null","","","null","63","NaN","","","","","","","","","","","","","","",""
"","S2","","html-keyboard-response","418","454586","0.0-1.0-571.0","0","0","89750","","null","","","null","63","","NaN","","","","","","","","","","","","","",""
"","response","","html-keyboard-response","419","454601","0.0-1.0-572.0-0.0","0","0","89750","","11","","","75","63","","","2","63","training","adjacent","AB","1","2","M.jpg","N.jpg","0","1","0","",""
"","feedback","","html-keyboard-response","420","455606","0.0-1.0-573.0-0.0","0","0","89750","","null","","","null","63","","","","","","","","","","","","","","","",""
"","time_out","","html-keyboard-response","421","457611","0.0-1.0-575.0-0.0","0","0","89750","","null","","","null","63","","","","","","","","","","","","","","","",""
"","ITI","","html-keyboard-response","422","458616","0.0-1.0-576.0","0","0","89750","","null","","","null","63","","","","","","","","","","","","","","","NaN",""
"","S1","","html-keyboard-response","423","458872","0.0-1.0-578.0","0","0","89750","","null","","","null","64","","","","","","","","","","","","","","","",""
"","ISI","","html-keyboard-response","424","460876","0.0-1.0-579.0","0","0","89750","","null","","","null","64","NaN","","","","","","","","","","","","","","",""
"","S2","","html-keyboard-response","425","461130","0.0-1.0-580.0","0","0","89750","","null","","","null","64","","NaN","","","","","","","","","","","","","",""
"","response","","html-keyboard-response","426","461174","0.0-1.0-581.0-0.0","0","0","89750","","42","","","75","64","","","2","64","training","adjacent","FE","6","5","Q.jpg","L.jpg","0","0","1","",""
"","feedback","","html-keyboard-response","427","462178","0.0-1.0-582.0-0.0","0","0","89750","","null","","","null","64","","","","","","","","","","","","","","","",""
"","ITI","","html-keyboard-response","428","463182","0.0-1.0-585.0","0","0","89750","","null","","","null","64","","","","","","","","","","","","","","","NaN",""
"","S1","","html-keyboard-response","429","463436","0.0-1.0-587.0","0","0","89750","","null","","","null","65","","","","","","","","","","","","","","","",""
"","ISI","","html-keyboard-response","430","465440","0.0-1.0-588.0","0","0","89750","","null","","","null","65","NaN","","","","","","","","","","","","","","",""
"","S2","","html-keyboard-response","431","465695","0.0-1.0-589.0","0","0","89750","","null","","","null","65","","NaN","","","","","","","","","","","","","",""
"","response","","html-keyboard-response","432","465712","0.0-1.0-590.0-0.0","0","0","89750","","14","","","75","65","","","2","65","training","adjacent","ED","5","4","L.jpg","P.jpg","0","0","1","",""
"","feedback","","html-keyboard-response","433","466716","0.0-1.0-591.0-0.0","0","0","89750","","null","","","null","65","","","","","","","","","","","","","","","",""
"","ITI","","html-keyboard-response","434","467719","0.0-1.0-594.0","0","0","89750","","null","","","null","65","","","","","","","","","","","","","","","NaN",""
"","S1","","html-keyboard-response","435","467974","0.0-1.0-596.0","0","0","89750","","null","","","null","66","","","","","","","","","","","","","","","",""
"","ISI","","html-keyboard-response","436","469978","0.0-1.0-597.0","0","0","89750","","null","","","null","66","NaN","","","","","","","","","","","","","","",""
"","S2","","html-keyboard-response","437","470233","0.0-1.0-598.0","0","0","89750","","null","","","null","66","","NaN","","","","","","","","","","","","","",""
"","response","","html-keyboard-response","438","470329","0.0-1.0-599.0-0.0","0","0","89750","","92","","","75","66","","","2","66","training","adjacent","FE","6","5","Q.jpg","L.jpg","0","0","1","",""
"","feedback","","html-keyboard-response","439","471334","0.0-1.0-600.0-0.0","0","0","89750","","null","","","null","66","","","","","","","","","","","","","","","",""
"","ITI","","html-keyboard-response","440","472338","0.0-1.0-603.0","0","0","89750","","null","","","null","66","","","","","","","","","","","","","","","NaN",""
"","S1","","html-keyboard-response","441","472592","0.0-1.0-605.0","0","0","89750","","null","","","null","67","","","","","","","","","","","","","","","",""
"","ISI","","html-keyboard-response","442","474596","0.0-1.0-606.0","0","0","89750","","null","","","null","67","NaN","","","","","","","","","","","","","","",""
"","S2","","html-keyboard-response","443","474851","0.0-1.0-607.0","0","0","89750","","null","","","null","67","","NaN","","","","","","","","","","","","","",""
"","response","","html-keyboard-response","444","474855","0.0-1.0-608.0-0.0","0","0","89750","","3","","","75","67","","","2","67","training","adjacent","BA","2","1","N.jpg","M.jpg","0","0","1","",""
"","feedback","","html-keyboard-response","445","475867","0.0-1.0-609.0-0.0","0","0","89750","","null","","","null","67","","","","","","","","","","","","","","","",""
"","ITI","","html-keyboard-response","446","476872","0.0-1.0-612.0","0","0","89750","","null","","","null","67","","","","","","","","","","","","","","","NaN",""
"","S1","","html-keyboard-response","447","477127","0.0-1.0-614.0","0","0","89750","","null","","","null","68","","","","","","","","","","","","","","","",""
"","ISI","","html-keyboard-response","448","479130","0.0-1.0-615.0","0","0","89750","","null","","","null","68","NaN","","","","","","","","","","","","","","",""
"","S2","","html-keyboard-response","449","479394","0.0-1.0-616.0","0","0","89750","","null","","","null","68","","NaN","","","","","","","","","","","","","",""
"","response","","html-keyboard-response","450","479561","0.0-1.0-617.0-0.0","0","0","89750","","163","","","68","68","","","2","68","training","adjacent","DE","4","5","P.jpg","L.jpg","1","1","1","",""
"","feedback","","html-keyboard-response","451","480566","0.0-1.0-618.0-0.0","0","0","89750","","null","","","null","68","","","","","","","","","","","","","","","",""
"","ITI","","html-keyboard-response","452","481571","0.0-1.0-621.0","0","0","89750","","null","","","null","68","","","","","","","","","","","","","","","NaN",""
"","S1","","html-keyboard-response","453","481825","0.0-1.0-623.0","0","0","89750","","null","","","null","69","","","","","","","","","","","","","","","",""
"","ISI","","html-keyboard-response","454","483829","0.0-1.0-624.0","0","0","89750","","null","","","null","69","NaN","","","","","","","","","","","","","","",""
"","S2","","html-keyboard-response","455","484099","0.0-1.0-625.0","0","0","89750","","null","","","null","69","","NaN","","","","","","","","","","","","","",""
"","response","","html-keyboard-response","456","484241","0.0-1.0-626.0-0.0","0","0","89750","","138","","","75","69","","","2","69","training","adjacent","CD","3","4","O.jpg","P.jpg","0","1","0","",""
"","feedback","","html-keyboard-response","457","485247","0.0-1.0-627.0-0.0","0","0","89750","","null","","","null","69","","","","","","","","","","","","","","","",""
"","time_out","","html-keyboard-response","458","487250","0.0-1.0-629.0-0.0","0","0","89750","","null","","","null","69","","","","","","","","","","","","","","","",""
"","ITI","","html-keyboard-response","459","488253","0.0-1.0-630.0","0","0","89750","","null","","","null","69","","","","","","","","","","","","","","","NaN",""
"","S1","","html-keyboard-response","460","488508","0.0-1.0-632.0","0","0","89750","","null","","","null","70","","","","","","","","","","","","","","","",""
"","ISI","","html-keyboard-response","461","490511","0.0-1.0-633.0","0","0","89750","","null","","","null","70","NaN","","","","","","","","","","","","","","",""
"","S2","","html-keyboard-response","462","490766","0.0-1.0-634.0","0","0","89750","","null","","","null","70","","NaN","","","","","","","","","","","","","",""
"","response","","html-keyboard-response","463","490849","0.0-1.0-635.0-0.0","0","0","89750","","79","","","68","70","","","2","70","training","adjacent","AB","1","2","M.jpg","N.jpg","1","1","1","",""
"","feedback","","html-keyboard-response","464","491853","0.0-1.0-636.0-0.0","0","0","89750","","null","","","null","70","","","","","","","","","","","","","","","",""
"","ITI","","html-keyboard-response","465","492857","0.0-1.0-639.0","0","0","89750","","null","","","null","70","","","","","","","","","","","","","","","NaN",""
"","S1","","html-keyboard-response","466","493110","0.0-1.0-641.0","0","0","89750","","null","","","null","71","","","","","","","","","","","","","","","",""
"","ISI","","html-keyboard-response","467","495115","0.0-1.0-642.0","0","0","89750","","null","","","null","71","NaN","","","","","","","","","","","","","","",""
"","S2","","html-keyboard-response","468","495370","0.0-1.0-643.0","0","0","89750","","null","","","null","71","","NaN","","","","","","","","","","","","","",""
"","response","","html-keyboard-response","469","495374","0.0-1.0-644.0-0.0","0","0","89750","","2","","","68","71","","","2","71","training","adjacent","DC","4","3","P.jpg","O.jpg","1","0","0","",""
"","feedback","","html-keyboard-response","470","496377","0.0-1.0-645.0-0.0","0","0","89750","","null","","","null","71","","","","","","","","","","","","","","","",""
"","time_out","","html-keyboard-response","471","498381","0.0-1.0-647.0-0.0","0","0","89750","","null","","","null","71","","","","","","","","","","","","","","","",""
"","ITI","","html-keyboard-response","472","499386","0.0-1.0-648.0","0","0","89750","","null","","","null","71","","","","","","","","","","","","","","","NaN",""
"","S1","","html-keyboard-response","473","499641","0.0-1.0-650.0","0","0","89750","","null","","","null","72","","","","","","","","","","","","","","","",""
"","ISI","","html-keyboard-response","474","501645","0.0-1.0-651.0","0","0","89750","","null","","","null","72","NaN","","","","","","","","","","","","","","",""
"","S2","","html-keyboard-response","475","501898","0.0-1.0-652.0","0","0","89750","","248","","","75","72","","k","2","72","training","adjacent","FE","6","5","Q.jpg","L.jpg","0","0","1","",""
"","feedback","","html-keyboard-response","476","502902","0.0-1.0-654.0-0.0","0","0","89750","","null","","","null","72","","","","","","","","","","","","","","","",""
"","ITI","","html-keyboard-response","477","503906","0.0-1.0-657.0","0","0","89750","","null","","","null","72","","","","","","","","","","","","","","","NaN",""
"","S1","","html-keyboard-response","478","504160","0.0-1.0-659.0","0","0","89750","","null","","","null","73","","","","","","","","","","","","","","","",""
"","ISI","","html-keyboard-response","479","506164","0.0-1.0-660.0","0","0","89750","","null","","","null","73","NaN","","","","","","","","","","","","","","",""
"","S2","","html-keyboard-response","480","506418","0.0-1.0-661.0","0","0","89750","","null","","","null","73","","NaN","","","","","","","","","","","","","",""
"","response","","html-keyboard-response","481","506430","0.0-1.0-662.0-0.0","0","0","89750","","10","","","75","73","","","2","73","training","adjacent","ED","5","4","L.jpg","P.jpg","0","0","1","",""
"","feedback","","html-keyboard-response","482","507434","0.0-1.0-663.0-0.0","0","0","89750","","null","","","null","73","","","","","","","","","","","","","","","",""
"","ITI","","html-keyboard-response","483","508438","0.0-1.0-666.0","0","0","89750","","null","","","null","73","","","","","","","","","","","","","","","NaN",""
"","S1","","html-keyboard-response","484","508691","0.0-1.0-668.0","0","0","89750","","null","","","null","74","","","","","","","","","","","","","","","",""
"","ISI","","html-keyboard-response","485","510695","0.0-1.0-669.0","0","0","89750","","null","","","null","74","NaN","","","","","","","","","","","","","","",""
"","S2","","html-keyboard-response","486","510950","0.0-1.0-670.0","0","0","89750","","null","","","null","74","","NaN","","","","","","","","","","","","","",""
"","response","","html-keyboard-response","487","510968","0.0-1.0-671.0-0.0","0","0","89750","","15","","","75","74","","","2","74","training","adjacent","DC","4","3","P.jpg","O.jpg","0","0","1","",""
"","feedback","","html-keyboard-response","488","511973","0.0-1.0-672.0-0.0","0","0","89750","","null","","","null","74","","","","","","","","","","","","","","","",""
"","ITI","","html-keyboard-response","489","512977","0.0-1.0-675.0","0","0","89750","","null","","","null","74","","","","","","","","","","","","","","","NaN",""
"","S1","","html-keyboard-response","490","513231","0.0-1.0-677.0","0","0","89750","","null","","","null","75","","","","","","","","","","","","","","","",""
"","ISI","","html-keyboard-response","491","515236","0.0-1.0-678.0","0","0","89750","","null","","","null","75","NaN","","","","","","","","","","","","","","",""
"","S2","","html-keyboard-response","492","515490","0.0-1.0-679.0","0","0","89750","","null","","","null","75","","NaN","","","","","","","","","","","","","",""
"","response","","html-keyboard-response","493","515502","0.0-1.0-680.0-0.0","0","0","89750","","10","","","75","75","","","2","75","training","adjacent","EF","5","6","L.jpg","Q.jpg","0","1","0","",""
"","feedback","","html-keyboard-response","494","516506","0.0-1.0-681.0-0.0","0","0","89750","","null","","","null","75","","","","","","","","","","","","","","","",""
"","time_out","","html-keyboard-response","495","518510","0.0-1.0-683.0-0.0","0","0","89750","","null","","","null","75","","","","","","","","","","","","","","","",""
"","ITI","","html-keyboard-response","496","519513","0.0-1.0-684.0","0","0","89750","","null","","","null","75","","","","","","","","","","","","","","","NaN",""
"","S1","","html-keyboard-response","497","519767","0.0-1.0-686.0","0","0","89750","","null","","","null","76","","","","","","","","","","","","","","","",""
"","ISI","","html-keyboard-response","498","521772","0.0-1.0-687.0","0","0","89750","","null","","","null","76","NaN","","","","","","","","","","","","","","",""
"","S2","","html-keyboard-response","499","522026","0.0-1.0-688.0","0","0","89750","","null","","","null","76","","NaN","","","","","","","","","","","","","",""
"","response","","html-keyboard-response","500","522054","0.0-1.0-689.0-0.0","0","0","89750","","25","","","68","76","","","2","76","training","adjacent","DC","4","3","P.jpg","O.jpg","1","0","0","",""
"","feedback","","html-keyboard-response","501","523058","0.0-1.0-690.0-0.0","0","0","89750","","null","","","null","76","","","","","","","","","","","","","","","",""
"","time_out","","html-keyboard-response","502","525063","0.0-1.0-692.0-0.0","0","0","89750","","null","","","null","76","","","","","","","","","","","","","","","",""
"","ITI","","html-keyboard-response","503","526068","0.0-1.0-693.0","0","0","89750","","null","","","null","76","","","","","","","","","","","","","","","NaN",""
"","S1","","html-keyboard-response","504","526327","0.0-1.0-695.0","0","0","89750","","null","","","null","77","","","","","","","","","","","","","","","",""
"","ISI","","html-keyboard-response","505","528333","0.0-1.0-696.0","0","0","89750","","null","","","null","77","NaN","","","","","","","","","","","","","","",""
"","S2","","html-keyboard-response","506","528588","0.0-1.0-697.0","0","0","89750","","null","","","null","77","","NaN","","","","","","","","","","","","","",""
"","response","","html-keyboard-response","507","528961","0.0-1.0-698.0-0.0","0","0","89750","","369","","","75","77","","","2","77","training","adjacent","CD","3","4","O.jpg","P.jpg","0","1","0","",""
"","feedback","","html-keyboard-response","508","529966","0.0-1.0-699.0-0.0","0","0","89750","","null","","","null","77","","","","","","","","","","","","","","","",""
"","time_out","","html-keyboard-response","509","531972","0.0-1.0-701.0-0.0","0","0","89750","","null","","","null","77","","","","","","","","","","","","","","","",""
"","ITI","","html-keyboard-response","510","532976","0.0-1.0-702.0","0","0","89750","","null","","","null","77","","","","","","","","","","","","","","","NaN",""
"","S1","","html-keyboard-response","511","533229","0.0-1.0-704.0","0","0","89750","","null","","","null","78","","","","","","","","","","","","","","","",""
"","ISI","","html-keyboard-response","512","535232","0.0-1.0-705.0","0","0","89750","","null","","","null","78","NaN","","","","","","","","","","","","","","",""
"","S2","","html-keyboard-response","513","535486","0.0-1.0-706.0","0","0","89750","","null","","","null","78","","NaN","","","","","","","","","","","","","",""
"","response","","html-keyboard-response","514","535496","0.0-1.0-707.0-0.0","0","0","89750","","7","","","68","78","","","2","78","training","adjacent","BC","2","3","N.jpg","O.jpg","1","1","1","",""
"","feedback","","html-keyboard-response","515","536500","0.0-1.0-708.0-0.0","0","0","89750","","null","","","null","78","","","","","","","","","","","","","","","",""
"","ITI","","html-keyboard-response","516","537503","0.0-1.0-711.0","0","0","89750","","null","","","null","78","","","","","","","","","","","","","","","NaN",""
"","S1","","html-keyboard-response","517","537757","0.0-1.0-713.0","0","0","89750","","null","","","null","79","","","","","","","","","","","","","","","",""
"","ISI","","html-keyboard-response","518","539762","0.0-1.0-714.0","0","0","89750","","null","","","null","79","NaN","","","","","","","","","","","","","","",""
"","S2","","html-keyboard-response","519","540016","0.0-1.0-715.0","0","0","89750","","null","","","null","79","","NaN","","","","","","","","","","","","","",""
"","response","","html-keyboard-response","520","540142","0.0-1.0-716.0-0.0","0","0","89750","","124","","","75","79","","","2","79","training","adjacent","BC","2","3","N.jpg","O.jpg","0","1","0","",""
"","feedback","","html-keyboard-response","521","541144","0.0-1.0-717.0-0.0","0","0","89750","","null","","","null","79","","","","","","","","","","","","","","","",""
"","time_out","","html-keyboard-response","522","543149","0.0-1.0-719.0-0.0","0","0","89750","","null","","","null","79","","","","","","","","","","","","","","","",""
"","ITI","","html-keyboard-response","523","544152","0.0-1.0-720.0","0","0","89750","","null","","","null","79","","","","","","","","","","","","","","","NaN",""
"","S1","","html-keyboard-response","524","544407","0.0-1.0-722.0","0","0","89750","","null","","","null","80","","","","","","","","","","","","","","","",""
"","ISI","","html-keyboard-response","525","546411","0.0-1.0-723.0","0","0","89750","","null","","","null","80","NaN","","","","","","","","","","","","","","",""
"","S2","","html-keyboard-response","526","546665","0.0-1.0-724.0","0","0","89750","","null","","","null","80","","NaN","","","","","","","","","","","","","",""
"","response","","html-keyboard-response","527","546702","0.0-1.0-725.0-0.0","0","0","89750","","35","","","75","80","","","2","80","training","adjacent","AB","1","2","M.jpg","N.jpg","0","1","0","",""
"","feedback","","html-keyboard-response","528","547706","0.0-1.0-726.0-0.0","0","0","89750","","null","","","null","80","","","","","","","","","","","","","","","",""
"","time_out","","html-keyboard-response","529","549711","0.0-1.0-728.0-0.0","0","0","89750","","null","","","null","80","","","","","","","","","","","","","","","",""
"","ITI","","html-keyboard-response","530","550714","0.0-1.0-729.0","0","0","89750","","null","","","null","80","","","","","","","","","","","","","","","NaN",""
"","S1","","html-keyboard-response","531","550968","0.0-1.0-731.0","0","0","89750","","null","","","null","81","","","","","","","","","","","","","","","",""
"","ISI","","html-keyboard-response","532","552972","0.0-1.0-732.0","0","0","89750","","null","","","null","81","NaN","","","","","","","","","","","","","","",""
"","S2","","html-keyboard-response","533","553226","0.0-1.0-733.0","0","0","89750","","null","","","null","81","","NaN","","","","","","","","","","","","","",""
"","response","","html-keyboard-response","534","553232","0.0-1.0-734.0-0.0","0","0","89750","","4","","","68","81","","","2","81","training","adjacent","BA","2","1","N.jpg","M.jpg","1","0","0","",""
"","feedback","","html-keyboard-response","535","554236","0.0-1.0-735.0-0.0","0","0","89750","","null","","","null","81","","","","","","","","","","","","","","","",""
"","time_out","","html-keyboard-response","536","556241","0.0-1.0-737.0-0.0","0","0","89750","","null","","","null","81","","","","","","","","","","","","","","","",""
"","ITI","","html-keyboard-response","537","557245","0.0-1.0-738.0","0","0","89750","","null","","","null","81","","","","","","","","","","","","","","","NaN",""
"","S1","","html-keyboard-response","538","557499","0.0-1.0-740.0","0","0","89750","","null","","","null","82","","","","","","","","","","","","","","","",""
"","ISI","","html-keyboard-response","539","559503","0.0-1.0-741.0","0","0","89750","","null","","","null","82","NaN","","","","","","","","","","","","","","",""
"","S2","","html-keyboard-response","540","559758","0.0-1.0-742.0","0","0","89750","","null","","","null","82","","NaN","","","","","","","","","","","","","",""
"","response","","html-keyboard-response","541","559761","0.0-1.0-743.0-0.0","0","0","89750","","0","","","75","82","","","2","82","training","adjacent","FG","6","7","Q.jpg","R.jpg","0","1","0","",""
"","feedback","","html-keyboard-response","542","560765","0.0-1.0-744.0-0.0","0","0","89750","","null","","","null","82","","","","","","","","","","","","","","","",""
"","time_out","","html-keyboard-response","543","562770","0.0-1.0-746.0-0.0","0","0","89750","","null","","","null","82","","","","","","","","","","","","","","","",""
"","ITI","","html-keyboard-response","544","563784","0.0-1.0-747.0","0","0","89750","","null","","","null","82","","","","","","","","","","","","","","","NaN",""
"","S1","","html-keyboard-response","545","564039","0.0-1.0-749.0","0","0","89750","","null","","","null","83","","","","","","","","","","","","","","","",""
"","ISI","","html-keyboard-response","546","566042","0.0-1.0-750.0","0","0","89750","","null","","","null","83","NaN","","","","","","","","","","","","","","",""
"","S2","","html-keyboard-response","547","566295","0.0-1.0-751.0","0","0","89750","","null","","","null","83","","NaN","","","","","","","","","","","","","",""
"","response","","html-keyboard-response","548","566345","0.0-1.0-752.0-0.0","0","0","89750","","46","","","68","83","","","2","83","training","adjacent","EF","5","6","L.jpg","Q.jpg","1","1","1","",""
"","feedback","","html-keyboard-response","549","567349","0.0-1.0-753.0-0.0","0","0","89750","","null","","","null","83","","","","","","","","","","","","","","","",""
"","ITI","","html-keyboard-response","550","568354","0.0-1.0-756.0","0","0","89750","","null","","","null","83","","","","","","","","","","","","","","","NaN",""
"","S1","","html-keyboard-response","551","568607","0.0-1.0-758.0","0","0","89750","","null","","","null","84","","","","","","","","","","","","","","","",""
"","ISI","","html-keyboard-response","552","570611","0.0-1.0-759.0","0","0","89750","","null","","","null","84","NaN","","","","","","","","","","","","","","",""
"","S2","","html-keyboard-response","553","570866","0.0-1.0-760.0","0","0","89750","","null","","","null","84","","NaN","","","","","","","","","","","","","",""
"","response","","html-keyboard-response","554","570969","0.0-1.0-761.0-0.0","0","0","89750","","99","","","68","84","","","2","84","training","adjacent","ED","5","4","L.jpg","P.jpg","1","0","0","",""
"","feedback","","html-keyboard-response","555","571974","0.0-1.0-762.0-0.0","0","0","89750","","null","","","null","84","","","","","","","","","","","","","","","",""
"","time_out","","html-keyboard-response","556","573979","0.0-1.0-764.0-0.0","0","0","89750","","null","","","null","84","","","","","","","","","","","","","","","",""
"","ITI","","html-keyboard-response","557","574983","0.0-1.0-765.0","0","0","89750","","null","","","null","84","","","","","","","","","","","","","","","NaN",""
"","S1","","html-keyboard-response","558","575237","0.0-1.0-767.0","0","0","89750","","null","","","null","85","","","","","","","","","","","","","","","",""
"","ISI","","html-keyboard-response","559","577241","0.0-1.0-768.0","0","0","89750","","null","","","null","85","NaN","","","","","","","","","","","","","","",""
"","S2","","html-keyboard-response","560","577496","0.0-1.0-769.0","0","0","89750","","null","","","null","85","","NaN","","","","","","","","","","","","","",""
"","response","","html-keyboard-response","561","577529","0.0-1.0-770.0-0.0","0","0","89750","","29","","","68","85","","","2","85","training","adjacent","CB","3","2","O.jpg","N.jpg","1","0","0","",""
"","feedback","","html-keyboard-response","562","578533","0.0-1.0-771.0-0.0","0","0","89750","","null","","","null","85","","","","","","","","","","","","","","","",""
"","time_out","","html-keyboard-response","563","580538","0.0-1.0-773.0-0.0","0","0","89750","","null","","","null","85","","","","","","","","","","","","","","","",""
"","ITI","","html-keyboard-response","564","581544","0.0-1.0-774.0","0","0","89750","","null","","","null","85","","","","","","","","","","","","","","","NaN",""
"","S1","","html-keyboard-response","565","581798","0.0-1.0-776.0","0","0","89750","","null","","","null","86","","","","","","","","","","","","","","","",""
"","ISI","","html-keyboard-response","566","583803","0.0-1.0-777.0","0","0","89750","","null","","","null","86","NaN","","","","","","","","","","","","","","",""
"","S2","","html-keyboard-response","567","584057","0.0-1.0-778.0","0","0","89750","","null","","","null","86","","NaN","","","","","","","","","","","","","",""
"","response","","html-keyboard-response","568","584078","0.0-1.0-779.0-0.0","0","0","89750","","18","","","75","86","","","2","86","training","adjacent","GF","7","6","R.jpg","Q.jpg","0","0","1","",""
"","feedback","","html-keyboard-response","569","585082","0.0-1.0-780.0-0.0","0","0","89750","","null","","","null","86","","","","","","","","","","","","","","","",""
"","ITI","","html-keyboard-response","570","586088","0.0-1.0-783.0","0","0","89750","","null","","","null","86","","","","","","","","","","","","","","","NaN",""
"","S1","","html-keyboard-response","571","586342","0.0-1.0-785.0","0","0","89750","","null","","","null","87","","","","","","","","","","","","","","","",""
"","ISI","","html-keyboard-response","572","588346","0.0-1.0-786.0","0","0","89750","","null","","","null","87","NaN","","","","","","","","","","","","","","",""
"","S2","","html-keyboard-response","573","588601","0.0-1.0-787.0","0","0","89750","","null","","","null","87","","NaN","","","","","","","","","","","","","",""
"","response","","html-keyboard-response","574","588649","0.0-1.0-788.0-0.0","0","0","89750","","44","","","75","87","","","2","87","training","adjacent","EF","5","6","L.jpg","Q.jpg","0","1","0","",""
"","feedback","","html-keyboard-response","575","589653","0.0-1.0-789.0-0.0","0","0","89750","","null","","","null","87","","","","","","","","","","","","","","","",""
"","time_out","","html-keyboard-response","576","591658","0.0-1.0-791.0-0.0","0","0","89750","","null","","","null","87","","","","","","","","","","","","","","","",""
"","ITI","","html-keyboard-response","577","592662","0.0-1.0-792.0","0","0","89750","","null","","","null","87","","","","","","","","","","","","","","","NaN",""
"","S1","","html-keyboard-response","578","592917","0.0-1.0-794.0","0","0","89750","","null","","","null","88","","","","","","","","","","","","","","","",""
"","ISI","","html-keyboard-response","579","594921","0.0-1.0-795.0","0","0","89750","","null","","","null","88","NaN","","","","","","","","","","","","","","",""
"","S2","","html-keyboard-response","580","595176","0.0-1.0-796.0","0","0","89750","","null","","","null","88","","NaN","","","","","","","","","","","","","",""
"","response","","html-keyboard-response","581","595241","0.0-1.0-797.0-0.0","0","0","89750","","61","","","68","88","","","2","88","training","adjacent","BC","2","3","N.jpg","O.jpg","1","1","1","",""
"","feedback","","html-keyboard-response","582","596246","0.0-1.0-798.0-0.0","0","0","89750","","null","","","null","88","","","","","","","","","","","","","","","",""
"","ITI","","html-keyboard-response","583","597251","0.0-1.0-801.0","0","0","89750","","null","","","null","88","","","","","","","","","","","","","","","NaN",""
