"success","ttype","start_time","trial_type","trial_index","time_elapsed","internal_node_id","warning","missed_checkup","PID","view_history","rt","responses","repeat_instructions","key_press","index","keypress_isi","keypress_S2","block","trial_num","phase","group_type","pair_type","S1_stim","S2_stim","S1_img","S2_img","S1_chosen","S1_higher","accuracy","keypress_iti","total_bonus_tally"
"true","full_screen","d08052022hr1450","fullscreen","0","7130","0.0-0.0","0","0","66133","","","","","","","","","","","","","","","","","","","","","",""
"","instructions","","instructions","1","707607","0.0-1.0-0.0-0.0","0","0","66133","[{""page_index"":0,""viewing_time"":544490},{""page_index"":1,""viewing_time"":146329},{""page_index"":2,""viewing_time"":7976},{""page_index"":3,""viewing_time"":1680}]","700476","","","","","","","","","","","","","","","","","","","",""
"","comprehension_check","","survey-multi-choice","2","726391","0.0-1.0-0.0-1.0","0","0","66133","","18779","{""Q0"":""True"",""Q1"":""D"",""Q2"":""Once the second image appears and while the screen 'MAKE A CHOICE' is shown"",""Q3"":""Green mark"",""Q4"":""either D or K""}","1","","","","","","","","","","","","","","","","","",""
"","missed_instruction_checkup","","html-keyboard-response","3","728303","0.0-1.0-0.0-2.0-0.0","0","1","66133","","1908","","","32","","","","","","","","","","","","","","","","",""
"","instructions","","instructions","4","769790","0.0-1.0-0.1-0.1","0","0","66133","[{""page_index"":0,""viewing_time"":2965},{""page_index"":1,""viewing_time"":25080},{""page_index"":2,""viewing_time"":11824},{""page_index"":3,""viewing_time"":1616}]","41485","","","","","","","","","","","","","","","","","","","",""
"","comprehension_check","","survey-multi-choice","5","797414","0.0-1.0-0.1-1.1","0","0","66133","","27619","{""Q0"":""True"",""Q1"":""K"",""Q2"":""Only when the screen 'MAKE A CHOICE' is shown"",""Q3"":""Green mark"",""Q4"":""either D or K""}","1","","","","","","","","","","","","","","","","","",""
"","missed_instruction_checkup","","html-keyboard-response","6","799237","0.0-1.0-0.1-2.1-0.1","0","1","66133","","1821","","","32","","","","","","","","","","","","","","","","",""
"","instructions","","instructions","7","804271","0.0-1.0-0.2-0.2","0","0","66133","[{""page_index"":0,""viewing_time"":1808},{""page_index"":1,""viewing_time"":815},{""page_index"":2,""viewing_time"":1249},{""page_index"":3,""viewing_time"":1159}]","5031","","","","","","","","","","","","","","","","","","","",""
"","comprehension_check","","survey-multi-choice","8","850734","0.0-1.0-0.2-1.2","0","0","66133","","46459","{""Q0"":""False"",""Q1"":""K"",""Q2"":""Once the second image appears and while the screen 'MAKE A CHOICE' is shown"",""Q3"":""Green mark"",""Q4"":""either D or K""}","1","","","","","","","","","","","","","","","","","",""
"","missed_instruction_checkup","","html-keyboard-response","9","852326","0.0-1.0-0.2-2.2-0.2","0","1","66133","","1589","","","32","","","","","","","","","","","","","","","","",""
"","instructions","","instructions","10","859591","0.0-1.0-0.3-0.3","0","0","66133","[{""page_index"":0,""viewing_time"":1719},{""page_index"":1,""viewing_time"":1687},{""page_index"":2,""viewing_time"":1592},{""page_index"":3,""viewing_time"":2265}]","7263","","","","","","","","","","","","","","","","","","","",""
"","comprehension_check","","survey-multi-choice","11","893655","0.0-1.0-0.3-1.3","0","0","66133","","34059","{""Q0"":""True"",""Q1"":""K"",""Q2"":""Once the second image appears and while the screen 'MAKE A CHOICE' is shown"",""Q3"":""Green mark"",""Q4"":""either D or K""}","0","","","","","","","","","","","","","","","","","",""
"","start_exp","","html-keyboard-response","12","895804","0.0-1.0-1.0","0","0","66133","","2146","","","32","","","","","","","","","","","","","","","","",""
"","S1","","html-keyboard-response","13","896070","0.0-1.0-2.0","0","0","66133","","null","","","null","0","","","","","","","","","","","","","","","",""
"","ISI","","html-keyboard-response","14","898074","0.0-1.0-3.0","0","0","66133","","null","","","null","0","NaN","","","","","","","","","","","","","","",""
"","S2","","html-keyboard-response","15","898329","0.0-1.0-4.0","0","0","66133","","null","","","null","0","","NaN","","","","","","","","","","","","","",""
"","response","","html-keyboard-response","16","899325","0.0-1.0-5.0-0.0","0","0","66133","","993","","","68","0","","","1","0","training","adjacent","FE","6","5","N.jpg","R.jpg","0","0","1","",""
"","feedback","","html-keyboard-response","17","900330","0.0-1.0-6.0-0.0","0","0","66133","","null","","","null","0","","","","","","","","","","","","","","","",""
"","ITI","","html-keyboard-response","18","901335","0.0-1.0-9.0","0","0","66133","","null","","","null","0","","","","","","","","","","","","","","","NaN",""
"","S1","","html-keyboard-response","19","901589","0.0-1.0-11.0","0","0","66133","","null","","","null","1","","","","","","","","","","","","","","","",""
"","ISI","","html-keyboard-response","20","903593","0.0-1.0-12.0","0","0","66133","","null","","","null","1","NaN","","","","","","","","","","","","","","",""
"","S2","","html-keyboard-response","21","903847","0.0-1.0-13.0","0","0","66133","","null","","","null","1","","NaN","","","","","","","","","","","","","",""
"","response","","html-keyboard-response","22","904620","0.0-1.0-14.0-0.0","0","0","66133","","769","","","75","1","","","1","1","training","adjacent","ED","5","4","R.jpg","P.jpg","1","0","0","",""
"","feedback","","html-keyboard-response","23","905625","0.0-1.0-15.0-0.0","0","0","66133","","null","","","null","1","","","","","","","","","","","","","","","",""
"","time_out","","html-keyboard-response","24","907628","0.0-1.0-17.0-0.0","0","0","66133","","null","","","null","1","","","","","","","","","","","","","","","",""
"","ITI","","html-keyboard-response","25","908636","0.0-1.0-18.0","0","0","66133","","null","","","null","1","","","","","","","","","","","","","","","NaN",""
"","S1","","html-keyboard-response","26","908891","0.0-1.0-20.0","0","0","66133","","null","","","null","2","","","","","","","","","","","","","","","",""
"","ISI","","html-keyboard-response","27","910894","0.0-1.0-21.0","0","0","66133","","null","","","null","2","NaN","","","","","","","","","","","","","","",""
"","S2","","html-keyboard-response","28","911149","0.0-1.0-22.0","0","0","66133","","null","","","null","2","","NaN","","","","","","","","","","","","","",""
"","response","","html-keyboard-response","29","911844","0.0-1.0-23.0-0.0","0","0","66133","","693","","","68","2","","","1","2","training","adjacent","GF","7","6","Q.jpg","N.jpg","0","0","1","",""
"","feedback","","html-keyboard-response","30","912847","0.0-1.0-24.0-0.0","0","0","66133","","null","","","null","2","","","","","","","","","","","","","","","",""
"","ITI","","html-keyboard-response","31","913852","0.0-1.0-27.0","0","0","66133","","null","","","null","2","","","","","","","","","","","","","","","NaN",""
"","S1","","html-keyboard-response","32","914107","0.0-1.0-29.0","0","0","66133","","null","","","null","3","","","","","","","","","","","","","","","",""
"","ISI","","html-keyboard-response","33","916110","0.0-1.0-30.0","0","0","66133","","null","","","null","3","NaN","","","","","","","","","","","","","","",""
"","S2","","html-keyboard-response","34","916370","0.0-1.0-31.0","0","0","66133","","null","","","null","3","","NaN","","","","","","","","","","","","","",""
"","response","","html-keyboard-response","35","916645","0.0-1.0-32.0-0.0","0","0","66133","","271","","","68","3","","","1","3","training","adjacent","CD","3","4","L.jpg","P.jpg","0","1","0","",""
"","feedback","","html-keyboard-response","36","917648","0.0-1.0-33.0-0.0","0","0","66133","","null","","","null","3","","","","","","","","","","","","","","","",""
"","time_out","","html-keyboard-response","37","919653","0.0-1.0-35.0-0.0","0","0","66133","","null","","","null","3","","","","","","","","","","","","","","","",""
"","ITI","","html-keyboard-response","38","920657","0.0-1.0-36.0","0","0","66133","","null","","","null","3","","","","","","","","","","","","","","","NaN",""
"","S1","","html-keyboard-response","39","920910","0.0-1.0-38.0","0","0","66133","","null","","","null","4","","","","","","","","","","","","","","","",""
"","ISI","","html-keyboard-response","40","922912","0.0-1.0-39.0","0","0","66133","","null","","","null","4","NaN","","","","","","","","","","","","","","",""
"","S2","","html-keyboard-response","41","923166","0.0-1.0-40.0","0","0","66133","","null","","","null","4","","NaN","","","","","","","","","","","","","",""
"","response","","html-keyboard-response","42","923682","0.0-1.0-41.0-0.0","0","0","66133","","512","","","75","4","","","1","4","training","adjacent","CB","3","2","L.jpg","M.jpg","1","0","0","",""
"","feedback","","html-keyboard-response","43","924686","0.0-1.0-42.0-0.0","0","0","66133","","null","","","null","4","","","","","","","","","","","","","","","",""
"","time_out","","html-keyboard-response","44","926691","0.0-1.0-44.0-0.0","0","0","66133","","null","","","null","4","","","","","","","","","","","","","","","",""
"","ITI","","html-keyboard-response","45","927696","0.0-1.0-45.0","0","0","66133","","null","","","null","4","","","","","","","","","","","","","","","NaN",""
"","S1","","html-keyboard-response","46","927951","0.0-1.0-47.0","0","0","66133","","null","","","null","5","","","","","","","","","","","","","","","",""
"","ISI","","html-keyboard-response","47","929955","0.0-1.0-48.0","0","0","66133","","null","","","null","5","NaN","","","","","","","","","","","","","","",""
"","S2","","html-keyboard-response","48","930210","0.0-1.0-49.0","0","0","66133","","null","","","null","5","","NaN","","","","","","","","","","","","","",""
"","response","","html-keyboard-response","49","931117","0.0-1.0-50.0-0.0","0","0","66133","","904","","","68","5","","","1","5","training","adjacent","CB","3","2","L.jpg","M.jpg","0","0","1","",""
"","feedback","","html-keyboard-response","50","932122","0.0-1.0-51.0-0.0","0","0","66133","","null","","","null","5","","","","","","","","","","","","","","","",""
"","ITI","","html-keyboard-response","51","933135","0.0-1.0-54.0","0","0","66133","","null","","","null","5","","","","","","","","","","","","","","","NaN",""
"","S1","","html-keyboard-response","52","933389","0.0-1.0-56.0","0","0","66133","","null","","","null","6","","","","","","","","","","","","","","","",""
"","ISI","","html-keyboard-response","53","935393","0.0-1.0-57.0","0","0","66133","","null","","","null","6","NaN","","","","","","","","","","","","","","",""
"","S2","","html-keyboard-response","54","935648","0.0-1.0-58.0","0","0","66133","","null","","","null","6","","NaN","","","","","","","","","","","","","",""
"","response","","html-keyboard-response","55","936057","0.0-1.0-59.0-0.0","0","0","66133","","406","","","68","6","","","1","6","training","adjacent","DE","4","5","P.jpg","R.jpg","0","1","0","",""
"","feedback","","html-keyboard-response","56","937061","0.0-1.0-60.0-0.0","0","0","66133","","null","","","null","6","","","","","","","","","","","","","","","",""
"","time_out","","html-keyboard-response","57","939065","0.0-1.0-62.0-0.0","0","0","66133","","null","","","null","6","","","","","","","","","","","","","","","",""
"","ITI","","html-keyboard-response","58","940069","0.0-1.0-63.0","0","0","66133","","null","","","null","6","","","","","","","","","","","","","","","NaN",""
"","S1","","html-keyboard-response","59","940323","0.0-1.0-65.0","0","0","66133","","null","","","null","7","","","","","","","","","","","","","","","",""
"","ISI","","html-keyboard-response","60","942326","0.0-1.0-66.0","0","0","66133","","null","","","null","7","NaN","","","","","","","","","","","","","","",""
"","S2","","html-keyboard-response","61","942580","0.0-1.0-67.0","0","0","66133","","null","","","null","7","","NaN","","","","","","","","","","","","","",""
"","response","","html-keyboard-response","62","942785","0.0-1.0-68.0-0.0","0","0","66133","","203","","","68","7","","","1","7","training","adjacent","EF","5","6","R.jpg","N.jpg","0","1","0","",""
"","feedback","","html-keyboard-response","63","943788","0.0-1.0-69.0-0.0","0","0","66133","","null","","","null","7","","","","","","","","","","","","","","","",""
"","time_out","","html-keyboard-response","64","945791","0.0-1.0-71.0-0.0","0","0","66133","","null","","","null","7","","","","","","","","","","","","","","","",""
"","ITI","","html-keyboard-response","65","946794","0.0-1.0-72.0","0","0","66133","","null","","","null","7","","","","","","","","","","","","","","","NaN",""
"","S1","","html-keyboard-response","66","947049","0.0-1.0-74.0","0","0","66133","","null","","","null","8","","","","","","","","","","","","","","","",""
"","ISI","","html-keyboard-response","67","949053","0.0-1.0-75.0","0","0","66133","","null","","","null","8","NaN","","","","","","","","","","","","","","",""
"","S2","","html-keyboard-response","68","949309","0.0-1.0-76.0","0","0","66133","","null","","","null","8","","NaN","","","","","","","","","","","","","",""
"","response","","html-keyboard-response","69","949546","0.0-1.0-77.0-0.0","0","0","66133","","234","","","75","8","","","1","8","training","adjacent","CD","3","4","L.jpg","P.jpg","1","1","1","",""
"","feedback","","html-keyboard-response","70","950550","0.0-1.0-78.0-0.0","0","0","66133","","null","","","null","8","","","","","","","","","","","","","","","",""
"","ITI","","html-keyboard-response","71","951555","0.0-1.0-81.0","0","0","66133","","null","","","null","8","","","","","","","","","","","","","","","NaN",""
"","S1","","html-keyboard-response","72","951810","0.0-1.0-83.0","0","0","66133","","null","","","null","9","","","","","","","","","","","","","","","",""
"","ISI","","html-keyboard-response","73","953813","0.0-1.0-84.0","0","0","66133","","null","","","null","9","NaN","","","","","","","","","","","","","","",""
"","S2","","html-keyboard-response","74","954068","0.0-1.0-85.0","0","0","66133","","null","","","null","9","","NaN","","","","","","","","","","","","","",""
"","response","","html-keyboard-response","75","954887","0.0-1.0-86.0-0.0","0","0","66133","","815","","","68","9","","","1","9","training","adjacent","AB","1","2","O.jpg","M.jpg","0","1","0","",""
"","feedback","","html-keyboard-response","76","955890","0.0-1.0-87.0-0.0","0","0","66133","","null","","","null","9","","","","","","","","","","","","","","","",""
"","time_out","","html-keyboard-response","77","957895","0.0-1.0-89.0-0.0","0","0","66133","","null","","","null","9","","","","","","","","","","","","","","","",""
"","ITI","","html-keyboard-response","78","958900","0.0-1.0-90.0","0","0","66133","","null","","","null","9","","","","","","","","","","","","","","","NaN",""
"","S1","","html-keyboard-response","79","959155","0.0-1.0-92.0","0","0","66133","","null","","","null","10","","","","","","","","","","","","","","","",""
"","ISI","","html-keyboard-response","80","961158","0.0-1.0-93.0","0","0","66133","","null","","","null","10","NaN","","","","","","","","","","","","","","",""
"","S2","","html-keyboard-response","81","961412","0.0-1.0-94.0","0","0","66133","","null","","","null","10","","NaN","","","","","","","","","","","","","",""
"","response","","html-keyboard-response","82","961880","0.0-1.0-95.0-0.0","0","0","66133","","466","","","75","10","","","1","10","training","adjacent","BC","2","3","M.jpg","L.jpg","1","1","1","",""
"","feedback","","html-keyboard-response","83","962883","0.0-1.0-96.0-0.0","0","0","66133","","null","","","null","10","","","","","","","","","","","","","","","",""
"","ITI","","html-keyboard-response","84","963886","0.0-1.0-99.0","0","0","66133","","null","","","null","10","","","","","","","","","","","","","","","NaN",""
"","S1","","html-keyboard-response","85","964140","0.0-1.0-101.0","0","0","66133","","null","","","null","11","","","","","","","","","","","","","","","",""
"","ISI","","html-keyboard-response","86","966156","0.0-1.0-102.0","0","0","66133","","null","","","null","11","NaN","","","","","","","","","","","","","","",""
"","S2","","html-keyboard-response","87","966411","0.0-1.0-103.0","0","0","66133","","null","","","null","11","","NaN","","","","","","","","","","","","","",""
"","response","","html-keyboard-response","88","967239","0.0-1.0-104.0-0.0","0","0","66133","","826","","","75","11","","","1","11","training","adjacent","FG","6","7","N.jpg","Q.jpg","1","1","1","",""
"","feedback","","html-keyboard-response","89","968243","0.0-1.0-105.0-0.0","0","0","66133","","null","","","null","11","","","","","","","","","","","","","","","",""
"","ITI","","html-keyboard-response","90","969248","0.0-1.0-108.0","0","0","66133","","null","","","null","11","","","","","","","","","","","","","","","NaN",""
"","S1","","html-keyboard-response","91","969501","0.0-1.0-110.0","0","0","66133","","null","","","null","12","","","","","","","","","","","","","","","",""
"","ISI","","html-keyboard-response","92","971505","0.0-1.0-111.0","0","0","66133","","null","","","null","12","NaN","","","","","","","","","","","","","","",""
"","S2","","html-keyboard-response","93","971759","0.0-1.0-112.0","0","0","66133","","null","","","null","12","","NaN","","","","","","","","","","","","","",""
"","response","","html-keyboard-response","94","972096","0.0-1.0-113.0-0.0","0","0","66133","","334","","","68","12","","","1","12","training","adjacent","FE","6","5","N.jpg","R.jpg","0","0","1","",""
"","feedback","","html-keyboard-response","95","973101","0.0-1.0-114.0-0.0","0","0","66133","","null","","","null","12","","","","","","","","","","","","","","","",""
"","ITI","","html-keyboard-response","96","974105","0.0-1.0-117.0","0","0","66133","","null","","","null","12","","","","","","","","","","","","","","","NaN",""
"","S1","","html-keyboard-response","97","974360","0.0-1.0-119.0","0","0","66133","","null","","","null","13","","","","","","","","","","","","","","","",""
"","ISI","","html-keyboard-response","98","976363","0.0-1.0-120.0","0","0","66133","","null","","","null","13","NaN","","","","","","","","","","","","","","",""
"","S2","","html-keyboard-response","99","976617","0.0-1.0-121.0","0","0","66133","","null","","","null","13","","NaN","","","","","","","","","","","","","",""
"","response","","html-keyboard-response","100","977223","0.0-1.0-122.0-0.0","0","0","66133","","604","","","68","13","","","1","13","training","adjacent","FE","6","5","N.jpg","R.jpg","0","0","1","",""
"","feedback","","html-keyboard-response","101","978228","0.0-1.0-123.0-0.0","0","0","66133","","null","","","null","13","","","","","","","","","","","","","","","",""
"","ITI","","html-keyboard-response","102","979232","0.0-1.0-126.0","0","0","66133","","null","","","null","13","","","","","","","","","","","","","","","NaN",""
"","S1","","html-keyboard-response","103","979486","0.0-1.0-128.0","0","0","66133","","null","","","null","14","","","","","","","","","","","","","","","",""
"","ISI","","html-keyboard-response","104","981490","0.0-1.0-129.0","0","0","66133","","null","","","null","14","NaN","","","","","","","","","","","","","","",""
"","S2","","html-keyboard-response","105","981758","0.0-1.0-130.0","0","0","66133","","null","","","null","14","","NaN","","","","","","","","","","","","","",""
"","response","","html-keyboard-response","106","982266","0.0-1.0-131.0-0.0","0","0","66133","","504","","","75","14","","","1","14","training","adjacent","BA","2","1","M.jpg","O.jpg","1","0","0","",""
"","feedback","","html-keyboard-response","107","983270","0.0-1.0-132.0-0.0","0","0","66133","","null","","","null","14","","","","","","","","","","","","","","","",""
"","time_out","","html-keyboard-response","108","985273","0.0-1.0-134.0-0.0","0","0","66133","","null","","","null","14","","","","","","","","","","","","","","","",""
"","ITI","","html-keyboard-response","109","986278","0.0-1.0-135.0","0","0","66133","","null","","","null","14","","","","","","","","","","","","","","","NaN",""
"","S1","","html-keyboard-response","110","986531","0.0-1.0-137.0","0","0","66133","","null","","","null","15","","","","","","","","","","","","","","","",""
"","ISI","","html-keyboard-response","111","988536","0.0-1.0-138.0","0","0","66133","","null","","","null","15","NaN","","","","","","","","","","","","","","",""
"","S2","","html-keyboard-response","112","988791","0.0-1.0-139.0","0","0","66133","","null","","","null","15","","NaN","","","","","","","","","","","","","",""
"","response","","html-keyboard-response","113","989648","0.0-1.0-140.0-0.0","0","0","66133","","853","","","75","15","","","1","15","training","adjacent","EF","5","6","R.jpg","N.jpg","1","1","1","",""
"","feedback","","html-keyboard-response","114","990659","0.0-1.0-141.0-0.0","0","0","66133","","null","","","null","15","","","","","","","","","","","","","","","",""
"","ITI","","html-keyboard-response","115","991664","0.0-1.0-144.0","0","0","66133","","null","","","null","15","","","","","","","","","","","","","","","NaN",""
"","S1","","html-keyboard-response","116","991919","0.0-1.0-146.0","0","0","66133","","null","","","null","16","","","","","","","","","","","","","","","",""
"","ISI","","html-keyboard-response","117","993923","0.0-1.0-147.0","0","0","66133","","null","","","null","16","NaN","","","","","","","","","","","","","","",""
"","S2","","html-keyboard-response","118","994177","0.0-1.0-148.0","0","0","66133","","null","","","null","16","","NaN","","","","","","","","","","","","","",""
"","response","","html-keyboard-response","119","995009","0.0-1.0-149.0-0.0","0","0","66133","","830","","","75","16","","","1","16","training","adjacent","ED","5","4","R.jpg","P.jpg","1","0","0","",""
"","feedback","","html-keyboard-response","120","996013","0.0-1.0-150.0-0.0","0","0","66133","","null","","","null","16","","","","","","","","","","","","","","","",""
"","time_out","","html-keyboard-response","121","998029","0.0-1.0-152.0-0.0","0","0","66133","","null","","","null","16","","","","","","","","","","","","","","","",""
"","ITI","","html-keyboard-response","122","999033","0.0-1.0-153.0","0","0","66133","","null","","","null","16","","","","","","","","","","","","","","","NaN",""
"","S1","","html-keyboard-response","123","999287","0.0-1.0-155.0","0","0","66133","","null","","","null","17","","","","","","","","","","","","","","","",""
"","ISI","","html-keyboard-response","124","1001291","0.0-1.0-156.0","0","0","66133","","null","","","null","17","NaN","","","","","","","","","","","","","","",""
"","S2","","html-keyboard-response","125","1001545","0.0-1.0-157.0","0","0","66133","","null","","","null","17","","NaN","","","","","","","","","","","","","",""
"","response","","html-keyboard-response","126","1002223","0.0-1.0-158.0-0.0","0","0","66133","","674","","","75","17","","","1","17","training","adjacent","BA","2","1","M.jpg","O.jpg","1","0","0","",""
"","feedback","","html-keyboard-response","127","1003227","0.0-1.0-159.0-0.0","0","0","66133","","null","","","null","17","","","","","","","","","","","","","","","",""
"","time_out","","html-keyboard-response","128","1005230","0.0-1.0-161.0-0.0","0","0","66133","","null","","","null","17","","","","","","","","","","","","","","","",""
"","ITI","","html-keyboard-response","129","1006233","0.0-1.0-162.0","0","0","66133","","null","","","null","17","","","","","","","","","","","","","","","NaN",""
"","S1","","html-keyboard-response","130","1006488","0.0-1.0-164.0","0","0","66133","","null","","","null","18","","","","","","","","","","","","","","","",""
"","ISI","","html-keyboard-response","131","1008492","0.0-1.0-165.0","0","0","66133","","null","","","null","18","NaN","","","","","","","","","","","","","","",""
"","S2","","html-keyboard-response","132","1008746","0.0-1.0-166.0","0","0","66133","","null","","","null","18","","NaN","","","","","","","","","","","","","",""
"","response","","html-keyboard-response","133","1009274","0.0-1.0-167.0-0.0","0","0","66133","","525","","","75","18","","","1","18","training","adjacent","CB","3","2","L.jpg","M.jpg","1","0","0","",""
"","feedback","","html-keyboard-response","134","1010279","0.0-1.0-168.0-0.0","0","0","66133","","null","","","null","18","","","","","","","","","","","","","","","",""
"","time_out","","html-keyboard-response","135","1012282","0.0-1.0-170.0-0.0","0","0","66133","","null","","","null","18","","","","","","","","","","","","","","","",""
"","ITI","","html-keyboard-response","136","1013286","0.0-1.0-171.0","0","0","66133","","null","","","null","18","","","","","","","","","","","","","","","NaN",""
"","S1","","html-keyboard-response","137","1013541","0.0-1.0-173.0","0","0","66133","","null","","","null","19","","","","","","","","","","","","","","","",""
"","ISI","","html-keyboard-response","138","1015545","0.0-1.0-174.0","0","0","66133","","null","","","null","19","NaN","","","","","","","","","","","","","","",""
"","S2","","html-keyboard-response","139","1015800","0.0-1.0-175.0","0","0","66133","","null","","","null","19","","NaN","","","","","","","","","","","","","",""
"","response","","html-keyboard-response","140","1015984","0.0-1.0-176.0-0.0","0","0","66133","","181","","","68","19","","","1","19","training","adjacent","DE","4","5","P.jpg","R.jpg","0","1","0","",""
"","feedback","","html-keyboard-response","141","1016989","0.0-1.0-177.0-0.0","0","0","66133","","null","","","null","19","","","","","","","","","","","","","","","",""
"","time_out","","html-keyboard-response","142","1018994","0.0-1.0-179.0-0.0","0","0","66133","","null","","","null","19","","","","","","","","","","","","","","","",""
"","ITI","","html-keyboard-response","143","1019998","0.0-1.0-180.0","0","0","66133","","null","","","null","19","","","","","","","","","","","","","","","NaN",""
"","S1","","html-keyboard-response","144","1020252","0.0-1.0-182.0","0","0","66133","","null","","","null","20","","","","","","","","","","","","","","","",""
"","ISI","","html-keyboard-response","145","1022256","0.0-1.0-183.0","0","0","66133","","null","","","null","20","NaN","","","","","","","","","","","","","","",""
"","S2","","html-keyboard-response","146","1022510","0.0-1.0-184.0","0","0","66133","","null","","","null","20","","NaN","","","","","","","","","","","","","",""
"","response","","html-keyboard-response","147","1022759","0.0-1.0-185.0-0.0","0","0","66133","","246","","","68","20","","","1","20","training","adjacent","BA","2","1","M.jpg","O.jpg","0","0","1","",""
"","feedback","","html-keyboard-response","148","1023764","0.0-1.0-186.0-0.0","0","0","66133","","null","","","null","20","","","","","","","","","","","","","","","",""
"","ITI","","html-keyboard-response","149","1024769","0.0-1.0-189.0","0","0","66133","","null","","","null","20","","","","","","","","","","","","","","","NaN",""
"","S1","","html-keyboard-response","150","1025024","0.0-1.0-191.0","0","0","66133","","null","","","null","21","","","","","","","","","","","","","","","",""
"","ISI","","html-keyboard-response","151","1027033","0.0-1.0-192.0","0","0","66133","","null","","","null","21","NaN","","","","","","","","","","","","","","",""
"","S2","","html-keyboard-response","152","1027286","0.0-1.0-193.0","0","0","66133","","null","","","null","21","","NaN","","","","","","","","","","","","","",""
"","response","","html-keyboard-response","153","1027729","0.0-1.0-194.0-0.0","0","0","66133","","439","","","75","21","","","1","21","training","adjacent","DE","4","5","P.jpg","R.jpg","1","1","1","",""
"","feedback","","html-keyboard-response","154","1028734","0.0-1.0-195.0-0.0","0","0","66133","","null","","","null","21","","","","","","","","","","","","","","","",""
"","ITI","","html-keyboard-response","155","1029738","0.0-1.0-198.0","0","0","66133","","null","","","null","21","","","","","","","","","","","","","","","NaN",""
"","S1","","html-keyboard-response","156","1029992","0.0-1.0-200.0","0","0","66133","","null","","","null","22","","","","","","","","","","","","","","","",""
"","ISI","","html-keyboard-response","157","1031996","0.0-1.0-201.0","0","0","66133","","null","","","null","22","NaN","","","","","","","","","","","","","","",""
"","S2","","html-keyboard-response","158","1032250","0.0-1.0-202.0","0","0","66133","","null","","","null","22","","NaN","","","","","","","","","","","","","",""
"","response","","html-keyboard-response","159","1032682","0.0-1.0-203.0-0.0","0","0","66133","","429","","","68","22","","","1","22","training","adjacent","FG","6","7","N.jpg","Q.jpg","0","1","0","",""
"","feedback","","html-keyboard-response","160","1033687","0.0-1.0-204.0-0.0","0","0","66133","","null","","","null","22","","","","","","","","","","","","","","","",""
"","time_out","","html-keyboard-response","161","1035692","0.0-1.0-206.0-0.0","0","0","66133","","null","","","null","22","","","","","","","","","","","","","","","",""
"","ITI","","html-keyboard-response","162","1036696","0.0-1.0-207.0","0","0","66133","","null","","","null","22","","","","","","","","","","","","","","","NaN",""
"","S1","","html-keyboard-response","163","1036951","0.0-1.0-209.0","0","0","66133","","null","","","null","23","","","","","","","","","","","","","","","",""
"","ISI","","html-keyboard-response","164","1038955","0.0-1.0-210.0","0","0","66133","","null","","","null","23","NaN","","","","","","","","","","","","","","",""
"","S2","","html-keyboard-response","165","1039209","0.0-1.0-211.0","0","0","66133","","null","","","null","23","","NaN","","","","","","","","","","","","","",""
"","response","","html-keyboard-response","166","1039831","0.0-1.0-212.0-0.0","0","0","66133","","619","","","75","23","","","1","23","training","adjacent","GF","7","6","Q.jpg","N.jpg","1","0","0","",""
"","feedback","","html-keyboard-response","167","1040836","0.0-1.0-213.0-0.0","0","0","66133","","null","","","null","23","","","","","","","","","","","","","","","",""
"","time_out","","html-keyboard-response","168","1042840","0.0-1.0-215.0-0.0","0","0","66133","","null","","","null","23","","","","","","","","","","","","","","","",""
"","ITI","","html-keyboard-response","169","1043844","0.0-1.0-216.0","0","0","66133","","null","","","null","23","","","","","","","","","","","","","","","NaN",""
"","S1","","html-keyboard-response","170","1044099","0.0-1.0-218.0","0","0","66133","","null","","","null","24","","","","","","","","","","","","","","","",""
"","ISI","","html-keyboard-response","171","1046103","0.0-1.0-219.0","0","0","66133","","null","","","null","24","NaN","","","","","","","","","","","","","","",""
"","S2","","html-keyboard-response","172","1046358","0.0-1.0-220.0","0","0","66133","","null","","","null","24","","NaN","","","","","","","","","","","","","",""
"","response","","html-keyboard-response","173","1046726","0.0-1.0-221.0-0.0","0","0","66133","","365","","","75","24","","","1","24","training","adjacent","CB","3","2","L.jpg","M.jpg","1","0","0","",""
"","feedback","","html-keyboard-response","174","1047730","0.0-1.0-222.0-0.0","0","0","66133","","null","","","null","24","","","","","","","","","","","","","","","",""
"","time_out","","html-keyboard-response","175","1049734","0.0-1.0-224.0-0.0","0","0","66133","","null","","","null","24","","","","","","","","","","","","","","","",""
"","ITI","","html-keyboard-response","176","1050738","0.0-1.0-225.0","0","0","66133","","null","","","null","24","","","","","","","","","","","","","","","NaN",""
"","S1","","html-keyboard-response","177","1050993","0.0-1.0-227.0","0","0","66133","","null","","","null","25","","","","","","","","","","","","","","","",""
"","ISI","","html-keyboard-response","178","1052997","0.0-1.0-228.0","0","0","66133","","null","","","null","25","NaN","","","","","","","","","","","","","","",""
"","S2","","html-keyboard-response","179","1053252","0.0-1.0-229.0","0","0","66133","","null","","","null","25","","NaN","","","","","","","","","","","","","",""
"","response","","html-keyboard-response","180","1053521","0.0-1.0-230.0-0.0","0","0","66133","","265","","","75","25","","","1","25","training","adjacent","ED","5","4","R.jpg","P.jpg","1","0","0","",""
"","feedback","","html-keyboard-response","181","1054526","0.0-1.0-231.0-0.0","0","0","66133","","null","","","null","25","","","","","","","","","","","","","","","",""
"","time_out","","html-keyboard-response","182","1056530","0.0-1.0-233.0-0.0","0","0","66133","","null","","","null","25","","","","","","","","","","","","","","","",""
"","ITI","","html-keyboard-response","183","1057540","0.0-1.0-234.0","0","0","66133","","null","","","null","25","","","","","","","","","","","","","","","NaN",""
"","S1","","html-keyboard-response","184","1057794","0.0-1.0-236.0","0","0","66133","","null","","","null","26","","","","","","","","","","","","","","","",""
"","ISI","","html-keyboard-response","185","1059797","0.0-1.0-237.0","0","0","66133","","null","","","null","26","NaN","","","","","","","","","","","","","","",""
"","S2","","html-keyboard-response","186","1060051","0.0-1.0-238.0","0","0","66133","","null","","","null","26","","NaN","","","","","","","","","","","","","",""
"","response","","html-keyboard-response","187","1060409","0.0-1.0-239.0-0.0","0","0","66133","","355","","","68","26","","","1","26","training","adjacent","GF","7","6","Q.jpg","N.jpg","0","0","1","",""
"","feedback","","html-keyboard-response","188","1061412","0.0-1.0-240.0-0.0","0","0","66133","","null","","","null","26","","","","","","","","","","","","","","","",""
"","ITI","","html-keyboard-response","189","1062415","0.0-1.0-243.0","0","0","66133","","null","","","null","26","","","","","","","","","","","","","","","NaN",""
"","S1","","html-keyboard-response","190","1062670","0.0-1.0-245.0","0","0","66133","","null","","","null","27","","","","","","","","","","","","","","","",""
"","ISI","","html-keyboard-response","191","1064674","0.0-1.0-246.0","0","0","66133","","null","","","null","27","NaN","","","","","","","","","","","","","","",""
"","S2","","html-keyboard-response","192","1064928","0.0-1.0-247.0","0","0","66133","","null","","","null","27","","NaN","","","","","","","","","","","","","",""
"","response","","html-keyboard-response","193","1065234","0.0-1.0-248.0-0.0","0","0","66133","","301","","","68","27","","","1","27","training","adjacent","EF","5","6","R.jpg","N.jpg","0","1","0","",""
"","feedback","","html-keyboard-response","194","1066239","0.0-1.0-249.0-0.0","0","0","66133","","null","","","null","27","","","","","","","","","","","","","","","",""
"","time_out","","html-keyboard-response","195","1068242","0.0-1.0-251.0-0.0","0","0","66133","","null","","","null","27","","","","","","","","","","","","","","","",""
"","ITI","","html-keyboard-response","196","1069247","0.0-1.0-252.0","0","0","66133","","null","","","null","27","","","","","","","","","","","","","","","NaN",""
"","S1","","html-keyboard-response","197","1069501","0.0-1.0-254.0","0","0","66133","","null","","","null","28","","","","","","","","","","","","","","","",""
"","ISI","","html-keyboard-response","198","1071504","0.0-1.0-255.0","0","0","66133","","null","","","null","28","NaN","","","","","","","","","","","","","","",""
"","S2","","html-keyboard-response","199","1071758","0.0-1.0-256.0","0","0","66133","","null","","","null","28","","NaN","","","","","","","","","","","","","",""
"","response","","html-keyboard-response","200","1072233","0.0-1.0-257.0-0.0","0","0","66133","","473","","","75","28","","","1","28","training","adjacent","AB","1","2","O.jpg","M.jpg","1","1","1","",""
"","feedback","","html-keyboard-response","201","1073237","0.0-1.0-258.0-0.0","0","0","66133","","null","","","null","28","","","","","","","","","","","","","","","",""
"","ITI","","html-keyboard-response","202","1074243","0.0-1.0-261.0","0","0","66133","","null","","","null","28","","","","","","","","","","","","","","","NaN",""
"","S1","","html-keyboard-response","203","1074497","0.0-1.0-263.0","0","0","66133","","null","","","null","29","","","","","","","","","","","","","","","",""
"","ISI","","html-keyboard-response","204","1076499","0.0-1.0-264.0","0","0","66133","","null","","","null","29","NaN","","","","","","","","","","","","","","",""
"","S2","","html-keyboard-response","205","1076753","0.0-1.0-265.0","0","0","66133","","null","","","null","29","","NaN","","","","","","","","","","","","","",""
"","response","","html-keyboard-response","206","1077089","0.0-1.0-266.0-0.0","0","0","66133","","333","","","68","29","","","1","29","training","adjacent","GF","7","6","Q.jpg","N.jpg","0","0","1","",""
"","feedback","","html-keyboard-response","207","1078095","0.0-1.0-267.0-0.0","0","0","66133","","null","","","null","29","","","","","","","","","","","","","","","",""
"","ITI","","html-keyboard-response","208","1079101","0.0-1.0-270.0","0","0","66133","","null","","","null","29","","","","","","","","","","","","","","","NaN",""
"","S1","","html-keyboard-response","209","1079357","0.0-1.0-272.0","0","0","66133","","null","","","null","30","","","","","","","","","","","","","","","",""
"","ISI","","html-keyboard-response","210","1081361","0.0-1.0-273.0","0","0","66133","","null","","","null","30","NaN","","","","","","","","","","","","","","",""
"","S2","","html-keyboard-response","211","1081615","0.0-1.0-274.0","0","0","66133","","null","","","null","30","","NaN","","","","","","","","","","","","","",""
"","response","","html-keyboard-response","212","1081976","0.0-1.0-275.0-0.0","0","0","66133","","358","","","75","30","","","1","30","training","adjacent","FE","6","5","N.jpg","R.jpg","1","0","0","",""
"","feedback","","html-keyboard-response","213","1082979","0.0-1.0-276.0-0.0","0","0","66133","","null","","","null","30","","","","","","","","","","","","","","","",""
"","time_out","","html-keyboard-response","214","1084983","0.0-1.0-278.0-0.0","0","0","66133","","null","","","null","30","","","","","","","","","","","","","","","",""
"","ITI","","html-keyboard-response","215","1085987","0.0-1.0-279.0","0","0","66133","","null","","","null","30","","","","","","","","","","","","","","","NaN",""
"","S1","","html-keyboard-response","216","1086242","0.0-1.0-281.0","0","0","66133","","null","","","null","31","","","","","","","","","","","","","","","",""
"","ISI","","html-keyboard-response","217","1088245","0.0-1.0-282.0","0","0","66133","","null","","","null","31","NaN","","","","","","","","","","","","","","",""
"","S2","","html-keyboard-response","218","1088499","0.0-1.0-283.0","0","0","66133","","null","","","null","31","","NaN","","","","","","","","","","","","","",""
"","response","","html-keyboard-response","219","1088773","0.0-1.0-284.0-0.0","0","0","66133","","270","","","75","31","","","1","31","training","adjacent","DC","4","3","P.jpg","L.jpg","1","0","0","",""
"","feedback","","html-keyboard-response","220","1089778","0.0-1.0-285.0-0.0","0","0","66133","","null","","","null","31","","","","","","","","","","","","","","","",""
"","time_out","","html-keyboard-response","221","1091782","0.0-1.0-287.0-0.0","0","0","66133","","null","","","null","31","","","","","","","","","","","","","","","",""
"","ITI","","html-keyboard-response","222","1092786","0.0-1.0-288.0","0","0","66133","","null","","","null","31","","","","","","","","","","","","","","","NaN",""
"","S1","","html-keyboard-response","223","1093040","0.0-1.0-290.0","0","0","66133","","null","","","null","32","","","","","","","","","","","","","","","",""
"","ISI","","html-keyboard-response","224","1095045","0.0-1.0-291.0","0","0","66133","","null","","","null","32","NaN","","","","","","","","","","","","","","",""
"","S2","","html-keyboard-response","225","1095300","0.0-1.0-292.0","0","0","66133","","null","","","null","32","","NaN","","","","","","","","","","","","","",""
"","response","","html-keyboard-response","226","1095520","0.0-1.0-293.0-0.0","0","0","66133","","217","","","68","32","","","1","32","training","adjacent","ED","5","4","R.jpg","P.jpg","0","0","1","",""
"","feedback","","html-keyboard-response","227","1096525","0.0-1.0-294.0-0.0","0","0","66133","","null","","","null","32","","","","","","","","","","","","","","","",""
"","ITI","","html-keyboard-response","228","1097535","0.0-1.0-297.0","0","0","66133","","null","","","null","32","","","","","","","","","","","","","","","NaN",""
"","S1","","html-keyboard-response","229","1097789","0.0-1.0-299.0","0","0","66133","","null","","","null","33","","","","","","","","","","","","","","","",""
"","ISI","","html-keyboard-response","230","1099793","0.0-1.0-300.0","0","0","66133","","null","","","null","33","NaN","","","","","","","","","","","","","","",""
"","S2","","html-keyboard-response","231","1100047","0.0-1.0-301.0","0","0","66133","","null","","","null","33","","NaN","","","","","","","","","","","","","",""
"","response","","html-keyboard-response","232","1100930","0.0-1.0-302.0-0.0","0","0","66133","","881","","","75","33","","","1","33","training","adjacent","DC","4","3","P.jpg","L.jpg","1","0","0","",""
"","feedback","","html-keyboard-response","233","1101933","0.0-1.0-303.0-0.0","0","0","66133","","null","","","null","33","","","","","","","","","","","","","","","",""
"","time_out","","html-keyboard-response","234","1103936","0.0-1.0-305.0-0.0","0","0","66133","","null","","","null","33","","","","","","","","","","","","","","","",""
"","ITI","","html-keyboard-response","235","1104940","0.0-1.0-306.0","0","0","66133","","null","","","null","33","","","","","","","","","","","","","","","NaN",""
"","S1","","html-keyboard-response","236","1105199","0.0-1.0-308.0","0","0","66133","","null","","","null","34","","","","","","","","","","","","","","","",""
"","ISI","","html-keyboard-response","237","1107203","0.0-1.0-309.0","0","0","66133","","null","","","null","34","NaN","","","","","","","","","","","","","","",""
"","S2","","html-keyboard-response","238","1107457","0.0-1.0-310.0","0","0","66133","","null","","","null","34","","NaN","","","","","","","","","","","","","",""
"","response","","html-keyboard-response","239","1108147","0.0-1.0-311.0-0.0","0","0","66133","","686","","","68","34","","","1","34","training","adjacent","FG","6","7","N.jpg","Q.jpg","0","1","0","",""
"","feedback","","html-keyboard-response","240","1109152","0.0-1.0-312.0-0.0","0","0","66133","","null","","","null","34","","","","","","","","","","","","","","","",""
"","time_out","","html-keyboard-response","241","1111156","0.0-1.0-314.0-0.0","0","0","66133","","null","","","null","34","","","","","","","","","","","","","","","",""
"","ITI","","html-keyboard-response","242","1112160","0.0-1.0-315.0","0","0","66133","","null","","","null","34","","","","","","","","","","","","","","","NaN",""
"","S1","","html-keyboard-response","243","1112415","0.0-1.0-317.0","0","0","66133","","null","","","null","35","","","","","","","","","","","","","","","",""
"","ISI","","html-keyboard-response","244","1114419","0.0-1.0-318.0","0","0","66133","","null","","","null","35","NaN","","","","","","","","","","","","","","",""
"","S2","","html-keyboard-response","245","1114673","0.0-1.0-319.0","0","0","66133","","null","","","null","35","","NaN","","","","","","","","","","","","","",""
"","response","","html-keyboard-response","246","1114885","0.0-1.0-320.0-0.0","0","0","66133","","209","","","75","35","","","1","35","training","adjacent","DC","4","3","P.jpg","L.jpg","1","0","0","",""
"","feedback","","html-keyboard-response","247","1115890","0.0-1.0-321.0-0.0","0","0","66133","","null","","","null","35","","","","","","","","","","","","","","","",""
"","time_out","","html-keyboard-response","248","1117894","0.0-1.0-323.0-0.0","0","0","66133","","null","","","null","35","","","","","","","","","","","","","","","",""
"","ITI","","html-keyboard-response","249","1118897","0.0-1.0-324.0","0","0","66133","","null","","","null","35","","","","","","","","","","","","","","","NaN",""
"","S1","","html-keyboard-response","250","1119151","0.0-1.0-326.0","0","0","66133","","null","","","null","36","","","","","","","","","","","","","","","",""
"","ISI","","html-keyboard-response","251","1121153","0.0-1.0-327.0","0","0","66133","","null","","","null","36","NaN","","","","","","","","","","","","","","",""
"","S2","","html-keyboard-response","252","1121407","0.0-1.0-328.0","0","0","66133","","null","","","null","36","","NaN","","","","","","","","","","","","","",""
"","response","","html-keyboard-response","253","1121761","0.0-1.0-329.0-0.0","0","0","66133","","350","","","75","36","","","1","36","training","adjacent","CD","3","4","L.jpg","P.jpg","1","1","1","",""
"","feedback","","html-keyboard-response","254","1122766","0.0-1.0-330.0-0.0","0","0","66133","","null","","","null","36","","","","","","","","","","","","","","","",""
"","ITI","","html-keyboard-response","255","1123771","0.0-1.0-333.0","0","0","66133","","null","","","null","36","","","","","","","","","","","","","","","NaN",""
"","S1","","html-keyboard-response","256","1124026","0.0-1.0-335.0","0","0","66133","","null","","","null","37","","","","","","","","","","","","","","","",""
"","ISI","","html-keyboard-response","257","1126028","0.0-1.0-336.0","0","0","66133","","null","","","null","37","NaN","","","","","","","","","","","","","","",""
"","S2","","html-keyboard-response","258","1126283","0.0-1.0-337.0","0","0","66133","","null","","","null","37","","NaN","","","","","","","","","","","","","",""
"","response","","html-keyboard-response","259","1126821","0.0-1.0-338.0-0.0","0","0","66133","","536","","","68","37","","","1","37","training","adjacent","BC","2","3","M.jpg","L.jpg","0","1","0","",""
"","feedback","","html-keyboard-response","260","1127830","0.0-1.0-339.0-0.0","0","0","66133","","null","","","null","37","","","","","","","","","","","","","","","",""
"","time_out","","html-keyboard-response","261","1129835","0.0-1.0-341.0-0.0","0","0","66133","","null","","","null","37","","","","","","","","","","","","","","","",""
"","ITI","","html-keyboard-response","262","1130840","0.0-1.0-342.0","0","0","66133","","null","","","null","37","","","","","","","","","","","","","","","NaN",""
"","S1","","html-keyboard-response","263","1131094","0.0-1.0-344.0","0","0","66133","","null","","","null","38","","","","","","","","","","","","","","","",""
"","ISI","","html-keyboard-response","264","1133098","0.0-1.0-345.0","0","0","66133","","null","","","null","38","NaN","","","","","","","","","","","","","","",""
"","S2","","html-keyboard-response","265","1133353","0.0-1.0-346.0","0","0","66133","","null","","","null","38","","NaN","","","","","","","","","","","","","",""
"","response","","html-keyboard-response","266","1133597","0.0-1.0-347.0-0.0","0","0","66133","","243","","","75","38","","","1","38","training","adjacent","FG","6","7","N.jpg","Q.jpg","1","1","1","",""
"","feedback","","html-keyboard-response","267","1134599","0.0-1.0-348.0-0.0","0","0","66133","","null","","","null","38","","","","","","","","","","","","","","","",""
"","ITI","","html-keyboard-response","268","1135602","0.0-1.0-351.0","0","0","66133","","null","","","null","38","","","","","","","","","","","","","","","NaN",""
"","S1","","html-keyboard-response","269","1135855","0.0-1.0-353.0","0","0","66133","","null","","","null","39","","","","","","","","","","","","","","","",""
"","ISI","","html-keyboard-response","270","1137859","0.0-1.0-354.0","0","0","66133","","null","","","null","39","NaN","","","","","","","","","","","","","","",""
"","S2","","html-keyboard-response","271","1138114","0.0-1.0-355.0","0","0","66133","","null","","","null","39","","NaN","","","","","","","","","","","","","",""
"","response","","html-keyboard-response","272","1139124","0.0-1.0-356.0-0.0","0","0","66133","","1006","","","68","39","","","1","39","training","adjacent","DE","4","5","P.jpg","R.jpg","0","1","0","",""
"","feedback","","html-keyboard-response","273","1140129","0.0-1.0-357.0-0.0","0","0","66133","","null","","","null","39","","","","","","","","","","","","","","","",""
"","time_out","","html-keyboard-response","274","1142133","0.0-1.0-359.0-0.0","0","0","66133","","null","","","null","39","","","","","","","","","","","","","","","",""
"","ITI","","html-keyboard-response","275","1143137","0.0-1.0-360.0","0","0","66133","","null","","","null","39","","","","","","","","","","","","","","","NaN",""
"","S1","","html-keyboard-response","276","1143392","0.0-1.0-362.0","0","0","66133","","null","","","null","40","","","","","","","","","","","","","","","",""
"","ISI","","html-keyboard-response","277","1145397","0.0-1.0-363.0","0","0","66133","","null","","","null","40","NaN","","","","","","","","","","","","","","",""
"","S2","","html-keyboard-response","278","1145651","0.0-1.0-364.0","0","0","66133","","null","","","null","40","","NaN","","","","","","","","","","","","","",""
"","response","","html-keyboard-response","279","1146375","0.0-1.0-365.0-0.0","0","0","66133","","722","","","75","40","","","1","40","training","adjacent","BC","2","3","M.jpg","L.jpg","1","1","1","",""
"","feedback","","html-keyboard-response","280","1147379","0.0-1.0-366.0-0.0","0","0","66133","","null","","","null","40","","","","","","","","","","","","","","","",""
"","ITI","","html-keyboard-response","281","1148383","0.0-1.0-369.0","0","0","66133","","null","","","null","40","","","","","","","","","","","","","","","NaN",""
"","S1","","html-keyboard-response","282","1148638","0.0-1.0-371.0","0","0","66133","","null","","","null","41","","","","","","","","","","","","","","","",""
"","ISI","","html-keyboard-response","283","1150643","0.0-1.0-372.0","0","0","66133","","null","","","null","41","NaN","","","","","","","","","","","","","","",""
"","S2","","html-keyboard-response","284","1150898","0.0-1.0-373.0","0","0","66133","","null","","","null","41","","NaN","","","","","","","","","","","","","",""
"","response","","html-keyboard-response","285","1151659","0.0-1.0-374.0-0.0","0","0","66133","","757","","","75","41","","","1","41","training","adjacent","EF","5","6","R.jpg","N.jpg","1","1","1","",""
"","feedback","","html-keyboard-response","286","1152663","0.0-1.0-375.0-0.0","0","0","66133","","null","","","null","41","","","","","","","","","","","","","","","",""
"","ITI","","html-keyboard-response","287","1153667","0.0-1.0-378.0","0","0","66133","","null","","","null","41","","","","","","","","","","","","","","","NaN",""
"","S1","","html-keyboard-response","288","1153922","0.0-1.0-380.0","0","0","66133","","null","","","null","42","","","","","","","","","","","","","","","",""
"","ISI","","html-keyboard-response","289","1155924","0.0-1.0-381.0","0","0","66133","","null","","","null","42","NaN","","","","","","","","","","","","","","",""
"","S2","","html-keyboard-response","290","1156177","0.0-1.0-382.0","0","0","66133","","null","","","null","42","","NaN","","","","","","","","","","","","","",""
"","response","","html-keyboard-response","291","1156509","0.0-1.0-383.0-0.0","0","0","66133","","329","","","75","42","","","1","42","training","adjacent","CD","3","4","L.jpg","P.jpg","1","1","1","",""
"","feedback","","html-keyboard-response","292","1157515","0.0-1.0-384.0-0.0","0","0","66133","","null","","","null","42","","","","","","","","","","","","","","","",""
"","ITI","","html-keyboard-response","293","1158520","0.0-1.0-387.0","0","0","66133","","null","","","null","42","","","","","","","","","","","","","","","NaN",""
"","S1","","html-keyboard-response","294","1158772","0.0-1.0-389.0","0","0","66133","","null","","","null","43","","","","","","","","","","","","","","","",""
"","ISI","","html-keyboard-response","295","1160776","0.0-1.0-390.0","0","0","66133","","null","","","null","43","NaN","","","","","","","","","","","","","","",""
"","S2","","html-keyboard-response","296","1161030","0.0-1.0-391.0","0","0","66133","","null","","","null","43","","NaN","","","","","","","","","","","","","",""
"","response","","html-keyboard-response","297","1161826","0.0-1.0-392.0-0.0","0","0","66133","","793","","","68","43","","","1","43","training","adjacent","BA","2","1","M.jpg","O.jpg","0","0","1","",""
"","feedback","","html-keyboard-response","298","1162844","0.0-1.0-393.0-0.0","0","0","66133","","null","","","null","43","","","","","","","","","","","","","","","",""
"","ITI","","html-keyboard-response","299","1163849","0.0-1.0-396.0","0","0","66133","","null","","","null","43","","","","","","","","","","","","","","","NaN",""
"","S1","","html-keyboard-response","300","1164105","0.0-1.0-398.0","0","0","66133","","null","","","null","44","","","","","","","","","","","","","","","",""
"","ISI","","html-keyboard-response","301","1166109","0.0-1.0-399.0","0","0","66133","","null","","","null","44","NaN","","","","","","","","","","","","","","",""
"","S2","","html-keyboard-response","302","1166365","0.0-1.0-400.0","0","0","66133","","null","","","null","44","","NaN","","","","","","","","","","","","","",""
"","response","","html-keyboard-response","303","1166664","0.0-1.0-401.0-0.0","0","0","66133","","296","","","75","44","","","1","44","training","adjacent","BC","2","3","M.jpg","L.jpg","1","1","1","",""
"","feedback","","html-keyboard-response","304","1167669","0.0-1.0-402.0-0.0","0","0","66133","","null","","","null","44","","","","","","","","","","","","","","","",""
"","ITI","","html-keyboard-response","305","1168674","0.0-1.0-405.0","0","0","66133","","null","","","null","44","","","","","","","","","","","","","","","NaN",""
"","S1","","html-keyboard-response","306","1168928","0.0-1.0-407.0","0","0","66133","","null","","","null","45","","","","","","","","","","","","","","","",""
"","ISI","","html-keyboard-response","307","1170931","0.0-1.0-408.0","0","0","66133","","null","","","null","45","NaN","","","","","","","","","","","","","","",""
"","S2","","html-keyboard-response","308","1171185","0.0-1.0-409.0","0","0","66133","","null","","","null","45","","NaN","","","","","","","","","","","","","",""
"","response","","html-keyboard-response","309","1171579","0.0-1.0-410.0-0.0","0","0","66133","","391","","","75","45","","","1","45","training","adjacent","AB","1","2","O.jpg","M.jpg","1","1","1","",""
"","feedback","","html-keyboard-response","310","1172586","0.0-1.0-411.0-0.0","0","0","66133","","null","","","null","45","","","","","","","","","","","","","","","",""
"","ITI","","html-keyboard-response","311","1173591","0.0-1.0-414.0","0","0","66133","","null","","","null","45","","","","","","","","","","","","","","","NaN",""
"","S1","","html-keyboard-response","312","1173845","0.0-1.0-416.0","0","0","66133","","null","","","null","46","","","","","","","","","","","","","","","",""
"","ISI","","html-keyboard-response","313","1175850","0.0-1.0-417.0","0","0","66133","","null","","","null","46","NaN","","","","","","","","","","","","","","",""
"","S2","","html-keyboard-response","314","1176105","0.0-1.0-418.0","0","0","66133","","null","","","null","46","","NaN","","","","","","","","","","","","","",""
"","response","","html-keyboard-response","315","1176496","0.0-1.0-419.0-0.0","0","0","66133","","387","","","75","46","","","1","46","training","adjacent","AB","1","2","O.jpg","M.jpg","1","1","1","",""
"","feedback","","html-keyboard-response","316","1177500","0.0-1.0-420.0-0.0","0","0","66133","","null","","","null","46","","","","","","","","","","","","","","","",""
"","ITI","","html-keyboard-response","317","1178507","0.0-1.0-423.0","0","0","66133","","null","","","null","46","","","","","","","","","","","","","","","NaN",""
"","S1","","html-keyboard-response","318","1178762","0.0-1.0-425.0","0","0","66133","","null","","","null","47","","","","","","","","","","","","","","","",""
"","ISI","","html-keyboard-response","319","1180765","0.0-1.0-426.0","0","0","66133","","null","","","null","47","NaN","","","","","","","","","","","","","","",""
"","S2","","html-keyboard-response","320","1181020","0.0-1.0-427.0","0","0","66133","","null","","","null","47","","NaN","","","","","","","","","","","","","",""
"","response","","html-keyboard-response","321","1181910","0.0-1.0-428.0-0.0","0","0","66133","","886","","","75","47","","","1","47","training","adjacent","DC","4","3","P.jpg","L.jpg","1","0","0","",""
"","feedback","","html-keyboard-response","322","1182915","0.0-1.0-429.0-0.0","0","0","66133","","null","","","null","47","","","","","","","","","","","","","","","",""
"","time_out","","html-keyboard-response","323","1184920","0.0-1.0-431.0-0.0","0","0","66133","","null","","","null","47","","","","","","","","","","","","","","","",""
"","ITI","","html-keyboard-response","324","1185924","0.0-1.0-432.0","0","0","66133","","null","","","null","47","","","","","","","","","","","","","","","NaN",""
"","block_over","","html-keyboard-response","325","1190874","0.0-1.0-433.0-0.0","0","0","66133","","4945","","","32","47","","","","","","","","","","","","","","","",""
"","S1","","html-keyboard-response","326","1191140","0.0-1.0-434.0","0","0","66133","","null","","","null","48","","","","","","","","","","","","","","","",""
"","ISI","","html-keyboard-response","327","1193144","0.0-1.0-435.0","0","0","66133","","null","","","null","48","NaN","","","","","","","","","","","","","","",""
"","S2","","html-keyboard-response","328","1193397","0.0-1.0-436.0","0","0","66133","","null","","","null","48","","NaN","","","","","","","","","","","","","",""
"","response","","html-keyboard-response","329","1193876","0.0-1.0-437.0-0.0","0","0","66133","","478","","","75","48","","","2","48","training","adjacent","AB","1","2","O.jpg","M.jpg","1","1","1","",""
"","feedback","","html-keyboard-response","330","1194881","0.0-1.0-438.0-0.0","0","0","66133","","null","","","null","48","","","","","","","","","","","","","","","",""
"","ITI","","html-keyboard-response","331","1195885","0.0-1.0-441.0","0","0","66133","","null","","","null","48","","","","","","","","","","","","","","","NaN",""
"","S1","","html-keyboard-response","332","1196140","0.0-1.0-443.0","0","0","66133","","null","","","null","49","","","","","","","","","","","","","","","",""
"","ISI","","html-keyboard-response","333","1198145","0.0-1.0-444.0","0","0","66133","","null","","","null","49","NaN","","","","","","","","","","","","","","",""
"","S2","","html-keyboard-response","334","1198400","0.0-1.0-445.0","0","0","66133","","null","","","null","49","","NaN","","","","","","","","","","","","","",""
"","response","","html-keyboard-response","335","1198679","0.0-1.0-446.0-0.0","0","0","66133","","277","","","75","49","","","2","49","training","adjacent","AB","1","2","O.jpg","M.jpg","1","1","1","",""
"","feedback","","html-keyboard-response","336","1199682","0.0-1.0-447.0-0.0","0","0","66133","","null","","","null","49","","","","","","","","","","","","","","","",""
"","ITI","","html-keyboard-response","337","1200686","0.0-1.0-450.0","0","0","66133","","null","","","null","49","","","","","","","","","","","","","","","NaN",""
"","S1","","html-keyboard-response","338","1200939","0.0-1.0-452.0","0","0","66133","","null","","","null","50","","","","","","","","","","","","","","","",""
"","ISI","","html-keyboard-response","339","1202941","0.0-1.0-453.0","0","0","66133","","null","","","null","50","NaN","","","","","","","","","","","","","","",""
"","S2","","html-keyboard-response","340","1203195","0.0-1.0-454.0","0","0","66133","","null","","","null","50","","NaN","","","","","","","","","","","","","",""
"","response","","html-keyboard-response","341","1203598","0.0-1.0-455.0-0.0","0","0","66133","","400","","","68","50","","","2","50","training","adjacent","CD","3","4","L.jpg","P.jpg","0","1","0","",""
"","feedback","","html-keyboard-response","342","1204601","0.0-1.0-456.0-0.0","0","0","66133","","null","","","null","50","","","","","","","","","","","","","","","",""
"","time_out","","html-keyboard-response","343","1206605","0.0-1.0-458.0-0.0","0","0","66133","","null","","","null","50","","","","","","","","","","","","","","","",""
"","ITI","","html-keyboard-response","344","1207608","0.0-1.0-459.0","0","0","66133","","null","","","null","50","","","","","","","","","","","","","","","NaN",""
"","S1","","html-keyboard-response","345","1207861","0.0-1.0-461.0","0","0","66133","","null","","","null","51","","","","","","","","","","","","","","","",""
"","ISI","","html-keyboard-response","346","1209865","0.0-1.0-462.0","0","0","66133","","null","","","null","51","NaN","","","","","","","","","","","","","","",""
"","S2","","html-keyboard-response","347","1210120","0.0-1.0-463.0","0","0","66133","","null","","","null","51","","NaN","","","","","","","","","","","","","",""
"","response","","html-keyboard-response","348","1210426","0.0-1.0-464.0-0.0","0","0","66133","","303","","","68","51","","","2","51","training","adjacent","BA","2","1","M.jpg","O.jpg","0","0","1","",""
"","feedback","","html-keyboard-response","349","1211431","0.0-1.0-465.0-0.0","0","0","66133","","null","","","null","51","","","","","","","","","","","","","","","",""
"","ITI","","html-keyboard-response","350","1212436","0.0-1.0-468.0","0","0","66133","","null","","","null","51","","","","","","","","","","","","","","","NaN",""
"","S1","","html-keyboard-response","351","1212690","0.0-1.0-470.0","0","0","66133","","null","","","null","52","","","","","","","","","","","","","","","",""
"","ISI","","html-keyboard-response","352","1214692","0.0-1.0-471.0","0","0","66133","","null","","","null","52","NaN","","","","","","","","","","","","","","",""
"","S2","","html-keyboard-response","353","1214945","0.0-1.0-472.0","0","0","66133","","null","","","null","52","","NaN","","","","","","","","","","","","","",""
"","response","","html-keyboard-response","354","1215799","0.0-1.0-473.0-0.0","0","0","66133","","853","","","68","52","","","2","52","training","adjacent","ED","5","4","R.jpg","P.jpg","0","0","1","",""
"","feedback","","html-keyboard-response","355","1216804","0.0-1.0-474.0-0.0","0","0","66133","","null","","","null","52","","","","","","","","","","","","","","","",""
"","ITI","","html-keyboard-response","356","1217809","0.0-1.0-477.0","0","0","66133","","null","","","null","52","","","","","","","","","","","","","","","NaN",""
"","S1","","html-keyboard-response","357","1218078","0.0-1.0-479.0","0","0","66133","","null","","","null","53","","","","","","","","","","","","","","","",""
"","ISI","","html-keyboard-response","358","1220084","0.0-1.0-480.0","0","0","66133","","null","","","null","53","NaN","","","","","","","","","","","","","","",""
"","S2","","html-keyboard-response","359","1220339","0.0-1.0-481.0","0","0","66133","","null","","","null","53","","NaN","","","","","","","","","","","","","",""
"","response","","html-keyboard-response","360","1220611","0.0-1.0-482.0-0.0","0","0","66133","","269","","","75","53","","","2","53","training","adjacent","CD","3","4","L.jpg","P.jpg","1","1","1","",""
"","feedback","","html-keyboard-response","361","1221615","0.0-1.0-483.0-0.0","0","0","66133","","null","","","null","53","","","","","","","","","","","","","","","",""
"","ITI","","html-keyboard-response","362","1222619","0.0-1.0-486.0","0","0","66133","","null","","","null","53","","","","","","","","","","","","","","","NaN",""
"","S1","","html-keyboard-response","363","1222875","0.0-1.0-488.0","0","0","66133","","null","","","null","54","","","","","","","","","","","","","","","",""
"","ISI","","html-keyboard-response","364","1224879","0.0-1.0-489.0","0","0","66133","","null","","","null","54","NaN","","","","","","","","","","","","","","",""
"","S2","","html-keyboard-response","365","1225137","0.0-1.0-490.0","0","0","66133","","null","","","null","54","","NaN","","","","","","","","","","","","","",""
"","response","","html-keyboard-response","366","1225481","0.0-1.0-491.0-0.0","0","0","66133","","340","","","68","54","","","2","54","training","adjacent","BA","2","1","M.jpg","O.jpg","0","0","1","",""
"","feedback","","html-keyboard-response","367","1226487","0.0-1.0-492.0-0.0","0","0","66133","","null","","","null","54","","","","","","","","","","","","","","","",""
"","ITI","","html-keyboard-response","368","1227492","0.0-1.0-495.0","0","0","66133","","null","","","null","54","","","","","","","","","","","","","","","NaN",""
"","S1","","html-keyboard-response","369","1227746","0.0-1.0-497.0","0","0","66133","","null","","","null","55","","","","","","","","","","","","","","","",""
"","ISI","","html-keyboard-response","370","1229750","0.0-1.0-498.0","0","0","66133","","null","","","null","55","NaN","","","","","","","","","","","","","","",""
"","S2","","html-keyboard-response","371","1230014","0.0-1.0-499.0","0","0","66133","","null","","","null","55","","NaN","","","","","","","","","","","","","",""
"","response","","html-keyboard-response","372","1230286","0.0-1.0-500.0-0.0","0","0","66133","","268","","","75","55","","","2","55","training","adjacent","FG","6","7","N.jpg","Q.jpg","1","1","1","",""
"","feedback","","html-keyboard-response","373","1231292","0.0-1.0-501.0-0.0","0","0","66133","","null","","","null","55","","","","","","","","","","","","","","","",""
"","ITI","","html-keyboard-response","374","1232297","0.0-1.0-504.0","0","0","66133","","null","","","null","55","","","","","","","","","","","","","","","NaN",""
"","S1","","html-keyboard-response","375","1232553","0.0-1.0-506.0","0","0","66133","","null","","","null","56","","","","","","","","","","","","","","","",""
"","ISI","","html-keyboard-response","376","1234557","0.0-1.0-507.0","0","0","66133","","null","","","null","56","NaN","","","","","","","","","","","","","","",""
"","S2","","html-keyboard-response","377","1234812","0.0-1.0-508.0","0","0","66133","","null","","","null","56","","NaN","","","","","","","","","","","","","",""
"","response","","html-keyboard-response","378","1235375","0.0-1.0-509.0-0.0","0","0","66133","","560","","","68","56","","","2","56","training","adjacent","BC","2","3","M.jpg","L.jpg","0","1","0","",""
"","feedback","","html-keyboard-response","379","1236394","0.0-1.0-510.0-0.0","0","0","66133","","null","","","null","56","","","","","","","","","","","","","","","",""
"","time_out","","html-keyboard-response","380","1238399","0.0-1.0-512.0-0.0","0","0","66133","","null","","","null","56","","","","","","","","","","","","","","","",""
"","ITI","","html-keyboard-response","381","1239403","0.0-1.0-513.0","0","0","66133","","null","","","null","56","","","","","","","","","","","","","","","NaN",""
"","S1","","html-keyboard-response","382","1239657","0.0-1.0-515.0","0","0","66133","","null","","","null","57","","","","","","","","","","","","","","","",""
"","ISI","","html-keyboard-response","383","1241661","0.0-1.0-516.0","0","0","66133","","null","","","null","57","NaN","","","","","","","","","","","","","","",""
"","S2","","html-keyboard-response","384","1241917","0.0-1.0-517.0","0","0","66133","","null","","","null","57","","NaN","","","","","","","","","","","","","",""
"","response","","html-keyboard-response","385","1242280","0.0-1.0-518.0-0.0","0","0","66133","","360","","","68","57","","","2","57","training","adjacent","ED","5","4","R.jpg","P.jpg","0","0","1","",""
"","feedback","","html-keyboard-response","386","1243285","0.0-1.0-519.0-0.0","0","0","66133","","null","","","null","57","","","","","","","","","","","","","","","",""
"","ITI","","html-keyboard-response","387","1244289","0.0-1.0-522.0","0","0","66133","","null","","","null","57","","","","","","","","","","","","","","","NaN",""
"","S1","","html-keyboard-response","388","1244553","0.0-1.0-524.0","0","0","66133","","null","","","null","58","","","","","","","","","","","","","","","",""
"","ISI","","html-keyboard-response","389","1246557","0.0-1.0-525.0","0","0","66133","","null","","","null","58","NaN","","","","","","","","","","","","","","",""
"","S2","","html-keyboard-response","390","1246810","0.0-1.0-526.0","0","0","66133","","null","","","null","58","","NaN","","","","","","","","","","","","","",""
"","response","","html-keyboard-response","391","1247260","0.0-1.0-527.0-0.0","0","0","66133","","446","","","68","58","","","2","58","training","adjacent","ED","5","4","R.jpg","P.jpg","0","0","1","",""
"","feedback","","html-keyboard-response","392","1248263","0.0-1.0-528.0-0.0","0","0","66133","","null","","","null","58","","","","","","","","","","","","","","","",""
"","ITI","","html-keyboard-response","393","1249272","0.0-1.0-531.0","0","0","66133","","null","","","null","58","","","","","","","","","","","","","","","NaN",""
"","S1","","html-keyboard-response","394","1249527","0.0-1.0-533.0","0","0","66133","","null","","","null","59","","","","","","","","","","","","","","","",""
"","ISI","","html-keyboard-response","395","1251531","0.0-1.0-534.0","0","0","66133","","null","","","null","59","NaN","","","","","","","","","","","","","","",""
"","S2","","html-keyboard-response","396","1251786","0.0-1.0-535.0","0","0","66133","","null","","","null","59","","NaN","","","","","","","","","","","","","",""
"","response","","html-keyboard-response","397","1252129","0.0-1.0-536.0-0.0","0","0","66133","","339","","","75","59","","","2","59","training","adjacent","FE","6","5","N.jpg","R.jpg","1","0","0","",""
"","feedback","","html-keyboard-response","398","1253134","0.0-1.0-537.0-0.0","0","0","66133","","null","","","null","59","","","","","","","","","","","","","","","",""
"","time_out","","html-keyboard-response","399","1255138","0.0-1.0-539.0-0.0","0","0","66133","","null","","","null","59","","","","","","","","","","","","","","","",""
"","ITI","","html-keyboard-response","400","1256145","0.0-1.0-540.0","0","0","66133","","null","","","null","59","","","","","","","","","","","","","","","NaN",""
"","S1","","html-keyboard-response","401","1256400","0.0-1.0-542.0","0","0","66133","","null","","","null","60","","","","","","","","","","","","","","","",""
"","ISI","","html-keyboard-response","402","1258403","0.0-1.0-543.0","0","0","66133","","null","","","null","60","NaN","","","","","","","","","","","","","","",""
"","S2","","html-keyboard-response","403","1258659","0.0-1.0-544.0","0","0","66133","","null","","","null","60","","NaN","","","","","","","","","","","","","",""
"","response","","html-keyboard-response","404","1259086","0.0-1.0-545.0-0.0","0","0","66133","","425","","","75","60","","","2","60","training","adjacent","FG","6","7","N.jpg","Q.jpg","1","1","1","",""
"","feedback","","html-keyboard-response","405","1260092","0.0-1.0-546.0-0.0","0","0","66133","","null","","","null","60","","","","","","","","","","","","","","","",""
"","ITI","","html-keyboard-response","406","1261096","0.0-1.0-549.0","0","0","66133","","null","","","null","60","","","","","","","","","","","","","","","NaN",""
"","S1","","html-keyboard-response","407","1261350","0.0-1.0-551.0","0","0","66133","","null","","","null","61","","","","","","","","","","","","","","","",""
"","ISI","","html-keyboard-response","408","1263355","0.0-1.0-552.0","0","0","66133","","null","","","null","61","NaN","","","","","","","","","","","","","","",""
"","S2","","html-keyboard-response","409","1263609","0.0-1.0-553.0","0","0","66133","","null","","","null","61","","NaN","","","","","","","","","","","","","",""
"","response","","html-keyboard-response","410","1263845","0.0-1.0-554.0-0.0","0","0","66133","","233","","","75","61","","","2","61","training","adjacent","AB","1","2","O.jpg","M.jpg","1","1","1","",""
"","feedback","","html-keyboard-response","411","1264851","0.0-1.0-555.0-0.0","0","0","66133","","null","","","null","61","","","","","","","","","","","","","","","",""
"","ITI","","html-keyboard-response","412","1265856","0.0-1.0-558.0","0","0","66133","","null","","","null","61","","","","","","","","","","","","","","","NaN",""
"","S1","","html-keyboard-response","413","1266110","0.0-1.0-560.0","0","0","66133","","null","","","null","62","","","","","","","","","","","","","","","",""
"","ISI","","html-keyboard-response","414","1268114","0.0-1.0-561.0","0","0","66133","","null","","","null","62","NaN","","","","","","","","","","","","","","",""
"","S2","","html-keyboard-response","415","1268368","0.0-1.0-562.0","0","0","66133","","null","","","null","62","","NaN","","","","","","","","","","","","","",""
"","response","","html-keyboard-response","416","1268630","0.0-1.0-563.0-0.0","0","0","66133","","258","","","68","62","","","2","62","training","adjacent","BC","2","3","M.jpg","L.jpg","0","1","0","",""
"","feedback","","html-keyboard-response","417","1269635","0.0-1.0-564.0-0.0","0","0","66133","","null","","","null","62","","","","","","","","","","","","","","","",""
"","time_out","","html-keyboard-response","418","1271640","0.0-1.0-566.0-0.0","0","0","66133","","null","","","null","62","","","","","","","","","","","","","","","",""
"","ITI","","html-keyboard-response","419","1272643","0.0-1.0-567.0","0","0","66133","","null","","","null","62","","","","","","","","","","","","","","","NaN",""
"","S1","","html-keyboard-response","420","1272897","0.0-1.0-569.0","0","0","66133","","null","","","null","63","","","","","","","","","","","","","","","",""
"","ISI","","html-keyboard-response","421","1274899","0.0-1.0-570.0","0","0","66133","","null","","","null","63","NaN","","","","","","","","","","","","","","",""
"","S2","","html-keyboard-response","422","1275153","0.0-1.0-571.0","0","0","66133","","null","","","null","63","","NaN","","","","","","","","","","","","","",""
"","response","","html-keyboard-response","423","1275343","0.0-1.0-572.0-0.0","0","0","66133","","186","","","68","63","","","2","63","training","adjacent","GF","7","6","Q.jpg","N.jpg","0","0","1","",""
"","feedback","","html-keyboard-response","424","1276348","0.0-1.0-573.0-0.0","0","0","66133","","null","","","null","63","","","","","","","","","","","","","","","",""
"","ITI","","html-keyboard-response","425","1277353","0.0-1.0-576.0","0","0","66133","","null","","","null","63","","","","","","","","","","","","","","","NaN",""
"","S1","","html-keyboard-response","426","1277608","0.0-1.0-578.0","0","0","66133","","null","","","null","64","","","","","","","","","","","","","","","",""
"","ISI","","html-keyboard-response","427","1279612","0.0-1.0-579.0","0","0","66133","","null","","","null","64","NaN","","","","","","","","","","","","","","",""
"","S2","","html-keyboard-response","428","1279867","0.0-1.0-580.0","0","0","66133","","null","","","null","64","","NaN","","","","","","","","","","","","","",""
"","response","","html-keyboard-response","429","1280193","0.0-1.0-581.0-0.0","0","0","66133","","322","","","75","64","","","2","64","training","adjacent","BC","2","3","M.jpg","L.jpg","1","1","1","",""
"","feedback","","html-keyboard-response","430","1281207","0.0-1.0-582.0-0.0","0","0","66133","","null","","","null","64","","","","","","","","","","","","","","","",""
"","ITI","","html-keyboard-response","431","1282211","0.0-1.0-585.0","0","0","66133","","null","","","null","64","","","","","","","","","","","","","","","NaN",""
"","S1","","html-keyboard-response","432","1282466","0.0-1.0-587.0","0","0","66133","","null","","","null","65","","","","","","","","","","","","","","","",""
"","ISI","","html-keyboard-response","433","1284471","0.0-1.0-588.0","0","0","66133","","null","","","null","65","NaN","","","","","","","","","","","","","","",""
"","S2","","html-keyboard-response","434","1284739","0.0-1.0-589.0","0","0","66133","","null","","","null","65","","NaN","","","","","","","","","","","","","",""
"","response","","html-keyboard-response","435","1285041","0.0-1.0-590.0-0.0","0","0","66133","","299","","","68","65","","","2","65","training","adjacent","BA","2","1","M.jpg","O.jpg","0","0","1","",""
"","feedback","","html-keyboard-response","436","1286050","0.0-1.0-591.0-0.0","0","0","66133","","null","","","null","65","","","","","","","","","","","","","","","",""
"","ITI","","html-keyboard-response","437","1287067","0.0-1.0-594.0","0","0","66133","","null","","","null","65","","","","","","","","","","","","","","","NaN",""
"","S1","","html-keyboard-response","438","1287322","0.0-1.0-596.0","0","0","66133","","null","","","null","66","","","","","","","","","","","","","","","",""
"","ISI","","html-keyboard-response","439","1289326","0.0-1.0-597.0","0","0","66133","","null","","","null","66","NaN","","","","","","","","","","","","","","",""
"","S2","","html-keyboard-response","440","1289581","0.0-1.0-598.0","0","0","66133","","null","","","null","66","","NaN","","","","","","","","","","","","","",""
"","response","","html-keyboard-response","441","1290484","0.0-1.0-599.0-0.0","0","0","66133","","898","","","75","66","","","2","66","training","adjacent","FE","6","5","N.jpg","R.jpg","1","0","0","",""
"","feedback","","html-keyboard-response","442","1291489","0.0-1.0-600.0-0.0","0","0","66133","","null","","","null","66","","","","","","","","","","","","","","","",""
"","time_out","","html-keyboard-response","443","1293494","0.0-1.0-602.0-0.0","0","0","66133","","null","","","null","66","","","","","","","","","","","","","","","",""
"","ITI","","html-keyboard-response","444","1294498","0.0-1.0-603.0","0","0","66133","","null","","","null","66","","","","","","","","","","","","","","","NaN",""
"","S1","","html-keyboard-response","445","1294752","0.0-1.0-605.0","0","0","66133","","null","","","null","67","","","","","","","","","","","","","","","",""
"","ISI","","html-keyboard-response","446","1296765","0.0-1.0-606.0","0","0","66133","","null","","","null","67","NaN","","","","","","","","","","","","","","",""
"","S2","","html-keyboard-response","447","1297020","0.0-1.0-607.0","0","0","66133","","null","","","null","67","","NaN","","","","","","","","","","","","","",""
"","response","","html-keyboard-response","448","1297199","0.0-1.0-608.0-0.0","0","0","66133","","177","","","68","67","","","2","67","training","adjacent","GF","7","6","Q.jpg","N.jpg","0","0","1","",""
"","feedback","","html-keyboard-response","449","1298205","0.0-1.0-609.0-0.0","0","0","66133","","null","","","null","67","","","","","","","","","","","","","","","",""
"","ITI","","html-keyboard-response","450","1299217","0.0-1.0-612.0","0","0","66133","","null","","","null","67","","","","","","","","","","","","","","","NaN",""
"","S1","","html-keyboard-response","451","1299471","0.0-1.0-614.0","0","0","66133","","null","","","null","68","","","","","","","","","","","","","","","",""
"","ISI","","html-keyboard-response","452","1301475","0.0-1.0-615.0","0","0","66133","","null","","","null","68","NaN","","","","","","","","","","","","","","",""
"","S2","","html-keyboard-response","453","1301730","0.0-1.0-616.0","0","0","66133","","null","","","null","68","","NaN","","","","","","","","","","","","","",""
"","response","","html-keyboard-response","454","1302112","0.0-1.0-617.0-0.0","0","0","66133","","380","","","75","68","","","2","68","training","adjacent","FE","6","5","N.jpg","R.jpg","1","0","0","",""
"","feedback","","html-keyboard-response","455","1303116","0.0-1.0-618.0-0.0","0","0","66133","","null","","","null","68","","","","","","","","","","","","","","","",""
"","time_out","","html-keyboard-response","456","1305124","0.0-1.0-620.0-0.0","0","0","66133","","null","","","null","68","","","","","","","","","","","","","","","",""
"","ITI","","html-keyboard-response","457","1306127","0.0-1.0-621.0","0","0","66133","","null","","","null","68","","","","","","","","","","","","","","","NaN",""
"","S1","","html-keyboard-response","458","1306381","0.0-1.0-623.0","0","0","66133","","null","","","null","69","","","","","","","","","","","","","","","",""
"","ISI","","html-keyboard-response","459","1308385","0.0-1.0-624.0","0","0","66133","","null","","","null","69","NaN","","","","","","","","","","","","","","",""
"","S2","","html-keyboard-response","460","1308640","0.0-1.0-625.0","0","0","66133","","null","","","null","69","","NaN","","","","","","","","","","","","","",""
"","response","","html-keyboard-response","461","1308849","0.0-1.0-626.0-0.0","0","0","66133","","206","","","75","69","","","2","69","training","adjacent","AB","1","2","O.jpg","M.jpg","1","1","1","",""
"","feedback","","html-keyboard-response","462","1309854","0.0-1.0-627.0-0.0","0","0","66133","","null","","","null","69","","","","","","","","","","","","","","","",""
"","ITI","","html-keyboard-response","463","1310858","0.0-1.0-630.0","0","0","66133","","null","","","null","69","","","","","","","","","","","","","","","NaN",""
"","S1","","html-keyboard-response","464","1311112","0.0-1.0-632.0","0","0","66133","","null","","","null","70","","","","","","","","","","","","","","","",""
"","ISI","","html-keyboard-response","465","1313115","0.0-1.0-633.0","0","0","66133","","null","","","null","70","NaN","","","","","","","","","","","","","","",""
"","S2","","html-keyboard-response","466","1313370","0.0-1.0-634.0","0","0","66133","","null","","","null","70","","NaN","","","","","","","","","","","","","",""
"","response","","html-keyboard-response","467","1313661","0.0-1.0-635.0-0.0","0","0","66133","","288","","","75","70","","","2","70","training","adjacent","DE","4","5","P.jpg","R.jpg","1","1","1","",""
"","feedback","","html-keyboard-response","468","1314667","0.0-1.0-636.0-0.0","0","0","66133","","null","","","null","70","","","","","","","","","","","","","","","",""
"","ITI","","html-keyboard-response","469","1315672","0.0-1.0-639.0","0","0","66133","","null","","","null","70","","","","","","","","","","","","","","","NaN",""
"","S1","","html-keyboard-response","470","1315927","0.0-1.0-641.0","0","0","66133","","null","","","null","71","","","","","","","","","","","","","","","",""
"","ISI","","html-keyboard-response","471","1317930","0.0-1.0-642.0","0","0","66133","","null","","","null","71","NaN","","","","","","","","","","","","","","",""
"","S2","","html-keyboard-response","472","1318186","0.0-1.0-643.0","0","0","66133","","null","","","null","71","","NaN","","","","","","","","","","","","","",""
"","response","","html-keyboard-response","473","1318636","0.0-1.0-644.0-0.0","0","0","66133","","447","","","75","71","","","2","71","training","adjacent","DC","4","3","P.jpg","L.jpg","1","0","0","",""
"","feedback","","html-keyboard-response","474","1319642","0.0-1.0-645.0-0.0","0","0","66133","","null","","","null","71","","","","","","","","","","","","","","","",""
"","time_out","","html-keyboard-response","475","1321646","0.0-1.0-647.0-0.0","0","0","66133","","null","","","null","71","","","","","","","","","","","","","","","",""
"","ITI","","html-keyboard-response","476","1322650","0.0-1.0-648.0","0","0","66133","","null","","","null","71","","","","","","","","","","","","","","","NaN",""
"","S1","","html-keyboard-response","477","1322913","0.0-1.0-650.0","0","0","66133","","null","","","null","72","","","","","","","","","","","","","","","",""
"","ISI","","html-keyboard-response","478","1324915","0.0-1.0-651.0","0","0","66133","","null","","","null","72","NaN","","","","","","","","","","","","","","",""
"","S2","","html-keyboard-response","479","1325169","0.0-1.0-652.0","0","0","66133","","null","","","null","72","","NaN","","","","","","","","","","","","","",""
"","response","","html-keyboard-response","480","1326280","0.0-1.0-653.0-0.0","0","0","66133","","1109","","","75","72","","","2","72","training","adjacent","FG","6","7","N.jpg","Q.jpg","1","1","1","",""
"","feedback","","html-keyboard-response","481","1327285","0.0-1.0-654.0-0.0","0","0","66133","","null","","","null","72","","","","","","","","","","","","","","","",""
"","ITI","","html-keyboard-response","482","1328289","0.0-1.0-657.0","0","0","66133","","null","","","null","72","","","","","","","","","","","","","","","NaN",""
"","S1","","html-keyboard-response","483","1328553","0.0-1.0-659.0","0","0","66133","","null","","","null","73","","","","","","","","","","","","","","","",""
"","ISI","","html-keyboard-response","484","1330557","0.0-1.0-660.0","0","0","66133","","null","","","null","73","NaN","","","","","","","","","","","","","","",""
"","S2","","html-keyboard-response","485","1330811","0.0-1.0-661.0","0","0","66133","","null","","","null","73","","NaN","","","","","","","","","","","","","",""
"","response","","html-keyboard-response","486","1331696","0.0-1.0-662.0-0.0","0","0","66133","","882","","","75","73","","","2","73","training","adjacent","CB","3","2","L.jpg","M.jpg","1","0","0","",""
"","feedback","","html-keyboard-response","487","1332702","0.0-1.0-663.0-0.0","0","0","66133","","null","","","null","73","","","","","","","","","","","","","","","",""
"","time_out","","html-keyboard-response","488","1334706","0.0-1.0-665.0-0.0","0","0","66133","","null","","","null","73","","","","","","","","","","","","","","","",""
"","ITI","","html-keyboard-response","489","1335710","0.0-1.0-666.0","0","0","66133","","null","","","null","73","","","","","","","","","","","","","","","NaN",""
"","S1","","html-keyboard-response","490","1335965","0.0-1.0-668.0","0","0","66133","","null","","","null","74","","","","","","","","","","","","","","","",""
"","ISI","","html-keyboard-response","491","1337969","0.0-1.0-669.0","0","0","66133","","null","","","null","74","NaN","","","","","","","","","","","","","","",""
"","S2","","html-keyboard-response","492","1338223","0.0-1.0-670.0","0","0","66133","","null","","","null","74","","NaN","","","","","","","","","","","","","",""
"","response","","html-keyboard-response","493","1338552","0.0-1.0-671.0-0.0","0","0","66133","","326","","","75","74","","","2","74","training","adjacent","DE","4","5","P.jpg","R.jpg","1","1","1","",""
"","feedback","","html-keyboard-response","494","1339561","0.0-1.0-672.0-0.0","0","0","66133","","null","","","null","74","","","","","","","","","","","","","","","",""
"","ITI","","html-keyboard-response","495","1340566","0.0-1.0-675.0","0","0","66133","","null","","","null","74","","","","","","","","","","","","","","","NaN",""
"","S1","","html-keyboard-response","496","1340821","0.0-1.0-677.0","0","0","66133","","null","","","null","75","","","","","","","","","","","","","","","",""
"","ISI","","html-keyboard-response","497","1342825","0.0-1.0-678.0","0","0","66133","","null","","","null","75","NaN","","","","","","","","","","","","","","",""
"","S2","","html-keyboard-response","498","1343079","0.0-1.0-679.0","0","0","66133","","null","","","null","75","","NaN","","","","","","","","","","","","","",""
"","response","","html-keyboard-response","499","1343646","0.0-1.0-680.0-0.0","0","0","66133","","564","","","68","75","","","2","75","training","adjacent","BA","2","1","M.jpg","O.jpg","0","0","1","",""
"","feedback","","html-keyboard-response","500","1344651","0.0-1.0-681.0-0.0","0","0","66133","","null","","","null","75","","","","","","","","","","","","","","","",""
"","ITI","","html-keyboard-response","501","1345656","0.0-1.0-684.0","0","0","66133","","null","","","null","75","","","","","","","","","","","","","","","NaN",""
"","S1","","html-keyboard-response","502","1345911","0.0-1.0-686.0","0","0","66133","","null","","","null","76","","","","","","","","","","","","","","","",""
"","ISI","","html-keyboard-response","503","1347915","0.0-1.0-687.0","0","0","66133","","null","","","null","76","NaN","","","","","","","","","","","","","","",""
"","S2","","html-keyboard-response","504","1348170","0.0-1.0-688.0","0","0","66133","","null","","","null","76","","NaN","","","","","","","","","","","","","",""
"","response","","html-keyboard-response","505","1348425","0.0-1.0-689.0-0.0","0","0","66133","","250","","","75","76","","","2","76","training","adjacent","EF","5","6","R.jpg","N.jpg","1","1","1","",""
"","feedback","","html-keyboard-response","506","1349430","0.0-1.0-690.0-0.0","0","0","66133","","null","","","null","76","","","","","","","","","","","","","","","",""
"","ITI","","html-keyboard-response","507","1350434","0.0-1.0-693.0","0","0","66133","","null","","","null","76","","","","","","","","","","","","","","","NaN",""
"","S1","","html-keyboard-response","508","1350689","0.0-1.0-695.0","0","0","66133","","null","","","null","77","","","","","","","","","","","","","","","",""
"","ISI","","html-keyboard-response","509","1352693","0.0-1.0-696.0","0","0","66133","","null","","","null","77","NaN","","","","","","","","","","","","","","",""
"","S2","","html-keyboard-response","510","1352948","0.0-1.0-697.0","0","0","66133","","null","","","null","77","","NaN","","","","","","","","","","","","","",""
"","response","","html-keyboard-response","511","1353498","0.0-1.0-698.0-0.0","0","0","66133","","547","","","75","77","","","2","77","training","adjacent","EF","5","6","R.jpg","N.jpg","1","1","1","",""
"","feedback","","html-keyboard-response","512","1354500","0.0-1.0-699.0-0.0","0","0","66133","","null","","","null","77","","","","","","","","","","","","","","","",""
"","ITI","","html-keyboard-response","513","1355505","0.0-1.0-702.0","0","0","66133","","null","","","null","77","","","","","","","","","","","","","","","NaN",""
"","S1","","html-keyboard-response","514","1355759","0.0-1.0-704.0","0","0","66133","","null","","","null","78","","","","","","","","","","","","","","","",""
"","ISI","","html-keyboard-response","515","1357762","0.0-1.0-705.0","0","0","66133","","null","","","null","78","NaN","","","","","","","","","","","","","","",""
"","S2","","html-keyboard-response","516","1358017","0.0-1.0-706.0","0","0","66133","","null","","","null","78","","NaN","","","","","","","","","","","","","",""
"","response","","html-keyboard-response","517","1358354","0.0-1.0-707.0-0.0","0","0","66133","","334","","","75","78","","","2","78","training","adjacent","DC","4","3","P.jpg","L.jpg","1","0","0","",""
"","feedback","","html-keyboard-response","518","1359359","0.0-1.0-708.0-0.0","0","0","66133","","null","","","null","78","","","","","","","","","","","","","","","",""
"","time_out","","html-keyboard-response","519","1361363","0.0-1.0-710.0-0.0","0","0","66133","","null","","","null","78","","","","","","","","","","","","","","","",""
"","ITI","","html-keyboard-response","520","1362368","0.0-1.0-711.0","0","0","66133","","null","","","null","78","","","","","","","","","","","","","","","NaN",""
"","S1","","html-keyboard-response","521","1362622","0.0-1.0-713.0","0","0","66133","","null","","","null","79","","","","","","","","","","","","","","","",""
"","ISI","","html-keyboard-response","522","1364626","0.0-1.0-714.0","0","0","66133","","null","","","null","79","NaN","","","","","","","","","","","","","","",""
"","S2","","html-keyboard-response","523","1364881","0.0-1.0-715.0","0","0","66133","","null","","","null","79","","NaN","","","","","","","","","","","","","",""
"","response","","html-keyboard-response","524","1365264","0.0-1.0-716.0-0.0","0","0","66133","","379","","","68","79","","","2","79","training","adjacent","CD","3","4","L.jpg","P.jpg","0","1","0","",""
"","feedback","","html-keyboard-response","525","1366269","0.0-1.0-717.0-0.0","0","0","66133","","null","","","null","79","","","","","","","","","","","","","","","",""
"","time_out","","html-keyboard-response","526","1368275","0.0-1.0-719.0-0.0","0","0","66133","","null","","","null","79","","","","","","","","","","","","","","","",""
"","ITI","","html-keyboard-response","527","1369280","0.0-1.0-720.0","0","0","66133","","null","","","null","79","","","","","","","","","","","","","","","NaN",""
"","S1","","html-keyboard-response","528","1369539","0.0-1.0-722.0","0","0","66133","","null","","","null","80","","","","","","","","","","","","","","","",""
"","ISI","","html-keyboard-response","529","1371544","0.0-1.0-723.0","0","0","66133","","null","","","null","80","NaN","","","","","","","","","","","","","","",""
"","S2","","html-keyboard-response","530","1371798","0.0-1.0-724.0","0","0","66133","","null","","","null","80","","NaN","","","","","","","","","","","","","",""
"","response","","html-keyboard-response","531","1372314","0.0-1.0-725.0-0.0","0","0","66133","","512","","","68","80","","","2","80","training","adjacent","ED","5","4","R.jpg","P.jpg","0","0","1","",""
"","feedback","","html-keyboard-response","532","1373320","0.0-1.0-726.0-0.0","0","0","66133","","null","","","null","80","","","","","","","","","","","","","","","",""
"","ITI","","html-keyboard-response","533","1374325","0.0-1.0-729.0","0","0","66133","","null","","","null","80","","","","","","","","","","","","","","","NaN",""
"","S1","","html-keyboard-response","534","1374579","0.0-1.0-731.0","0","0","66133","","null","","","null","81","","","","","","","","","","","","","","","",""
"","ISI","","html-keyboard-response","535","1376584","0.0-1.0-732.0","0","0","66133","","null","","","null","81","NaN","","","","","","","","","","","","","","",""
"","S2","","html-keyboard-response","536","1376839","0.0-1.0-733.0","0","0","66133","","null","","","null","81","","NaN","","","","","","","","","","","","","",""
"","response","","html-keyboard-response","537","1376953","0.0-1.0-734.0-0.0","0","0","66133","","110","","","68","81","","","2","81","training","adjacent","GF","7","6","Q.jpg","N.jpg","0","0","1","",""
"","feedback","","html-keyboard-response","538","1377959","0.0-1.0-735.0-0.0","0","0","66133","","null","","","null","81","","","","","","","","","","","","","","","",""
"","ITI","","html-keyboard-response","539","1378963","0.0-1.0-738.0","0","0","66133","","null","","","null","81","","","","","","","","","","","","","","","NaN",""
"","S1","","html-keyboard-response","540","1379216","0.0-1.0-740.0","0","0","66133","","null","","","null","82","","","","","","","","","","","","","","","",""
"","ISI","","html-keyboard-response","541","1381220","0.0-1.0-741.0","0","0","66133","","null","","","null","82","NaN","","","","","","","","","","","","","","",""
"","S2","","html-keyboard-response","542","1381476","0.0-1.0-742.0","0","0","66133","","null","","","null","82","","NaN","","","","","","","","","","","","","",""
"","response","","html-keyboard-response","543","1381845","0.0-1.0-743.0-0.0","0","0","66133","","366","","","75","82","","","2","82","training","adjacent","CB","3","2","L.jpg","M.jpg","1","0","0","",""
"","feedback","","html-keyboard-response","544","1382850","0.0-1.0-744.0-0.0","0","0","66133","","null","","","null","82","","","","","","","","","","","","","","","",""
"","time_out","","html-keyboard-response","545","1384870","0.0-1.0-746.0-0.0","0","0","66133","","null","","","null","82","","","","","","","","","","","","","","","",""
"","ITI","","html-keyboard-response","546","1385883","0.0-1.0-747.0","0","0","66133","","null","","","null","82","","","","","","","","","","","","","","","NaN",""
"","S1","","html-keyboard-response","547","1386138","0.0-1.0-749.0","0","0","66133","","null","","","null","83","","","","","","","","","","","","","","","",""
"","ISI","","html-keyboard-response","548","1388142","0.0-1.0-750.0","0","0","66133","","null","","","null","83","NaN","","","","","","","","","","","","","","",""
"","S2","","html-keyboard-response","549","1388396","0.0-1.0-751.0","0","0","66133","","null","","","null","83","","NaN","","","","","","","","","","","","","",""
"","response","","html-keyboard-response","550","1388685","0.0-1.0-752.0-0.0","0","0","66133","","285","","","68","83","","","2","83","training","adjacent","GF","7","6","Q.jpg","N.jpg","0","0","1","",""
"","feedback","","html-keyboard-response","551","1389689","0.0-1.0-753.0-0.0","0","0","66133","","null","","","null","83","","","","","","","","","","","","","","","",""
"","ITI","","html-keyboard-response","552","1390695","0.0-1.0-756.0","0","0","66133","","null","","","null","83","","","","","","","","","","","","","","","NaN",""
"","S1","","html-keyboard-response","553","1390950","0.0-1.0-758.0","0","0","66133","","null","","","null","84","","","","","","","","","","","","","","","",""
"","ISI","","html-keyboard-response","554","1392954","0.0-1.0-759.0","0","0","66133","","null","","","null","84","NaN","","","","","","","","","","","","","","",""
"","S2","","html-keyboard-response","555","1393207","0.0-1.0-760.0","0","0","66133","","null","","","null","84","","NaN","","","","","","","","","","","","","",""
"","response","","html-keyboard-response","556","1393728","0.0-1.0-761.0-0.0","0","0","66133","","517","","","68","84","","","2","84","training","adjacent","CB","3","2","L.jpg","M.jpg","0","0","1","",""
"","feedback","","html-keyboard-response","557","1394733","0.0-1.0-762.0-0.0","0","0","66133","","null","","","null","84","","","","","","","","","","","","","","","",""
"","ITI","","html-keyboard-response","558","1395739","0.0-1.0-765.0","0","0","66133","","null","","","null","84","","","","","","","","","","","","","","","NaN",""
"","S1","","html-keyboard-response","559","1395994","0.0-1.0-767.0","0","0","66133","","null","","","null","85","","","","","","","","","","","","","","","",""
"","ISI","","html-keyboard-response","560","1397998","0.0-1.0-768.0","0","0","66133","","null","","","null","85","NaN","","","","","","","","","","","","","","",""
"","S2","","html-keyboard-response","561","1398253","0.0-1.0-769.0","0","0","66133","","null","","","null","85","","NaN","","","","","","","","","","","","","",""
"","response","","html-keyboard-response","562","1398812","0.0-1.0-770.0-0.0","0","0","66133","","555","","","68","85","","","2","85","training","adjacent","FE","6","5","N.jpg","R.jpg","0","0","1","",""
"","feedback","","html-keyboard-response","563","1399817","0.0-1.0-771.0-0.0","0","0","66133","","null","","","null","85","","","","","","","","","","","","","","","",""
"","ITI","","html-keyboard-response","564","1400822","0.0-1.0-774.0","0","0","66133","","null","","","null","85","","","","","","","","","","","","","","","NaN",""
"","S1","","html-keyboard-response","565","1401077","0.0-1.0-776.0","0","0","66133","","null","","","null","86","","","","","","","","","","","","","","","",""
"","ISI","","html-keyboard-response","566","1403081","0.0-1.0-777.0","0","0","66133","","null","","","null","86","NaN","","","","","","","","","","","","","","",""
"","S2","","html-keyboard-response","567","1403335","0.0-1.0-778.0","0","0","66133","","null","","","null","86","","NaN","","","","","","","","","","","","","",""
"","response","","html-keyboard-response","568","1403467","0.0-1.0-779.0-0.0","0","0","66133","","129","","","68","86","","","2","86","training","adjacent","FG","6","7","N.jpg","Q.jpg","0","1","0","",""
"","feedback","","html-keyboard-response","569","1404472","0.0-1.0-780.0-0.0","0","0","66133","","null","","","null","86","","","","","","","","","","","","","","","",""
"","time_out","","html-keyboard-response","570","1406477","0.0-1.0-782.0-0.0","0","0","66133","","null","","","null","86","","","","","","","","","","","","","","","",""
"","ITI","","html-keyboard-response","571","1407481","0.0-1.0-783.0","0","0","66133","","null","","","null","86","","","","","","","","","","","","","","","NaN",""
"","S1","","html-keyboard-response","572","1407735","0.0-1.0-785.0","0","0","66133","","null","","","null","87","","","","","","","","","","","","","","","",""
"","ISI","","html-keyboard-response","573","1409738","0.0-1.0-786.0","0","0","66133","","null","","","null","87","NaN","","","","","","","","","","","","","","",""
"","S2","","html-keyboard-response","574","1409993","0.0-1.0-787.0","0","0","66133","","null","","","null","87","","NaN","","","","","","","","","","","","","",""
