"success","ttype","start_time","trial_type","trial_index","time_elapsed","internal_node_id","warning","missed_checkup","PID","view_history","rt","responses","repeat_instructions","key_press","index","keypress_isi","keypress_S2","block","trial_num","phase","group_type","pair_type","S1_stim","S2_stim","S1_img","S2_img","S1_chosen","S1_higher","accuracy","keypress_iti","total_bonus_tally"
"true","full_screen","d04062023hr2023","fullscreen","0","196186","0.0-0.0","0","0","95395","","","","","","","","","","","","","","","","","","","","","",""
"","instructions","","instructions","1","273652","0.0-1.0-0.0-0.0","0","0","95395","[{""page_index"":0,""viewing_time"":8617},{""page_index"":1,""viewing_time"":56593},{""page_index"":2,""viewing_time"":11018},{""page_index"":3,""viewing_time"":1235}]","77464","","","","","","","","","","","","","","","","","","","",""
"","comprehension_check","","survey-multi-choice","2","292062","0.0-1.0-0.0-1.0","0","0","95395","","18407","{""Q0"":""True"",""Q1"":""K"",""Q2"":""Once the second image appears and while the screen 'MAKE A CHOICE' is shown"",""Q3"":""Green mark"",""Q4"":""either D or K""}","0","","","","","","","","","","","","","","","","","",""
"","start_exp","","html-keyboard-response","3","293421","0.0-1.0-1.0","0","0","95395","","1357","","","32","","","","","","","","","","","","","","","","",""
"","S1","","html-keyboard-response","4","293575","0.0-1.0-2.0","0","0","95395","","null","","","null","0","","","","","","","","","","","","","","","",""
"","ISI","","html-keyboard-response","5","295577","0.0-1.0-3.0","0","0","95395","","null","","","null","0","NaN","","","","","","","","","","","","","","",""
"","S2","","html-keyboard-response","6","295729","0.0-1.0-4.0","0","0","95395","","null","","","null","0","","NaN","","","","","","","","","","","","","",""
"","response","","html-keyboard-response","7","296524","0.0-1.0-5.0-0.0","0","0","95395","","794","","","75","0","","","1","0","training","adjacent","EF","5","6","O.jpg","N.jpg","1","1","1","",""
"","feedback","","html-keyboard-response","8","297526","0.0-1.0-6.0-0.0","0","0","95395","","null","","","null","0","","","","","","","","","","","","","","","",""
"","ITI","","html-keyboard-response","9","298528","0.0-1.0-9.0","0","0","95395","","null","","","null","0","","","","","","","","","","","","","","","NaN",""
"","S1","","html-keyboard-response","10","298681","0.0-1.0-11.0","0","0","95395","","null","","","null","1","","","","","","","","","","","","","","","",""
"","ISI","","html-keyboard-response","11","300682","0.0-1.0-12.0","0","0","95395","","null","","","null","1","NaN","","","","","","","","","","","","","","",""
"","S2","","html-keyboard-response","12","300834","0.0-1.0-13.0","0","0","95395","","null","","","null","1","","NaN","","","","","","","","","","","","","",""
"","response","","html-keyboard-response","13","301213","0.0-1.0-14.0-0.0","0","0","95395","","377","","","75","1","","","1","1","training","adjacent","ED","5","4","O.jpg","L.jpg","1","0","0","",""
"","feedback","","html-keyboard-response","14","302216","0.0-1.0-15.0-0.0","0","0","95395","","null","","","null","1","","","","","","","","","","","","","","","",""
"","time_out","","html-keyboard-response","15","304218","0.0-1.0-17.0-0.0","0","0","95395","","null","","","null","1","","","","","","","","","","","","","","","",""
"","ITI","","html-keyboard-response","16","305221","0.0-1.0-18.0","0","0","95395","","null","","","null","1","","","","","","","","","","","","","","","NaN",""
"","S1","","html-keyboard-response","17","305373","0.0-1.0-20.0","0","0","95395","","null","","","null","2","","","","","","","","","","","","","","","",""
"","ISI","","html-keyboard-response","18","307374","0.0-1.0-21.0","0","0","95395","","null","","","null","2","NaN","","","","","","","","","","","","","","",""
"","S2","","html-keyboard-response","19","307526","0.0-1.0-22.0","0","0","95395","","null","","","null","2","","NaN","","","","","","","","","","","","","",""
"","response","","html-keyboard-response","20","308013","0.0-1.0-23.0-0.0","0","0","95395","","486","","","75","2","","","1","2","training","adjacent","CB","3","2","Q.jpg","M.jpg","1","0","0","",""
"","feedback","","html-keyboard-response","21","309014","0.0-1.0-24.0-0.0","0","0","95395","","null","","","null","2","","","","","","","","","","","","","","","",""
"","time_out","","html-keyboard-response","22","311017","0.0-1.0-26.0-0.0","0","0","95395","","null","","","null","2","","","","","","","","","","","","","","","",""
"","ITI","","html-keyboard-response","23","312019","0.0-1.0-27.0","0","0","95395","","null","","","null","2","","","","","","","","","","","","","","","NaN",""
"","S1","","html-keyboard-response","24","312171","0.0-1.0-29.0","0","0","95395","","null","","","null","3","","","","","","","","","","","","","","","",""
"","ISI","","html-keyboard-response","25","314173","0.0-1.0-30.0","0","0","95395","","null","","","null","3","NaN","","","","","","","","","","","","","","",""
"","S2","","html-keyboard-response","26","314326","0.0-1.0-31.0","0","0","95395","","null","","","null","3","","NaN","","","","","","","","","","","","","",""
"","response","","html-keyboard-response","27","314884","0.0-1.0-32.0-0.0","0","0","95395","","558","","","68","3","","","1","3","training","adjacent","DE","4","5","L.jpg","O.jpg","0","1","0","",""
"","feedback","","html-keyboard-response","28","315887","0.0-1.0-33.0-0.0","0","0","95395","","null","","","null","3","","","","","","","","","","","","","","","",""
"","time_out","","html-keyboard-response","29","317889","0.0-1.0-35.0-0.0","0","0","95395","","null","","","null","3","","","","","","","","","","","","","","","",""
"","ITI","","html-keyboard-response","30","318891","0.0-1.0-36.0","0","0","95395","","null","","","null","3","","","","","","","","","","","","","","","NaN",""
"","S1","","html-keyboard-response","31","319043","0.0-1.0-38.0","0","0","95395","","null","","","null","4","","","","","","","","","","","","","","","",""
"","ISI","","html-keyboard-response","32","321046","0.0-1.0-39.0","0","0","95395","","null","","","null","4","NaN","","","","","","","","","","","","","","",""
"","S2","","html-keyboard-response","33","321199","0.0-1.0-40.0","0","0","95395","","null","","","null","4","","NaN","","","","","","","","","","","","","",""
"","response","","html-keyboard-response","34","322174","0.0-1.0-41.0-0.0","0","0","95395","","974","","","75","4","","","1","4","training","adjacent","BC","2","3","M.jpg","Q.jpg","1","1","1","",""
"","feedback","","html-keyboard-response","35","323177","0.0-1.0-42.0-0.0","0","0","95395","","null","","","null","4","","","","","","","","","","","","","","","",""
"","ITI","","html-keyboard-response","36","324180","0.0-1.0-45.0","0","0","95395","","null","","","null","4","","","","","","","","","","","","","","","NaN",""
"","S1","","html-keyboard-response","37","324332","0.0-1.0-47.0","0","0","95395","","null","","","null","5","","","","","","","","","","","","","","","",""
"","ISI","","html-keyboard-response","38","326334","0.0-1.0-48.0","0","0","95395","","null","","","null","5","NaN","","","","","","","","","","","","","","",""
"","S2","","html-keyboard-response","39","326486","0.0-1.0-49.0","0","0","95395","","null","","","null","5","","NaN","","","","","","","","","","","","","",""
"","response","","html-keyboard-response","40","327269","0.0-1.0-50.0-0.0","0","0","95395","","781","","","75","5","","","1","5","training","adjacent","GF","7","6","P.jpg","N.jpg","1","0","0","",""
"","feedback","","html-keyboard-response","41","328278","0.0-1.0-51.0-0.0","0","0","95395","","null","","","null","5","","","","","","","","","","","","","","","",""
"","time_out","","html-keyboard-response","42","330292","0.0-1.0-53.0-0.0","0","0","95395","","null","","","null","5","","","","","","","","","","","","","","","",""
"","ITI","","html-keyboard-response","43","331294","0.0-1.0-54.0","0","0","95395","","null","","","null","5","","","","","","","","","","","","","","","NaN",""
"","S1","","html-keyboard-response","44","331446","0.0-1.0-56.0","0","0","95395","","null","","","null","6","","","","","","","","","","","","","","","",""
"","ISI","","html-keyboard-response","45","333448","0.0-1.0-57.0","0","0","95395","","null","","","null","6","NaN","","","","","","","","","","","","","","",""
"","S2","","html-keyboard-response","46","333600","0.0-1.0-58.0","0","0","95395","","null","","","null","6","","NaN","","","","","","","","","","","","","",""
"","response","","html-keyboard-response","47","333901","0.0-1.0-59.0-0.0","0","0","95395","","300","","","68","6","","","1","6","training","adjacent","EF","5","6","O.jpg","N.jpg","0","1","0","",""
"","feedback","","html-keyboard-response","48","334904","0.0-1.0-60.0-0.0","0","0","95395","","null","","","null","6","","","","","","","","","","","","","","","",""
"","time_out","","html-keyboard-response","49","336905","0.0-1.0-62.0-0.0","0","0","95395","","null","","","null","6","","","","","","","","","","","","","","","",""
"","ITI","","html-keyboard-response","50","337908","0.0-1.0-63.0","0","0","95395","","null","","","null","6","","","","","","","","","","","","","","","NaN",""
"","S1","","html-keyboard-response","51","338060","0.0-1.0-65.0","0","0","95395","","null","","","null","7","","","","","","","","","","","","","","","",""
"","ISI","","html-keyboard-response","52","340063","0.0-1.0-66.0","0","0","95395","","null","","","null","7","NaN","","","","","","","","","","","","","","",""
"","S2","","html-keyboard-response","53","340215","0.0-1.0-67.0","0","0","95395","","null","","","null","7","","NaN","","","","","","","","","","","","","",""
"","response","","html-keyboard-response","54","341085","0.0-1.0-68.0-0.0","0","0","95395","","869","","","68","7","","","1","7","training","adjacent","CD","3","4","Q.jpg","L.jpg","0","1","0","",""
"","feedback","","html-keyboard-response","55","342088","0.0-1.0-69.0-0.0","0","0","95395","","null","","","null","7","","","","","","","","","","","","","","","",""
"","time_out","","html-keyboard-response","56","344089","0.0-1.0-71.0-0.0","0","0","95395","","null","","","null","7","","","","","","","","","","","","","","","",""
"","ITI","","html-keyboard-response","57","345092","0.0-1.0-72.0","0","0","95395","","null","","","null","7","","","","","","","","","","","","","","","NaN",""
"","S1","","html-keyboard-response","58","345244","0.0-1.0-74.0","0","0","95395","","null","","","null","8","","","","","","","","","","","","","","","",""
"","ISI","","html-keyboard-response","59","347246","0.0-1.0-75.0","0","0","95395","","null","","","null","8","NaN","","","","","","","","","","","","","","",""
"","S2","","html-keyboard-response","60","347404","0.0-1.0-76.0","0","0","95395","","null","","","null","8","","NaN","","","","","","","","","","","","","",""
"","response","","html-keyboard-response","61","348005","0.0-1.0-77.0-0.0","0","0","95395","","601","","","68","8","","","1","8","training","adjacent","FG","6","7","N.jpg","P.jpg","0","1","0","",""
"","feedback","","html-keyboard-response","62","349008","0.0-1.0-78.0-0.0","0","0","95395","","null","","","null","8","","","","","","","","","","","","","","","",""
"","time_out","","html-keyboard-response","63","351010","0.0-1.0-80.0-0.0","0","0","95395","","null","","","null","8","","","","","","","","","","","","","","","",""
"","ITI","","html-keyboard-response","64","352012","0.0-1.0-81.0","0","0","95395","","null","","","null","8","","","","","","","","","","","","","","","NaN",""
"","S1","","html-keyboard-response","65","352165","0.0-1.0-83.0","0","0","95395","","null","","","null","9","","","","","","","","","","","","","","","",""
"","ISI","","html-keyboard-response","66","354166","0.0-1.0-84.0","0","0","95395","","null","","","null","9","NaN","","","","","","","","","","","","","","",""
"","S2","","html-keyboard-response","67","354329","0.0-1.0-85.0","0","0","95395","","null","","","null","9","","NaN","","","","","","","","","","","","","",""
"","response","","html-keyboard-response","68","354773","0.0-1.0-86.0-0.0","0","0","95395","","443","","","75","9","","","1","9","training","adjacent","BC","2","3","M.jpg","Q.jpg","1","1","1","",""
"","feedback","","html-keyboard-response","69","355775","0.0-1.0-87.0-0.0","0","0","95395","","null","","","null","9","","","","","","","","","","","","","","","",""
"","ITI","","html-keyboard-response","70","356776","0.0-1.0-90.0","0","0","95395","","null","","","null","9","","","","","","","","","","","","","","","NaN",""
"","S1","","html-keyboard-response","71","356929","0.0-1.0-92.0","0","0","95395","","null","","","null","10","","","","","","","","","","","","","","","",""
"","ISI","","html-keyboard-response","72","358931","0.0-1.0-93.0","0","0","95395","","null","","","null","10","NaN","","","","","","","","","","","","","","",""
"","S2","","html-keyboard-response","73","359084","0.0-1.0-94.0","0","0","95395","","null","","","null","10","","NaN","","","","","","","","","","","","","",""
"","response","","html-keyboard-response","74","359541","0.0-1.0-95.0-0.0","0","0","95395","","456","","","75","10","","","1","10","training","adjacent","BC","2","3","M.jpg","Q.jpg","1","1","1","",""
"","feedback","","html-keyboard-response","75","360543","0.0-1.0-96.0-0.0","0","0","95395","","null","","","null","10","","","","","","","","","","","","","","","",""
"","ITI","","html-keyboard-response","76","361544","0.0-1.0-99.0","0","0","95395","","null","","","null","10","","","","","","","","","","","","","","","NaN",""
"","S1","","html-keyboard-response","77","361697","0.0-1.0-101.0","0","0","95395","","null","","","null","11","","","","","","","","","","","","","","","",""
"","ISI","","html-keyboard-response","78","363699","0.0-1.0-102.0","0","0","95395","","null","","","null","11","NaN","","","","","","","","","","","","","","",""
"","S2","","html-keyboard-response","79","363851","0.0-1.0-103.0","0","0","95395","","null","","","null","11","","NaN","","","","","","","","","","","","","",""
"","response","","html-keyboard-response","80","364269","0.0-1.0-104.0-0.0","0","0","95395","","416","","","75","11","","","1","11","training","adjacent","BA","2","1","M.jpg","R.jpg","1","0","0","",""
"","feedback","","html-keyboard-response","81","365271","0.0-1.0-105.0-0.0","0","0","95395","","null","","","null","11","","","","","","","","","","","","","","","",""
"","time_out","","html-keyboard-response","82","367273","0.0-1.0-107.0-0.0","0","0","95395","","null","","","null","11","","","","","","","","","","","","","","","",""
"","ITI","","html-keyboard-response","83","368275","0.0-1.0-108.0","0","0","95395","","null","","","null","11","","","","","","","","","","","","","","","NaN",""
"","S1","","html-keyboard-response","84","368430","0.0-1.0-110.0","0","0","95395","","null","","","null","12","","","","","","","","","","","","","","","",""
"","ISI","","html-keyboard-response","85","370432","0.0-1.0-111.0","0","0","95395","","null","","","null","12","NaN","","","","","","","","","","","","","","",""
"","S2","","html-keyboard-response","86","370584","0.0-1.0-112.0","0","0","95395","","null","","","null","12","","NaN","","","","","","","","","","","","","",""
"","response","","html-keyboard-response","87","371262","0.0-1.0-113.0-0.0","0","0","95395","","677","","","68","12","","","1","12","training","adjacent","CB","3","2","Q.jpg","M.jpg","0","0","1","",""
"","feedback","","html-keyboard-response","88","372263","0.0-1.0-114.0-0.0","0","0","95395","","null","","","null","12","","","","","","","","","","","","","","","",""
"","ITI","","html-keyboard-response","89","373265","0.0-1.0-117.0","0","0","95395","","null","","","null","12","","","","","","","","","","","","","","","NaN",""
"","S1","","html-keyboard-response","90","373417","0.0-1.0-119.0","0","0","95395","","null","","","null","13","","","","","","","","","","","","","","","",""
"","ISI","","html-keyboard-response","91","375419","0.0-1.0-120.0","0","0","95395","","null","","","null","13","NaN","","","","","","","","","","","","","","",""
"","S2","","html-keyboard-response","92","375572","0.0-1.0-121.0","0","0","95395","","null","","","null","13","","NaN","","","","","","","","","","","","","",""
"","response","","html-keyboard-response","93","376124","0.0-1.0-122.0-0.0","0","0","95395","","551","","","75","13","","","1","13","training","adjacent","BA","2","1","M.jpg","R.jpg","1","0","0","",""
"","feedback","","html-keyboard-response","94","377126","0.0-1.0-123.0-0.0","0","0","95395","","null","","","null","13","","","","","","","","","","","","","","","",""
"","time_out","","html-keyboard-response","95","379127","0.0-1.0-125.0-0.0","0","0","95395","","null","","","null","13","","","","","","","","","","","","","","","",""
"","ITI","","html-keyboard-response","96","380129","0.0-1.0-126.0","0","0","95395","","null","","","null","13","","","","","","","","","","","","","","","NaN",""
"","S1","","html-keyboard-response","97","380281","0.0-1.0-128.0","0","0","95395","","null","","","null","14","","","","","","","","","","","","","","","",""
"","ISI","","html-keyboard-response","98","382282","0.0-1.0-129.0","0","0","95395","","null","","","null","14","NaN","","","","","","","","","","","","","","",""
"","S2","","html-keyboard-response","99","382435","0.0-1.0-130.0","0","0","95395","","null","","","null","14","","NaN","","","","","","","","","","","","","",""
"","response","","html-keyboard-response","100","383132","0.0-1.0-131.0-0.0","0","0","95395","","697","","","75","14","","","1","14","training","adjacent","DE","4","5","L.jpg","O.jpg","1","1","1","",""
"","feedback","","html-keyboard-response","101","384139","0.0-1.0-132.0-0.0","0","0","95395","","null","","","null","14","","","","","","","","","","","","","","","",""
"","ITI","","html-keyboard-response","102","385141","0.0-1.0-135.0","0","0","95395","","null","","","null","14","","","","","","","","","","","","","","","NaN",""
"","S1","","html-keyboard-response","103","385294","0.0-1.0-137.0","0","0","95395","","null","","","null","15","","","","","","","","","","","","","","","",""
"","ISI","","html-keyboard-response","104","387296","0.0-1.0-138.0","0","0","95395","","null","","","null","15","NaN","","","","","","","","","","","","","","",""
"","S2","","html-keyboard-response","105","387449","0.0-1.0-139.0","0","0","95395","","null","","","null","15","","NaN","","","","","","","","","","","","","",""
"","response","","html-keyboard-response","106","387861","0.0-1.0-140.0-0.0","0","0","95395","","411","","","75","15","","","1","15","training","adjacent","DE","4","5","L.jpg","O.jpg","1","1","1","",""
"","feedback","","html-keyboard-response","107","388863","0.0-1.0-141.0-0.0","0","0","95395","","null","","","null","15","","","","","","","","","","","","","","","",""
"","ITI","","html-keyboard-response","108","389865","0.0-1.0-144.0","0","0","95395","","null","","","null","15","","","","","","","","","","","","","","","NaN",""
"","S1","","html-keyboard-response","109","390017","0.0-1.0-146.0","0","0","95395","","null","","","null","16","","","","","","","","","","","","","","","",""
"","ISI","","html-keyboard-response","110","392019","0.0-1.0-147.0","0","0","95395","","null","","","null","16","NaN","","","","","","","","","","","","","","",""
"","S2","","html-keyboard-response","111","392171","0.0-1.0-148.0","0","0","95395","","null","","","null","16","","NaN","","","","","","","","","","","","","",""
"","response","","html-keyboard-response","112","392732","0.0-1.0-149.0-0.0","0","0","95395","","560","","","68","16","","","1","16","training","adjacent","FE","6","5","N.jpg","O.jpg","0","0","1","",""
"","feedback","","html-keyboard-response","113","393735","0.0-1.0-150.0-0.0","0","0","95395","","null","","","null","16","","","","","","","","","","","","","","","",""
"","ITI","","html-keyboard-response","114","394737","0.0-1.0-153.0","0","0","95395","","null","","","null","16","","","","","","","","","","","","","","","NaN",""
"","S1","","html-keyboard-response","115","394889","0.0-1.0-155.0","0","0","95395","","null","","","null","17","","","","","","","","","","","","","","","",""
"","ISI","","html-keyboard-response","116","396891","0.0-1.0-156.0","0","0","95395","","null","","","null","17","NaN","","","","","","","","","","","","","","",""
"","S2","","html-keyboard-response","117","397044","0.0-1.0-157.0","0","0","95395","","null","","","null","17","","NaN","","","","","","","","","","","","","",""
"","response","","html-keyboard-response","118","397517","0.0-1.0-158.0-0.0","0","0","95395","","472","","","75","17","","","1","17","training","adjacent","BC","2","3","M.jpg","Q.jpg","1","1","1","",""
"","feedback","","html-keyboard-response","119","398519","0.0-1.0-159.0-0.0","0","0","95395","","null","","","null","17","","","","","","","","","","","","","","","",""
"","ITI","","html-keyboard-response","120","399521","0.0-1.0-162.0","0","0","95395","","null","","","null","17","","","","","","","","","","","","","","","NaN",""
"","S1","","html-keyboard-response","121","399673","0.0-1.0-164.0","0","0","95395","","null","","","null","18","","","","","","","","","","","","","","","",""
"","ISI","","html-keyboard-response","122","401675","0.0-1.0-165.0","0","0","95395","","null","","","null","18","NaN","","","","","","","","","","","","","","",""
"","S2","","html-keyboard-response","123","401834","0.0-1.0-166.0","0","0","95395","","null","","","null","18","","NaN","","","","","","","","","","","","","",""
"","response","","html-keyboard-response","124","402477","0.0-1.0-167.0-0.0","0","0","95395","","641","","","68","18","","","1","18","training","adjacent","FE","6","5","N.jpg","O.jpg","0","0","1","",""
"","feedback","","html-keyboard-response","125","403480","0.0-1.0-168.0-0.0","0","0","95395","","null","","","null","18","","","","","","","","","","","","","","","",""
"","ITI","","html-keyboard-response","126","404482","0.0-1.0-171.0","0","0","95395","","null","","","null","18","","","","","","","","","","","","","","","NaN",""
"","S1","","html-keyboard-response","127","404635","0.0-1.0-173.0","0","0","95395","","null","","","null","19","","","","","","","","","","","","","","","",""
"","ISI","","html-keyboard-response","128","406651","0.0-1.0-174.0","0","0","95395","","null","","","null","19","NaN","","","","","","","","","","","","","","",""
"","S2","","html-keyboard-response","129","406803","0.0-1.0-175.0","0","0","95395","","null","","","null","19","","NaN","","","","","","","","","","","","","",""
"","response","","html-keyboard-response","130","407397","0.0-1.0-176.0-0.0","0","0","95395","","593","","","75","19","","","1","19","training","adjacent","EF","5","6","O.jpg","N.jpg","1","1","1","",""
"","feedback","","html-keyboard-response","131","408400","0.0-1.0-177.0-0.0","0","0","95395","","null","","","null","19","","","","","","","","","","","","","","","",""
"","ITI","","html-keyboard-response","132","409402","0.0-1.0-180.0","0","0","95395","","null","","","null","19","","","","","","","","","","","","","","","NaN",""
"","S1","","html-keyboard-response","133","409553","0.0-1.0-182.0","0","0","95395","","null","","","null","20","","","","","","","","","","","","","","","",""
"","ISI","","html-keyboard-response","134","411556","0.0-1.0-183.0","0","0","95395","","null","","","null","20","NaN","","","","","","","","","","","","","","",""
"","S2","","html-keyboard-response","135","411708","0.0-1.0-184.0","0","0","95395","","null","","","null","20","","NaN","","","","","","","","","","","","","",""
"","response","","html-keyboard-response","136","412181","0.0-1.0-185.0-0.0","0","0","95395","","472","","","68","20","","","1","20","training","adjacent","GF","7","6","P.jpg","N.jpg","0","0","1","",""
"","feedback","","html-keyboard-response","137","413183","0.0-1.0-186.0-0.0","0","0","95395","","null","","","null","20","","","","","","","","","","","","","","","",""
"","ITI","","html-keyboard-response","138","414186","0.0-1.0-189.0","0","0","95395","","null","","","null","20","","","","","","","","","","","","","","","NaN",""
"","S1","","html-keyboard-response","139","414338","0.0-1.0-191.0","0","0","95395","","null","","","null","21","","","","","","","","","","","","","","","",""
"","ISI","","html-keyboard-response","140","416341","0.0-1.0-192.0","0","0","95395","","null","","","null","21","NaN","","","","","","","","","","","","","","",""
"","S2","","html-keyboard-response","141","416493","0.0-1.0-193.0","0","0","95395","","null","","","null","21","","NaN","","","","","","","","","","","","","",""
"","response","","html-keyboard-response","142","417404","0.0-1.0-194.0-0.0","0","0","95395","","911","","","68","21","","","1","21","training","adjacent","FG","6","7","N.jpg","P.jpg","0","1","0","",""
"","feedback","","html-keyboard-response","143","418407","0.0-1.0-195.0-0.0","0","0","95395","","null","","","null","21","","","","","","","","","","","","","","","",""
"","time_out","","html-keyboard-response","144","420409","0.0-1.0-197.0-0.0","0","0","95395","","null","","","null","21","","","","","","","","","","","","","","","",""
"","ITI","","html-keyboard-response","145","421411","0.0-1.0-198.0","0","0","95395","","null","","","null","21","","","","","","","","","","","","","","","NaN",""
"","S1","","html-keyboard-response","146","421563","0.0-1.0-200.0","0","0","95395","","null","","","null","22","","","","","","","","","","","","","","","",""
"","ISI","","html-keyboard-response","147","423566","0.0-1.0-201.0","0","0","95395","","null","","","null","22","NaN","","","","","","","","","","","","","","",""
"","S2","","html-keyboard-response","148","423719","0.0-1.0-202.0","0","0","95395","","null","","","null","22","","NaN","","","","","","","","","","","","","",""
"","response","","html-keyboard-response","149","424181","0.0-1.0-203.0-0.0","0","0","95395","","461","","","75","22","","","1","22","training","adjacent","DE","4","5","L.jpg","O.jpg","1","1","1","",""
"","feedback","","html-keyboard-response","150","425183","0.0-1.0-204.0-0.0","0","0","95395","","null","","","null","22","","","","","","","","","","","","","","","",""
"","ITI","","html-keyboard-response","151","426186","0.0-1.0-207.0","0","0","95395","","null","","","null","22","","","","","","","","","","","","","","","NaN",""
"","S1","","html-keyboard-response","152","426338","0.0-1.0-209.0","0","0","95395","","null","","","null","23","","","","","","","","","","","","","","","",""
"","ISI","","html-keyboard-response","153","428354","0.0-1.0-210.0","0","0","95395","","null","","","null","23","NaN","","","","","","","","","","","","","","",""
"","S2","","html-keyboard-response","154","428505","0.0-1.0-211.0","0","0","95395","","null","","","null","23","","NaN","","","","","","","","","","","","","",""
"","response","","html-keyboard-response","155","429005","0.0-1.0-212.0-0.0","0","0","95395","","499","","","68","23","","","1","23","training","adjacent","FE","6","5","N.jpg","O.jpg","0","0","1","",""
"","feedback","","html-keyboard-response","156","430007","0.0-1.0-213.0-0.0","0","0","95395","","null","","","null","23","","","","","","","","","","","","","","","",""
"","ITI","","html-keyboard-response","157","431016","0.0-1.0-216.0","0","0","95395","","null","","","null","23","","","","","","","","","","","","","","","NaN",""
"","S1","","html-keyboard-response","158","431169","0.0-1.0-218.0","0","0","95395","","null","","","null","24","","","","","","","","","","","","","","","",""
"","ISI","","html-keyboard-response","159","433171","0.0-1.0-219.0","0","0","95395","","null","","","null","24","NaN","","","","","","","","","","","","","","",""
"","S2","","html-keyboard-response","160","433324","0.0-1.0-220.0","0","0","95395","","null","","","null","24","","NaN","","","","","","","","","","","","","",""
"","response","","html-keyboard-response","161","433981","0.0-1.0-221.0-0.0","0","0","95395","","656","","","68","24","","","1","24","training","adjacent","GF","7","6","P.jpg","N.jpg","0","0","1","",""
"","feedback","","html-keyboard-response","162","434983","0.0-1.0-222.0-0.0","0","0","95395","","null","","","null","24","","","","","","","","","","","","","","","",""
"","ITI","","html-keyboard-response","163","435985","0.0-1.0-225.0","0","0","95395","","null","","","null","24","","","","","","","","","","","","","","","NaN",""
"","S1","","html-keyboard-response","164","436137","0.0-1.0-227.0","0","0","95395","","null","","","null","25","","","","","","","","","","","","","","","",""
"","ISI","","html-keyboard-response","165","438140","0.0-1.0-228.0","0","0","95395","","null","","","null","25","NaN","","","","","","","","","","","","","","",""
"","S2","","html-keyboard-response","166","438293","0.0-1.0-229.0","0","0","95395","","null","","","null","25","","NaN","","","","","","","","","","","","","",""
"","response","","html-keyboard-response","167","439238","0.0-1.0-230.0-0.0","0","0","95395","","944","","","75","25","","","1","25","training","adjacent","AB","1","2","R.jpg","M.jpg","1","1","1","",""
"","feedback","","html-keyboard-response","168","440240","0.0-1.0-231.0-0.0","0","0","95395","","null","","","null","25","","","","","","","","","","","","","","","",""
"","ITI","","html-keyboard-response","169","441243","0.0-1.0-234.0","0","0","95395","","null","","","null","25","","","","","","","","","","","","","","","NaN",""
"","S1","","html-keyboard-response","170","441395","0.0-1.0-236.0","0","0","95395","","null","","","null","26","","","","","","","","","","","","","","","",""
"","ISI","","html-keyboard-response","171","443397","0.0-1.0-237.0","0","0","95395","","null","","","null","26","NaN","","","","","","","","","","","","","","",""
"","S2","","html-keyboard-response","172","443549","0.0-1.0-238.0","0","0","95395","","null","","","null","26","","NaN","","","","","","","","","","","","","",""
"","response","","html-keyboard-response","173","444118","0.0-1.0-239.0-0.0","0","0","95395","","567","","","75","26","","","1","26","training","adjacent","DC","4","3","L.jpg","Q.jpg","1","0","0","",""
"","feedback","","html-keyboard-response","174","445120","0.0-1.0-240.0-0.0","0","0","95395","","null","","","null","26","","","","","","","","","","","","","","","",""
"","time_out","","html-keyboard-response","175","447123","0.0-1.0-242.0-0.0","0","0","95395","","null","","","null","26","","","","","","","","","","","","","","","",""
"","ITI","","html-keyboard-response","176","448125","0.0-1.0-243.0","0","0","95395","","null","","","null","26","","","","","","","","","","","","","","","NaN",""
"","S1","","html-keyboard-response","177","448282","0.0-1.0-245.0","0","0","95395","","null","","","null","27","","","","","","","","","","","","","","","",""
"","ISI","","html-keyboard-response","178","450283","0.0-1.0-246.0","0","0","95395","","null","","","null","27","NaN","","","","","","","","","","","","","","",""
"","S2","","html-keyboard-response","179","450435","0.0-1.0-247.0","0","0","95395","","null","","","null","27","","NaN","","","","","","","","","","","","","",""
"","response","","html-keyboard-response","180","450997","0.0-1.0-248.0-0.0","0","0","95395","","561","","","68","27","","","1","27","training","adjacent","FE","6","5","N.jpg","O.jpg","0","0","1","",""
"","feedback","","html-keyboard-response","181","451998","0.0-1.0-249.0-0.0","0","0","95395","","null","","","null","27","","","","","","","","","","","","","","","",""
"","ITI","","html-keyboard-response","182","453000","0.0-1.0-252.0","0","0","95395","","null","","","null","27","","","","","","","","","","","","","","","NaN",""
"","S1","","html-keyboard-response","183","453152","0.0-1.0-254.0","0","0","95395","","null","","","null","28","","","","","","","","","","","","","","","",""
"","ISI","","html-keyboard-response","184","455154","0.0-1.0-255.0","0","0","95395","","null","","","null","28","NaN","","","","","","","","","","","","","","",""
"","S2","","html-keyboard-response","185","455307","0.0-1.0-256.0","0","0","95395","","null","","","null","28","","NaN","","","","","","","","","","","","","",""
"","response","","html-keyboard-response","186","455989","0.0-1.0-257.0-0.0","0","0","95395","","681","","","68","28","","","1","28","training","adjacent","BA","2","1","M.jpg","R.jpg","0","0","1","",""
"","feedback","","html-keyboard-response","187","456991","0.0-1.0-258.0-0.0","0","0","95395","","null","","","null","28","","","","","","","","","","","","","","","",""
"","ITI","","html-keyboard-response","188","457992","0.0-1.0-261.0","0","0","95395","","null","","","null","28","","","","","","","","","","","","","","","NaN",""
"","S1","","html-keyboard-response","189","458144","0.0-1.0-263.0","0","0","95395","","null","","","null","29","","","","","","","","","","","","","","","",""
"","ISI","","html-keyboard-response","190","460146","0.0-1.0-264.0","0","0","95395","","null","","","null","29","NaN","","","","","","","","","","","","","","",""
"","S2","","html-keyboard-response","191","460299","0.0-1.0-265.0","0","0","95395","","null","","","null","29","","NaN","","","","","","","","","","","","","",""
"","response","","html-keyboard-response","192","461357","0.0-1.0-266.0-0.0","0","0","95395","","1058","","","68","29","","","1","29","training","adjacent","CB","3","2","Q.jpg","M.jpg","0","0","1","",""
"","feedback","","html-keyboard-response","193","462360","0.0-1.0-267.0-0.0","0","0","95395","","null","","","null","29","","","","","","","","","","","","","","","",""
"","ITI","","html-keyboard-response","194","463362","0.0-1.0-270.0","0","0","95395","","null","","","null","29","","","","","","","","","","","","","","","NaN",""
"","S1","","html-keyboard-response","195","463514","0.0-1.0-272.0","0","0","95395","","null","","","null","30","","","","","","","","","","","","","","","",""
"","ISI","","html-keyboard-response","196","465517","0.0-1.0-273.0","0","0","95395","","null","","","null","30","NaN","","","","","","","","","","","","","","",""
"","S2","","html-keyboard-response","197","465670","0.0-1.0-274.0","0","0","95395","","null","","","null","30","","NaN","","","","","","","","","","","","","",""
"","response","","html-keyboard-response","198","466485","0.0-1.0-275.0-0.0","0","0","95395","","814","","","75","30","","","1","30","training","adjacent","AB","1","2","R.jpg","M.jpg","1","1","1","",""
"","feedback","","html-keyboard-response","199","467488","0.0-1.0-276.0-0.0","0","0","95395","","null","","","null","30","","","","","","","","","","","","","","","",""
"","ITI","","html-keyboard-response","200","468490","0.0-1.0-279.0","0","0","95395","","null","","","null","30","","","","","","","","","","","","","","","NaN",""
"","S1","","html-keyboard-response","201","468642","0.0-1.0-281.0","0","0","95395","","null","","","null","31","","","","","","","","","","","","","","","",""
"","ISI","","html-keyboard-response","202","470644","0.0-1.0-282.0","0","0","95395","","null","","","null","31","NaN","","","","","","","","","","","","","","",""
"","S2","","html-keyboard-response","203","470796","0.0-1.0-283.0","0","0","95395","","null","","","null","31","","NaN","","","","","","","","","","","","","",""
"","response","","html-keyboard-response","204","471838","0.0-1.0-284.0-0.0","0","0","95395","","1041","","","68","31","","","1","31","training","adjacent","ED","5","4","O.jpg","L.jpg","0","0","1","",""
"","feedback","","html-keyboard-response","205","472852","0.0-1.0-285.0-0.0","0","0","95395","","null","","","null","31","","","","","","","","","","","","","","","",""
"","ITI","","html-keyboard-response","206","473854","0.0-1.0-288.0","0","0","95395","","null","","","null","31","","","","","","","","","","","","","","","NaN",""
"","S1","","html-keyboard-response","207","474005","0.0-1.0-290.0","0","0","95395","","null","","","null","32","","","","","","","","","","","","","","","",""
"","ISI","","html-keyboard-response","208","476007","0.0-1.0-291.0","0","0","95395","","null","","","null","32","NaN","","","","","","","","","","","","","","",""
"","S2","","html-keyboard-response","209","476160","0.0-1.0-292.0","0","0","95395","","null","","","null","32","","NaN","","","","","","","","","","","","","",""
"","response","","html-keyboard-response","210","476749","0.0-1.0-293.0-0.0","0","0","95395","","588","","","68","32","","","1","32","training","adjacent","CD","3","4","Q.jpg","L.jpg","0","1","0","",""
"","feedback","","html-keyboard-response","211","477751","0.0-1.0-294.0-0.0","0","0","95395","","null","","","null","32","","","","","","","","","","","","","","","",""
"","time_out","","html-keyboard-response","212","479754","0.0-1.0-296.0-0.0","0","0","95395","","null","","","null","32","","","","","","","","","","","","","","","",""
"","ITI","","html-keyboard-response","213","480756","0.0-1.0-297.0","0","0","95395","","null","","","null","32","","","","","","","","","","","","","","","NaN",""
"","S1","","html-keyboard-response","214","480908","0.0-1.0-299.0","0","0","95395","","null","","","null","33","","","","","","","","","","","","","","","",""
"","ISI","","html-keyboard-response","215","482910","0.0-1.0-300.0","0","0","95395","","null","","","null","33","NaN","","","","","","","","","","","","","","",""
"","S2","","html-keyboard-response","216","483062","0.0-1.0-301.0","0","0","95395","","null","","","null","33","","NaN","","","","","","","","","","","","","",""
"","response","","html-keyboard-response","217","483973","0.0-1.0-302.0-0.0","0","0","95395","","910","","","68","33","","","1","33","training","adjacent","CD","3","4","Q.jpg","L.jpg","0","1","0","",""
"","feedback","","html-keyboard-response","218","484975","0.0-1.0-303.0-0.0","0","0","95395","","null","","","null","33","","","","","","","","","","","","","","","",""
"","time_out","","html-keyboard-response","219","486977","0.0-1.0-305.0-0.0","0","0","95395","","null","","","null","33","","","","","","","","","","","","","","","",""
"","ITI","","html-keyboard-response","220","487980","0.0-1.0-306.0","0","0","95395","","null","","","null","33","","","","","","","","","","","","","","","NaN",""
"","S1","","html-keyboard-response","221","488132","0.0-1.0-308.0","0","0","95395","","null","","","null","34","","","","","","","","","","","","","","","",""
"","ISI","","html-keyboard-response","222","490135","0.0-1.0-309.0","0","0","95395","","null","","","null","34","NaN","","","","","","","","","","","","","","",""
"","S2","","html-keyboard-response","223","490287","0.0-1.0-310.0","0","0","95395","","null","","","null","34","","NaN","","","","","","","","","","","","","",""
"","response","","html-keyboard-response","224","491254","0.0-1.0-311.0-0.0","0","0","95395","","965","","","68","34","","","1","34","training","adjacent","ED","5","4","O.jpg","L.jpg","0","0","1","",""
"","feedback","","html-keyboard-response","225","492255","0.0-1.0-312.0-0.0","0","0","95395","","null","","","null","34","","","","","","","","","","","","","","","",""
"","ITI","","html-keyboard-response","226","493257","0.0-1.0-315.0","0","0","95395","","null","","","null","34","","","","","","","","","","","","","","","NaN",""
"","S1","","html-keyboard-response","227","493409","0.0-1.0-317.0","0","0","95395","","null","","","null","35","","","","","","","","","","","","","","","",""
"","ISI","","html-keyboard-response","228","495411","0.0-1.0-318.0","0","0","95395","","null","","","null","35","NaN","","","","","","","","","","","","","","",""
"","S2","","html-keyboard-response","229","495562","0.0-1.0-319.0","0","0","95395","","null","","","null","35","","NaN","","","","","","","","","","","","","",""
"","response","","html-keyboard-response","230","495902","0.0-1.0-320.0-0.0","0","0","95395","","338","","","75","35","","","1","35","training","adjacent","AB","1","2","R.jpg","M.jpg","1","1","1","",""
"","feedback","","html-keyboard-response","231","496904","0.0-1.0-321.0-0.0","0","0","95395","","null","","","null","35","","","","","","","","","","","","","","","",""
"","ITI","","html-keyboard-response","232","497906","0.0-1.0-324.0","0","0","95395","","null","","","null","35","","","","","","","","","","","","","","","NaN",""
"","S1","","html-keyboard-response","233","498059","0.0-1.0-326.0","0","0","95395","","null","","","null","36","","","","","","","","","","","","","","","",""
"","ISI","","html-keyboard-response","234","500061","0.0-1.0-327.0","0","0","95395","","null","","","null","36","NaN","","","","","","","","","","","","","","",""
"","S2","","html-keyboard-response","235","500214","0.0-1.0-328.0","0","0","95395","","null","","","null","36","","NaN","","","","","","","","","","","","","",""
"","response","","html-keyboard-response","236","501365","0.0-1.0-329.0-0.0","0","0","95395","","1151","","","68","36","","","1","36","training","adjacent","BA","2","1","M.jpg","R.jpg","0","0","1","",""
"","feedback","","html-keyboard-response","237","502368","0.0-1.0-330.0-0.0","0","0","95395","","null","","","null","36","","","","","","","","","","","","","","","",""
"","ITI","","html-keyboard-response","238","503371","0.0-1.0-333.0","0","0","95395","","null","","","null","36","","","","","","","","","","","","","","","NaN",""
"","S1","","html-keyboard-response","239","503523","0.0-1.0-335.0","0","0","95395","","null","","","null","37","","","","","","","","","","","","","","","",""
"","ISI","","html-keyboard-response","240","505525","0.0-1.0-336.0","0","0","95395","","null","","","null","37","NaN","","","","","","","","","","","","","","",""
"","S2","","html-keyboard-response","241","505683","0.0-1.0-337.0","0","0","95395","","null","","","null","37","","NaN","","","","","","","","","","","","","",""
"","response","","html-keyboard-response","242","506350","0.0-1.0-338.0-0.0","0","0","95395","","666","","","68","37","","","1","37","training","adjacent","CB","3","2","Q.jpg","M.jpg","0","0","1","",""
"","feedback","","html-keyboard-response","243","507352","0.0-1.0-339.0-0.0","0","0","95395","","null","","","null","37","","","","","","","","","","","","","","","",""
"","ITI","","html-keyboard-response","244","508354","0.0-1.0-342.0","0","0","95395","","null","","","null","37","","","","","","","","","","","","","","","NaN",""
"","S1","","html-keyboard-response","245","508507","0.0-1.0-344.0","0","0","95395","","null","","","null","38","","","","","","","","","","","","","","","",""
"","ISI","","html-keyboard-response","246","510508","0.0-1.0-345.0","0","0","95395","","null","","","null","38","NaN","","","","","","","","","","","","","","",""
"","S2","","html-keyboard-response","247","510660","0.0-1.0-346.0","0","0","95395","","null","","","null","38","","NaN","","","","","","","","","","","","","",""
"","response","","html-keyboard-response","248","511453","0.0-1.0-347.0-0.0","0","0","95395","","792","","","68","38","","","1","38","training","adjacent","ED","5","4","O.jpg","L.jpg","0","0","1","",""
"","feedback","","html-keyboard-response","249","512456","0.0-1.0-348.0-0.0","0","0","95395","","null","","","null","38","","","","","","","","","","","","","","","",""
"","ITI","","html-keyboard-response","250","513458","0.0-1.0-351.0","0","0","95395","","null","","","null","38","","","","","","","","","","","","","","","NaN",""
"","S1","","html-keyboard-response","251","513610","0.0-1.0-353.0","0","0","95395","","null","","","null","39","","","","","","","","","","","","","","","",""
"","ISI","","html-keyboard-response","252","515612","0.0-1.0-354.0","0","0","95395","","null","","","null","39","NaN","","","","","","","","","","","","","","",""
"","S2","","html-keyboard-response","253","515765","0.0-1.0-355.0","0","0","95395","","null","","","null","39","","NaN","","","","","","","","","","","","","",""
"","response","","html-keyboard-response","254","516510","0.0-1.0-356.0-0.0","0","0","95395","","744","","","68","39","","","1","39","training","adjacent","AB","1","2","R.jpg","M.jpg","0","1","0","",""
"","feedback","","html-keyboard-response","255","517512","0.0-1.0-357.0-0.0","0","0","95395","","null","","","null","39","","","","","","","","","","","","","","","",""
"","time_out","","html-keyboard-response","256","519515","0.0-1.0-359.0-0.0","0","0","95395","","null","","","null","39","","","","","","","","","","","","","","","",""
"","ITI","","html-keyboard-response","257","520517","0.0-1.0-360.0","0","0","95395","","null","","","null","39","","","","","","","","","","","","","","","NaN",""
"","S1","","html-keyboard-response","258","520670","0.0-1.0-362.0","0","0","95395","","null","","","null","40","","","","","","","","","","","","","","","",""
"","ISI","","html-keyboard-response","259","522672","0.0-1.0-363.0","0","0","95395","","null","","","null","40","NaN","","","","","","","","","","","","","","",""
"","S2","","html-keyboard-response","260","522824","0.0-1.0-364.0","0","0","95395","","null","","","null","40","","NaN","","","","","","","","","","","","","",""
"","response","","html-keyboard-response","261","523485","0.0-1.0-365.0-0.0","0","0","95395","","660","","","68","40","","","1","40","training","adjacent","FG","6","7","N.jpg","P.jpg","0","1","0","",""
"","feedback","","html-keyboard-response","262","524489","0.0-1.0-366.0-0.0","0","0","95395","","null","","","null","40","","","","","","","","","","","","","","","",""
"","time_out","","html-keyboard-response","263","526491","0.0-1.0-368.0-0.0","0","0","95395","","null","","","null","40","","","","","","","","","","","","","","","",""
"","ITI","","html-keyboard-response","264","527494","0.0-1.0-369.0","0","0","95395","","null","","","null","40","","","","","","","","","","","","","","","NaN",""
"","S1","","html-keyboard-response","265","527646","0.0-1.0-371.0","0","0","95395","","null","","","null","41","","","","","","","","","","","","","","","",""
"","ISI","","html-keyboard-response","266","529648","0.0-1.0-372.0","0","0","95395","","null","","","null","41","NaN","","","","","","","","","","","","","","",""
"","S2","","html-keyboard-response","267","529801","0.0-1.0-373.0","0","0","95395","","null","","","null","41","","NaN","","","","","","","","","","","","","",""
"","response","","html-keyboard-response","268","530725","0.0-1.0-374.0-0.0","0","0","95395","","924","","","68","41","","","1","41","training","adjacent","CD","3","4","Q.jpg","L.jpg","0","1","0","",""
"","feedback","","html-keyboard-response","269","531728","0.0-1.0-375.0-0.0","0","0","95395","","null","","","null","41","","","","","","","","","","","","","","","",""
"","time_out","","html-keyboard-response","270","533729","0.0-1.0-377.0-0.0","0","0","95395","","null","","","null","41","","","","","","","","","","","","","","","",""
"","ITI","","html-keyboard-response","271","534732","0.0-1.0-378.0","0","0","95395","","null","","","null","41","","","","","","","","","","","","","","","NaN",""
"","S1","","html-keyboard-response","272","534884","0.0-1.0-380.0","0","0","95395","","null","","","null","42","","","","","","","","","","","","","","","",""
"","ISI","","html-keyboard-response","273","536886","0.0-1.0-381.0","0","0","95395","","null","","","null","42","NaN","","","","","","","","","","","","","","",""
"","S2","","html-keyboard-response","274","537038","0.0-1.0-382.0","0","0","95395","","null","","","null","42","","NaN","","","","","","","","","","","","","",""
"","response","","html-keyboard-response","275","537598","0.0-1.0-383.0-0.0","0","0","95395","","559","","","75","42","","","1","42","training","adjacent","FG","6","7","N.jpg","P.jpg","1","1","1","",""
"","feedback","","html-keyboard-response","276","538611","0.0-1.0-384.0-0.0","0","0","95395","","null","","","null","42","","","","","","","","","","","","","","","",""
"","ITI","","html-keyboard-response","277","539614","0.0-1.0-387.0","0","0","95395","","null","","","null","42","","","","","","","","","","","","","","","NaN",""
"","S1","","html-keyboard-response","278","539768","0.0-1.0-389.0","0","0","95395","","null","","","null","43","","","","","","","","","","","","","","","",""
"","ISI","","html-keyboard-response","279","541769","0.0-1.0-390.0","0","0","95395","","null","","","null","43","NaN","","","","","","","","","","","","","","",""
"","S2","","html-keyboard-response","280","541922","0.0-1.0-391.0","0","0","95395","","null","","","null","43","","NaN","","","","","","","","","","","","","",""
"","response","","html-keyboard-response","281","542766","0.0-1.0-392.0-0.0","0","0","95395","","843","","","75","43","","","1","43","training","adjacent","EF","5","6","O.jpg","N.jpg","1","1","1","",""
"","feedback","","html-keyboard-response","282","543768","0.0-1.0-393.0-0.0","0","0","95395","","null","","","null","43","","","","","","","","","","","","","","","",""
"","ITI","","html-keyboard-response","283","544771","0.0-1.0-396.0","0","0","95395","","null","","","null","43","","","","","","","","","","","","","","","NaN",""
"","S1","","html-keyboard-response","284","544923","0.0-1.0-398.0","0","0","95395","","null","","","null","44","","","","","","","","","","","","","","","",""
"","ISI","","html-keyboard-response","285","546925","0.0-1.0-399.0","0","0","95395","","null","","","null","44","NaN","","","","","","","","","","","","","","",""
"","S2","","html-keyboard-response","286","547077","0.0-1.0-400.0","0","0","95395","","null","","","null","44","","NaN","","","","","","","","","","","","","",""
"","response","","html-keyboard-response","287","547556","0.0-1.0-401.0-0.0","0","0","95395","","479","","","68","44","","","1","44","training","adjacent","DC","4","3","L.jpg","Q.jpg","0","0","1","",""
"","feedback","","html-keyboard-response","288","548558","0.0-1.0-402.0-0.0","0","0","95395","","null","","","null","44","","","","","","","","","","","","","","","",""
"","ITI","","html-keyboard-response","289","549561","0.0-1.0-405.0","0","0","95395","","null","","","null","44","","","","","","","","","","","","","","","NaN",""
"","S1","","html-keyboard-response","290","549713","0.0-1.0-407.0","0","0","95395","","null","","","null","45","","","","","","","","","","","","","","","",""
"","ISI","","html-keyboard-response","291","551716","0.0-1.0-408.0","0","0","95395","","null","","","null","45","NaN","","","","","","","","","","","","","","",""
"","S2","","html-keyboard-response","292","551869","0.0-1.0-409.0","0","0","95395","","null","","","null","45","","NaN","","","","","","","","","","","","","",""
"","response","","html-keyboard-response","293","552221","0.0-1.0-410.0-0.0","0","0","95395","","351","","","68","45","","","1","45","training","adjacent","DC","4","3","L.jpg","Q.jpg","0","0","1","",""
"","feedback","","html-keyboard-response","294","553224","0.0-1.0-411.0-0.0","0","0","95395","","null","","","null","45","","","","","","","","","","","","","","","",""
"","ITI","","html-keyboard-response","295","554227","0.0-1.0-414.0","0","0","95395","","null","","","null","45","","","","","","","","","","","","","","","NaN",""
"","S1","","html-keyboard-response","296","554379","0.0-1.0-416.0","0","0","95395","","null","","","null","46","","","","","","","","","","","","","","","",""
"","ISI","","html-keyboard-response","297","556380","0.0-1.0-417.0","0","0","95395","","null","","","null","46","NaN","","","","","","","","","","","","","","",""
"","S2","","html-keyboard-response","298","556532","0.0-1.0-418.0","0","0","95395","","null","","","null","46","","NaN","","","","","","","","","","","","","",""
"","response","","html-keyboard-response","299","557133","0.0-1.0-419.0-0.0","0","0","95395","","600","","","68","46","","","1","46","training","adjacent","GF","7","6","P.jpg","N.jpg","0","0","1","",""
"","feedback","","html-keyboard-response","300","558135","0.0-1.0-420.0-0.0","0","0","95395","","null","","","null","46","","","","","","","","","","","","","","","",""
"","ITI","","html-keyboard-response","301","559139","0.0-1.0-423.0","0","0","95395","","null","","","null","46","","","","","","","","","","","","","","","NaN",""
"","S1","","html-keyboard-response","302","559292","0.0-1.0-425.0","0","0","95395","","null","","","null","47","","","","","","","","","","","","","","","",""
"","ISI","","html-keyboard-response","303","561295","0.0-1.0-426.0","0","0","95395","","null","","","null","47","NaN","","","","","","","","","","","","","","",""
"","S2","","html-keyboard-response","304","561447","0.0-1.0-427.0","0","0","95395","","null","","","null","47","","NaN","","","","","","","","","","","","","",""
"","response","","html-keyboard-response","305","562078","0.0-1.0-428.0-0.0","0","0","95395","","630","","","68","47","","","1","47","training","adjacent","DC","4","3","L.jpg","Q.jpg","0","0","1","",""
"","feedback","","html-keyboard-response","306","563080","0.0-1.0-429.0-0.0","0","0","95395","","null","","","null","47","","","","","","","","","","","","","","","",""
"","ITI","","html-keyboard-response","307","564082","0.0-1.0-432.0","0","0","95395","","null","","","null","47","","","","","","","","","","","","","","","NaN",""
"","block_over","","html-keyboard-response","308","567149","0.0-1.0-433.0-0.0","0","0","95395","","3065","","","32","47","","","","","","","","","","","","","","","",""
"","S1","","html-keyboard-response","309","567302","0.0-1.0-434.0","0","0","95395","","null","","","null","48","","","","","","","","","","","","","","","",""
"","ISI","","html-keyboard-response","310","569303","0.0-1.0-435.0","0","0","95395","","null","","","null","48","NaN","","","","","","","","","","","","","","",""
"","S2","","html-keyboard-response","311","569455","0.0-1.0-436.0","0","0","95395","","null","","","null","48","","NaN","","","","","","","","","","","","","",""
"","response","","html-keyboard-response","312","570238","0.0-1.0-437.0-0.0","0","0","95395","","781","","","68","48","","","2","48","training","adjacent","EF","5","6","O.jpg","N.jpg","0","1","0","",""
"","feedback","","html-keyboard-response","313","571247","0.0-1.0-438.0-0.0","0","0","95395","","null","","","null","48","","","","","","","","","","","","","","","",""
"","time_out","","html-keyboard-response","314","573250","0.0-1.0-440.0-0.0","0","0","95395","","null","","","null","48","","","","","","","","","","","","","","","",""
"","ITI","","html-keyboard-response","315","574251","0.0-1.0-441.0","0","0","95395","","null","","","null","48","","","","","","","","","","","","","","","NaN",""
"","S1","","html-keyboard-response","316","574403","0.0-1.0-443.0","0","0","95395","","null","","","null","49","","","","","","","","","","","","","","","",""
"","ISI","","html-keyboard-response","317","576406","0.0-1.0-444.0","0","0","95395","","null","","","null","49","NaN","","","","","","","","","","","","","","",""
"","S2","","html-keyboard-response","318","576572","0.0-1.0-445.0","0","0","95395","","null","","","null","49","","NaN","","","","","","","","","","","","","",""
"","response","","html-keyboard-response","319","576886","0.0-1.0-446.0-0.0","0","0","95395","","313","","","75","49","","","2","49","training","adjacent","FE","6","5","N.jpg","O.jpg","1","0","0","",""
"","feedback","","html-keyboard-response","320","577889","0.0-1.0-447.0-0.0","0","0","95395","","null","","","null","49","","","","","","","","","","","","","","","",""
"","time_out","","html-keyboard-response","321","579890","0.0-1.0-449.0-0.0","0","0","95395","","null","","","null","49","","","","","","","","","","","","","","","",""
"","ITI","","html-keyboard-response","322","580892","0.0-1.0-450.0","0","0","95395","","null","","","null","49","","","","","","","","","","","","","","","NaN",""
"","S1","","html-keyboard-response","323","581045","0.0-1.0-452.0","0","0","95395","","null","","","null","50","","","","","","","","","","","","","","","",""
"","ISI","","html-keyboard-response","324","583047","0.0-1.0-453.0","0","0","95395","","null","","","null","50","NaN","","","","","","","","","","","","","","",""
"","S2","","html-keyboard-response","325","583199","0.0-1.0-454.0","0","0","95395","","null","","","null","50","","NaN","","","","","","","","","","","","","",""
"","response","","html-keyboard-response","326","583782","0.0-1.0-455.0-0.0","0","0","95395","","582","","","75","50","","","2","50","training","adjacent","DE","4","5","L.jpg","O.jpg","1","1","1","",""
"","feedback","","html-keyboard-response","327","584785","0.0-1.0-456.0-0.0","0","0","95395","","null","","","null","50","","","","","","","","","","","","","","","",""
"","ITI","","html-keyboard-response","328","585788","0.0-1.0-459.0","0","0","95395","","null","","","null","50","","","","","","","","","","","","","","","NaN",""
"","S1","","html-keyboard-response","329","585940","0.0-1.0-461.0","0","0","95395","","null","","","null","51","","","","","","","","","","","","","","","",""
"","ISI","","html-keyboard-response","330","587942","0.0-1.0-462.0","0","0","95395","","null","","","null","51","NaN","","","","","","","","","","","","","","",""
"","S2","","html-keyboard-response","331","588094","0.0-1.0-463.0","0","0","95395","","null","","","null","51","","NaN","","","","","","","","","","","","","",""
"","response","","html-keyboard-response","332","588909","0.0-1.0-464.0-0.0","0","0","95395","","815","","","75","51","","","2","51","training","adjacent","EF","5","6","O.jpg","N.jpg","1","1","1","",""
"","feedback","","html-keyboard-response","333","589912","0.0-1.0-465.0-0.0","0","0","95395","","null","","","null","51","","","","","","","","","","","","","","","",""
"","ITI","","html-keyboard-response","334","590914","0.0-1.0-468.0","0","0","95395","","null","","","null","51","","","","","","","","","","","","","","","NaN",""
"","S1","","html-keyboard-response","335","591066","0.0-1.0-470.0","0","0","95395","","null","","","null","52","","","","","","","","","","","","","","","",""
"","ISI","","html-keyboard-response","336","593069","0.0-1.0-471.0","0","0","95395","","null","","","null","52","NaN","","","","","","","","","","","","","","",""
"","S2","","html-keyboard-response","337","593221","0.0-1.0-472.0","0","0","95395","","null","","","null","52","","NaN","","","","","","","","","","","","","",""
"","response","","html-keyboard-response","338","593837","0.0-1.0-473.0-0.0","0","0","95395","","614","","","75","52","","","2","52","training","adjacent","CB","3","2","Q.jpg","M.jpg","1","0","0","",""
"","feedback","","html-keyboard-response","339","594846","0.0-1.0-474.0-0.0","0","0","95395","","null","","","null","52","","","","","","","","","","","","","","","",""
"","time_out","","html-keyboard-response","340","596848","0.0-1.0-476.0-0.0","0","0","95395","","null","","","null","52","","","","","","","","","","","","","","","",""
"","ITI","","html-keyboard-response","341","597851","0.0-1.0-477.0","0","0","95395","","null","","","null","52","","","","","","","","","","","","","","","NaN",""
"","S1","","html-keyboard-response","342","598003","0.0-1.0-479.0","0","0","95395","","null","","","null","53","","","","","","","","","","","","","","","",""
"","ISI","","html-keyboard-response","343","600005","0.0-1.0-480.0","0","0","95395","","null","","","null","53","NaN","","","","","","","","","","","","","","",""
"","S2","","html-keyboard-response","344","600157","0.0-1.0-481.0","0","0","95395","","null","","","null","53","","NaN","","","","","","","","","","","","","",""
"","response","","html-keyboard-response","345","601213","0.0-1.0-482.0-0.0","0","0","95395","","1056","","","68","53","","","2","53","training","adjacent","CD","3","4","Q.jpg","L.jpg","0","1","0","",""
"","feedback","","html-keyboard-response","346","602215","0.0-1.0-483.0-0.0","0","0","95395","","null","","","null","53","","","","","","","","","","","","","","","",""
"","time_out","","html-keyboard-response","347","604218","0.0-1.0-485.0-0.0","0","0","95395","","null","","","null","53","","","","","","","","","","","","","","","",""
"","ITI","","html-keyboard-response","348","605220","0.0-1.0-486.0","0","0","95395","","null","","","null","53","","","","","","","","","","","","","","","NaN",""
"","S1","","html-keyboard-response","349","605374","0.0-1.0-488.0","0","0","95395","","null","","","null","54","","","","","","","","","","","","","","","",""
"","ISI","","html-keyboard-response","350","607376","0.0-1.0-489.0","0","0","95395","","null","","","null","54","NaN","","","","","","","","","","","","","","",""
"","S2","","html-keyboard-response","351","607528","0.0-1.0-490.0","0","0","95395","","null","","","null","54","","NaN","","","","","","","","","","","","","",""
"","response","","html-keyboard-response","352","608158","0.0-1.0-491.0-0.0","0","0","95395","","628","","","75","54","","","2","54","training","adjacent","GF","7","6","P.jpg","N.jpg","1","0","0","",""
"","feedback","","html-keyboard-response","353","609169","0.0-1.0-492.0-0.0","0","0","95395","","null","","","null","54","","","","","","","","","","","","","","","",""
"","time_out","","html-keyboard-response","354","611171","0.0-1.0-494.0-0.0","0","0","95395","","null","","","null","54","","","","","","","","","","","","","","","",""
"","ITI","","html-keyboard-response","355","612174","0.0-1.0-495.0","0","0","95395","","null","","","null","54","","","","","","","","","","","","","","","NaN",""
"","S1","","html-keyboard-response","356","612327","0.0-1.0-497.0","0","0","95395","","null","","","null","55","","","","","","","","","","","","","","","",""
"","ISI","","html-keyboard-response","357","614329","0.0-1.0-498.0","0","0","95395","","null","","","null","55","NaN","","","","","","","","","","","","","","",""
"","S2","","html-keyboard-response","358","614482","0.0-1.0-499.0","0","0","95395","","null","","","null","55","","NaN","","","","","","","","","","","","","",""
"","response","","html-keyboard-response","359","614958","0.0-1.0-500.0-0.0","0","0","95395","","475","","","75","55","","","2","55","training","adjacent","AB","1","2","R.jpg","M.jpg","1","1","1","",""
"","feedback","","html-keyboard-response","360","615963","0.0-1.0-501.0-0.0","0","0","95395","","null","","","null","55","","","","","","","","","","","","","","","",""
"","ITI","","html-keyboard-response","361","616965","0.0-1.0-504.0","0","0","95395","","null","","","null","55","","","","","","","","","","","","","","","NaN",""
"","S1","","html-keyboard-response","362","617126","0.0-1.0-506.0","0","0","95395","","null","","","null","56","","","","","","","","","","","","","","","",""
"","ISI","","html-keyboard-response","363","619128","0.0-1.0-507.0","0","0","95395","","null","","","null","56","NaN","","","","","","","","","","","","","","",""
"","S2","","html-keyboard-response","364","619280","0.0-1.0-508.0","0","0","95395","","null","","","null","56","","NaN","","","","","","","","","","","","","",""
"","response","","html-keyboard-response","365","619989","0.0-1.0-509.0-0.0","0","0","95395","","708","","","75","56","","","2","56","training","adjacent","BC","2","3","M.jpg","Q.jpg","1","1","1","",""
"","feedback","","html-keyboard-response","366","620991","0.0-1.0-510.0-0.0","0","0","95395","","null","","","null","56","","","","","","","","","","","","","","","",""
"","ITI","","html-keyboard-response","367","621995","0.0-1.0-513.0","0","0","95395","","null","","","null","56","","","","","","","","","","","","","","","NaN",""
"","S1","","html-keyboard-response","368","622147","0.0-1.0-515.0","0","0","95395","","null","","","null","57","","","","","","","","","","","","","","","",""
"","ISI","","html-keyboard-response","369","624149","0.0-1.0-516.0","0","0","95395","","null","","","null","57","NaN","","","","","","","","","","","","","","",""
"","S2","","html-keyboard-response","370","624301","0.0-1.0-517.0","0","0","95395","","null","","","null","57","","NaN","","","","","","","","","","","","","",""
"","response","","html-keyboard-response","371","624941","0.0-1.0-518.0-0.0","0","0","95395","","639","","","68","57","","","2","57","training","adjacent","BA","2","1","M.jpg","R.jpg","0","0","1","",""
"","feedback","","html-keyboard-response","372","625943","0.0-1.0-519.0-0.0","0","0","95395","","null","","","null","57","","","","","","","","","","","","","","","",""
"","ITI","","html-keyboard-response","373","626945","0.0-1.0-522.0","0","0","95395","","null","","","null","57","","","","","","","","","","","","","","","NaN",""
"","S1","","html-keyboard-response","374","627099","0.0-1.0-524.0","0","0","95395","","null","","","null","58","","","","","","","","","","","","","","","",""
"","ISI","","html-keyboard-response","375","629101","0.0-1.0-525.0","0","0","95395","","null","","","null","58","NaN","","","","","","","","","","","","","","",""
"","S2","","html-keyboard-response","376","629253","0.0-1.0-526.0","0","0","95395","","null","","","null","58","","NaN","","","","","","","","","","","","","",""
"","response","","html-keyboard-response","377","630149","0.0-1.0-527.0-0.0","0","0","95395","","895","","","75","58","","","2","58","training","adjacent","BC","2","3","M.jpg","Q.jpg","1","1","1","",""
"","feedback","","html-keyboard-response","378","631152","0.0-1.0-528.0-0.0","0","0","95395","","null","","","null","58","","","","","","","","","","","","","","","",""
"","ITI","","html-keyboard-response","379","632154","0.0-1.0-531.0","0","0","95395","","null","","","null","58","","","","","","","","","","","","","","","NaN",""
"","S1","","html-keyboard-response","380","632306","0.0-1.0-533.0","0","0","95395","","null","","","null","59","","","","","","","","","","","","","","","",""
"","ISI","","html-keyboard-response","381","634308","0.0-1.0-534.0","0","0","95395","","null","","","null","59","NaN","","","","","","","","","","","","","","",""
"","S2","","html-keyboard-response","382","634460","0.0-1.0-535.0","0","0","95395","","null","","","null","59","","NaN","","","","","","","","","","","","","",""
"","response","","html-keyboard-response","383","635173","0.0-1.0-536.0-0.0","0","0","95395","","712","","","68","59","","","2","59","training","adjacent","CD","3","4","Q.jpg","L.jpg","0","1","0","",""
"","feedback","","html-keyboard-response","384","636176","0.0-1.0-537.0-0.0","0","0","95395","","null","","","null","59","","","","","","","","","","","","","","","",""
"","time_out","","html-keyboard-response","385","638178","0.0-1.0-539.0-0.0","0","0","95395","","null","","","null","59","","","","","","","","","","","","","","","",""
"","ITI","","html-keyboard-response","386","639179","0.0-1.0-540.0","0","0","95395","","null","","","null","59","","","","","","","","","","","","","","","NaN",""
"","S1","","html-keyboard-response","387","639333","0.0-1.0-542.0","0","0","95395","","null","","","null","60","","","","","","","","","","","","","","","",""
"","ISI","","html-keyboard-response","388","641334","0.0-1.0-543.0","0","0","95395","","null","","","null","60","NaN","","","","","","","","","","","","","","",""
"","S2","","html-keyboard-response","389","641487","0.0-1.0-544.0","0","0","95395","","null","","","null","60","","NaN","","","","","","","","","","","","","",""
"","response","","html-keyboard-response","390","642044","0.0-1.0-545.0-0.0","0","0","95395","","557","","","68","60","","","2","60","training","adjacent","BA","2","1","M.jpg","R.jpg","0","0","1","",""
"","feedback","","html-keyboard-response","391","643047","0.0-1.0-546.0-0.0","0","0","95395","","null","","","null","60","","","","","","","","","","","","","","","",""
"","ITI","","html-keyboard-response","392","644050","0.0-1.0-549.0","0","0","95395","","null","","","null","60","","","","","","","","","","","","","","","NaN",""
"","S1","","html-keyboard-response","393","644202","0.0-1.0-551.0","0","0","95395","","null","","","null","61","","","","","","","","","","","","","","","",""
"","ISI","","html-keyboard-response","394","646203","0.0-1.0-552.0","0","0","95395","","null","","","null","61","NaN","","","","","","","","","","","","","","",""
"","S2","","html-keyboard-response","395","646356","0.0-1.0-553.0","0","0","95395","","null","","","null","61","","NaN","","","","","","","","","","","","","",""
"","response","","html-keyboard-response","396","647077","0.0-1.0-554.0-0.0","0","0","95395","","720","","","68","61","","","2","61","training","adjacent","GF","7","6","P.jpg","N.jpg","0","0","1","",""
"","feedback","","html-keyboard-response","397","648080","0.0-1.0-555.0-0.0","0","0","95395","","null","","","null","61","","","","","","","","","","","","","","","",""
"","ITI","","html-keyboard-response","398","649083","0.0-1.0-558.0","0","0","95395","","null","","","null","61","","","","","","","","","","","","","","","NaN",""
"","S1","","html-keyboard-response","399","649235","0.0-1.0-560.0","0","0","95395","","null","","","null","62","","","","","","","","","","","","","","","",""
"","ISI","","html-keyboard-response","400","651238","0.0-1.0-561.0","0","0","95395","","null","","","null","62","NaN","","","","","","","","","","","","","","",""
"","S2","","html-keyboard-response","401","651390","0.0-1.0-562.0","0","0","95395","","null","","","null","62","","NaN","","","","","","","","","","","","","",""
"","response","","html-keyboard-response","402","651821","0.0-1.0-563.0-0.0","0","0","95395","","430","","","68","62","","","2","62","training","adjacent","ED","5","4","O.jpg","L.jpg","0","0","1","",""
"","feedback","","html-keyboard-response","403","652823","0.0-1.0-564.0-0.0","0","0","95395","","null","","","null","62","","","","","","","","","","","","","","","",""
"","ITI","","html-keyboard-response","404","653826","0.0-1.0-567.0","0","0","95395","","null","","","null","62","","","","","","","","","","","","","","","NaN",""
"","S1","","html-keyboard-response","405","653978","0.0-1.0-569.0","0","0","95395","","null","","","null","63","","","","","","","","","","","","","","","",""
"","ISI","","html-keyboard-response","406","655979","0.0-1.0-570.0","0","0","95395","","null","","","null","63","NaN","","","","","","","","","","","","","","",""
"","S2","","html-keyboard-response","407","656132","0.0-1.0-571.0","0","0","95395","","null","","","null","63","","NaN","","","","","","","","","","","","","",""
"","response","","html-keyboard-response","408","657189","0.0-1.0-572.0-0.0","0","0","95395","","1056","","","75","63","","","2","63","training","adjacent","FE","6","5","N.jpg","O.jpg","1","0","0","",""
"","feedback","","html-keyboard-response","409","658190","0.0-1.0-573.0-0.0","0","0","95395","","null","","","null","63","","","","","","","","","","","","","","","",""
"","time_out","","html-keyboard-response","410","660192","0.0-1.0-575.0-0.0","0","0","95395","","null","","","null","63","","","","","","","","","","","","","","","",""
"","ITI","","html-keyboard-response","411","661195","0.0-1.0-576.0","0","0","95395","","null","","","null","63","","","","","","","","","","","","","","","NaN",""
"","S1","","html-keyboard-response","412","661347","0.0-1.0-578.0","0","0","95395","","null","","","null","64","","","","","","","","","","","","","","","",""
"","ISI","","html-keyboard-response","413","663350","0.0-1.0-579.0","0","0","95395","","null","","","null","64","NaN","","","","","","","","","","","","","","",""
"","S2","","html-keyboard-response","414","663503","0.0-1.0-580.0","0","0","95395","","null","","","null","64","","NaN","","","","","","","","","","","","","",""
"","response","","html-keyboard-response","415","664237","0.0-1.0-581.0-0.0","0","0","95395","","733","","","75","64","","","2","64","training","adjacent","AB","1","2","R.jpg","M.jpg","1","1","1","",""
"","feedback","","html-keyboard-response","416","665239","0.0-1.0-582.0-0.0","0","0","95395","","null","","","null","64","","","","","","","","","","","","","","","",""
"","ITI","","html-keyboard-response","417","666241","0.0-1.0-585.0","0","0","95395","","null","","","null","64","","","","","","","","","","","","","","","NaN",""
"","S1","","html-keyboard-response","418","666393","0.0-1.0-587.0","0","0","95395","","null","","","null","65","","","","","","","","","","","","","","","",""
"","ISI","","html-keyboard-response","419","668395","0.0-1.0-588.0","0","0","95395","","null","","","null","65","NaN","","","","","","","","","","","","","","",""
"","S2","","html-keyboard-response","420","668548","0.0-1.0-589.0","0","0","95395","","null","","","null","65","","NaN","","","","","","","","","","","","","",""
"","response","","html-keyboard-response","421","669132","0.0-1.0-590.0-0.0","0","0","95395","","583","","","68","65","","","2","65","training","adjacent","CD","3","4","Q.jpg","L.jpg","0","1","0","",""
"","feedback","","html-keyboard-response","422","670135","0.0-1.0-591.0-0.0","0","0","95395","","null","","","null","65","","","","","","","","","","","","","","","",""
"","time_out","","html-keyboard-response","423","672138","0.0-1.0-593.0-0.0","0","0","95395","","null","","","null","65","","","","","","","","","","","","","","","",""
"","ITI","","html-keyboard-response","424","673141","0.0-1.0-594.0","0","0","95395","","null","","","null","65","","","","","","","","","","","","","","","NaN",""
"","S1","","html-keyboard-response","425","673292","0.0-1.0-596.0","0","0","95395","","null","","","null","66","","","","","","","","","","","","","","","",""
"","ISI","","html-keyboard-response","426","675294","0.0-1.0-597.0","0","0","95395","","null","","","null","66","NaN","","","","","","","","","","","","","","",""
"","S2","","html-keyboard-response","427","675447","0.0-1.0-598.0","0","0","95395","","null","","","null","66","","NaN","","","","","","","","","","","","","",""
"","response","","html-keyboard-response","428","675989","0.0-1.0-599.0-0.0","0","0","95395","","541","","","75","66","","","2","66","training","adjacent","FG","6","7","N.jpg","P.jpg","1","1","1","",""
"","feedback","","html-keyboard-response","429","676991","0.0-1.0-600.0-0.0","0","0","95395","","null","","","null","66","","","","","","","","","","","","","","","",""
"","ITI","","html-keyboard-response","430","677993","0.0-1.0-603.0","0","0","95395","","null","","","null","66","","","","","","","","","","","","","","","NaN",""
"","S1","","html-keyboard-response","431","678145","0.0-1.0-605.0","0","0","95395","","null","","","null","67","","","","","","","","","","","","","","","",""
"","ISI","","html-keyboard-response","432","680147","0.0-1.0-606.0","0","0","95395","","null","","","null","67","NaN","","","","","","","","","","","","","","",""
"","S2","","html-keyboard-response","433","680300","0.0-1.0-607.0","0","0","95395","","null","","","null","67","","NaN","","","","","","","","","","","","","",""
"","response","","html-keyboard-response","434","680878","0.0-1.0-608.0-0.0","0","0","95395","","576","","","68","67","","","2","67","training","adjacent","BA","2","1","M.jpg","R.jpg","0","0","1","",""
"","feedback","","html-keyboard-response","435","681880","0.0-1.0-609.0-0.0","0","0","95395","","null","","","null","67","","","","","","","","","","","","","","","",""
"","ITI","","html-keyboard-response","436","682882","0.0-1.0-612.0","0","0","95395","","null","","","null","67","","","","","","","","","","","","","","","NaN",""
"","S1","","html-keyboard-response","437","683035","0.0-1.0-614.0","0","0","95395","","null","","","null","68","","","","","","","","","","","","","","","",""
"","ISI","","html-keyboard-response","438","685045","0.0-1.0-615.0","0","0","95395","","null","","","null","68","NaN","","","","","","","","","","","","","","",""
"","S2","","html-keyboard-response","439","685198","0.0-1.0-616.0","0","0","95395","","null","","","null","68","","NaN","","","","","","","","","","","","","",""
"","response","","html-keyboard-response","440","685789","0.0-1.0-617.0-0.0","0","0","95395","","590","","","68","68","","","2","68","training","adjacent","DC","4","3","L.jpg","Q.jpg","0","0","1","",""
"","feedback","","html-keyboard-response","441","686792","0.0-1.0-618.0-0.0","0","0","95395","","null","","","null","68","","","","","","","","","","","","","","","",""
"","ITI","","html-keyboard-response","442","687794","0.0-1.0-621.0","0","0","95395","","null","","","null","68","","","","","","","","","","","","","","","NaN",""
"","S1","","html-keyboard-response","443","687947","0.0-1.0-623.0","0","0","95395","","null","","","null","69","","","","","","","","","","","","","","","",""
"","ISI","","html-keyboard-response","444","689950","0.0-1.0-624.0","0","0","95395","","null","","","null","69","NaN","","","","","","","","","","","","","","",""
"","S2","","html-keyboard-response","445","690103","0.0-1.0-625.0","0","0","95395","","null","","","null","69","","NaN","","","","","","","","","","","","","",""
"","response","","html-keyboard-response","446","690726","0.0-1.0-626.0-0.0","0","0","95395","","622","","","68","69","","","2","69","training","adjacent","EF","5","6","O.jpg","N.jpg","0","1","0","",""
"","feedback","","html-keyboard-response","447","691729","0.0-1.0-627.0-0.0","0","0","95395","","null","","","null","69","","","","","","","","","","","","","","","",""
"","time_out","","html-keyboard-response","448","693731","0.0-1.0-629.0-0.0","0","0","95395","","null","","","null","69","","","","","","","","","","","","","","","",""
"","ITI","","html-keyboard-response","449","694733","0.0-1.0-630.0","0","0","95395","","null","","","null","69","","","","","","","","","","","","","","","NaN",""
"","S1","","html-keyboard-response","450","694886","0.0-1.0-632.0","0","0","95395","","null","","","null","70","","","","","","","","","","","","","","","",""
"","ISI","","html-keyboard-response","451","696889","0.0-1.0-633.0","0","0","95395","","null","","","null","70","NaN","","","","","","","","","","","","","","",""
"","S2","","html-keyboard-response","452","697042","0.0-1.0-634.0","0","0","95395","","null","","","null","70","","NaN","","","","","","","","","","","","","",""
"","response","","html-keyboard-response","453","697518","0.0-1.0-635.0-0.0","0","0","95395","","474","","","75","70","","","2","70","training","adjacent","AB","1","2","R.jpg","M.jpg","1","1","1","",""
"","feedback","","html-keyboard-response","454","698521","0.0-1.0-636.0-0.0","0","0","95395","","null","","","null","70","","","","","","","","","","","","","","","",""
"","ITI","","html-keyboard-response","455","699522","0.0-1.0-639.0","0","0","95395","","null","","","null","70","","","","","","","","","","","","","","","NaN",""
"","S1","","html-keyboard-response","456","699675","0.0-1.0-641.0","0","0","95395","","null","","","null","71","","","","","","","","","","","","","","","",""
"","ISI","","html-keyboard-response","457","701677","0.0-1.0-642.0","0","0","95395","","null","","","null","71","NaN","","","","","","","","","","","","","","",""
"","S2","","html-keyboard-response","458","701830","0.0-1.0-643.0","0","0","95395","","null","","","null","71","","NaN","","","","","","","","","","","","","",""
"","response","","html-keyboard-response","459","702477","0.0-1.0-644.0-0.0","0","0","95395","","646","","","75","71","","","2","71","training","adjacent","DE","4","5","L.jpg","O.jpg","1","1","1","",""
"","feedback","","html-keyboard-response","460","703479","0.0-1.0-645.0-0.0","0","0","95395","","null","","","null","71","","","","","","","","","","","","","","","",""
"","ITI","","html-keyboard-response","461","704481","0.0-1.0-648.0","0","0","95395","","null","","","null","71","","","","","","","","","","","","","","","NaN",""
"","S1","","html-keyboard-response","462","704634","0.0-1.0-650.0","0","0","95395","","null","","","null","72","","","","","","","","","","","","","","","",""
"","ISI","","html-keyboard-response","463","706637","0.0-1.0-651.0","0","0","95395","","null","","","null","72","NaN","","","","","","","","","","","","","","",""
"","S2","","html-keyboard-response","464","706788","0.0-1.0-652.0","0","0","95395","","null","","","null","72","","NaN","","","","","","","","","","","","","",""
"","response","","html-keyboard-response","465","707389","0.0-1.0-653.0-0.0","0","0","95395","","600","","","68","72","","","2","72","training","adjacent","EF","5","6","O.jpg","N.jpg","0","1","0","",""
"","feedback","","html-keyboard-response","466","708392","0.0-1.0-654.0-0.0","0","0","95395","","null","","","null","72","","","","","","","","","","","","","","","",""
"","time_out","","html-keyboard-response","467","710394","0.0-1.0-656.0-0.0","0","0","95395","","null","","","null","72","","","","","","","","","","","","","","","",""
"","ITI","","html-keyboard-response","468","711395","0.0-1.0-657.0","0","0","95395","","null","","","null","72","","","","","","","","","","","","","","","NaN",""
"","S1","","html-keyboard-response","469","711552","0.0-1.0-659.0","0","0","95395","","null","","","null","73","","","","","","","","","","","","","","","",""
"","ISI","","html-keyboard-response","470","713554","0.0-1.0-660.0","0","0","95395","","null","","","null","73","NaN","","","","","","","","","","","","","","",""
"","S2","","html-keyboard-response","471","713706","0.0-1.0-661.0","0","0","95395","","null","","","null","73","","NaN","","","","","","","","","","","","","",""
"","response","","html-keyboard-response","472","714366","0.0-1.0-662.0-0.0","0","0","95395","","659","","","68","73","","","2","73","training","adjacent","ED","5","4","O.jpg","L.jpg","0","0","1","",""
"","feedback","","html-keyboard-response","473","715368","0.0-1.0-663.0-0.0","0","0","95395","","null","","","null","73","","","","","","","","","","","","","","","",""
"","ITI","","html-keyboard-response","474","716370","0.0-1.0-666.0","0","0","95395","","null","","","null","73","","","","","","","","","","","","","","","NaN",""
"","S1","","html-keyboard-response","475","716524","0.0-1.0-668.0","0","0","95395","","null","","","null","74","","","","","","","","","","","","","","","",""
"","ISI","","html-keyboard-response","476","718526","0.0-1.0-669.0","0","0","95395","","null","","","null","74","NaN","","","","","","","","","","","","","","",""
"","S2","","html-keyboard-response","477","718678","0.0-1.0-670.0","0","0","95395","","null","","","null","74","","NaN","","","","","","","","","","","","","",""
"","response","","html-keyboard-response","478","719205","0.0-1.0-671.0-0.0","0","0","95395","","525","","","68","74","","","2","74","training","adjacent","ED","5","4","O.jpg","L.jpg","0","0","1","",""
"","feedback","","html-keyboard-response","479","720207","0.0-1.0-672.0-0.0","0","0","95395","","null","","","null","74","","","","","","","","","","","","","","","",""
"","ITI","","html-keyboard-response","480","721210","0.0-1.0-675.0","0","0","95395","","null","","","null","74","","","","","","","","","","","","","","","NaN",""
"","S1","","html-keyboard-response","481","721362","0.0-1.0-677.0","0","0","95395","","null","","","null","75","","","","","","","","","","","","","","","",""
"","ISI","","html-keyboard-response","482","723363","0.0-1.0-678.0","0","0","95395","","null","","","null","75","NaN","","","","","","","","","","","","","","",""
"","S2","","html-keyboard-response","483","723516","0.0-1.0-679.0","0","0","95395","","null","","","null","75","","NaN","","","","","","","","","","","","","",""
"","response","","html-keyboard-response","484","724229","0.0-1.0-680.0-0.0","0","0","95395","","712","","","75","75","","","2","75","training","adjacent","GF","7","6","P.jpg","N.jpg","1","0","0","",""
"","feedback","","html-keyboard-response","485","725232","0.0-1.0-681.0-0.0","0","0","95395","","null","","","null","75","","","","","","","","","","","","","","","",""
"","time_out","","html-keyboard-response","486","727234","0.0-1.0-683.0-0.0","0","0","95395","","null","","","null","75","","","","","","","","","","","","","","","",""
"","ITI","","html-keyboard-response","487","728236","0.0-1.0-684.0","0","0","95395","","null","","","null","75","","","","","","","","","","","","","","","NaN",""
"","S1","","html-keyboard-response","488","728389","0.0-1.0-686.0","0","0","95395","","null","","","null","76","","","","","","","","","","","","","","","",""
"","ISI","","html-keyboard-response","489","730390","0.0-1.0-687.0","0","0","95395","","null","","","null","76","NaN","","","","","","","","","","","","","","",""
"","S2","","html-keyboard-response","490","730543","0.0-1.0-688.0","0","0","95395","","null","","","null","76","","NaN","","","","","","","","","","","","","",""
"","response","","html-keyboard-response","491","731270","0.0-1.0-689.0-0.0","0","0","95395","","726","","","68","76","","","2","76","training","adjacent","FG","6","7","N.jpg","P.jpg","0","1","0","",""
"","feedback","","html-keyboard-response","492","732271","0.0-1.0-690.0-0.0","0","0","95395","","null","","","null","76","","","","","","","","","","","","","","","",""
"","time_out","","html-keyboard-response","493","734274","0.0-1.0-692.0-0.0","0","0","95395","","null","","","null","76","","","","","","","","","","","","","","","",""
"","ITI","","html-keyboard-response","494","735277","0.0-1.0-693.0","0","0","95395","","null","","","null","76","","","","","","","","","","","","","","","NaN",""
"","S1","","html-keyboard-response","495","735430","0.0-1.0-695.0","0","0","95395","","null","","","null","77","","","","","","","","","","","","","","","",""
"","ISI","","html-keyboard-response","496","737432","0.0-1.0-696.0","0","0","95395","","null","","","null","77","NaN","","","","","","","","","","","","","","",""
"","S2","","html-keyboard-response","497","737584","0.0-1.0-697.0","0","0","95395","","null","","","null","77","","NaN","","","","","","","","","","","","","",""
"","response","","html-keyboard-response","498","738366","0.0-1.0-698.0-0.0","0","0","95395","","780","","","75","77","","","2","77","training","adjacent","CD","3","4","Q.jpg","L.jpg","1","1","1","",""
"","feedback","","html-keyboard-response","499","739369","0.0-1.0-699.0-0.0","0","0","95395","","null","","","null","77","","","","","","","","","","","","","","","",""
"","ITI","","html-keyboard-response","500","740371","0.0-1.0-702.0","0","0","95395","","null","","","null","77","","","","","","","","","","","","","","","NaN",""
"","S1","","html-keyboard-response","501","740524","0.0-1.0-704.0","0","0","95395","","null","","","null","78","","","","","","","","","","","","","","","",""
"","ISI","","html-keyboard-response","502","742526","0.0-1.0-705.0","0","0","95395","","null","","","null","78","NaN","","","","","","","","","","","","","","",""
"","S2","","html-keyboard-response","503","742679","0.0-1.0-706.0","0","0","95395","","null","","","null","78","","NaN","","","","","","","","","","","","","",""
"","response","","html-keyboard-response","504","743413","0.0-1.0-707.0-0.0","0","0","95395","","733","","","68","78","","","2","78","training","adjacent","DC","4","3","L.jpg","Q.jpg","0","0","1","",""
"","feedback","","html-keyboard-response","505","744416","0.0-1.0-708.0-0.0","0","0","95395","","null","","","null","78","","","","","","","","","","","","","","","",""
"","ITI","","html-keyboard-response","506","745419","0.0-1.0-711.0","0","0","95395","","null","","","null","78","","","","","","","","","","","","","","","NaN",""
"","S1","","html-keyboard-response","507","745572","0.0-1.0-713.0","0","0","95395","","null","","","null","79","","","","","","","","","","","","","","","",""
"","ISI","","html-keyboard-response","508","747575","0.0-1.0-714.0","0","0","95395","","null","","","null","79","NaN","","","","","","","","","","","","","","",""
"","S2","","html-keyboard-response","509","747727","0.0-1.0-715.0","0","0","95395","","null","","","null","79","","NaN","","","","","","","","","","","","","",""
"","response","","html-keyboard-response","510","748549","0.0-1.0-716.0-0.0","0","0","95395","","820","","","68","79","","","2","79","training","adjacent","FE","6","5","N.jpg","O.jpg","0","0","1","",""
"","feedback","","html-keyboard-response","511","749552","0.0-1.0-717.0-0.0","0","0","95395","","null","","","null","79","","","","","","","","","","","","","","","",""
"","ITI","","html-keyboard-response","512","750554","0.0-1.0-720.0","0","0","95395","","null","","","null","79","","","","","","","","","","","","","","","NaN",""
"","S1","","html-keyboard-response","513","750706","0.0-1.0-722.0","0","0","95395","","null","","","null","80","","","","","","","","","","","","","","","",""
"","ISI","","html-keyboard-response","514","752708","0.0-1.0-723.0","0","0","95395","","null","","","null","80","NaN","","","","","","","","","","","","","","",""
"","S2","","html-keyboard-response","515","752861","0.0-1.0-724.0","0","0","95395","","null","","","null","80","","NaN","","","","","","","","","","","","","",""
"","response","","html-keyboard-response","516","753198","0.0-1.0-725.0-0.0","0","0","95395","","336","","","75","80","","","2","80","training","adjacent","DE","4","5","L.jpg","O.jpg","1","1","1","",""
"","feedback","","html-keyboard-response","517","754199","0.0-1.0-726.0-0.0","0","0","95395","","null","","","null","80","","","","","","","","","","","","","","","",""
"","ITI","","html-keyboard-response","518","755201","0.0-1.0-729.0","0","0","95395","","null","","","null","80","","","","","","","","","","","","","","","NaN",""
"","S1","","html-keyboard-response","519","755353","0.0-1.0-731.0","0","0","95395","","null","","","null","81","","","","","","","","","","","","","","","",""
"","ISI","","html-keyboard-response","520","757355","0.0-1.0-732.0","0","0","95395","","null","","","null","81","NaN","","","","","","","","","","","","","","",""
"","S2","","html-keyboard-response","521","757507","0.0-1.0-733.0","0","0","95395","","null","","","null","81","","NaN","","","","","","","","","","","","","",""
"","response","","html-keyboard-response","522","758661","0.0-1.0-734.0-0.0","0","0","95395","","1153","","","68","81","","","2","81","training","adjacent","CB","3","2","Q.jpg","M.jpg","0","0","1","",""
"","feedback","","html-keyboard-response","523","759664","0.0-1.0-735.0-0.0","0","0","95395","","null","","","null","81","","","","","","","","","","","","","","","",""
"","ITI","","html-keyboard-response","524","760666","0.0-1.0-738.0","0","0","95395","","null","","","null","81","","","","","","","","","","","","","","","NaN",""
"","S1","","html-keyboard-response","525","760817","0.0-1.0-740.0","0","0","95395","","null","","","null","82","","","","","","","","","","","","","","","",""
"","ISI","","html-keyboard-response","526","762819","0.0-1.0-741.0","0","0","95395","","null","","","null","82","NaN","","","","","","","","","","","","","","",""
"","S2","","html-keyboard-response","527","762972","0.0-1.0-742.0","0","0","95395","","null","","","null","82","","NaN","","","","","","","","","","","","","",""
"","response","","html-keyboard-response","528","763534","0.0-1.0-743.0-0.0","0","0","95395","","561","","","75","82","","","2","82","training","adjacent","AB","1","2","R.jpg","M.jpg","1","1","1","",""
"","feedback","","html-keyboard-response","529","764536","0.0-1.0-744.0-0.0","0","0","95395","","null","","","null","82","","","","","","","","","","","","","","","",""
"","ITI","","html-keyboard-response","530","765538","0.0-1.0-747.0","0","0","95395","","null","","","null","82","","","","","","","","","","","","","","","NaN",""
"","S1","","html-keyboard-response","531","765690","0.0-1.0-749.0","0","0","95395","","null","","","null","83","","","","","","","","","","","","","","","",""
"","ISI","","html-keyboard-response","532","767694","0.0-1.0-750.0","0","0","95395","","null","","","null","83","NaN","","","","","","","","","","","","","","",""
"","S2","","html-keyboard-response","533","767846","0.0-1.0-751.0","0","0","95395","","null","","","null","83","","NaN","","","","","","","","","","","","","",""
"","response","","html-keyboard-response","534","768422","0.0-1.0-752.0-0.0","0","0","95395","","574","","","68","83","","","2","83","training","adjacent","DC","4","3","L.jpg","Q.jpg","0","0","1","",""
"","feedback","","html-keyboard-response","535","769424","0.0-1.0-753.0-0.0","0","0","95395","","null","","","null","83","","","","","","","","","","","","","","","",""
"","ITI","","html-keyboard-response","536","770426","0.0-1.0-756.0","0","0","95395","","null","","","null","83","","","","","","","","","","","","","","","NaN",""
"","S1","","html-keyboard-response","537","770579","0.0-1.0-758.0","0","0","95395","","null","","","null","84","","","","","","","","","","","","","","","",""
"","ISI","","html-keyboard-response","538","772581","0.0-1.0-759.0","0","0","95395","","null","","","null","84","NaN","","","","","","","","","","","","","","",""
"","S2","","html-keyboard-response","539","772733","0.0-1.0-760.0","0","0","95395","","null","","","null","84","","NaN","","","","","","","","","","","","","",""
"","response","","html-keyboard-response","540","773718","0.0-1.0-761.0-0.0","0","0","95395","","984","","","75","84","","","2","84","training","adjacent","FE","6","5","N.jpg","O.jpg","1","0","0","",""
"","feedback","","html-keyboard-response","541","774721","0.0-1.0-762.0-0.0","0","0","95395","","null","","","null","84","","","","","","","","","","","","","","","",""
"","time_out","","html-keyboard-response","542","776722","0.0-1.0-764.0-0.0","0","0","95395","","null","","","null","84","","","","","","","","","","","","","","","",""
"","ITI","","html-keyboard-response","543","777724","0.0-1.0-765.0","0","0","95395","","null","","","null","84","","","","","","","","","","","","","","","NaN",""
"","S1","","html-keyboard-response","544","777876","0.0-1.0-767.0","0","0","95395","","null","","","null","85","","","","","","","","","","","","","","","",""
"","ISI","","html-keyboard-response","545","779879","0.0-1.0-768.0","0","0","95395","","null","","","null","85","NaN","","","","","","","","","","","","","","",""
"","S2","","html-keyboard-response","546","780030","0.0-1.0-769.0","0","0","95395","","null","","","null","85","","NaN","","","","","","","","","","","","","",""
"","response","","html-keyboard-response","547","780670","0.0-1.0-770.0-0.0","0","0","95395","","638","","","75","85","","","2","85","training","adjacent","DE","4","5","L.jpg","O.jpg","1","1","1","",""
"","feedback","","html-keyboard-response","548","781672","0.0-1.0-771.0-0.0","0","0","95395","","null","","","null","85","","","","","","","","","","","","","","","",""
"","ITI","","html-keyboard-response","549","782674","0.0-1.0-774.0","0","0","95395","","null","","","null","85","","","","","","","","","","","","","","","NaN",""
"","S1","","html-keyboard-response","550","782826","0.0-1.0-776.0","0","0","95395","","null","","","null","86","","","","","","","","","","","","","","","",""
"","ISI","","html-keyboard-response","551","784827","0.0-1.0-777.0","0","0","95395","","null","","","null","86","NaN","","","","","","","","","","","","","","",""
"","S2","","html-keyboard-response","552","784980","0.0-1.0-778.0","0","0","95395","","null","","","null","86","","NaN","","","","","","","","","","","","","",""
"","response","","html-keyboard-response","553","785438","0.0-1.0-779.0-0.0","0","0","95395","","457","","","68","86","","","2","86","training","adjacent","FG","6","7","N.jpg","P.jpg","0","1","0","",""
"","feedback","","html-keyboard-response","554","786440","0.0-1.0-780.0-0.0","0","0","95395","","null","","","null","86","","","","","","","","","","","","","","","",""
"","time_out","","html-keyboard-response","555","788442","0.0-1.0-782.0-0.0","0","0","95395","","null","","","null","86","","","","","","","","","","","","","","","",""
"","ITI","","html-keyboard-response","556","789445","0.0-1.0-783.0","0","0","95395","","null","","","null","86","","","","","","","","","","","","","","","NaN",""
"","S1","","html-keyboard-response","557","789596","0.0-1.0-785.0","0","0","95395","","null","","","null","87","","","","","","","","","","","","","","","",""
"","ISI","","html-keyboard-response","558","791599","0.0-1.0-786.0","0","0","95395","","null","","","null","87","NaN","","","","","","","","","","","","","","",""
"","S2","","html-keyboard-response","559","791751","0.0-1.0-787.0","0","0","95395","","null","","","null","87","","NaN","","","","","","","","","","","","","",""
"","response","","html-keyboard-response","560","792262","0.0-1.0-788.0-0.0","0","0","95395","","509","","","68","87","","","2","87","training","adjacent","ED","5","4","O.jpg","L.jpg","0","0","1","",""
"","feedback","","html-keyboard-response","561","793265","0.0-1.0-789.0-0.0","0","0","95395","","null","","","null","87","","","","","","","","","","","","","","","",""
"","ITI","","html-keyboard-response","562","794268","0.0-1.0-792.0","0","0","95395","","null","","","null","87","","","","","","","","","","","","","","","NaN",""
"","S1","","html-keyboard-response","563","794420","0.0-1.0-794.0","0","0","95395","","null","","","null","88","","","","","","","","","","","","","","","",""
"","ISI","","html-keyboard-response","564","796423","0.0-1.0-795.0","0","0","95395","","null","","","null","88","NaN","","","","","","","","","","","","","","",""
"","S2","","html-keyboard-response","565","796575","0.0-1.0-796.0","0","0","95395","","null","","","null","88","","NaN","","","","","","","","","","","","","",""
"","response","","html-keyboard-response","566","797373","0.0-1.0-797.0-0.0","0","0","95395","","798","","","68","88","","","2","88","training","adjacent","GF","7","6","P.jpg","N.jpg","0","0","1","",""
"","feedback","","html-keyboard-response","567","798376","0.0-1.0-798.0-0.0","0","0","95395","","null","","","null","88","","","","","","","","","","","","","","","",""
"","ITI","","html-keyboard-response","568","799379","0.0-1.0-801.0","0","0","95395","","null","","","null","88","","","","","","","","","","","","","","","NaN",""
"","S1","","html-keyboard-response","569","799532","0.0-1.0-803.0","0","0","95395","","null","","","null","89","","","","","","","","","","","","","","","",""
"","ISI","","html-keyboard-response","570","801533","0.0-1.0-804.0","0","0","95395","","null","","","null","89","NaN","","","","","","","","","","","","","","",""
"","S2","","html-keyboard-response","571","801686","0.0-1.0-805.0","0","0","95395","","null","","","null","89","","NaN","","","","","","","","","","","","","",""
"","response","","html-keyboard-response","572","802269","0.0-1.0-806.0-0.0","0","0","95395","","582","","","68","89","","","2","89","training","adjacent","BC","2","3","M.jpg","Q.jpg","0","1","0","",""
"","feedback","","html-keyboard-response","573","803272","0.0-1.0-807.0-0.0","0","0","95395","","null","","","null","89","","","","","","","","","","","","","","","",""
"","time_out","","html-keyboard-response","574","805278","0.0-1.0-809.0-0.0","0","0","95395","","null","","","null","89","","","","","","","","","","","","","","","",""
"","ITI","","html-keyboard-response","575","806280","0.0-1.0-810.0","0","0","95395","","null","","","null","89","","","","","","","","","","","","","","","NaN",""
"","S1","","html-keyboard-response","576","806436","0.0-1.0-812.0","0","0","95395","","null","","","null","90","","","","","","","","","","","","","","","",""
"","ISI","","html-keyboard-response","577","808438","0.0-1.0-813.0","0","0","95395","","null","","","null","90","NaN","","","","","","","","","","","","","","",""
"","S2","","html-keyboard-response","578","808591","0.0-1.0-814.0","0","0","95395","","null","","","null","90","","NaN","","","","","","","","","","","","","",""
"","response","","html-keyboard-response","579","809757","0.0-1.0-815.0-0.0","0","0","95395","","1165","","","75","90","","","2","90","training","adjacent","BC","2","3","M.jpg","Q.jpg","1","1","1","",""
"","feedback","","html-keyboard-response","580","810759","0.0-1.0-816.0-0.0","0","0","95395","","null","","","null","90","","","","","","","","","","","","","","","",""
"","ITI","","html-keyboard-response","581","811762","0.0-1.0-819.0","0","0","95395","","null","","","null","90","","","","","","","","","","","","","","","NaN",""
"","S1","","html-keyboard-response","582","811915","0.0-1.0-821.0","0","0","95395","","null","","","null","91","","","","","","","","","","","","","","","",""
