"success","ttype","start_time","trial_type","trial_index","time_elapsed","internal_node_id","warning","missed_checkup","PID","view_history","rt","responses","repeat_instructions","key_press","index","keypress_isi","keypress_S2","block","trial_num","phase","group_type","pair_type","S1_stim","S2_stim","S1_img","S2_img","S1_chosen","S1_higher","accuracy","keypress_iti","total_bonus_tally"
"true","full_screen","d03072023hr1743","fullscreen","0","5535","0.0-0.0","0","0","64147","","","","","","","","","","","","","","","","","","","","","",""
"","instructions","","instructions","1","112072","0.0-1.0-0.0-0.0","0","0","64147","[{""page_index"":0,""viewing_time"":14237},{""page_index"":1,""viewing_time"":68925},{""page_index"":2,""viewing_time"":16044},{""page_index"":3,""viewing_time"":7314}]","106524","","","","","","","","","","","","","","","","","","","",""
"","comprehension_check","","survey-multi-choice","2","144331","0.0-1.0-0.0-1.0","0","0","64147","","32238","{""Q0"":""True"",""Q1"":""K"",""Q2"":""Only when the screen 'MAKE A CHOICE' is shown"",""Q3"":""Green mark"",""Q4"":""either D or K""}","1","","","","","","","","","","","","","","","","","",""
"","missed_instruction_checkup","","html-keyboard-response","3","151856","0.0-1.0-0.0-2.0-0.0","0","1","64147","","7508","","","32","","","","","","","","","","","","","","","","",""
"","instructions","","instructions","4","161528","0.0-1.0-0.1-0.1","0","0","64147","[{""page_index"":0,""viewing_time"":5201},{""page_index"":1,""viewing_time"":1607},{""page_index"":2,""viewing_time"":1290},{""page_index"":3,""viewing_time"":1568}]","9666","","","","","","","","","","","","","","","","","","","",""
"","comprehension_check","","survey-multi-choice","5","194424","0.0-1.0-0.1-1.1","0","0","64147","","32878","{""Q0"":""False"",""Q1"":""K"",""Q2"":""Once the second image appears and while the screen 'MAKE A CHOICE' is shown"",""Q3"":""Green mark"",""Q4"":""either D or K""}","1","","","","","","","","","","","","","","","","","",""
"","missed_instruction_checkup","","html-keyboard-response","6","197301","0.0-1.0-0.1-2.1-0.1","0","1","64147","","2867","","","32","","","","","","","","","","","","","","","","",""
"","instructions","","instructions","7","246426","0.0-1.0-0.2-0.2","0","0","64147","[{""page_index"":0,""viewing_time"":2060},{""page_index"":1,""viewing_time"":40956},{""page_index"":2,""viewing_time"":4599},{""page_index"":3,""viewing_time"":1497}]","49112","","","","","","","","","","","","","","","","","","","",""
"","comprehension_check","","survey-multi-choice","8","278205","0.0-1.0-0.2-1.2","0","0","64147","","31759","{""Q0"":""True"",""Q1"":""K"",""Q2"":""Once the second image appears and while the screen 'MAKE A CHOICE' is shown"",""Q3"":""Green mark"",""Q4"":""either D or K""}","0","","","","","","","","","","","","","","","","","",""
"","start_exp","","html-keyboard-response","9","373646","0.0-1.0-1.0","0","0","64147","","95434","","","32","","","","","","","","","","","","","","","","",""
"","S1","","html-keyboard-response","10","373904","0.0-1.0-2.0","0","0","64147","","null","","","null","0","","","","","","","","","","","","","","","",""
"","ISI","","html-keyboard-response","11","374909","0.0-1.0-3.0","0","0","64147","","null","","","null","0","NaN","","","","","","","","","","","","","","",""
"","S2","","html-keyboard-response","12","375196","0.0-1.0-4.0","0","0","64147","","null","","","null","0","","NaN","","","","","","","","","","","","","",""
"","response","","html-keyboard-response","13","376961","0.0-1.0-5.0-0.0","0","0","64147","","null","","","null","0","","","1","0","training","adjacent","DC","4","3","N.jpg","Q.jpg","NaN","0","0","",""
"","too_slow_prompt","","html-keyboard-response","14","377975","0.0-1.0-7.0-0.0","1","0","64147","","null","","","null","","","","","","","","","","","","","","","","",""
"","time_out","","html-keyboard-response","15","379985","0.0-1.0-8.0-0.0","0","0","64147","","null","","","null","0","","","","","","","","","","","","","","","",""
"","ITI","","html-keyboard-response","16","380990","0.0-1.0-9.0","0","0","64147","","536","","","68","0","","","","","","","","","","","","","","","d",""
"","S1","","html-keyboard-response","17","381247","0.0-1.0-11.0","0","0","64147","","null","","","null","1","","","","","","","","","","","","","","","",""
"","ISI","","html-keyboard-response","18","382250","0.0-1.0-12.0","0","0","64147","","null","","","null","1","NaN","","","","","","","","","","","","","","",""
"","S2","","html-keyboard-response","19","382521","0.0-1.0-13.0","0","0","64147","","null","","","null","1","","NaN","","","","","","","","","","","","","",""
"","response","","html-keyboard-response","20","384277","0.0-1.0-14.0-0.0","0","0","64147","","null","","","null","1","","","1","1","training","adjacent","ED","5","4","P.jpg","N.jpg","NaN","0","0","",""
"","too_slow_prompt","","html-keyboard-response","21","385289","0.0-1.0-16.0-0.0","1","0","64147","","null","","","null","","","","","","","","","","","","","","","","",""
"","time_out","","html-keyboard-response","22","387299","0.0-1.0-17.0-0.0","0","0","64147","","null","","","null","1","","","","","","","","","","","","","","","",""
"","ITI","","html-keyboard-response","23","388304","0.0-1.0-18.0","0","0","64147","","null","","","null","1","","","","","","","","","","","","","","","NaN",""
"","S1","","html-keyboard-response","24","388559","0.0-1.0-20.0","0","0","64147","","null","","","null","2","","","","","","","","","","","","","","","",""
"","ISI","","html-keyboard-response","25","389574","0.0-1.0-21.0","0","0","64147","","null","","","null","2","NaN","","","","","","","","","","","","","","",""
"","S2","","html-keyboard-response","26","389828","0.0-1.0-22.0","0","0","64147","","null","","","null","2","","NaN","","","","","","","","","","","","","",""
"","response","","html-keyboard-response","27","390551","0.0-1.0-23.0-0.0","0","0","64147","","717","","","68","2","","","1","2","training","adjacent","CD","3","4","Q.jpg","N.jpg","0","1","0","",""
"","feedback","","html-keyboard-response","28","391565","0.0-1.0-24.0-0.0","0","0","64147","","null","","","null","2","","","","","","","","","","","","","","","",""
"","time_out","","html-keyboard-response","29","393572","0.0-1.0-26.0-0.0","0","0","64147","","null","","","null","2","","","","","","","","","","","","","","","",""
"","ITI","","html-keyboard-response","30","394579","0.0-1.0-27.0","0","0","64147","","null","","","null","2","","","","","","","","","","","","","","","NaN",""
"","S1","","html-keyboard-response","31","394835","0.0-1.0-29.0","0","0","64147","","null","","","null","3","","","","","","","","","","","","","","","",""
"","ISI","","html-keyboard-response","32","395841","0.0-1.0-30.0","0","0","64147","","null","","","null","3","NaN","","","","","","","","","","","","","","",""
"","S2","","html-keyboard-response","33","396097","0.0-1.0-31.0","0","0","64147","","null","","","null","3","","NaN","","","","","","","","","","","","","",""
"","response","","html-keyboard-response","34","397524","0.0-1.0-32.0-0.0","0","0","64147","","1422","","","68","3","","","1","3","training","adjacent","CB","3","2","Q.jpg","R.jpg","0","0","1","",""
"","feedback","","html-keyboard-response","35","398530","0.0-1.0-33.0-0.0","0","0","64147","","null","","","null","3","","","","","","","","","","","","","","","",""
"","ITI","","html-keyboard-response","36","399536","0.0-1.0-36.0","0","0","64147","","null","","","null","3","","","","","","","","","","","","","","","NaN",""
"","S1","","html-keyboard-response","37","399790","0.0-1.0-38.0","0","0","64147","","null","","","null","4","","","","","","","","","","","","","","","",""
"","ISI","","html-keyboard-response","38","400796","0.0-1.0-39.0","0","0","64147","","null","","","null","4","NaN","","","","","","","","","","","","","","",""
"","S2","","html-keyboard-response","39","401052","0.0-1.0-40.0","0","0","64147","","null","","","null","4","","NaN","","","","","","","","","","","","","",""
"","response","","html-keyboard-response","40","401384","0.0-1.0-41.0-0.0","0","0","64147","","326","","","68","4","","","1","4","training","adjacent","BC","2","3","R.jpg","Q.jpg","0","1","0","",""
"","feedback","","html-keyboard-response","41","402390","0.0-1.0-42.0-0.0","0","0","64147","","null","","","null","4","","","","","","","","","","","","","","","",""
"","time_out","","html-keyboard-response","42","404397","0.0-1.0-44.0-0.0","0","0","64147","","null","","","null","4","","","","","","","","","","","","","","","",""
"","ITI","","html-keyboard-response","43","405401","0.0-1.0-45.0","0","0","64147","","null","","","null","4","","","","","","","","","","","","","","","NaN",""
"","S1","","html-keyboard-response","44","405657","0.0-1.0-47.0","0","0","64147","","null","","","null","5","","","","","","","","","","","","","","","",""
"","ISI","","html-keyboard-response","45","406662","0.0-1.0-48.0","0","0","64147","","null","","","null","5","NaN","","","","","","","","","","","","","","",""
"","S2","","html-keyboard-response","46","406920","0.0-1.0-49.0","0","0","64147","","null","","","null","5","","NaN","","","","","","","","","","","","","",""
"","response","","html-keyboard-response","47","408717","0.0-1.0-50.0-0.0","0","0","64147","","null","","","null","5","","","1","5","training","adjacent","CD","3","4","Q.jpg","N.jpg","NaN","1","0","",""
"","too_slow_prompt","","html-keyboard-response","48","409739","0.0-1.0-52.0-0.0","1","0","64147","","null","","","null","","","","","","","","","","","","","","","","",""
"","time_out","","html-keyboard-response","49","411770","0.0-1.0-53.0-0.0","0","0","64147","","null","","","null","5","","","","","","","","","","","","","","","",""
"","ITI","","html-keyboard-response","50","412778","0.0-1.0-54.0","0","0","64147","","null","","","null","5","","","","","","","","","","","","","","","NaN",""
"","S1","","html-keyboard-response","51","413031","0.0-1.0-56.0","0","0","64147","","null","","","null","6","","","","","","","","","","","","","","","",""
"","ISI","","html-keyboard-response","52","414046","0.0-1.0-57.0","0","0","64147","","null","","","null","6","NaN","","","","","","","","","","","","","","",""
"","S2","","html-keyboard-response","53","414302","0.0-1.0-58.0","0","0","64147","","null","","","null","6","","NaN","","","","","","","","","","","","","",""
"","response","","html-keyboard-response","54","414769","0.0-1.0-59.0-0.0","0","0","64147","","462","","","68","6","","","1","6","training","adjacent","DE","4","5","N.jpg","P.jpg","0","1","0","",""
"","feedback","","html-keyboard-response","55","415781","0.0-1.0-60.0-0.0","0","0","64147","","null","","","null","6","","","","","","","","","","","","","","","",""
"","time_out","","html-keyboard-response","56","417817","0.0-1.0-62.0-0.0","0","0","64147","","null","","","null","6","","","","","","","","","","","","","","","",""
"","ITI","","html-keyboard-response","57","418822","0.0-1.0-63.0","0","0","64147","","null","","","null","6","","","","","","","","","","","","","","","NaN",""
"","S1","","html-keyboard-response","58","419083","0.0-1.0-65.0","0","0","64147","","null","","","null","7","","","","","","","","","","","","","","","",""
"","ISI","","html-keyboard-response","59","420089","0.0-1.0-66.0","0","0","64147","","null","","","null","7","NaN","","","","","","","","","","","","","","",""
"","S2","","html-keyboard-response","60","420346","0.0-1.0-67.0","0","0","64147","","null","","","null","7","","NaN","","","","","","","","","","","","","",""
"","response","","html-keyboard-response","61","422000","0.0-1.0-68.0-0.0","0","0","64147","","1649","","","68","7","","","1","7","training","adjacent","BA","2","1","R.jpg","M.jpg","0","0","1","",""
"","feedback","","html-keyboard-response","62","423009","0.0-1.0-69.0-0.0","0","0","64147","","null","","","null","7","","","","","","","","","","","","","","","",""
"","ITI","","html-keyboard-response","63","424014","0.0-1.0-72.0","0","0","64147","","null","","","null","7","","","","","","","","","","","","","","","NaN",""
"","S1","","html-keyboard-response","64","424269","0.0-1.0-74.0","0","0","64147","","null","","","null","8","","","","","","","","","","","","","","","",""
"","ISI","","html-keyboard-response","65","425326","0.0-1.0-75.0","0","0","64147","","null","","","null","8","NaN","","","","","","","","","","","","","","",""
"","S2","","html-keyboard-response","66","425581","0.0-1.0-76.0","0","0","64147","","null","","","null","8","","NaN","","","","","","","","","","","","","",""
"","response","","html-keyboard-response","67","427335","0.0-1.0-77.0-0.0","0","0","64147","","null","","","null","8","","","1","8","training","adjacent","GF","7","6","L.jpg","O.jpg","NaN","0","0","",""
"","too_slow_prompt","","html-keyboard-response","68","428339","0.0-1.0-79.0-0.0","1","0","64147","","null","","","null","","","","","","","","","","","","","","","","",""
"","time_out","","html-keyboard-response","69","430346","0.0-1.0-80.0-0.0","0","0","64147","","null","","","null","8","","","","","","","","","","","","","","","",""
"","ITI","","html-keyboard-response","70","431353","0.0-1.0-81.0","0","0","64147","","null","","","null","8","","","","","","","","","","","","","","","NaN",""
"","S1","","html-keyboard-response","71","431611","0.0-1.0-83.0","0","0","64147","","null","","","null","9","","","","","","","","","","","","","","","",""
"","ISI","","html-keyboard-response","72","432621","0.0-1.0-84.0","0","0","64147","","null","","","null","9","NaN","","","","","","","","","","","","","","",""
"","S2","","html-keyboard-response","73","432876","0.0-1.0-85.0","0","0","64147","","null","","","null","9","","NaN","","","","","","","","","","","","","",""
"","response","","html-keyboard-response","74","434638","0.0-1.0-86.0-0.0","0","0","64147","","null","","","null","9","","","1","9","training","adjacent","BC","2","3","R.jpg","Q.jpg","NaN","1","0","",""
"","too_slow_prompt","","html-keyboard-response","75","435644","0.0-1.0-88.0-0.0","1","0","64147","","null","","","null","","","","","","","","","","","","","","","","",""
"","time_out","","html-keyboard-response","76","437650","0.0-1.0-89.0-0.0","0","0","64147","","null","","","null","9","","","","","","","","","","","","","","","",""
"","ITI","","html-keyboard-response","77","438655","0.0-1.0-90.0","0","0","64147","","null","","","null","9","","","","","","","","","","","","","","","NaN",""
"","S1","","html-keyboard-response","78","438913","0.0-1.0-92.0","0","0","64147","","null","","","null","10","","","","","","","","","","","","","","","",""
"","ISI","","html-keyboard-response","79","439941","0.0-1.0-93.0","0","0","64147","","null","","","null","10","NaN","","","","","","","","","","","","","","",""
"","S2","","html-keyboard-response","80","440194","0.0-1.0-94.0","0","0","64147","","null","","","null","10","","NaN","","","","","","","","","","","","","",""
"","response","","html-keyboard-response","81","440623","0.0-1.0-95.0-0.0","0","0","64147","","424","","","68","10","","","1","10","training","adjacent","FG","6","7","O.jpg","L.jpg","0","1","0","",""
"","feedback","","html-keyboard-response","82","441629","0.0-1.0-96.0-0.0","0","0","64147","","null","","","null","10","","","","","","","","","","","","","","","",""
"","time_out","","html-keyboard-response","83","443636","0.0-1.0-98.0-0.0","0","0","64147","","null","","","null","10","","","","","","","","","","","","","","","",""
"","ITI","","html-keyboard-response","84","444642","0.0-1.0-99.0","0","0","64147","","null","","","null","10","","","","","","","","","","","","","","","NaN",""
"","S1","","html-keyboard-response","85","444902","0.0-1.0-101.0","0","0","64147","","null","","","null","11","","","","","","","","","","","","","","","",""
"","ISI","","html-keyboard-response","86","445908","0.0-1.0-102.0","0","0","64147","","447","","","75","11","k","","","","","","","","","","","","","","",""
"","S2","","html-keyboard-response","87","446067","0.0-1.0-103.0","0","0","64147","","155","","","75","11","","k","1","11","training","adjacent","BA","2","1","R.jpg","M.jpg","1","0","0","",""
"","feedback","","html-keyboard-response","88","447073","0.0-1.0-105.0-0.0","0","0","64147","","null","","","null","11","","","","","","","","","","","","","","","",""
"","time_out","","html-keyboard-response","89","449082","0.0-1.0-107.0-0.0","0","0","64147","","null","","","null","11","","","","","","","","","","","","","","","",""
"","ITI","","html-keyboard-response","90","450089","0.0-1.0-108.0","0","0","64147","","null","","","null","11","","","","","","","","","","","","","","","NaN",""
"","S1","","html-keyboard-response","91","450344","0.0-1.0-110.0","0","0","64147","","null","","","null","12","","","","","","","","","","","","","","","",""
"","ISI","","html-keyboard-response","92","451347","0.0-1.0-111.0","0","0","64147","","442","","","68","12","d","","","","","","","","","","","","","","",""
"","S2","","html-keyboard-response","93","451603","0.0-1.0-112.0","0","0","64147","","null","","","null","12","","NaN","","","","","","","","","","","","","",""
"","response","","html-keyboard-response","94","452124","0.0-1.0-113.0-0.0","0","0","64147","","516","","","68","12","","","1","12","training","adjacent","CB","3","2","Q.jpg","R.jpg","0","0","1","",""
"","feedback","","html-keyboard-response","95","453129","0.0-1.0-114.0-0.0","0","0","64147","","null","","","null","12","","","","","","","","","","","","","","","",""
"","ITI","","html-keyboard-response","96","454135","0.0-1.0-117.0","0","0","64147","","null","","","null","12","","","","","","","","","","","","","","","NaN",""
"","S1","","html-keyboard-response","97","454392","0.0-1.0-119.0","0","0","64147","","null","","","null","13","","","","","","","","","","","","","","","",""
"","ISI","","html-keyboard-response","98","455396","0.0-1.0-120.0","0","0","64147","","null","","","null","13","NaN","","","","","","","","","","","","","","",""
"","S2","","html-keyboard-response","99","455658","0.0-1.0-121.0","0","0","64147","","null","","","null","13","","NaN","","","","","","","","","","","","","",""
"","response","","html-keyboard-response","100","455990","0.0-1.0-122.0-0.0","0","0","64147","","325","","","75","13","","","1","13","training","adjacent","CD","3","4","Q.jpg","N.jpg","1","1","1","",""
"","feedback","","html-keyboard-response","101","457011","0.0-1.0-123.0-0.0","0","0","64147","","null","","","null","13","","","","","","","","","","","","","","","",""
"","ITI","","html-keyboard-response","102","458019","0.0-1.0-126.0","0","0","64147","","null","","","null","13","","","","","","","","","","","","","","","NaN",""
"","S1","","html-keyboard-response","103","458274","0.0-1.0-128.0","0","0","64147","","null","","","null","14","","","","","","","","","","","","","","","",""
"","ISI","","html-keyboard-response","104","459283","0.0-1.0-129.0","0","0","64147","","null","","","null","14","NaN","","","","","","","","","","","","","","",""
"","S2","","html-keyboard-response","105","459574","0.0-1.0-130.0","0","0","64147","","null","","","null","14","","NaN","","","","","","","","","","","","","",""
"","response","","html-keyboard-response","106","460185","0.0-1.0-131.0-0.0","0","0","64147","","605","","","75","14","","","1","14","training","adjacent","AB","1","2","M.jpg","R.jpg","1","1","1","",""
"","feedback","","html-keyboard-response","107","461190","0.0-1.0-132.0-0.0","0","0","64147","","null","","","null","14","","","","","","","","","","","","","","","",""
"","ITI","","html-keyboard-response","108","462200","0.0-1.0-135.0","0","0","64147","","null","","","null","14","","","","","","","","","","","","","","","NaN",""
"","S1","","html-keyboard-response","109","462458","0.0-1.0-137.0","0","0","64147","","null","","","null","15","","","","","","","","","","","","","","","",""
"","ISI","","html-keyboard-response","110","463486","0.0-1.0-138.0","0","0","64147","","null","","","null","15","NaN","","","","","","","","","","","","","","",""
"","S2","","html-keyboard-response","111","463742","0.0-1.0-139.0","0","0","64147","","null","","","null","15","","NaN","","","","","","","","","","","","","",""
"","response","","html-keyboard-response","112","464229","0.0-1.0-140.0-0.0","0","0","64147","","480","","","68","15","","","1","15","training","adjacent","AB","1","2","M.jpg","R.jpg","0","1","0","",""
"","feedback","","html-keyboard-response","113","465245","0.0-1.0-141.0-0.0","0","0","64147","","null","","","null","15","","","","","","","","","","","","","","","",""
"","time_out","","html-keyboard-response","114","467272","0.0-1.0-143.0-0.0","0","0","64147","","null","","","null","15","","","","","","","","","","","","","","","",""
"","ITI","","html-keyboard-response","115","468296","0.0-1.0-144.0","0","0","64147","","null","","","null","15","","","","","","","","","","","","","","","NaN",""
"","S1","","html-keyboard-response","116","468552","0.0-1.0-146.0","0","0","64147","","null","","","null","16","","","","","","","","","","","","","","","",""
"","ISI","","html-keyboard-response","117","469558","0.0-1.0-147.0","0","0","64147","","null","","","null","16","NaN","","","","","","","","","","","","","","",""
"","S2","","html-keyboard-response","118","469812","0.0-1.0-148.0","0","0","64147","","null","","","null","16","","NaN","","","","","","","","","","","","","",""
"","response","","html-keyboard-response","119","470071","0.0-1.0-149.0-0.0","0","0","64147","","240","","","68","16","","","1","16","training","adjacent","CB","3","2","Q.jpg","R.jpg","0","0","1","",""
"","feedback","","html-keyboard-response","120","471080","0.0-1.0-150.0-0.0","0","0","64147","","null","","","null","16","","","","","","","","","","","","","","","",""
"","ITI","","html-keyboard-response","121","472090","0.0-1.0-153.0","0","0","64147","","null","","","null","16","","","","","","","","","","","","","","","NaN",""
"","S1","","html-keyboard-response","122","472346","0.0-1.0-155.0","0","0","64147","","null","","","null","17","","","","","","","","","","","","","","","",""
"","ISI","","html-keyboard-response","123","473350","0.0-1.0-156.0","0","0","64147","","null","","","null","17","NaN","","","","","","","","","","","","","","",""
"","S2","","html-keyboard-response","124","473606","0.0-1.0-157.0","0","0","64147","","null","","","null","17","","NaN","","","","","","","","","","","","","",""
"","response","","html-keyboard-response","125","473828","0.0-1.0-158.0-0.0","0","0","64147","","216","","","68","17","","","1","17","training","adjacent","FE","6","5","O.jpg","P.jpg","0","0","1","",""
"","feedback","","html-keyboard-response","126","474833","0.0-1.0-159.0-0.0","0","0","64147","","null","","","null","17","","","","","","","","","","","","","","","",""
"","ITI","","html-keyboard-response","127","475839","0.0-1.0-162.0","0","0","64147","","null","","","null","17","","","","","","","","","","","","","","","NaN",""
"","S1","","html-keyboard-response","128","476099","0.0-1.0-164.0","0","0","64147","","null","","","null","18","","","","","","","","","","","","","","","",""
"","ISI","","html-keyboard-response","129","477104","0.0-1.0-165.0","0","0","64147","","null","","","null","18","NaN","","","","","","","","","","","","","","",""
"","S2","","html-keyboard-response","130","477359","0.0-1.0-166.0","0","0","64147","","null","","","null","18","","NaN","","","","","","","","","","","","","",""
"","response","","html-keyboard-response","131","477997","0.0-1.0-167.0-0.0","0","0","64147","","630","","","68","18","","","1","18","training","adjacent","BC","2","3","R.jpg","Q.jpg","0","1","0","",""
"","feedback","","html-keyboard-response","132","479004","0.0-1.0-168.0-0.0","0","0","64147","","null","","","null","18","","","","","","","","","","","","","","","",""
"","time_out","","html-keyboard-response","133","481012","0.0-1.0-170.0-0.0","0","0","64147","","null","","","null","18","","","","","","","","","","","","","","","",""
"","ITI","","html-keyboard-response","134","482018","0.0-1.0-171.0","0","0","64147","","null","","","null","18","","","","","","","","","","","","","","","NaN",""
"","S1","","html-keyboard-response","135","482312","0.0-1.0-173.0","0","0","64147","","null","","","null","19","","","","","","","","","","","","","","","",""
"","ISI","","html-keyboard-response","136","483319","0.0-1.0-174.0","0","0","64147","","null","","","null","19","NaN","","","","","","","","","","","","","","",""
"","S2","","html-keyboard-response","137","483576","0.0-1.0-175.0","0","0","64147","","null","","","null","19","","NaN","","","","","","","","","","","","","",""
"","response","","html-keyboard-response","138","483894","0.0-1.0-176.0-0.0","0","0","64147","","313","","","75","19","","","1","19","training","adjacent","FE","6","5","O.jpg","P.jpg","1","0","0","",""
"","feedback","","html-keyboard-response","139","484902","0.0-1.0-177.0-0.0","0","0","64147","","null","","","null","19","","","","","","","","","","","","","","","",""
"","time_out","","html-keyboard-response","140","486908","0.0-1.0-179.0-0.0","0","0","64147","","null","","","null","19","","","","","","","","","","","","","","","",""
"","ITI","","html-keyboard-response","141","487922","0.0-1.0-180.0","0","0","64147","","null","","","null","19","","","","","","","","","","","","","","","NaN",""
"","S1","","html-keyboard-response","142","488189","0.0-1.0-182.0","0","0","64147","","null","","","null","20","","","","","","","","","","","","","","","",""
"","ISI","","html-keyboard-response","143","489197","0.0-1.0-183.0","0","0","64147","","null","","","null","20","NaN","","","","","","","","","","","","","","",""
"","S2","","html-keyboard-response","144","489456","0.0-1.0-184.0","0","0","64147","","null","","","null","20","","NaN","","","","","","","","","","","","","",""
"","response","","html-keyboard-response","145","490219","0.0-1.0-185.0-0.0","0","0","64147","","757","","","75","20","","","1","20","training","adjacent","ED","5","4","P.jpg","N.jpg","1","0","0","",""
"","feedback","","html-keyboard-response","146","491225","0.0-1.0-186.0-0.0","0","0","64147","","null","","","null","20","","","","","","","","","","","","","","","",""
"","time_out","","html-keyboard-response","147","493236","0.0-1.0-188.0-0.0","0","0","64147","","null","","","null","20","","","","","","","","","","","","","","","",""
"","ITI","","html-keyboard-response","148","494243","0.0-1.0-189.0","0","0","64147","","null","","","null","20","","","","","","","","","","","","","","","NaN",""
"","S1","","html-keyboard-response","149","494515","0.0-1.0-191.0","0","0","64147","","null","","","null","21","","","","","","","","","","","","","","","",""
"","ISI","","html-keyboard-response","150","495521","0.0-1.0-192.0","0","0","64147","","null","","","null","21","NaN","","","","","","","","","","","","","","",""
"","S2","","html-keyboard-response","151","495777","0.0-1.0-193.0","0","0","64147","","null","","","null","21","","NaN","","","","","","","","","","","","","",""
"","response","","html-keyboard-response","152","496201","0.0-1.0-194.0-0.0","0","0","64147","","419","","","68","21","","","1","21","training","adjacent","BA","2","1","R.jpg","M.jpg","0","0","1","",""
"","feedback","","html-keyboard-response","153","497206","0.0-1.0-195.0-0.0","0","0","64147","","null","","","null","21","","","","","","","","","","","","","","","",""
"","ITI","","html-keyboard-response","154","498213","0.0-1.0-198.0","0","0","64147","","null","","","null","21","","","","","","","","","","","","","","","NaN",""
"","S1","","html-keyboard-response","155","498468","0.0-1.0-200.0","0","0","64147","","null","","","null","22","","","","","","","","","","","","","","","",""
"","ISI","","html-keyboard-response","156","499475","0.0-1.0-201.0","0","0","64147","","null","","","null","22","NaN","","","","","","","","","","","","","","",""
"","S2","","html-keyboard-response","157","499730","0.0-1.0-202.0","0","0","64147","","null","","","null","22","","NaN","","","","","","","","","","","","","",""
"","response","","html-keyboard-response","158","500128","0.0-1.0-203.0-0.0","0","0","64147","","393","","","68","22","","","1","22","training","adjacent","AB","1","2","M.jpg","R.jpg","0","1","0","",""
"","feedback","","html-keyboard-response","159","501132","0.0-1.0-204.0-0.0","0","0","64147","","null","","","null","22","","","","","","","","","","","","","","","",""
"","time_out","","html-keyboard-response","160","503211","0.0-1.0-206.0-0.0","0","0","64147","","null","","","null","22","","","","","","","","","","","","","","","",""
"","ITI","","html-keyboard-response","161","504215","0.0-1.0-207.0","0","0","64147","","null","","","null","22","","","","","","","","","","","","","","","NaN",""
"","S1","","html-keyboard-response","162","504469","0.0-1.0-209.0","0","0","64147","","null","","","null","23","","","","","","","","","","","","","","","",""
"","ISI","","html-keyboard-response","163","505474","0.0-1.0-210.0","0","0","64147","","null","","","null","23","NaN","","","","","","","","","","","","","","",""
"","S2","","html-keyboard-response","164","505732","0.0-1.0-211.0","0","0","64147","","null","","","null","23","","NaN","","","","","","","","","","","","","",""
"","response","","html-keyboard-response","165","506451","0.0-1.0-212.0-0.0","0","0","64147","","711","","","75","23","","","1","23","training","adjacent","DE","4","5","N.jpg","P.jpg","1","1","1","",""
"","feedback","","html-keyboard-response","166","507458","0.0-1.0-213.0-0.0","0","0","64147","","null","","","null","23","","","","","","","","","","","","","","","",""
"","ITI","","html-keyboard-response","167","508464","0.0-1.0-216.0","0","0","64147","","null","","","null","23","","","","","","","","","","","","","","","NaN",""
"","S1","","html-keyboard-response","168","508719","0.0-1.0-218.0","0","0","64147","","null","","","null","24","","","","","","","","","","","","","","","",""
"","ISI","","html-keyboard-response","169","509724","0.0-1.0-219.0","0","0","64147","","null","","","null","24","NaN","","","","","","","","","","","","","","",""
"","S2","","html-keyboard-response","170","509980","0.0-1.0-220.0","0","0","64147","","null","","","null","24","","NaN","","","","","","","","","","","","","",""
"","response","","html-keyboard-response","171","510181","0.0-1.0-221.0-0.0","0","0","64147","","197","","","68","24","","","1","24","training","adjacent","EF","5","6","P.jpg","O.jpg","0","1","0","",""
"","feedback","","html-keyboard-response","172","511268","0.0-1.0-222.0-0.0","0","0","64147","","null","","","null","24","","","","","","","","","","","","","","","",""
"","time_out","","html-keyboard-response","173","513274","0.0-1.0-224.0-0.0","0","0","64147","","null","","","null","24","","","","","","","","","","","","","","","",""
"","ITI","","html-keyboard-response","174","514285","0.0-1.0-225.0","0","0","64147","","null","","","null","24","","","","","","","","","","","","","","","NaN",""
"","S1","","html-keyboard-response","175","514541","0.0-1.0-227.0","0","0","64147","","null","","","null","25","","","","","","","","","","","","","","","",""
"","ISI","","html-keyboard-response","176","515604","0.0-1.0-228.0","0","0","64147","","null","","","null","25","NaN","","","","","","","","","","","","","","",""
"","S2","","html-keyboard-response","177","515871","0.0-1.0-229.0","0","0","64147","","null","","","null","25","","NaN","","","","","","","","","","","","","",""
"","response","","html-keyboard-response","178","516521","0.0-1.0-230.0-0.0","0","0","64147","","646","","","75","25","","","1","25","training","adjacent","EF","5","6","P.jpg","O.jpg","1","1","1","",""
"","feedback","","html-keyboard-response","179","517529","0.0-1.0-231.0-0.0","0","0","64147","","null","","","null","25","","","","","","","","","","","","","","","",""
"","ITI","","html-keyboard-response","180","518534","0.0-1.0-234.0","0","0","64147","","null","","","null","25","","","","","","","","","","","","","","","NaN",""
"","S1","","html-keyboard-response","181","518788","0.0-1.0-236.0","0","0","64147","","null","","","null","26","","","","","","","","","","","","","","","",""
"","ISI","","html-keyboard-response","182","519795","0.0-1.0-237.0","0","0","64147","","null","","","null","26","NaN","","","","","","","","","","","","","","",""
"","S2","","html-keyboard-response","183","520051","0.0-1.0-238.0","0","0","64147","","null","","","null","26","","NaN","","","","","","","","","","","","","",""
"","response","","html-keyboard-response","184","520578","0.0-1.0-239.0-0.0","0","0","64147","","522","","","68","26","","","1","26","training","adjacent","EF","5","6","P.jpg","O.jpg","0","1","0","",""
"","feedback","","html-keyboard-response","185","521584","0.0-1.0-240.0-0.0","0","0","64147","","null","","","null","26","","","","","","","","","","","","","","","",""
"","time_out","","html-keyboard-response","186","523613","0.0-1.0-242.0-0.0","0","0","64147","","null","","","null","26","","","","","","","","","","","","","","","",""
"","ITI","","html-keyboard-response","187","524619","0.0-1.0-243.0","0","0","64147","","null","","","null","26","","","","","","","","","","","","","","","NaN",""
"","S1","","html-keyboard-response","188","524877","0.0-1.0-245.0","0","0","64147","","null","","","null","27","","","","","","","","","","","","","","","",""
"","ISI","","html-keyboard-response","189","525884","0.0-1.0-246.0","0","0","64147","","null","","","null","27","NaN","","","","","","","","","","","","","","",""
"","S2","","html-keyboard-response","190","526184","0.0-1.0-247.0","0","0","64147","","null","","","null","27","","NaN","","","","","","","","","","","","","",""
"","response","","html-keyboard-response","191","526841","0.0-1.0-248.0-0.0","0","0","64147","","653","","","75","27","","","1","27","training","adjacent","FG","6","7","O.jpg","L.jpg","1","1","1","",""
"","feedback","","html-keyboard-response","192","527848","0.0-1.0-249.0-0.0","0","0","64147","","null","","","null","27","","","","","","","","","","","","","","","",""
"","ITI","","html-keyboard-response","193","528853","0.0-1.0-252.0","0","0","64147","","null","","","null","27","","","","","","","","","","","","","","","NaN",""
"","S1","","html-keyboard-response","194","529109","0.0-1.0-254.0","0","0","64147","","null","","","null","28","","","","","","","","","","","","","","","",""
"","ISI","","html-keyboard-response","195","530114","0.0-1.0-255.0","0","0","64147","","null","","","null","28","NaN","","","","","","","","","","","","","","",""
"","S2","","html-keyboard-response","196","530368","0.0-1.0-256.0","0","0","64147","","null","","","null","28","","NaN","","","","","","","","","","","","","",""
"","response","","html-keyboard-response","197","530662","0.0-1.0-257.0-0.0","0","0","64147","","286","","","75","28","","","1","28","training","adjacent","EF","5","6","P.jpg","O.jpg","1","1","1","",""
"","feedback","","html-keyboard-response","198","531670","0.0-1.0-258.0-0.0","0","0","64147","","null","","","null","28","","","","","","","","","","","","","","","",""
"","ITI","","html-keyboard-response","199","532676","0.0-1.0-261.0","0","0","64147","","null","","","null","28","","","","","","","","","","","","","","","NaN",""
"","S1","","html-keyboard-response","200","532947","0.0-1.0-263.0","0","0","64147","","null","","","null","29","","","","","","","","","","","","","","","",""
"","ISI","","html-keyboard-response","201","533953","0.0-1.0-264.0","0","0","64147","","null","","","null","29","NaN","","","","","","","","","","","","","","",""
"","S2","","html-keyboard-response","202","534213","0.0-1.0-265.0","0","0","64147","","null","","","null","29","","NaN","","","","","","","","","","","","","",""
"","response","","html-keyboard-response","203","534618","0.0-1.0-266.0-0.0","0","0","64147","","398","","","68","29","","","1","29","training","adjacent","DE","4","5","N.jpg","P.jpg","0","1","0","",""
"","feedback","","html-keyboard-response","204","535628","0.0-1.0-267.0-0.0","0","0","64147","","null","","","null","29","","","","","","","","","","","","","","","",""
"","time_out","","html-keyboard-response","205","537658","0.0-1.0-269.0-0.0","0","0","64147","","null","","","null","29","","","","","","","","","","","","","","","",""
"","ITI","","html-keyboard-response","206","538664","0.0-1.0-270.0","0","0","64147","","null","","","null","29","","","","","","","","","","","","","","","NaN",""
"","S1","","html-keyboard-response","207","538921","0.0-1.0-272.0","0","0","64147","","null","","","null","30","","","","","","","","","","","","","","","",""
"","ISI","","html-keyboard-response","208","539931","0.0-1.0-273.0","0","0","64147","","null","","","null","30","NaN","","","","","","","","","","","","","","",""
"","S2","","html-keyboard-response","209","540189","0.0-1.0-274.0","0","0","64147","","null","","","null","30","","NaN","","","","","","","","","","","","","",""
"","response","","html-keyboard-response","210","540335","0.0-1.0-275.0-0.0","0","0","64147","","141","","","75","30","","","1","30","training","adjacent","DC","4","3","N.jpg","Q.jpg","1","0","0","",""
"","feedback","","html-keyboard-response","211","541340","0.0-1.0-276.0-0.0","0","0","64147","","null","","","null","30","","","","","","","","","","","","","","","",""
"","time_out","","html-keyboard-response","212","543347","0.0-1.0-278.0-0.0","0","0","64147","","null","","","null","30","","","","","","","","","","","","","","","",""
"","ITI","","html-keyboard-response","213","544353","0.0-1.0-279.0","0","0","64147","","null","","","null","30","","","","","","","","","","","","","","","NaN",""
"","S1","","html-keyboard-response","214","544611","0.0-1.0-281.0","0","0","64147","","null","","","null","31","","","","","","","","","","","","","","","",""
"","ISI","","html-keyboard-response","215","545617","0.0-1.0-282.0","0","0","64147","","487","","","68","31","d","","","","","","","","","","","","","","",""
"","S2","","html-keyboard-response","216","545874","0.0-1.0-283.0","0","0","64147","","null","","","null","31","","NaN","","","","","","","","","","","","","",""
"","response","","html-keyboard-response","217","546465","0.0-1.0-284.0-0.0","0","0","64147","","583","","","68","31","","","1","31","training","adjacent","GF","7","6","L.jpg","O.jpg","0","0","1","",""
"","feedback","","html-keyboard-response","218","547472","0.0-1.0-285.0-0.0","0","0","64147","","null","","","null","31","","","","","","","","","","","","","","","",""
"","ITI","","html-keyboard-response","219","548481","0.0-1.0-288.0","0","0","64147","","null","","","null","31","","","","","","","","","","","","","","","NaN",""
"","S1","","html-keyboard-response","220","548737","0.0-1.0-290.0","0","0","64147","","null","","","null","32","","","","","","","","","","","","","","","",""
"","ISI","","html-keyboard-response","221","549744","0.0-1.0-291.0","0","0","64147","","null","","","null","32","NaN","","","","","","","","","","","","","","",""
"","S2","","html-keyboard-response","222","549999","0.0-1.0-292.0","0","0","64147","","null","","","null","32","","NaN","","","","","","","","","","","","","",""
"","response","","html-keyboard-response","223","550423","0.0-1.0-293.0-0.0","0","0","64147","","419","","","75","32","","","1","32","training","adjacent","AB","1","2","M.jpg","R.jpg","1","1","1","",""
"","feedback","","html-keyboard-response","224","551438","0.0-1.0-294.0-0.0","0","0","64147","","null","","","null","32","","","","","","","","","","","","","","","",""
"","ITI","","html-keyboard-response","225","552445","0.0-1.0-297.0","0","0","64147","","null","","","null","32","","","","","","","","","","","","","","","NaN",""
"","S1","","html-keyboard-response","226","552717","0.0-1.0-299.0","0","0","64147","","null","","","null","33","","","","","","","","","","","","","","","",""
"","ISI","","html-keyboard-response","227","553724","0.0-1.0-300.0","0","0","64147","","null","","","null","33","NaN","","","","","","","","","","","","","","",""
"","S2","","html-keyboard-response","228","553978","0.0-1.0-301.0","0","0","64147","","null","","","null","33","","NaN","","","","","","","","","","","","","",""
"","response","","html-keyboard-response","229","554616","0.0-1.0-302.0-0.0","0","0","64147","","632","","","68","33","","","1","33","training","adjacent","CB","3","2","Q.jpg","R.jpg","0","0","1","",""
"","feedback","","html-keyboard-response","230","555622","0.0-1.0-303.0-0.0","0","0","64147","","null","","","null","33","","","","","","","","","","","","","","","",""
"","ITI","","html-keyboard-response","231","556631","0.0-1.0-306.0","0","0","64147","","null","","","null","33","","","","","","","","","","","","","","","NaN",""
"","S1","","html-keyboard-response","232","556915","0.0-1.0-308.0","0","0","64147","","null","","","null","34","","","","","","","","","","","","","","","",""
"","ISI","","html-keyboard-response","233","557924","0.0-1.0-309.0","0","0","64147","","null","","","null","34","NaN","","","","","","","","","","","","","","",""
"","S2","","html-keyboard-response","234","558181","0.0-1.0-310.0","0","0","64147","","null","","","null","34","","NaN","","","","","","","","","","","","","",""
"","response","","html-keyboard-response","235","558716","0.0-1.0-311.0-0.0","0","0","64147","","529","","","68","34","","","1","34","training","adjacent","FE","6","5","O.jpg","P.jpg","0","0","1","",""
"","feedback","","html-keyboard-response","236","559735","0.0-1.0-312.0-0.0","0","0","64147","","null","","","null","34","","","","","","","","","","","","","","","",""
"","ITI","","html-keyboard-response","237","560745","0.0-1.0-315.0","0","0","64147","","null","","","null","34","","","","","","","","","","","","","","","NaN",""
"","S1","","html-keyboard-response","238","561002","0.0-1.0-317.0","0","0","64147","","null","","","null","35","","","","","","","","","","","","","","","",""
"","ISI","","html-keyboard-response","239","562010","0.0-1.0-318.0","0","0","64147","","null","","","null","35","NaN","","","","","","","","","","","","","","",""
"","S2","","html-keyboard-response","240","562268","0.0-1.0-319.0","0","0","64147","","null","","","null","35","","NaN","","","","","","","","","","","","","",""
"","response","","html-keyboard-response","241","562589","0.0-1.0-320.0-0.0","0","0","64147","","313","","","68","35","","","1","35","training","adjacent","FG","6","7","O.jpg","L.jpg","0","1","0","",""
"","feedback","","html-keyboard-response","242","563596","0.0-1.0-321.0-0.0","0","0","64147","","null","","","null","35","","","","","","","","","","","","","","","",""
"","time_out","","html-keyboard-response","243","565605","0.0-1.0-323.0-0.0","0","0","64147","","null","","","null","35","","","","","","","","","","","","","","","",""
"","ITI","","html-keyboard-response","244","566612","0.0-1.0-324.0","0","0","64147","","null","","","null","35","","","","","","","","","","","","","","","NaN",""
"","S1","","html-keyboard-response","245","566869","0.0-1.0-326.0","0","0","64147","","null","","","null","36","","","","","","","","","","","","","","","",""
"","ISI","","html-keyboard-response","246","567875","0.0-1.0-327.0","0","0","64147","","null","","","null","36","NaN","","","","","","","","","","","","","","",""
"","S2","","html-keyboard-response","247","568131","0.0-1.0-328.0","0","0","64147","","null","","","null","36","","NaN","","","","","","","","","","","","","",""
"","response","","html-keyboard-response","248","568449","0.0-1.0-329.0-0.0","0","0","64147","","314","","","75","36","","","1","36","training","adjacent","BA","2","1","R.jpg","M.jpg","1","0","0","",""
"","feedback","","html-keyboard-response","249","569459","0.0-1.0-330.0-0.0","0","0","64147","","null","","","null","36","","","","","","","","","","","","","","","",""
"","time_out","","html-keyboard-response","250","571464","0.0-1.0-332.0-0.0","0","0","64147","","null","","","null","36","","","","","","","","","","","","","","","",""
"","ITI","","html-keyboard-response","251","572471","0.0-1.0-333.0","0","0","64147","","null","","","null","36","","","","","","","","","","","","","","","NaN",""
"","S1","","html-keyboard-response","252","572762","0.0-1.0-335.0","0","0","64147","","null","","","null","37","","","","","","","","","","","","","","","",""
"","ISI","","html-keyboard-response","253","573784","0.0-1.0-336.0","0","0","64147","","null","","","null","37","NaN","","","","","","","","","","","","","","",""
"","S2","","html-keyboard-response","254","574042","0.0-1.0-337.0","0","0","64147","","null","","","null","37","","NaN","","","","","","","","","","","","","",""
"","response","","html-keyboard-response","255","574667","0.0-1.0-338.0-0.0","0","0","64147","","621","","","68","37","","","1","37","training","adjacent","ED","5","4","P.jpg","N.jpg","0","0","1","",""
"","feedback","","html-keyboard-response","256","575681","0.0-1.0-339.0-0.0","0","0","64147","","null","","","null","37","","","","","","","","","","","","","","","",""
"","ITI","","html-keyboard-response","257","576689","0.0-1.0-342.0","0","0","64147","","null","","","null","37","","","","","","","","","","","","","","","NaN",""
"","S1","","html-keyboard-response","258","576945","0.0-1.0-344.0","0","0","64147","","null","","","null","38","","","","","","","","","","","","","","","",""
"","ISI","","html-keyboard-response","259","577951","0.0-1.0-345.0","0","0","64147","","null","","","null","38","NaN","","","","","","","","","","","","","","",""
"","S2","","html-keyboard-response","260","578209","0.0-1.0-346.0","0","0","64147","","null","","","null","38","","NaN","","","","","","","","","","","","","",""
"","response","","html-keyboard-response","261","579967","0.0-1.0-347.0-0.0","0","0","64147","","null","","","null","38","","","1","38","training","adjacent","CD","3","4","Q.jpg","N.jpg","NaN","1","0","",""
"","too_slow_prompt","","html-keyboard-response","262","580974","0.0-1.0-349.0-0.0","1","0","64147","","null","","","null","","","","","","","","","","","","","","","","",""
"","time_out","","html-keyboard-response","263","582992","0.0-1.0-350.0-0.0","0","0","64147","","null","","","null","38","","","","","","","","","","","","","","","",""
"","ITI","","html-keyboard-response","264","584001","0.0-1.0-351.0","0","0","64147","","null","","","null","38","","","","","","","","","","","","","","","NaN",""
"","S1","","html-keyboard-response","265","584256","0.0-1.0-353.0","0","0","64147","","null","","","null","39","","","","","","","","","","","","","","","",""
"","ISI","","html-keyboard-response","266","585268","0.0-1.0-354.0","0","0","64147","","null","","","null","39","NaN","","","","","","","","","","","","","","",""
"","S2","","html-keyboard-response","267","585547","0.0-1.0-355.0","0","0","64147","","null","","","null","39","","NaN","","","","","","","","","","","","","",""
"","response","","html-keyboard-response","268","585834","0.0-1.0-356.0-0.0","0","0","64147","","280","","","68","39","","","1","39","training","adjacent","DE","4","5","N.jpg","P.jpg","0","1","0","",""
"","feedback","","html-keyboard-response","269","586840","0.0-1.0-357.0-0.0","0","0","64147","","null","","","null","39","","","","","","","","","","","","","","","",""
"","time_out","","html-keyboard-response","270","588845","0.0-1.0-359.0-0.0","0","0","64147","","null","","","null","39","","","","","","","","","","","","","","","",""
"","ITI","","html-keyboard-response","271","589850","0.0-1.0-360.0","0","0","64147","","null","","","null","39","","","","","","","","","","","","","","","NaN",""
"","S1","","html-keyboard-response","272","590104","0.0-1.0-362.0","0","0","64147","","null","","","null","40","","","","","","","","","","","","","","","",""
"","ISI","","html-keyboard-response","273","591111","0.0-1.0-363.0","0","0","64147","","null","","","null","40","NaN","","","","","","","","","","","","","","",""
"","S2","","html-keyboard-response","274","591367","0.0-1.0-364.0","0","0","64147","","null","","","null","40","","NaN","","","","","","","","","","","","","",""
"","response","","html-keyboard-response","275","591624","0.0-1.0-365.0-0.0","0","0","64147","","253","","","75","40","","","1","40","training","adjacent","BC","2","3","R.jpg","Q.jpg","1","1","1","",""
"","feedback","","html-keyboard-response","276","592683","0.0-1.0-366.0-0.0","0","0","64147","","null","","","null","40","","","","","","","","","","","","","","","",""
"","ITI","","html-keyboard-response","277","593690","0.0-1.0-369.0","0","0","64147","","null","","","null","40","","","","","","","","","","","","","","","NaN",""
"","S1","","html-keyboard-response","278","593942","0.0-1.0-371.0","0","0","64147","","null","","","null","41","","","","","","","","","","","","","","","",""
"","ISI","","html-keyboard-response","279","594955","0.0-1.0-372.0","0","0","64147","","null","","","null","41","NaN","","","","","","","","","","","","","","",""
"","S2","","html-keyboard-response","280","595213","0.0-1.0-373.0","0","0","64147","","null","","","null","41","","NaN","","","","","","","","","","","","","",""
"","response","","html-keyboard-response","281","595486","0.0-1.0-374.0-0.0","0","0","64147","","268","","","75","41","","","1","41","training","adjacent","FG","6","7","O.jpg","L.jpg","1","1","1","",""
"","feedback","","html-keyboard-response","282","596491","0.0-1.0-375.0-0.0","0","0","64147","","null","","","null","41","","","","","","","","","","","","","","","",""
"","ITI","","html-keyboard-response","283","597498","0.0-1.0-378.0","0","0","64147","","114","","","49","41","","","","","","","","","","","","","","","1",""
"","S1","","html-keyboard-response","284","597755","0.0-1.0-380.0","0","0","64147","","null","","","null","42","","","","","","","","","","","","","","","",""
"","ISI","","html-keyboard-response","285","598759","0.0-1.0-381.0","0","0","64147","","null","","","null","42","NaN","","","","","","","","","","","","","","",""
"","S2","","html-keyboard-response","286","599013","0.0-1.0-382.0","0","0","64147","","null","","","null","42","","NaN","","","","","","","","","","","","","",""
"","response","","html-keyboard-response","287","599303","0.0-1.0-383.0-0.0","0","0","64147","","285","","","75","42","","","1","42","training","adjacent","DC","4","3","N.jpg","Q.jpg","1","0","0","",""
"","feedback","","html-keyboard-response","288","600309","0.0-1.0-384.0-0.0","0","0","64147","","null","","","null","42","","","","","","","","","","","","","","","",""
"","time_out","","html-keyboard-response","289","602320","0.0-1.0-386.0-0.0","0","0","64147","","null","","","null","42","","","","","","","","","","","","","","","",""
"","ITI","","html-keyboard-response","290","603326","0.0-1.0-387.0","0","0","64147","","null","","","null","42","","","","","","","","","","","","","","","NaN",""
"","S1","","html-keyboard-response","291","603582","0.0-1.0-389.0","0","0","64147","","null","","","null","43","","","","","","","","","","","","","","","",""
"","ISI","","html-keyboard-response","292","604590","0.0-1.0-390.0","0","0","64147","","397","","","68","43","d","","","","","","","","","","","","","","",""
"","S2","","html-keyboard-response","293","604849","0.0-1.0-391.0","0","0","64147","","null","","","null","43","","NaN","","","","","","","","","","","","","",""
"","response","","html-keyboard-response","294","604998","0.0-1.0-392.0-0.0","0","0","64147","","146","","","68","43","","","1","43","training","adjacent","GF","7","6","L.jpg","O.jpg","0","0","1","",""
"","feedback","","html-keyboard-response","295","606003","0.0-1.0-393.0-0.0","0","0","64147","","null","","","null","43","","","","","","","","","","","","","","","",""
"","ITI","","html-keyboard-response","296","607020","0.0-1.0-396.0","0","0","64147","","null","","","null","43","","","","","","","","","","","","","","","NaN",""
"","S1","","html-keyboard-response","297","607292","0.0-1.0-398.0","0","0","64147","","null","","","null","44","","","","","","","","","","","","","","","",""
"","ISI","","html-keyboard-response","298","608296","0.0-1.0-399.0","0","0","64147","","null","","","null","44","NaN","","","","","","","","","","","","","","",""
"","S2","","html-keyboard-response","299","608554","0.0-1.0-400.0","0","0","64147","","null","","","null","44","","NaN","","","","","","","","","","","","","",""
"","response","","html-keyboard-response","300","609098","0.0-1.0-401.0-0.0","0","0","64147","","536","","","75","44","","","1","44","training","adjacent","FE","6","5","O.jpg","P.jpg","1","0","0","",""
"","feedback","","html-keyboard-response","301","610108","0.0-1.0-402.0-0.0","0","0","64147","","null","","","null","44","","","","","","","","","","","","","","","",""
"","time_out","","html-keyboard-response","302","612115","0.0-1.0-404.0-0.0","0","0","64147","","null","","","null","44","","","","","","","","","","","","","","","",""
"","ITI","","html-keyboard-response","303","613119","0.0-1.0-405.0","0","0","64147","","null","","","null","44","","","","","","","","","","","","","","","NaN",""
"","S1","","html-keyboard-response","304","613377","0.0-1.0-407.0","0","0","64147","","null","","","null","45","","","","","","","","","","","","","","","",""
"","ISI","","html-keyboard-response","305","614386","0.0-1.0-408.0","0","0","64147","","null","","","null","45","NaN","","","","","","","","","","","","","","",""
"","S2","","html-keyboard-response","306","614646","0.0-1.0-409.0","0","0","64147","","null","","","null","45","","NaN","","","","","","","","","","","","","",""
"","response","","html-keyboard-response","307","615152","0.0-1.0-410.0-0.0","0","0","64147","","501","","","75","45","","","1","45","training","adjacent","DC","4","3","N.jpg","Q.jpg","1","0","0","",""
"","feedback","","html-keyboard-response","308","616164","0.0-1.0-411.0-0.0","0","0","64147","","null","","","null","45","","","","","","","","","","","","","","","",""
"","time_out","","html-keyboard-response","309","618171","0.0-1.0-413.0-0.0","0","0","64147","","null","","","null","45","","","","","","","","","","","","","","","",""
"","ITI","","html-keyboard-response","310","619176","0.0-1.0-414.0","0","0","64147","","null","","","null","45","","","","","","","","","","","","","","","NaN",""
"","S1","","html-keyboard-response","311","619436","0.0-1.0-416.0","0","0","64147","","null","","","null","46","","","","","","","","","","","","","","","",""
"","ISI","","html-keyboard-response","312","620439","0.0-1.0-417.0","0","0","64147","","null","","","null","46","NaN","","","","","","","","","","","","","","",""
"","S2","","html-keyboard-response","313","620696","0.0-1.0-418.0","0","0","64147","","null","","","null","46","","NaN","","","","","","","","","","","","","",""
"","response","","html-keyboard-response","314","620964","0.0-1.0-419.0-0.0","0","0","64147","","263","","","68","46","","","1","46","training","adjacent","GF","7","6","L.jpg","O.jpg","0","0","1","",""
"","feedback","","html-keyboard-response","315","621971","0.0-1.0-420.0-0.0","0","0","64147","","null","","","null","46","","","","","","","","","","","","","","","",""
"","ITI","","html-keyboard-response","316","622993","0.0-1.0-423.0","0","0","64147","","null","","","null","46","","","","","","","","","","","","","","","NaN",""
"","S1","","html-keyboard-response","317","623253","0.0-1.0-425.0","0","0","64147","","null","","","null","47","","","","","","","","","","","","","","","",""
"","ISI","","html-keyboard-response","318","624260","0.0-1.0-426.0","0","0","64147","","null","","","null","47","NaN","","","","","","","","","","","","","","",""
"","S2","","html-keyboard-response","319","624518","0.0-1.0-427.0","0","0","64147","","null","","","null","47","","NaN","","","","","","","","","","","","","",""
"","response","","html-keyboard-response","320","625052","0.0-1.0-428.0-0.0","0","0","64147","","530","","","75","47","","","1","47","training","adjacent","ED","5","4","P.jpg","N.jpg","1","0","0","",""
"","feedback","","html-keyboard-response","321","626058","0.0-1.0-429.0-0.0","0","0","64147","","null","","","null","47","","","","","","","","","","","","","","","",""
"","time_out","","html-keyboard-response","322","628064","0.0-1.0-431.0-0.0","0","0","64147","","null","","","null","47","","","","","","","","","","","","","","","",""
"","ITI","","html-keyboard-response","323","629070","0.0-1.0-432.0","0","0","64147","","null","","","null","47","","","","","","","","","","","","","","","NaN",""
"","block_over","","html-keyboard-response","324","640759","0.0-1.0-433.0-0.0","0","0","64147","","11674","","","32","47","","","","","","","","","","","","","","","",""
"","S1","","html-keyboard-response","325","641015","0.0-1.0-434.0","0","0","64147","","null","","","null","48","","","","","","","","","","","","","","","",""
"","ISI","","html-keyboard-response","326","642022","0.0-1.0-435.0","0","0","64147","","null","","","null","48","NaN","","","","","","","","","","","","","","",""
"","S2","","html-keyboard-response","327","642351","0.0-1.0-436.0","0","0","64147","","null","","","null","48","","NaN","","","","","","","","","","","","","",""
"","response","","html-keyboard-response","328","643734","0.0-1.0-437.0-0.0","0","0","64147","","1378","","","75","48","","","2","48","training","adjacent","FE","6","5","O.jpg","P.jpg","1","0","0","",""
"","feedback","","html-keyboard-response","329","644740","0.0-1.0-438.0-0.0","0","0","64147","","null","","","null","48","","","","","","","","","","","","","","","",""
"","time_out","","html-keyboard-response","330","646753","0.0-1.0-440.0-0.0","0","0","64147","","null","","","null","48","","","","","","","","","","","","","","","",""
"","ITI","","html-keyboard-response","331","647761","0.0-1.0-441.0","0","0","64147","","null","","","null","48","","","","","","","","","","","","","","","NaN",""
"","S1","","html-keyboard-response","332","648019","0.0-1.0-443.0","0","0","64147","","null","","","null","49","","","","","","","","","","","","","","","",""
"","ISI","","html-keyboard-response","333","649025","0.0-1.0-444.0","0","0","64147","","324","","","68","49","d","","","","","","","","","","","","","","",""
"","S2","","html-keyboard-response","334","649324","0.0-1.0-445.0","0","0","64147","","null","","","null","49","","NaN","","","","","","","","","","","","","",""
"","response","","html-keyboard-response","335","649669","0.0-1.0-446.0-0.0","0","0","64147","","338","","","75","49","","","2","49","training","adjacent","CB","3","2","Q.jpg","R.jpg","1","0","0","",""
"","feedback","","html-keyboard-response","336","650677","0.0-1.0-447.0-0.0","0","0","64147","","null","","","null","49","","","","","","","","","","","","","","","",""
"","time_out","","html-keyboard-response","337","652684","0.0-1.0-449.0-0.0","0","0","64147","","null","","","null","49","","","","","","","","","","","","","","","",""
"","ITI","","html-keyboard-response","338","653687","0.0-1.0-450.0","0","0","64147","","null","","","null","49","","","","","","","","","","","","","","","NaN",""
"","S1","","html-keyboard-response","339","653941","0.0-1.0-452.0","0","0","64147","","null","","","null","50","","","","","","","","","","","","","","","",""
"","ISI","","html-keyboard-response","340","654951","0.0-1.0-453.0","0","0","64147","","null","","","null","50","NaN","","","","","","","","","","","","","","",""
"","S2","","html-keyboard-response","341","655249","0.0-1.0-454.0","0","0","64147","","null","","","null","50","","NaN","","","","","","","","","","","","","",""
"","response","","html-keyboard-response","342","655539","0.0-1.0-455.0-0.0","0","0","64147","","285","","","68","50","","","2","50","training","adjacent","DE","4","5","N.jpg","P.jpg","0","1","0","",""
"","feedback","","html-keyboard-response","343","656545","0.0-1.0-456.0-0.0","0","0","64147","","null","","","null","50","","","","","","","","","","","","","","","",""
"","time_out","","html-keyboard-response","344","658553","0.0-1.0-458.0-0.0","0","0","64147","","null","","","null","50","","","","","","","","","","","","","","","",""
"","ITI","","html-keyboard-response","345","659561","0.0-1.0-459.0","0","0","64147","","null","","","null","50","","","","","","","","","","","","","","","NaN",""
"","S1","","html-keyboard-response","346","659818","0.0-1.0-461.0","0","0","64147","","null","","","null","51","","","","","","","","","","","","","","","",""
"","ISI","","html-keyboard-response","347","660823","0.0-1.0-462.0","0","0","64147","","null","","","null","51","NaN","","","","","","","","","","","","","","",""
"","S2","","html-keyboard-response","348","661079","0.0-1.0-463.0","0","0","64147","","null","","","null","51","","NaN","","","","","","","","","","","","","",""
"","response","","html-keyboard-response","349","661380","0.0-1.0-464.0-0.0","0","0","64147","","289","","","68","51","","","2","51","training","adjacent","AB","1","2","M.jpg","R.jpg","0","1","0","",""
"","feedback","","html-keyboard-response","350","662386","0.0-1.0-465.0-0.0","0","0","64147","","null","","","null","51","","","","","","","","","","","","","","","",""
"","time_out","","html-keyboard-response","351","664394","0.0-1.0-467.0-0.0","0","0","64147","","null","","","null","51","","","","","","","","","","","","","","","",""
"","ITI","","html-keyboard-response","352","665399","0.0-1.0-468.0","0","0","64147","","28","","","68","51","","","","","","","","","","","","","","","d",""
"","S1","","html-keyboard-response","353","665656","0.0-1.0-470.0","0","0","64147","","null","","","null","52","","","","","","","","","","","","","","","",""
"","ISI","","html-keyboard-response","354","666665","0.0-1.0-471.0","0","0","64147","","null","","","null","52","NaN","","","","","","","","","","","","","","",""
"","S2","","html-keyboard-response","355","666919","0.0-1.0-472.0","0","0","64147","","null","","","null","52","","NaN","","","","","","","","","","","","","",""
"","response","","html-keyboard-response","356","667176","0.0-1.0-473.0-0.0","0","0","64147","","250","","","68","52","","","2","52","training","adjacent","GF","7","6","L.jpg","O.jpg","0","0","1","",""
"","feedback","","html-keyboard-response","357","668184","0.0-1.0-474.0-0.0","0","0","64147","","null","","","null","52","","","","","","","","","","","","","","","",""
"","ITI","","html-keyboard-response","358","669187","0.0-1.0-477.0","0","0","64147","","null","","","null","52","","","","","","","","","","","","","","","NaN",""
"","S1","","html-keyboard-response","359","669445","0.0-1.0-479.0","0","0","64147","","null","","","null","53","","","","","","","","","","","","","","","",""
"","ISI","","html-keyboard-response","360","670451","0.0-1.0-480.0","0","0","64147","","null","","","null","53","NaN","","","","","","","","","","","","","","",""
"","S2","","html-keyboard-response","361","670634","0.0-1.0-481.0","0","0","64147","","179","","","68","53","","d","2","53","training","adjacent","DC","4","3","N.jpg","Q.jpg","0","0","1","",""
"","feedback","","html-keyboard-response","362","671639","0.0-1.0-483.0-0.0","0","0","64147","","null","","","null","53","","","","","","","","","","","","","","","",""
"","ITI","","html-keyboard-response","363","672651","0.0-1.0-486.0","0","0","64147","","null","","","null","53","","","","","","","","","","","","","","","NaN",""
"","S1","","html-keyboard-response","364","672908","0.0-1.0-488.0","0","0","64147","","null","","","null","54","","","","","","","","","","","","","","","",""
"","ISI","","html-keyboard-response","365","673916","0.0-1.0-489.0","0","0","64147","","null","","","null","54","NaN","","","","","","","","","","","","","","",""
"","S2","","html-keyboard-response","366","674171","0.0-1.0-490.0","0","0","64147","","null","","","null","54","","NaN","","","","","","","","","","","","","",""
"","response","","html-keyboard-response","367","674622","0.0-1.0-491.0-0.0","0","0","64147","","447","","","75","54","","","2","54","training","adjacent","GF","7","6","L.jpg","O.jpg","1","0","0","",""
"","feedback","","html-keyboard-response","368","675628","0.0-1.0-492.0-0.0","0","0","64147","","null","","","null","54","","","","","","","","","","","","","","","",""
"","time_out","","html-keyboard-response","369","677640","0.0-1.0-494.0-0.0","0","0","64147","","null","","","null","54","","","","","","","","","","","","","","","",""
"","ITI","","html-keyboard-response","370","678648","0.0-1.0-495.0","0","0","64147","","null","","","null","54","","","","","","","","","","","","","","","NaN",""
"","S1","","html-keyboard-response","371","678904","0.0-1.0-497.0","0","0","64147","","null","","","null","55","","","","","","","","","","","","","","","",""
"","ISI","","html-keyboard-response","372","679913","0.0-1.0-498.0","0","0","64147","","null","","","null","55","NaN","","","","","","","","","","","","","","",""
"","S2","","html-keyboard-response","373","680171","0.0-1.0-499.0","0","0","64147","","null","","","null","55","","NaN","","","","","","","","","","","","","",""
"","response","","html-keyboard-response","374","680709","0.0-1.0-500.0-0.0","0","0","64147","","534","","","68","55","","","2","55","training","adjacent","ED","5","4","P.jpg","N.jpg","0","0","1","",""
"","feedback","","html-keyboard-response","375","681723","0.0-1.0-501.0-0.0","0","0","64147","","null","","","null","55","","","","","","","","","","","","","","","",""
"","ITI","","html-keyboard-response","376","682734","0.0-1.0-504.0","0","0","64147","","null","","","null","55","","","","","","","","","","","","","","","NaN",""
"","S1","","html-keyboard-response","377","683004","0.0-1.0-506.0","0","0","64147","","null","","","null","56","","","","","","","","","","","","","","","",""
"","ISI","","html-keyboard-response","378","684007","0.0-1.0-507.0","0","0","64147","","null","","","null","56","NaN","","","","","","","","","","","","","","",""
"","S2","","html-keyboard-response","379","684263","0.0-1.0-508.0","0","0","64147","","null","","","null","56","","NaN","","","","","","","","","","","","","",""
"","response","","html-keyboard-response","380","684523","0.0-1.0-509.0-0.0","0","0","64147","","253","","","75","56","","","2","56","training","adjacent","CB","3","2","Q.jpg","R.jpg","1","0","0","",""
"","feedback","","html-keyboard-response","381","685536","0.0-1.0-510.0-0.0","0","0","64147","","null","","","null","56","","","","","","","","","","","","","","","",""
"","time_out","","html-keyboard-response","382","687550","0.0-1.0-512.0-0.0","0","0","64147","","null","","","null","56","","","","","","","","","","","","","","","",""
"","ITI","","html-keyboard-response","383","688559","0.0-1.0-513.0","0","0","64147","","null","","","null","56","","","","","","","","","","","","","","","NaN",""
"","S1","","html-keyboard-response","384","688818","0.0-1.0-515.0","0","0","64147","","null","","","null","57","","","","","","","","","","","","","","","",""
"","ISI","","html-keyboard-response","385","689825","0.0-1.0-516.0","0","0","64147","","296","","","68","57","d","","","","","","","","","","","","","","",""
"","S2","","html-keyboard-response","386","690079","0.0-1.0-517.0","0","0","64147","","null","","","null","57","","NaN","","","","","","","","","","","","","",""
"","response","","html-keyboard-response","387","690794","0.0-1.0-518.0-0.0","0","0","64147","","706","","","75","57","","","2","57","training","adjacent","BC","2","3","R.jpg","Q.jpg","1","1","1","",""
"","feedback","","html-keyboard-response","388","691803","0.0-1.0-519.0-0.0","0","0","64147","","null","","","null","57","","","","","","","","","","","","","","","",""
"","ITI","","html-keyboard-response","389","692816","0.0-1.0-522.0","0","0","64147","","null","","","null","57","","","","","","","","","","","","","","","NaN",""
"","S1","","html-keyboard-response","390","693074","0.0-1.0-524.0","0","0","64147","","null","","","null","58","","","","","","","","","","","","","","","",""
"","ISI","","html-keyboard-response","391","694082","0.0-1.0-525.0","0","0","64147","","707","","","68","58","d","","","","","","","","","","","","","","",""
"","S2","","html-keyboard-response","392","694339","0.0-1.0-526.0","0","0","64147","","null","","","null","58","","NaN","","","","","","","","","","","","","",""
"","response","","html-keyboard-response","393","695005","0.0-1.0-527.0-0.0","0","0","64147","","660","","","75","58","","","2","58","training","adjacent","EF","5","6","P.jpg","O.jpg","1","1","1","",""
"","feedback","","html-keyboard-response","394","696021","0.0-1.0-528.0-0.0","0","0","64147","","null","","","null","58","","","","","","","","","","","","","","","",""
"","ITI","","html-keyboard-response","395","697037","0.0-1.0-531.0","0","0","64147","","null","","","null","58","","","","","","","","","","","","","","","NaN",""
"","S1","","html-keyboard-response","396","697290","0.0-1.0-533.0","0","0","64147","","null","","","null","59","","","","","","","","","","","","","","","",""
"","ISI","","html-keyboard-response","397","698299","0.0-1.0-534.0","0","0","64147","","741","","","68","59","d","","","","","","","","","","","","","","",""
"","S2","","html-keyboard-response","398","698556","0.0-1.0-535.0","0","0","64147","","null","","","null","59","","NaN","","","","","","","","","","","","","",""
"","response","","html-keyboard-response","399","699023","0.0-1.0-536.0-0.0","0","0","64147","","462","","","75","59","","","2","59","training","adjacent","BA","2","1","R.jpg","M.jpg","1","0","0","",""
"","feedback","","html-keyboard-response","400","700029","0.0-1.0-537.0-0.0","0","0","64147","","null","","","null","59","","","","","","","","","","","","","","","",""
"","time_out","","html-keyboard-response","401","702034","0.0-1.0-539.0-0.0","0","0","64147","","null","","","null","59","","","","","","","","","","","","","","","",""
"","ITI","","html-keyboard-response","402","703045","0.0-1.0-540.0","0","0","64147","","null","","","null","59","","","","","","","","","","","","","","","NaN",""
"","S1","","html-keyboard-response","403","703298","0.0-1.0-542.0","0","0","64147","","null","","","null","60","","","","","","","","","","","","","","","",""
"","ISI","","html-keyboard-response","404","704306","0.0-1.0-543.0","0","0","64147","","399","","","68","60","d","","","","","","","","","","","","","","",""
"","S2","","html-keyboard-response","405","704561","0.0-1.0-544.0","0","0","64147","","null","","","null","60","","NaN","","","","","","","","","","","","","",""
"","response","","html-keyboard-response","406","705283","0.0-1.0-545.0-0.0","0","0","64147","","717","","","75","60","","","2","60","training","adjacent","BA","2","1","R.jpg","M.jpg","1","0","0","",""
"","feedback","","html-keyboard-response","407","706288","0.0-1.0-546.0-0.0","0","0","64147","","null","","","null","60","","","","","","","","","","","","","","","",""
"","time_out","","html-keyboard-response","408","708293","0.0-1.0-548.0-0.0","0","0","64147","","null","","","null","60","","","","","","","","","","","","","","","",""
"","ITI","","html-keyboard-response","409","709299","0.0-1.0-549.0","0","0","64147","","null","","","null","60","","","","","","","","","","","","","","","NaN",""
"","S1","","html-keyboard-response","410","709555","0.0-1.0-551.0","0","0","64147","","null","","","null","61","","","","","","","","","","","","","","","",""
"","ISI","","html-keyboard-response","411","710646","0.0-1.0-552.0","0","0","64147","","null","","","null","61","NaN","","","","","","","","","","","","","","",""
"","S2","","html-keyboard-response","412","710901","0.0-1.0-553.0","0","0","64147","","null","","","null","61","","NaN","","","","","","","","","","","","","",""
"","response","","html-keyboard-response","413","711687","0.0-1.0-554.0-0.0","0","0","64147","","778","","","68","61","","","2","61","training","adjacent","GF","7","6","L.jpg","O.jpg","0","0","1","",""
"","feedback","","html-keyboard-response","414","712698","0.0-1.0-555.0-0.0","0","0","64147","","null","","","null","61","","","","","","","","","","","","","","","",""
"","ITI","","html-keyboard-response","415","713705","0.0-1.0-558.0","0","0","64147","","null","","","null","61","","","","","","","","","","","","","","","NaN",""
"","S1","","html-keyboard-response","416","713962","0.0-1.0-560.0","0","0","64147","","null","","","null","62","","","","","","","","","","","","","","","",""
"","ISI","","html-keyboard-response","417","714972","0.0-1.0-561.0","0","0","64147","","null","","","null","62","NaN","","","","","","","","","","","","","","",""
"","S2","","html-keyboard-response","418","715245","0.0-1.0-562.0","0","0","64147","","null","","","null","62","","NaN","","","","","","","","","","","","","",""
"","response","","html-keyboard-response","419","717003","0.0-1.0-563.0-0.0","0","0","64147","","null","","","null","62","","","2","62","training","adjacent","DC","4","3","N.jpg","Q.jpg","NaN","0","0","",""
"","too_slow_prompt","","html-keyboard-response","420","718009","0.0-1.0-565.0-0.0","1","0","64147","","null","","","null","","","","","","","","","","","","","","","","",""
"","time_out","","html-keyboard-response","421","720017","0.0-1.0-566.0-0.0","0","0","64147","","null","","","null","62","","","","","","","","","","","","","","","",""
"","ITI","","html-keyboard-response","422","721036","0.0-1.0-567.0","0","0","64147","","null","","","null","62","","","","","","","","","","","","","","","NaN",""
"","S1","","html-keyboard-response","423","721298","0.0-1.0-569.0","0","0","64147","","null","","","null","63","","","","","","","","","","","","","","","",""
"","ISI","","html-keyboard-response","424","722304","0.0-1.0-570.0","0","0","64147","","null","","","null","63","NaN","","","","","","","","","","","","","","",""
"","S2","","html-keyboard-response","425","722565","0.0-1.0-571.0","0","0","64147","","null","","","null","63","","NaN","","","","","","","","","","","","","",""
"","response","","html-keyboard-response","426","724333","0.0-1.0-572.0-0.0","0","0","64147","","null","","","null","63","","","2","63","training","adjacent","DE","4","5","N.jpg","P.jpg","NaN","1","0","",""
"","too_slow_prompt","","html-keyboard-response","427","725339","0.0-1.0-574.0-0.0","1","0","64147","","null","","","null","","","","","","","","","","","","","","","","",""
"","time_out","","html-keyboard-response","428","727359","0.0-1.0-575.0-0.0","0","0","64147","","null","","","null","63","","","","","","","","","","","","","","","",""
"","ITI","","html-keyboard-response","429","728363","0.0-1.0-576.0","0","0","64147","","null","","","null","63","","","","","","","","","","","","","","","NaN",""
"","S1","","html-keyboard-response","430","728626","0.0-1.0-578.0","0","0","64147","","null","","","null","64","","","","","","","","","","","","","","","",""
"","ISI","","html-keyboard-response","431","729632","0.0-1.0-579.0","0","0","64147","","null","","","null","64","NaN","","","","","","","","","","","","","","",""
"","S2","","html-keyboard-response","432","729888","0.0-1.0-580.0","0","0","64147","","null","","","null","64","","NaN","","","","","","","","","","","","","",""
"","response","","html-keyboard-response","433","731643","0.0-1.0-581.0-0.0","0","0","64147","","null","","","null","64","","","2","64","training","adjacent","EF","5","6","P.jpg","O.jpg","NaN","1","0","",""
"","too_slow_prompt","","html-keyboard-response","434","732653","0.0-1.0-583.0-0.0","1","0","64147","","null","","","null","","","","","","","","","","","","","","","","",""
"","time_out","","html-keyboard-response","435","734659","0.0-1.0-584.0-0.0","0","0","64147","","null","","","null","64","","","","","","","","","","","","","","","",""
"","ITI","","html-keyboard-response","436","735687","0.0-1.0-585.0","0","0","64147","","null","","","null","64","","","","","","","","","","","","","","","NaN",""
"","S1","","html-keyboard-response","437","735944","0.0-1.0-587.0","0","0","64147","","null","","","null","65","","","","","","","","","","","","","","","",""
"","ISI","","html-keyboard-response","438","736952","0.0-1.0-588.0","0","0","64147","","null","","","null","65","NaN","","","","","","","","","","","","","","",""
"","S2","","html-keyboard-response","439","737214","0.0-1.0-589.0","0","0","64147","","null","","","null","65","","NaN","","","","","","","","","","","","","",""
"","response","","html-keyboard-response","440","737928","0.0-1.0-590.0-0.0","0","0","64147","","705","","","75","65","","","2","65","training","adjacent","CD","3","4","Q.jpg","N.jpg","1","1","1","",""
"","feedback","","html-keyboard-response","441","738947","0.0-1.0-591.0-0.0","0","0","64147","","null","","","null","65","","","","","","","","","","","","","","","",""
"","ITI","","html-keyboard-response","442","739954","0.0-1.0-594.0","0","0","64147","","null","","","null","65","","","","","","","","","","","","","","","NaN",""
"","S1","","html-keyboard-response","443","740209","0.0-1.0-596.0","0","0","64147","","null","","","null","66","","","","","","","","","","","","","","","",""
"","ISI","","html-keyboard-response","444","741216","0.0-1.0-597.0","0","0","64147","","null","","","null","66","NaN","","","","","","","","","","","","","","",""
"","S2","","html-keyboard-response","445","741472","0.0-1.0-598.0","0","0","64147","","null","","","null","66","","NaN","","","","","","","","","","","","","",""
"","response","","html-keyboard-response","446","742067","0.0-1.0-599.0-0.0","0","0","64147","","590","","","75","66","","","2","66","training","adjacent","DC","4","3","N.jpg","Q.jpg","1","0","0","",""
"","feedback","","html-keyboard-response","447","743073","0.0-1.0-600.0-0.0","0","0","64147","","null","","","null","66","","","","","","","","","","","","","","","",""
"","time_out","","html-keyboard-response","448","745080","0.0-1.0-602.0-0.0","0","0","64147","","null","","","null","66","","","","","","","","","","","","","","","",""
"","ITI","","html-keyboard-response","449","746085","0.0-1.0-603.0","0","0","64147","","null","","","null","66","","","","","","","","","","","","","","","NaN",""
"","S1","","html-keyboard-response","450","746343","0.0-1.0-605.0","0","0","64147","","null","","","null","67","","","","","","","","","","","","","","","",""
"","ISI","","html-keyboard-response","451","747349","0.0-1.0-606.0","0","0","64147","","null","","","null","67","NaN","","","","","","","","","","","","","","",""
"","S2","","html-keyboard-response","452","747603","0.0-1.0-607.0","0","0","64147","","null","","","null","67","","NaN","","","","","","","","","","","","","",""
"","response","","html-keyboard-response","453","748140","0.0-1.0-608.0-0.0","0","0","64147","","533","","","68","67","","","2","67","training","adjacent","FG","6","7","O.jpg","L.jpg","0","1","0","",""
"","feedback","","html-keyboard-response","454","749160","0.0-1.0-609.0-0.0","0","0","64147","","null","","","null","67","","","","","","","","","","","","","","","",""
"","time_out","","html-keyboard-response","455","751167","0.0-1.0-611.0-0.0","0","0","64147","","null","","","null","67","","","","","","","","","","","","","","","",""
"","ITI","","html-keyboard-response","456","752175","0.0-1.0-612.0","0","0","64147","","null","","","null","67","","","","","","","","","","","","","","","NaN",""
"","S1","","html-keyboard-response","457","752432","0.0-1.0-614.0","0","0","64147","","null","","","null","68","","","","","","","","","","","","","","","",""
"","ISI","","html-keyboard-response","458","753440","0.0-1.0-615.0","0","0","64147","","null","","","null","68","NaN","","","","","","","","","","","","","","",""
"","S2","","html-keyboard-response","459","753625","0.0-1.0-616.0","0","0","64147","","181","","","75","68","","k","2","68","training","adjacent","DE","4","5","N.jpg","P.jpg","1","1","1","",""
"","feedback","","html-keyboard-response","460","754633","0.0-1.0-618.0-0.0","0","0","64147","","null","","","null","68","","","","","","","","","","","","","","","",""
"","ITI","","html-keyboard-response","461","755640","0.0-1.0-621.0","0","0","64147","","null","","","null","68","","","","","","","","","","","","","","","NaN",""
"","S1","","html-keyboard-response","462","755896","0.0-1.0-623.0","0","0","64147","","null","","","null","69","","","","","","","","","","","","","","","",""
"","ISI","","html-keyboard-response","463","756901","0.0-1.0-624.0","0","0","64147","","null","","","null","69","NaN","","","","","","","","","","","","","","",""
"","S2","","html-keyboard-response","464","757159","0.0-1.0-625.0","0","0","64147","","null","","","null","69","","NaN","","","","","","","","","","","","","",""
"","response","","html-keyboard-response","465","757538","0.0-1.0-626.0-0.0","0","0","64147","","374","","","68","69","","","2","69","training","adjacent","BC","2","3","R.jpg","Q.jpg","0","1","0","",""
"","feedback","","html-keyboard-response","466","758545","0.0-1.0-627.0-0.0","0","0","64147","","null","","","null","69","","","","","","","","","","","","","","","",""
"","time_out","","html-keyboard-response","467","760564","0.0-1.0-629.0-0.0","0","0","64147","","null","","","null","69","","","","","","","","","","","","","","","",""
"","ITI","","html-keyboard-response","468","761571","0.0-1.0-630.0","0","0","64147","","null","","","null","69","","","","","","","","","","","","","","","NaN",""
"","S1","","html-keyboard-response","469","761828","0.0-1.0-632.0","0","0","64147","","null","","","null","70","","","","","","","","","","","","","","","",""
"","ISI","","html-keyboard-response","470","762837","0.0-1.0-633.0","0","0","64147","","708","","","75","70","k","","","","","","","","","","","","","","",""
"","S2","","html-keyboard-response","471","763092","0.0-1.0-634.0","0","0","64147","","null","","","null","70","","NaN","","","","","","","","","","","","","",""
"","response","","html-keyboard-response","472","763580","0.0-1.0-635.0-0.0","0","0","64147","","477","","","75","70","","","2","70","training","adjacent","BA","2","1","R.jpg","M.jpg","1","0","0","",""
"","feedback","","html-keyboard-response","473","764588","0.0-1.0-636.0-0.0","0","0","64147","","null","","","null","70","","","","","","","","","","","","","","","",""
"","time_out","","html-keyboard-response","474","766597","0.0-1.0-638.0-0.0","0","0","64147","","null","","","null","70","","","","","","","","","","","","","","","",""
"","ITI","","html-keyboard-response","475","767615","0.0-1.0-639.0","0","0","64147","","null","","","null","70","","","","","","","","","","","","","","","NaN",""
"","S1","","html-keyboard-response","476","767870","0.0-1.0-641.0","0","0","64147","","null","","","null","71","","","","","","","","","","","","","","","",""
"","ISI","","html-keyboard-response","477","768874","0.0-1.0-642.0","0","0","64147","","null","","","null","71","NaN","","","","","","","","","","","","","","",""
"","S2","","html-keyboard-response","478","769128","0.0-1.0-643.0","0","0","64147","","null","","","null","71","","NaN","","","","","","","","","","","","","",""
"","response","","html-keyboard-response","479","769477","0.0-1.0-644.0-0.0","0","0","64147","","346","","","68","71","","","2","71","training","adjacent","FG","6","7","O.jpg","L.jpg","0","1","0","",""
"","feedback","","html-keyboard-response","480","770485","0.0-1.0-645.0-0.0","0","0","64147","","null","","","null","71","","","","","","","","","","","","","","","",""
"","time_out","","html-keyboard-response","481","772572","0.0-1.0-647.0-0.0","0","0","64147","","null","","","null","71","","","","","","","","","","","","","","","",""
"","ITI","","html-keyboard-response","482","773581","0.0-1.0-648.0","0","0","64147","","10","","","75","71","","","","","","","","","","","","","","","k",""
"","S1","","html-keyboard-response","483","773836","0.0-1.0-650.0","0","0","64147","","null","","","null","72","","","","","","","","","","","","","","","",""
"","ISI","","html-keyboard-response","484","774842","0.0-1.0-651.0","0","0","64147","","157","","","75","72","k","","","","","","","","","","","","","","",""
"","S2","","html-keyboard-response","485","774950","0.0-1.0-652.0","0","0","64147","","103","","","75","72","","k","2","72","training","adjacent","BC","2","3","R.jpg","Q.jpg","1","1","1","",""
"","feedback","","html-keyboard-response","486","775958","0.0-1.0-654.0-0.0","0","0","64147","","null","","","null","72","","","","","","","","","","","","","","","",""
"","ITI","","html-keyboard-response","487","776963","0.0-1.0-657.0","0","0","64147","","null","","","null","72","","","","","","","","","","","","","","","NaN",""
"","S1","","html-keyboard-response","488","777221","0.0-1.0-659.0","0","0","64147","","null","","","null","73","","","","","","","","","","","","","","","",""
"","ISI","","html-keyboard-response","489","778226","0.0-1.0-660.0","0","0","64147","","null","","","null","73","NaN","","","","","","","","","","","","","","",""
"","S2","","html-keyboard-response","490","778484","0.0-1.0-661.0","0","0","64147","","null","","","null","73","","NaN","","","","","","","","","","","","","",""
"","response","","html-keyboard-response","491","778924","0.0-1.0-662.0-0.0","0","0","64147","","435","","","68","73","","","2","73","training","adjacent","FE","6","5","O.jpg","P.jpg","0","0","1","",""
"","feedback","","html-keyboard-response","492","779930","0.0-1.0-663.0-0.0","0","0","64147","","null","","","null","73","","","","","","","","","","","","","","","",""
"","ITI","","html-keyboard-response","493","780936","0.0-1.0-666.0","0","0","64147","","null","","","null","73","","","","","","","","","","","","","","","NaN",""
"","S1","","html-keyboard-response","494","781193","0.0-1.0-668.0","0","0","64147","","null","","","null","74","","","","","","","","","","","","","","","",""
"","ISI","","html-keyboard-response","495","782199","0.0-1.0-669.0","0","0","64147","","871","","","75","74","k","","","","","","","","","","","","","","",""
"","S2","","html-keyboard-response","496","782466","0.0-1.0-670.0","0","0","64147","","null","","","null","74","","NaN","","","","","","","","","","","","","",""
"","response","","html-keyboard-response","497","783057","0.0-1.0-671.0-0.0","0","0","64147","","585","","","68","74","","","2","74","training","adjacent","DC","4","3","N.jpg","Q.jpg","0","0","1","",""
"","feedback","","html-keyboard-response","498","784071","0.0-1.0-672.0-0.0","0","0","64147","","null","","","null","74","","","","","","","","","","","","","","","",""
"","ITI","","html-keyboard-response","499","785084","0.0-1.0-675.0","0","0","64147","","null","","","null","74","","","","","","","","","","","","","","","NaN",""
"","S1","","html-keyboard-response","500","785337","0.0-1.0-677.0","0","0","64147","","null","","","null","75","","","","","","","","","","","","","","","",""
"","ISI","","html-keyboard-response","501","786343","0.0-1.0-678.0","0","0","64147","","null","","","null","75","NaN","","","","","","","","","","","","","","",""
"","S2","","html-keyboard-response","502","786599","0.0-1.0-679.0","0","0","64147","","null","","","null","75","","NaN","","","","","","","","","","","","","",""
"","response","","html-keyboard-response","503","787130","0.0-1.0-680.0-0.0","0","0","64147","","526","","","68","75","","","2","75","training","adjacent","DE","4","5","N.jpg","P.jpg","0","1","0","",""
"","feedback","","html-keyboard-response","504","788138","0.0-1.0-681.0-0.0","0","0","64147","","null","","","null","75","","","","","","","","","","","","","","","",""
"","time_out","","html-keyboard-response","505","790148","0.0-1.0-683.0-0.0","0","0","64147","","null","","","null","75","","","","","","","","","","","","","","","",""
"","ITI","","html-keyboard-response","506","791152","0.0-1.0-684.0","0","0","64147","","null","","","null","75","","","","","","","","","","","","","","","NaN",""
"","S1","","html-keyboard-response","507","791409","0.0-1.0-686.0","0","0","64147","","null","","","null","76","","","","","","","","","","","","","","","",""
"","ISI","","html-keyboard-response","508","792414","0.0-1.0-687.0","0","0","64147","","null","","","null","76","NaN","","","","","","","","","","","","","","",""
"","S2","","html-keyboard-response","509","792670","0.0-1.0-688.0","0","0","64147","","null","","","null","76","","NaN","","","","","","","","","","","","","",""
"","response","","html-keyboard-response","510","793228","0.0-1.0-689.0-0.0","0","0","64147","","553","","","75","76","","","2","76","training","adjacent","EF","5","6","P.jpg","O.jpg","1","1","1","",""
"","feedback","","html-keyboard-response","511","794237","0.0-1.0-690.0-0.0","0","0","64147","","null","","","null","76","","","","","","","","","","","","","","","",""
"","ITI","","html-keyboard-response","512","795249","0.0-1.0-693.0","0","0","64147","","null","","","null","76","","","","","","","","","","","","","","","NaN",""
"","S1","","html-keyboard-response","513","795506","0.0-1.0-695.0","0","0","64147","","null","","","null","77","","","","","","","","","","","","","","","",""
"","ISI","","html-keyboard-response","514","796513","0.0-1.0-696.0","0","0","64147","","null","","","null","77","NaN","","","","","","","","","","","","","","",""
"","S2","","html-keyboard-response","515","796768","0.0-1.0-697.0","0","0","64147","","null","","","null","77","","NaN","","","","","","","","","","","","","",""
"","response","","html-keyboard-response","516","797367","0.0-1.0-698.0-0.0","0","0","64147","","595","","","68","77","","","2","77","training","adjacent","ED","5","4","P.jpg","N.jpg","0","0","1","",""
"","feedback","","html-keyboard-response","517","798380","0.0-1.0-699.0-0.0","0","0","64147","","null","","","null","77","","","","","","","","","","","","","","","",""
"","ITI","","html-keyboard-response","518","799388","0.0-1.0-702.0","0","0","64147","","null","","","null","77","","","","","","","","","","","","","","","NaN",""
"","S1","","html-keyboard-response","519","799642","0.0-1.0-704.0","0","0","64147","","null","","","null","78","","","","","","","","","","","","","","","",""
"","ISI","","html-keyboard-response","520","800648","0.0-1.0-705.0","0","0","64147","","null","","","null","78","NaN","","","","","","","","","","","","","","",""
"","S2","","html-keyboard-response","521","800903","0.0-1.0-706.0","0","0","64147","","null","","","null","78","","NaN","","","","","","","","","","","","","",""
"","response","","html-keyboard-response","522","801450","0.0-1.0-707.0-0.0","0","0","64147","","543","","","75","78","","","2","78","training","adjacent","BC","2","3","R.jpg","Q.jpg","1","1","1","",""
"","feedback","","html-keyboard-response","523","802467","0.0-1.0-708.0-0.0","0","0","64147","","null","","","null","78","","","","","","","","","","","","","","","",""
"","ITI","","html-keyboard-response","524","803479","0.0-1.0-711.0","0","0","64147","","null","","","null","78","","","","","","","","","","","","","","","NaN",""
"","S1","","html-keyboard-response","525","803733","0.0-1.0-713.0","0","0","64147","","null","","","null","79","","","","","","","","","","","","","","","",""
"","ISI","","html-keyboard-response","526","804743","0.0-1.0-714.0","0","0","64147","","null","","","null","79","NaN","","","","","","","","","","","","","","",""
"","S2","","html-keyboard-response","527","805099","0.0-1.0-715.0","0","0","64147","","null","","","null","79","","NaN","","","","","","","","","","","","","",""
"","response","","html-keyboard-response","528","805310","0.0-1.0-716.0-0.0","0","0","64147","","207","","","75","79","","","2","79","training","adjacent","ED","5","4","P.jpg","N.jpg","1","0","0","",""
"","feedback","","html-keyboard-response","529","806320","0.0-1.0-717.0-0.0","0","0","64147","","null","","","null","79","","","","","","","","","","","","","","","",""
"","time_out","","html-keyboard-response","530","808329","0.0-1.0-719.0-0.0","0","0","64147","","null","","","null","79","","","","","","","","","","","","","","","",""
"","ITI","","html-keyboard-response","531","809334","0.0-1.0-720.0","0","0","64147","","null","","","null","79","","","","","","","","","","","","","","","NaN",""
"","S1","","html-keyboard-response","532","809592","0.0-1.0-722.0","0","0","64147","","null","","","null","80","","","","","","","","","","","","","","","",""
"","ISI","","html-keyboard-response","533","810596","0.0-1.0-723.0","0","0","64147","","null","","","null","80","NaN","","","","","","","","","","","","","","",""
"","S2","","html-keyboard-response","534","810855","0.0-1.0-724.0","0","0","64147","","null","","","null","80","","NaN","","","","","","","","","","","","","",""
"","response","","html-keyboard-response","535","811444","0.0-1.0-725.0-0.0","0","0","64147","","583","","","75","80","","","2","80","training","adjacent","FG","6","7","O.jpg","L.jpg","1","1","1","",""
"","feedback","","html-keyboard-response","536","812451","0.0-1.0-726.0-0.0","0","0","64147","","null","","","null","80","","","","","","","","","","","","","","","",""
"","ITI","","html-keyboard-response","537","813459","0.0-1.0-729.0","0","0","64147","","null","","","null","80","","","","","","","","","","","","","","","NaN",""
"","S1","","html-keyboard-response","538","813715","0.0-1.0-731.0","0","0","64147","","null","","","null","81","","","","","","","","","","","","","","","",""
"","ISI","","html-keyboard-response","539","814721","0.0-1.0-732.0","0","0","64147","","null","","","null","81","NaN","","","","","","","","","","","","","","",""
"","S2","","html-keyboard-response","540","814978","0.0-1.0-733.0","0","0","64147","","null","","","null","81","","NaN","","","","","","","","","","","","","",""
"","response","","html-keyboard-response","541","815077","0.0-1.0-734.0-0.0","0","0","64147","","93","","","68","81","","","2","81","training","adjacent","FE","6","5","O.jpg","P.jpg","0","0","1","",""
"","feedback","","html-keyboard-response","542","816102","0.0-1.0-735.0-0.0","0","0","64147","","null","","","null","81","","","","","","","","","","","","","","","",""
"","ITI","","html-keyboard-response","543","817108","0.0-1.0-738.0","0","0","64147","","null","","","null","81","","","","","","","","","","","","","","","NaN",""
"","S1","","html-keyboard-response","544","817367","0.0-1.0-740.0","0","0","64147","","null","","","null","82","","","","","","","","","","","","","","","",""
"","ISI","","html-keyboard-response","545","818407","0.0-1.0-741.0","0","0","64147","","null","","","null","82","NaN","","","","","","","","","","","","","","",""
"","S2","","html-keyboard-response","546","818562","0.0-1.0-742.0","0","0","64147","","147","","","75","82","","k","2","82","training","adjacent","CB","3","2","Q.jpg","R.jpg","1","0","0","",""
"","feedback","","html-keyboard-response","547","819579","0.0-1.0-744.0-0.0","0","0","64147","","null","","","null","82","","","","","","","","","","","","","","","",""
"","time_out","","html-keyboard-response","548","821586","0.0-1.0-746.0-0.0","0","0","64147","","null","","","null","82","","","","","","","","","","","","","","","",""
"","ITI","","html-keyboard-response","549","822602","0.0-1.0-747.0","0","0","64147","","null","","","null","82","","","","","","","","","","","","","","","NaN",""
"","S1","","html-keyboard-response","550","822856","0.0-1.0-749.0","0","0","64147","","null","","","null","83","","","","","","","","","","","","","","","",""
"","ISI","","html-keyboard-response","551","823862","0.0-1.0-750.0","0","0","64147","","null","","","null","83","NaN","","","","","","","","","","","","","","",""
"","S2","","html-keyboard-response","552","824118","0.0-1.0-751.0","0","0","64147","","null","","","null","83","","NaN","","","","","","","","","","","","","",""
"","response","","html-keyboard-response","553","824309","0.0-1.0-752.0-0.0","0","0","64147","","184","","","75","83","","","2","83","training","adjacent","AB","1","2","M.jpg","R.jpg","1","1","1","",""
"","feedback","","html-keyboard-response","554","825314","0.0-1.0-753.0-0.0","0","0","64147","","null","","","null","83","","","","","","","","","","","","","","","",""
"","ITI","","html-keyboard-response","555","826367","0.0-1.0-756.0","0","0","64147","","null","","","null","83","","","","","","","","","","","","","","","NaN",""
"","S1","","html-keyboard-response","556","826622","0.0-1.0-758.0","0","0","64147","","null","","","null","84","","","","","","","","","","","","","","","",""
"","ISI","","html-keyboard-response","557","827636","0.0-1.0-759.0","0","0","64147","","null","","","null","84","NaN","","","","","","","","","","","","","","",""
"","S2","","html-keyboard-response","558","827731","0.0-1.0-760.0","0","0","64147","","88","","","75","84","","k","2","84","training","adjacent","AB","1","2","M.jpg","R.jpg","1","1","1","",""
"","feedback","","html-keyboard-response","559","828739","0.0-1.0-762.0-0.0","0","0","64147","","null","","","null","84","","","","","","","","","","","","","","","",""
"","ITI","","html-keyboard-response","560","829744","0.0-1.0-765.0","0","0","64147","","null","","","null","84","","","","","","","","","","","","","","","NaN",""
"","S1","","html-keyboard-response","561","830049","0.0-1.0-767.0","0","0","64147","","null","","","null","85","","","","","","","","","","","","","","","",""
"","ISI","","html-keyboard-response","562","831064","0.0-1.0-768.0","0","0","64147","","null","","","null","85","NaN","","","","","","","","","","","","","","",""
"","S2","","html-keyboard-response","563","831318","0.0-1.0-769.0","0","0","64147","","null","","","null","85","","NaN","","","","","","","","","","","","","",""
"","response","","html-keyboard-response","564","831607","0.0-1.0-770.0-0.0","0","0","64147","","285","","","68","85","","","2","85","training","adjacent","ED","5","4","P.jpg","N.jpg","0","0","1","",""
"","feedback","","html-keyboard-response","565","832632","0.0-1.0-771.0-0.0","0","0","64147","","null","","","null","85","","","","","","","","","","","","","","","",""
"","ITI","","html-keyboard-response","566","833640","0.0-1.0-774.0","0","0","64147","","null","","","null","85","","","","","","","","","","","","","","","NaN",""
"","S1","","html-keyboard-response","567","833905","0.0-1.0-776.0","0","0","64147","","null","","","null","86","","","","","","","","","","","","","","","",""
"","ISI","","html-keyboard-response","568","834920","0.0-1.0-777.0","0","0","64147","","null","","","null","86","NaN","","","","","","","","","","","","","","",""
"","S2","","html-keyboard-response","569","835177","0.0-1.0-778.0","0","0","64147","","null","","","null","86","","NaN","","","","","","","","","","","","","",""
"","response","","html-keyboard-response","570","835426","0.0-1.0-779.0-0.0","0","0","64147","","242","","","75","86","","","2","86","training","adjacent","CD","3","4","Q.jpg","N.jpg","1","1","1","",""
"","feedback","","html-keyboard-response","571","836434","0.0-1.0-780.0-0.0","0","0","64147","","null","","","null","86","","","","","","","","","","","","","","","",""
"","ITI","","html-keyboard-response","572","837441","0.0-1.0-783.0","0","0","64147","","null","","","null","86","","","","","","","","","","","","","","","NaN",""
"","S1","","html-keyboard-response","573","837700","0.0-1.0-785.0","0","0","64147","","null","","","null","87","","","","","","","","","","","","","","","",""
"","ISI","","html-keyboard-response","574","838708","0.0-1.0-786.0","0","0","64147","","null","","","null","87","NaN","","","","","","","","","","","","","","",""
"","S2","","html-keyboard-response","575","838965","0.0-1.0-787.0","0","0","64147","","null","","","null","87","","NaN","","","","","","","","","","","","","",""
"","response","","html-keyboard-response","576","839514","0.0-1.0-788.0-0.0","0","0","64147","","542","","","68","87","","","2","87","training","adjacent","FE","6","5","O.jpg","P.jpg","0","0","1","",""
"","feedback","","html-keyboard-response","577","840522","0.0-1.0-789.0-0.0","0","0","64147","","null","","","null","87","","","","","","","","","","","","","","","",""
"","ITI","","html-keyboard-response","578","841529","0.0-1.0-792.0","0","0","64147","","null","","","null","87","","","","","","","","","","","","","","","NaN",""
