"success","ttype","start_time","trial_type","trial_index","time_elapsed","internal_node_id","warning","missed_checkup","PID","view_history","rt","responses","repeat_instructions","key_press","index","keypress_isi","keypress_S2","block","trial_num","phase","group_type","pair_type","S1_stim","S2_stim","S1_img","S2_img","S1_chosen","S1_higher","accuracy","keypress_iti","total_bonus_tally"
"true","full_screen","d08042022hr1723","fullscreen","0","24284","0.0-0.0","0","0","47393","","","","","","","","","","","","","","","","","","","","","",""
"","instructions","","instructions","1","72012","0.0-1.0-0.0-0.0","0","0","47393","[{""page_index"":0,""viewing_time"":6536},{""page_index"":1,""viewing_time"":29390},{""page_index"":2,""viewing_time"":9929},{""page_index"":3,""viewing_time"":1863}]","47720","","","","","","","","","","","","","","","","","","","",""
"","comprehension_check","","survey-multi-choice","2","98412","0.0-1.0-0.0-1.0","0","0","47393","","26388","{""Q0"":""True"",""Q1"":""K"",""Q2"":""Once the second image appears and while the screen 'MAKE A CHOICE' is shown"",""Q3"":""Green mark"",""Q4"":""either D or K""}","0","","","","","","","","","","","","","","","","","",""
"","start_exp","","html-keyboard-response","3","101265","0.0-1.0-1.0","0","0","47393","","2839","","","32","","","","","","","","","","","","","","","","",""
"","S1","","html-keyboard-response","4","101525","0.0-1.0-2.0","0","0","47393","","null","","","null","0","","","","","","","","","","","","","","","",""
"","ISI","","html-keyboard-response","5","103537","0.0-1.0-3.0","0","0","47393","","null","","","null","0","NaN","","","","","","","","","","","","","","",""
"","S2","","html-keyboard-response","6","103801","0.0-1.0-4.0","0","0","47393","","null","","","null","0","","NaN","","","","","","","","","","","","","",""
"","response","","html-keyboard-response","7","104645","0.0-1.0-5.0-0.0","0","0","47393","","835","","","75","0","","","1","0","training","adjacent","GF","7","6","R.jpg","M.jpg","1","0","0","",""
"","feedback","","html-keyboard-response","8","105655","0.0-1.0-6.0-0.0","0","0","47393","","null","","","null","0","","","","","","","","","","","","","","","",""
"","time_out","","html-keyboard-response","9","107668","0.0-1.0-8.0-0.0","0","0","47393","","null","","","null","0","","","","","","","","","","","","","","","",""
"","ITI","","html-keyboard-response","10","108678","0.0-1.0-9.0","0","0","47393","","null","","","null","0","","","","","","","","","","","","","","","NaN",""
"","S1","","html-keyboard-response","11","108948","0.0-1.0-11.0","0","0","47393","","null","","","null","1","","","","","","","","","","","","","","","",""
"","ISI","","html-keyboard-response","12","110955","0.0-1.0-12.0","0","0","47393","","null","","","null","1","NaN","","","","","","","","","","","","","","",""
"","S2","","html-keyboard-response","13","111218","0.0-1.0-13.0","0","0","47393","","null","","","null","1","","NaN","","","","","","","","","","","","","",""
"","response","","html-keyboard-response","14","111634","0.0-1.0-14.0-0.0","0","0","47393","","409","","","68","1","","","1","1","training","adjacent","BC","2","3","O.jpg","L.jpg","0","1","0","",""
"","feedback","","html-keyboard-response","15","112647","0.0-1.0-15.0-0.0","0","0","47393","","null","","","null","1","","","","","","","","","","","","","","","",""
"","time_out","","html-keyboard-response","16","114658","0.0-1.0-17.0-0.0","0","0","47393","","null","","","null","1","","","","","","","","","","","","","","","",""
"","ITI","","html-keyboard-response","17","115673","0.0-1.0-18.0","0","0","47393","","null","","","null","1","","","","","","","","","","","","","","","NaN",""
"","S1","","html-keyboard-response","18","115932","0.0-1.0-20.0","0","0","47393","","null","","","null","2","","","","","","","","","","","","","","","",""
"","ISI","","html-keyboard-response","19","117940","0.0-1.0-21.0","0","0","47393","","null","","","null","2","NaN","","","","","","","","","","","","","","",""
"","S2","","html-keyboard-response","20","118206","0.0-1.0-22.0","0","0","47393","","null","","","null","2","","NaN","","","","","","","","","","","","","",""
"","response","","html-keyboard-response","21","118442","0.0-1.0-23.0-0.0","0","0","47393","","230","","","68","2","","","1","2","training","adjacent","DC","4","3","Q.jpg","L.jpg","0","0","1","",""
"","feedback","","html-keyboard-response","22","119454","0.0-1.0-24.0-0.0","0","0","47393","","null","","","null","2","","","","","","","","","","","","","","","",""
"","ITI","","html-keyboard-response","23","120508","0.0-1.0-27.0","0","0","47393","","null","","","null","2","","","","","","","","","","","","","","","NaN",""
"","S1","","html-keyboard-response","24","120766","0.0-1.0-29.0","0","0","47393","","null","","","null","3","","","","","","","","","","","","","","","",""
"","ISI","","html-keyboard-response","25","122773","0.0-1.0-30.0","0","0","47393","","null","","","null","3","NaN","","","","","","","","","","","","","","",""
"","S2","","html-keyboard-response","26","123039","0.0-1.0-31.0","0","0","47393","","null","","","null","3","","NaN","","","","","","","","","","","","","",""
"","response","","html-keyboard-response","27","123631","0.0-1.0-32.0-0.0","0","0","47393","","586","","","75","3","","","1","3","training","adjacent","EF","5","6","N.jpg","M.jpg","1","1","1","",""
"","feedback","","html-keyboard-response","28","124648","0.0-1.0-33.0-0.0","0","0","47393","","null","","","null","3","","","","","","","","","","","","","","","",""
"","ITI","","html-keyboard-response","29","125663","0.0-1.0-36.0","0","0","47393","","null","","","null","3","","","","","","","","","","","","","","","NaN",""
"","S1","","html-keyboard-response","30","125925","0.0-1.0-38.0","0","0","47393","","null","","","null","4","","","","","","","","","","","","","","","",""
"","ISI","","html-keyboard-response","31","127932","0.0-1.0-39.0","0","0","47393","","null","","","null","4","NaN","","","","","","","","","","","","","","",""
"","S2","","html-keyboard-response","32","128196","0.0-1.0-40.0","0","0","47393","","null","","","null","4","","NaN","","","","","","","","","","","","","",""
"","response","","html-keyboard-response","33","128640","0.0-1.0-41.0-0.0","0","0","47393","","439","","","68","4","","","1","4","training","adjacent","BC","2","3","O.jpg","L.jpg","0","1","0","",""
"","feedback","","html-keyboard-response","34","129652","0.0-1.0-42.0-0.0","0","0","47393","","null","","","null","4","","","","","","","","","","","","","","","",""
"","time_out","","html-keyboard-response","35","131664","0.0-1.0-44.0-0.0","0","0","47393","","null","","","null","4","","","","","","","","","","","","","","","",""
"","ITI","","html-keyboard-response","36","132701","0.0-1.0-45.0","0","0","47393","","null","","","null","4","","","","","","","","","","","","","","","NaN",""
"","S1","","html-keyboard-response","37","133095","0.0-1.0-47.0","0","0","47393","","null","","","null","5","","","","","","","","","","","","","","","",""
"","ISI","","html-keyboard-response","38","135109","0.0-1.0-48.0","0","0","47393","","null","","","null","5","NaN","","","","","","","","","","","","","","",""
"","S2","","html-keyboard-response","39","135367","0.0-1.0-49.0","0","0","47393","","null","","","null","5","","NaN","","","","","","","","","","","","","",""
"","response","","html-keyboard-response","40","135905","0.0-1.0-50.0-0.0","0","0","47393","","519","","","68","5","","","1","5","training","adjacent","ED","5","4","N.jpg","Q.jpg","0","0","1","",""
"","feedback","","html-keyboard-response","41","136911","0.0-1.0-51.0-0.0","0","0","47393","","null","","","null","5","","","","","","","","","","","","","","","",""
"","ITI","","html-keyboard-response","42","137921","0.0-1.0-54.0","0","0","47393","","null","","","null","5","","","","","","","","","","","","","","","NaN",""
"","S1","","html-keyboard-response","43","138187","0.0-1.0-56.0","0","0","47393","","null","","","null","6","","","","","","","","","","","","","","","",""
"","ISI","","html-keyboard-response","44","140197","0.0-1.0-57.0","0","0","47393","","null","","","null","6","NaN","","","","","","","","","","","","","","",""
"","S2","","html-keyboard-response","45","140461","0.0-1.0-58.0","0","0","47393","","null","","","null","6","","NaN","","","","","","","","","","","","","",""
"","response","","html-keyboard-response","46","140973","0.0-1.0-59.0-0.0","0","0","47393","","506","","","75","6","","","1","6","training","adjacent","CD","3","4","L.jpg","Q.jpg","1","1","1","",""
"","feedback","","html-keyboard-response","47","141988","0.0-1.0-60.0-0.0","0","0","47393","","null","","","null","6","","","","","","","","","","","","","","","",""
"","ITI","","html-keyboard-response","48","143002","0.0-1.0-63.0","0","0","47393","","null","","","null","6","","","","","","","","","","","","","","","NaN",""
"","S1","","html-keyboard-response","49","143266","0.0-1.0-65.0","0","0","47393","","null","","","null","7","","","","","","","","","","","","","","","",""
"","ISI","","html-keyboard-response","50","145279","0.0-1.0-66.0","0","0","47393","","null","","","null","7","NaN","","","","","","","","","","","","","","",""
"","S2","","html-keyboard-response","51","145545","0.0-1.0-67.0","0","0","47393","","null","","","null","7","","NaN","","","","","","","","","","","","","",""
"","response","","html-keyboard-response","52","146006","0.0-1.0-68.0-0.0","0","0","47393","","455","","","75","7","","","1","7","training","adjacent","CB","3","2","L.jpg","O.jpg","1","0","0","",""
"","feedback","","html-keyboard-response","53","147020","0.0-1.0-69.0-0.0","0","0","47393","","null","","","null","7","","","","","","","","","","","","","","","",""
"","time_out","","html-keyboard-response","54","149028","0.0-1.0-71.0-0.0","0","0","47393","","null","","","null","7","","","","","","","","","","","","","","","",""
"","ITI","","html-keyboard-response","55","150041","0.0-1.0-72.0","0","0","47393","","null","","","null","7","","","","","","","","","","","","","","","NaN",""
"","S1","","html-keyboard-response","56","150314","0.0-1.0-74.0","0","0","47393","","null","","","null","8","","","","","","","","","","","","","","","",""
"","ISI","","html-keyboard-response","57","152323","0.0-1.0-75.0","0","0","47393","","null","","","null","8","NaN","","","","","","","","","","","","","","",""
"","S2","","html-keyboard-response","58","152579","0.0-1.0-76.0","0","0","47393","","null","","","null","8","","NaN","","","","","","","","","","","","","",""
"","response","","html-keyboard-response","59","153154","0.0-1.0-77.0-0.0","0","0","47393","","570","","","68","8","","","1","8","training","adjacent","DE","4","5","Q.jpg","N.jpg","0","1","0","",""
"","feedback","","html-keyboard-response","60","154165","0.0-1.0-78.0-0.0","0","0","47393","","null","","","null","8","","","","","","","","","","","","","","","",""
"","time_out","","html-keyboard-response","61","156176","0.0-1.0-80.0-0.0","0","0","47393","","null","","","null","8","","","","","","","","","","","","","","","",""
"","ITI","","html-keyboard-response","62","157185","0.0-1.0-81.0","0","0","47393","","null","","","null","8","","","","","","","","","","","","","","","NaN",""
"","S1","","html-keyboard-response","63","157446","0.0-1.0-83.0","0","0","47393","","null","","","null","9","","","","","","","","","","","","","","","",""
"","ISI","","html-keyboard-response","64","159458","0.0-1.0-84.0","0","0","47393","","null","","","null","9","NaN","","","","","","","","","","","","","","",""
"","S2","","html-keyboard-response","65","159721","0.0-1.0-85.0","0","0","47393","","null","","","null","9","","NaN","","","","","","","","","","","","","",""
"","response","","html-keyboard-response","66","160616","0.0-1.0-86.0-0.0","0","0","47393","","891","","","68","9","","","1","9","training","adjacent","GF","7","6","R.jpg","M.jpg","0","0","1","",""
"","feedback","","html-keyboard-response","67","161625","0.0-1.0-87.0-0.0","0","0","47393","","null","","","null","9","","","","","","","","","","","","","","","",""
"","ITI","","html-keyboard-response","68","162640","0.0-1.0-90.0","0","0","47393","","null","","","null","9","","","","","","","","","","","","","","","NaN",""
"","S1","","html-keyboard-response","69","162896","0.0-1.0-92.0","0","0","47393","","null","","","null","10","","","","","","","","","","","","","","","",""
"","ISI","","html-keyboard-response","70","164906","0.0-1.0-93.0","0","0","47393","","null","","","null","10","NaN","","","","","","","","","","","","","","",""
"","S2","","html-keyboard-response","71","165169","0.0-1.0-94.0","0","0","47393","","null","","","null","10","","NaN","","","","","","","","","","","","","",""
"","response","","html-keyboard-response","72","165628","0.0-1.0-95.0-0.0","0","0","47393","","454","","","75","10","","","1","10","training","adjacent","CB","3","2","L.jpg","O.jpg","1","0","0","",""
"","feedback","","html-keyboard-response","73","166635","0.0-1.0-96.0-0.0","0","0","47393","","null","","","null","10","","","","","","","","","","","","","","","",""
"","time_out","","html-keyboard-response","74","168645","0.0-1.0-98.0-0.0","0","0","47393","","null","","","null","10","","","","","","","","","","","","","","","",""
"","ITI","","html-keyboard-response","75","169655","0.0-1.0-99.0","0","0","47393","","null","","","null","10","","","","","","","","","","","","","","","NaN",""
"","S1","","html-keyboard-response","76","169913","0.0-1.0-101.0","0","0","47393","","null","","","null","11","","","","","","","","","","","","","","","",""
"","ISI","","html-keyboard-response","77","171926","0.0-1.0-102.0","0","0","47393","","null","","","null","11","NaN","","","","","","","","","","","","","","",""
"","S2","","html-keyboard-response","78","172191","0.0-1.0-103.0","0","0","47393","","null","","","null","11","","NaN","","","","","","","","","","","","","",""
"","response","","html-keyboard-response","79","172592","0.0-1.0-104.0-0.0","0","0","47393","","391","","","75","11","","","1","11","training","adjacent","FE","6","5","M.jpg","N.jpg","1","0","0","",""
"","feedback","","html-keyboard-response","80","173606","0.0-1.0-105.0-0.0","0","0","47393","","null","","","null","11","","","","","","","","","","","","","","","",""
"","time_out","","html-keyboard-response","81","175617","0.0-1.0-107.0-0.0","0","0","47393","","null","","","null","11","","","","","","","","","","","","","","","",""
"","ITI","","html-keyboard-response","82","176624","0.0-1.0-108.0","0","0","47393","","null","","","null","11","","","","","","","","","","","","","","","NaN",""
"","S1","","html-keyboard-response","83","176885","0.0-1.0-110.0","0","0","47393","","null","","","null","12","","","","","","","","","","","","","","","",""
"","ISI","","html-keyboard-response","84","178896","0.0-1.0-111.0","0","0","47393","","null","","","null","12","NaN","","","","","","","","","","","","","","",""
"","S2","","html-keyboard-response","85","179159","0.0-1.0-112.0","0","0","47393","","null","","","null","12","","NaN","","","","","","","","","","","","","",""
"","response","","html-keyboard-response","86","179589","0.0-1.0-113.0-0.0","0","0","47393","","420","","","75","12","","","1","12","training","adjacent","FG","6","7","M.jpg","R.jpg","1","1","1","",""
"","feedback","","html-keyboard-response","87","180604","0.0-1.0-114.0-0.0","0","0","47393","","null","","","null","12","","","","","","","","","","","","","","","",""
"","ITI","","html-keyboard-response","88","181619","0.0-1.0-117.0","0","0","47393","","null","","","null","12","","","","","","","","","","","","","","","NaN",""
"","S1","","html-keyboard-response","89","181881","0.0-1.0-119.0","0","0","47393","","null","","","null","13","","","","","","","","","","","","","","","",""
"","ISI","","html-keyboard-response","90","183905","0.0-1.0-120.0","0","0","47393","","null","","","null","13","NaN","","","","","","","","","","","","","","",""
"","S2","","html-keyboard-response","91","184168","0.0-1.0-121.0","0","0","47393","","null","","","null","13","","NaN","","","","","","","","","","","","","",""
"","response","","html-keyboard-response","92","185389","0.0-1.0-122.0-0.0","0","0","47393","","1214","","","68","13","","","1","13","training","adjacent","BC","2","3","O.jpg","L.jpg","0","1","0","",""
"","feedback","","html-keyboard-response","93","186397","0.0-1.0-123.0-0.0","0","0","47393","","null","","","null","13","","","","","","","","","","","","","","","",""
"","time_out","","html-keyboard-response","94","188414","0.0-1.0-125.0-0.0","0","0","47393","","null","","","null","13","","","","","","","","","","","","","","","",""
"","ITI","","html-keyboard-response","95","189427","0.0-1.0-126.0","0","0","47393","","null","","","null","13","","","","","","","","","","","","","","","NaN",""
"","S1","","html-keyboard-response","96","189687","0.0-1.0-128.0","0","0","47393","","null","","","null","14","","","","","","","","","","","","","","","",""
"","ISI","","html-keyboard-response","97","191702","0.0-1.0-129.0","0","0","47393","","null","","","null","14","NaN","","","","","","","","","","","","","","",""
"","S2","","html-keyboard-response","98","191963","0.0-1.0-130.0","0","0","47393","","null","","","null","14","","NaN","","","","","","","","","","","","","",""
"","response","","html-keyboard-response","99","192007","0.0-1.0-131.0-0.0","0","0","47393","","40","","","75","14","","","1","14","training","adjacent","FE","6","5","M.jpg","N.jpg","1","0","0","",""
"","feedback","","html-keyboard-response","100","193020","0.0-1.0-132.0-0.0","0","0","47393","","null","","","null","14","","","","","","","","","","","","","","","",""
"","time_out","","html-keyboard-response","101","195028","0.0-1.0-134.0-0.0","0","0","47393","","null","","","null","14","","","","","","","","","","","","","","","",""
"","ITI","","html-keyboard-response","102","196032","0.0-1.0-135.0","0","0","47393","","null","","","null","14","","","","","","","","","","","","","","","NaN",""
"","S1","","html-keyboard-response","103","196289","0.0-1.0-137.0","0","0","47393","","null","","","null","15","","","","","","","","","","","","","","","",""
"","ISI","","html-keyboard-response","104","198298","0.0-1.0-138.0","0","0","47393","","null","","","null","15","NaN","","","","","","","","","","","","","","",""
"","S2","","html-keyboard-response","105","198561","0.0-1.0-139.0","0","0","47393","","null","","","null","15","","NaN","","","","","","","","","","","","","",""
"","response","","html-keyboard-response","106","198856","0.0-1.0-140.0-0.0","0","0","47393","","290","","","75","15","","","1","15","training","adjacent","AB","1","2","P.jpg","O.jpg","1","1","1","",""
"","feedback","","html-keyboard-response","107","199865","0.0-1.0-141.0-0.0","0","0","47393","","null","","","null","15","","","","","","","","","","","","","","","",""
"","ITI","","html-keyboard-response","108","200875","0.0-1.0-144.0","0","0","47393","","null","","","null","15","","","","","","","","","","","","","","","NaN",""
"","S1","","html-keyboard-response","109","201134","0.0-1.0-146.0","0","0","47393","","null","","","null","16","","","","","","","","","","","","","","","",""
"","ISI","","html-keyboard-response","110","203144","0.0-1.0-147.0","0","0","47393","","null","","","null","16","NaN","","","","","","","","","","","","","","",""
"","S2","","html-keyboard-response","111","203404","0.0-1.0-148.0","0","0","47393","","null","","","null","16","","NaN","","","","","","","","","","","","","",""
"","response","","html-keyboard-response","112","204208","0.0-1.0-149.0-0.0","0","0","47393","","797","","","75","16","","","1","16","training","adjacent","DE","4","5","Q.jpg","N.jpg","1","1","1","",""
"","feedback","","html-keyboard-response","113","205216","0.0-1.0-150.0-0.0","0","0","47393","","null","","","null","16","","","","","","","","","","","","","","","",""
"","ITI","","html-keyboard-response","114","206226","0.0-1.0-153.0","0","0","47393","","null","","","null","16","","","","","","","","","","","","","","","NaN",""
"","S1","","html-keyboard-response","115","206488","0.0-1.0-155.0","0","0","47393","","null","","","null","17","","","","","","","","","","","","","","","",""
"","ISI","","html-keyboard-response","116","208505","0.0-1.0-156.0","0","0","47393","","null","","","null","17","NaN","","","","","","","","","","","","","","",""
"","S2","","html-keyboard-response","117","208771","0.0-1.0-157.0","0","0","47393","","null","","","null","17","","NaN","","","","","","","","","","","","","",""
"","response","","html-keyboard-response","118","209310","0.0-1.0-158.0-0.0","0","0","47393","","532","","","75","17","","","1","17","training","adjacent","AB","1","2","P.jpg","O.jpg","1","1","1","",""
"","feedback","","html-keyboard-response","119","210325","0.0-1.0-159.0-0.0","0","0","47393","","null","","","null","17","","","","","","","","","","","","","","","",""
"","ITI","","html-keyboard-response","120","211333","0.0-1.0-162.0","0","0","47393","","null","","","null","17","","","","","","","","","","","","","","","NaN",""
"","S1","","html-keyboard-response","121","211592","0.0-1.0-164.0","0","0","47393","","null","","","null","18","","","","","","","","","","","","","","","",""
"","ISI","","html-keyboard-response","122","213601","0.0-1.0-165.0","0","0","47393","","null","","","null","18","NaN","","","","","","","","","","","","","","",""
"","S2","","html-keyboard-response","123","213865","0.0-1.0-166.0","0","0","47393","","null","","","null","18","","NaN","","","","","","","","","","","","","",""
"","response","","html-keyboard-response","124","214313","0.0-1.0-167.0-0.0","0","0","47393","","441","","","75","18","","","1","18","training","adjacent","CB","3","2","L.jpg","O.jpg","1","0","0","",""
"","feedback","","html-keyboard-response","125","215321","0.0-1.0-168.0-0.0","0","0","47393","","null","","","null","18","","","","","","","","","","","","","","","",""
"","time_out","","html-keyboard-response","126","217332","0.0-1.0-170.0-0.0","0","0","47393","","null","","","null","18","","","","","","","","","","","","","","","",""
"","ITI","","html-keyboard-response","127","218344","0.0-1.0-171.0","0","0","47393","","null","","","null","18","","","","","","","","","","","","","","","NaN",""
"","S1","","html-keyboard-response","128","218603","0.0-1.0-173.0","0","0","47393","","null","","","null","19","","","","","","","","","","","","","","","",""
"","ISI","","html-keyboard-response","129","220610","0.0-1.0-174.0","0","0","47393","","null","","","null","19","NaN","","","","","","","","","","","","","","",""
"","S2","","html-keyboard-response","130","220873","0.0-1.0-175.0","0","0","47393","","null","","","null","19","","NaN","","","","","","","","","","","","","",""
"","response","","html-keyboard-response","131","221141","0.0-1.0-176.0-0.0","0","0","47393","","262","","","68","19","","","1","19","training","adjacent","ED","5","4","N.jpg","Q.jpg","0","0","1","",""
"","feedback","","html-keyboard-response","132","222152","0.0-1.0-177.0-0.0","0","0","47393","","null","","","null","19","","","","","","","","","","","","","","","",""
"","ITI","","html-keyboard-response","133","223159","0.0-1.0-180.0","0","0","47393","","null","","","null","19","","","","","","","","","","","","","","","NaN",""
"","S1","","html-keyboard-response","134","223423","0.0-1.0-182.0","0","0","47393","","null","","","null","20","","","","","","","","","","","","","","","",""
"","ISI","","html-keyboard-response","135","225435","0.0-1.0-183.0","0","0","47393","","null","","","null","20","NaN","","","","","","","","","","","","","","",""
"","S2","","html-keyboard-response","136","225696","0.0-1.0-184.0","0","0","47393","","null","","","null","20","","NaN","","","","","","","","","","","","","",""
"","response","","html-keyboard-response","137","225983","0.0-1.0-185.0-0.0","0","0","47393","","282","","","75","20","","","1","20","training","adjacent","AB","1","2","P.jpg","O.jpg","1","1","1","",""
"","feedback","","html-keyboard-response","138","226997","0.0-1.0-186.0-0.0","0","0","47393","","null","","","null","20","","","","","","","","","","","","","","","",""
"","ITI","","html-keyboard-response","139","228013","0.0-1.0-189.0","0","0","47393","","null","","","null","20","","","","","","","","","","","","","","","NaN",""
"","S1","","html-keyboard-response","140","228274","0.0-1.0-191.0","0","0","47393","","null","","","null","21","","","","","","","","","","","","","","","",""
"","ISI","","html-keyboard-response","141","230282","0.0-1.0-192.0","0","0","47393","","null","","","null","21","NaN","","","","","","","","","","","","","","",""
"","S2","","html-keyboard-response","142","230542","0.0-1.0-193.0","0","0","47393","","null","","","null","21","","NaN","","","","","","","","","","","","","",""
"","response","","html-keyboard-response","143","231159","0.0-1.0-194.0-0.0","0","0","47393","","611","","","68","21","","","1","21","training","adjacent","BA","2","1","O.jpg","P.jpg","0","0","1","",""
"","feedback","","html-keyboard-response","144","232166","0.0-1.0-195.0-0.0","0","0","47393","","null","","","null","21","","","","","","","","","","","","","","","",""
"","ITI","","html-keyboard-response","145","233172","0.0-1.0-198.0","0","0","47393","","null","","","null","21","","","","","","","","","","","","","","","NaN",""
"","S1","","html-keyboard-response","146","233432","0.0-1.0-200.0","0","0","47393","","null","","","null","22","","","","","","","","","","","","","","","",""
"","ISI","","html-keyboard-response","147","235446","0.0-1.0-201.0","0","0","47393","","null","","","null","22","NaN","","","","","","","","","","","","","","",""
"","S2","","html-keyboard-response","148","235710","0.0-1.0-202.0","0","0","47393","","null","","","null","22","","NaN","","","","","","","","","","","","","",""
"","response","","html-keyboard-response","149","236121","0.0-1.0-203.0-0.0","0","0","47393","","406","","","68","22","","","1","22","training","adjacent","EF","5","6","N.jpg","M.jpg","0","1","0","",""
"","feedback","","html-keyboard-response","150","237139","0.0-1.0-204.0-0.0","0","0","47393","","null","","","null","22","","","","","","","","","","","","","","","",""
"","time_out","","html-keyboard-response","151","239152","0.0-1.0-206.0-0.0","0","0","47393","","null","","","null","22","","","","","","","","","","","","","","","",""
"","ITI","","html-keyboard-response","152","240168","0.0-1.0-207.0","0","0","47393","","null","","","null","22","","","","","","","","","","","","","","","NaN",""
"","S1","","html-keyboard-response","153","240429","0.0-1.0-209.0","0","0","47393","","null","","","null","23","","","","","","","","","","","","","","","",""
"","ISI","","html-keyboard-response","154","242438","0.0-1.0-210.0","0","0","47393","","null","","","null","23","NaN","","","","","","","","","","","","","","",""
"","S2","","html-keyboard-response","155","242700","0.0-1.0-211.0","0","0","47393","","null","","","null","23","","NaN","","","","","","","","","","","","","",""
"","response","","html-keyboard-response","156","243400","0.0-1.0-212.0-0.0","0","0","47393","","695","","","68","23","","","1","23","training","adjacent","ED","5","4","N.jpg","Q.jpg","0","0","1","",""
"","feedback","","html-keyboard-response","157","244409","0.0-1.0-213.0-0.0","0","0","47393","","null","","","null","23","","","","","","","","","","","","","","","",""
"","ITI","","html-keyboard-response","158","245430","0.0-1.0-216.0","0","0","47393","","null","","","null","23","","","","","","","","","","","","","","","NaN",""
"","S1","","html-keyboard-response","159","245692","0.0-1.0-218.0","0","0","47393","","null","","","null","24","","","","","","","","","","","","","","","",""
"","ISI","","html-keyboard-response","160","247701","0.0-1.0-219.0","0","0","47393","","null","","","null","24","NaN","","","","","","","","","","","","","","",""
"","S2","","html-keyboard-response","161","247964","0.0-1.0-220.0","0","0","47393","","null","","","null","24","","NaN","","","","","","","","","","","","","",""
"","response","","html-keyboard-response","162","248643","0.0-1.0-221.0-0.0","0","0","47393","","673","","","75","24","","","1","24","training","adjacent","BA","2","1","O.jpg","P.jpg","1","0","0","",""
"","feedback","","html-keyboard-response","163","249654","0.0-1.0-222.0-0.0","0","0","47393","","null","","","null","24","","","","","","","","","","","","","","","",""
"","time_out","","html-keyboard-response","164","251662","0.0-1.0-224.0-0.0","0","0","47393","","null","","","null","24","","","","","","","","","","","","","","","",""
"","ITI","","html-keyboard-response","165","252670","0.0-1.0-225.0","0","0","47393","","null","","","null","24","","","","","","","","","","","","","","","NaN",""
"","S1","","html-keyboard-response","166","252932","0.0-1.0-227.0","0","0","47393","","null","","","null","25","","","","","","","","","","","","","","","",""
"","ISI","","html-keyboard-response","167","254942","0.0-1.0-228.0","0","0","47393","","null","","","null","25","NaN","","","","","","","","","","","","","","",""
"","S2","","html-keyboard-response","168","255199","0.0-1.0-229.0","0","0","47393","","null","","","null","25","","NaN","","","","","","","","","","","","","",""
"","response","","html-keyboard-response","169","255479","0.0-1.0-230.0-0.0","0","0","47393","","273","","","75","25","","","1","25","training","adjacent","DE","4","5","Q.jpg","N.jpg","1","1","1","",""
"","feedback","","html-keyboard-response","170","256489","0.0-1.0-231.0-0.0","0","0","47393","","null","","","null","25","","","","","","","","","","","","","","","",""
"","ITI","","html-keyboard-response","171","257495","0.0-1.0-234.0","0","0","47393","","null","","","null","25","","","","","","","","","","","","","","","NaN",""
"","S1","","html-keyboard-response","172","257754","0.0-1.0-236.0","0","0","47393","","null","","","null","26","","","","","","","","","","","","","","","",""
"","ISI","","html-keyboard-response","173","259759","0.0-1.0-237.0","0","0","47393","","null","","","null","26","NaN","","","","","","","","","","","","","","",""
"","S2","","html-keyboard-response","174","260017","0.0-1.0-238.0","0","0","47393","","null","","","null","26","","NaN","","","","","","","","","","","","","",""
"","response","","html-keyboard-response","175","260413","0.0-1.0-239.0-0.0","0","0","47393","","392","","","75","26","","","1","26","training","adjacent","DC","4","3","Q.jpg","L.jpg","1","0","0","",""
"","feedback","","html-keyboard-response","176","261425","0.0-1.0-240.0-0.0","0","0","47393","","null","","","null","26","","","","","","","","","","","","","","","",""
"","time_out","","html-keyboard-response","177","263444","0.0-1.0-242.0-0.0","0","0","47393","","null","","","null","26","","","","","","","","","","","","","","","",""
"","ITI","","html-keyboard-response","178","264450","0.0-1.0-243.0","0","0","47393","","null","","","null","26","","","","","","","","","","","","","","","NaN",""
"","S1","","html-keyboard-response","179","264711","0.0-1.0-245.0","0","0","47393","","null","","","null","27","","","","","","","","","","","","","","","",""
"","ISI","","html-keyboard-response","180","266718","0.0-1.0-246.0","0","0","47393","","null","","","null","27","NaN","","","","","","","","","","","","","","",""
"","S2","","html-keyboard-response","181","266981","0.0-1.0-247.0","0","0","47393","","null","","","null","27","","NaN","","","","","","","","","","","","","",""
"","response","","html-keyboard-response","182","267750","0.0-1.0-248.0-0.0","0","0","47393","","761","","","68","27","","","1","27","training","adjacent","GF","7","6","R.jpg","M.jpg","0","0","1","",""
"","feedback","","html-keyboard-response","183","268764","0.0-1.0-249.0-0.0","0","0","47393","","null","","","null","27","","","","","","","","","","","","","","","",""
"","ITI","","html-keyboard-response","184","269775","0.0-1.0-252.0","0","0","47393","","null","","","null","27","","","","","","","","","","","","","","","NaN",""
"","S1","","html-keyboard-response","185","270036","0.0-1.0-254.0","0","0","47393","","null","","","null","28","","","","","","","","","","","","","","","",""
"","ISI","","html-keyboard-response","186","272050","0.0-1.0-255.0","0","0","47393","","null","","","null","28","NaN","","","","","","","","","","","","","","",""
"","S2","","html-keyboard-response","187","272315","0.0-1.0-256.0","0","0","47393","","null","","","null","28","","NaN","","","","","","","","","","","","","",""
"","response","","html-keyboard-response","188","273152","0.0-1.0-257.0-0.0","0","0","47393","","830","","","68","28","","","1","28","training","adjacent","CD","3","4","L.jpg","Q.jpg","0","1","0","",""
"","feedback","","html-keyboard-response","189","274166","0.0-1.0-258.0-0.0","0","0","47393","","null","","","null","28","","","","","","","","","","","","","","","",""
"","time_out","","html-keyboard-response","190","276178","0.0-1.0-260.0-0.0","0","0","47393","","null","","","null","28","","","","","","","","","","","","","","","",""
"","ITI","","html-keyboard-response","191","277184","0.0-1.0-261.0","0","0","47393","","null","","","null","28","","","","","","","","","","","","","","","NaN",""
"","S1","","html-keyboard-response","192","277441","0.0-1.0-263.0","0","0","47393","","null","","","null","29","","","","","","","","","","","","","","","",""
"","ISI","","html-keyboard-response","193","279447","0.0-1.0-264.0","0","0","47393","","null","","","null","29","NaN","","","","","","","","","","","","","","",""
"","S2","","html-keyboard-response","194","279711","0.0-1.0-265.0","0","0","47393","","null","","","null","29","","NaN","","","","","","","","","","","","","",""
"","response","","html-keyboard-response","195","280250","0.0-1.0-266.0-0.0","0","0","47393","","534","","","68","29","","","1","29","training","adjacent","DC","4","3","Q.jpg","L.jpg","0","0","1","",""
"","feedback","","html-keyboard-response","196","281260","0.0-1.0-267.0-0.0","0","0","47393","","null","","","null","29","","","","","","","","","","","","","","","",""
"","ITI","","html-keyboard-response","197","282276","0.0-1.0-270.0","0","0","47393","","null","","","null","29","","","","","","","","","","","","","","","NaN",""
"","S1","","html-keyboard-response","198","282546","0.0-1.0-272.0","0","0","47393","","null","","","null","30","","","","","","","","","","","","","","","",""
"","ISI","","html-keyboard-response","199","284551","0.0-1.0-273.0","0","0","47393","","null","","","null","30","NaN","","","","","","","","","","","","","","",""
"","S2","","html-keyboard-response","200","284812","0.0-1.0-274.0","0","0","47393","","null","","","null","30","","NaN","","","","","","","","","","","","","",""
"","response","","html-keyboard-response","201","285138","0.0-1.0-275.0-0.0","0","0","47393","","317","","","75","30","","","1","30","training","adjacent","BA","2","1","O.jpg","P.jpg","1","0","0","",""
"","feedback","","html-keyboard-response","202","286148","0.0-1.0-276.0-0.0","0","0","47393","","null","","","null","30","","","","","","","","","","","","","","","",""
"","time_out","","html-keyboard-response","203","288157","0.0-1.0-278.0-0.0","0","0","47393","","null","","","null","30","","","","","","","","","","","","","","","",""
"","ITI","","html-keyboard-response","204","289164","0.0-1.0-279.0","0","0","47393","","null","","","null","30","","","","","","","","","","","","","","","NaN",""
"","S1","","html-keyboard-response","205","289425","0.0-1.0-281.0","0","0","47393","","null","","","null","31","","","","","","","","","","","","","","","",""
"","ISI","","html-keyboard-response","206","291434","0.0-1.0-282.0","0","0","47393","","null","","","null","31","NaN","","","","","","","","","","","","","","",""
"","S2","","html-keyboard-response","207","291695","0.0-1.0-283.0","0","0","47393","","null","","","null","31","","NaN","","","","","","","","","","","","","",""
"","response","","html-keyboard-response","208","292152","0.0-1.0-284.0-0.0","0","0","47393","","451","","","68","31","","","1","31","training","adjacent","BC","2","3","O.jpg","L.jpg","0","1","0","",""
"","feedback","","html-keyboard-response","209","293166","0.0-1.0-285.0-0.0","0","0","47393","","null","","","null","31","","","","","","","","","","","","","","","",""
"","time_out","","html-keyboard-response","210","295185","0.0-1.0-287.0-0.0","0","0","47393","","null","","","null","31","","","","","","","","","","","","","","","",""
"","ITI","","html-keyboard-response","211","296200","0.0-1.0-288.0","0","0","47393","","null","","","null","31","","","","","","","","","","","","","","","NaN",""
"","S1","","html-keyboard-response","212","296462","0.0-1.0-290.0","0","0","47393","","null","","","null","32","","","","","","","","","","","","","","","",""
"","ISI","","html-keyboard-response","213","298475","0.0-1.0-291.0","0","0","47393","","null","","","null","32","NaN","","","","","","","","","","","","","","",""
"","S2","","html-keyboard-response","214","298735","0.0-1.0-292.0","0","0","47393","","null","","","null","32","","NaN","","","","","","","","","","","","","",""
"","response","","html-keyboard-response","215","299411","0.0-1.0-293.0-0.0","0","0","47393","","670","","","68","32","","","1","32","training","adjacent","ED","5","4","N.jpg","Q.jpg","0","0","1","",""
"","feedback","","html-keyboard-response","216","300426","0.0-1.0-294.0-0.0","0","0","47393","","null","","","null","32","","","","","","","","","","","","","","","",""
"","ITI","","html-keyboard-response","217","301476","0.0-1.0-297.0","0","0","47393","","null","","","null","32","","","","","","","","","","","","","","","NaN",""
"","S1","","html-keyboard-response","218","301737","0.0-1.0-299.0","0","0","47393","","null","","","null","33","","","","","","","","","","","","","","","",""
"","ISI","","html-keyboard-response","219","303746","0.0-1.0-300.0","0","0","47393","","null","","","null","33","NaN","","","","","","","","","","","","","","",""
"","S2","","html-keyboard-response","220","304004","0.0-1.0-301.0","0","0","47393","","null","","","null","33","","NaN","","","","","","","","","","","","","",""
"","response","","html-keyboard-response","221","304174","0.0-1.0-302.0-0.0","0","0","47393","","162","","","75","33","","","1","33","training","adjacent","CB","3","2","L.jpg","O.jpg","1","0","0","",""
"","feedback","","html-keyboard-response","222","305190","0.0-1.0-303.0-0.0","0","0","47393","","null","","","null","33","","","","","","","","","","","","","","","",""
"","time_out","","html-keyboard-response","223","307210","0.0-1.0-305.0-0.0","0","0","47393","","null","","","null","33","","","","","","","","","","","","","","","",""
"","ITI","","html-keyboard-response","224","308222","0.0-1.0-306.0","0","0","47393","","null","","","null","33","","","","","","","","","","","","","","","NaN",""
"","S1","","html-keyboard-response","225","308482","0.0-1.0-308.0","0","0","47393","","null","","","null","34","","","","","","","","","","","","","","","",""
"","ISI","","html-keyboard-response","226","310503","0.0-1.0-309.0","0","0","47393","","null","","","null","34","NaN","","","","","","","","","","","","","","",""
"","S2","","html-keyboard-response","227","310762","0.0-1.0-310.0","0","0","47393","","null","","","null","34","","NaN","","","","","","","","","","","","","",""
"","response","","html-keyboard-response","228","311273","0.0-1.0-311.0-0.0","0","0","47393","","504","","","68","34","","","1","34","training","adjacent","FE","6","5","M.jpg","N.jpg","0","0","1","",""
"","feedback","","html-keyboard-response","229","312312","0.0-1.0-312.0-0.0","0","0","47393","","null","","","null","34","","","","","","","","","","","","","","","",""
"","ITI","","html-keyboard-response","230","313325","0.0-1.0-315.0","0","0","47393","","null","","","null","34","","","","","","","","","","","","","","","NaN",""
"","S1","","html-keyboard-response","231","313587","0.0-1.0-317.0","0","0","47393","","null","","","null","35","","","","","","","","","","","","","","","",""
"","ISI","","html-keyboard-response","232","315600","0.0-1.0-318.0","0","0","47393","","null","","","null","35","NaN","","","","","","","","","","","","","","",""
"","S2","","html-keyboard-response","233","315863","0.0-1.0-319.0","0","0","47393","","null","","","null","35","","NaN","","","","","","","","","","","","","",""
"","response","","html-keyboard-response","234","316574","0.0-1.0-320.0-0.0","0","0","47393","","704","","","68","35","","","1","35","training","adjacent","BA","2","1","O.jpg","P.jpg","0","0","1","",""
"","feedback","","html-keyboard-response","235","317583","0.0-1.0-321.0-0.0","0","0","47393","","null","","","null","35","","","","","","","","","","","","","","","",""
"","ITI","","html-keyboard-response","236","318595","0.0-1.0-324.0","0","0","47393","","null","","","null","35","","","","","","","","","","","","","","","NaN",""
"","S1","","html-keyboard-response","237","318857","0.0-1.0-326.0","0","0","47393","","null","","","null","36","","","","","","","","","","","","","","","",""
"","ISI","","html-keyboard-response","238","320873","0.0-1.0-327.0","0","0","47393","","null","","","null","36","NaN","","","","","","","","","","","","","","",""
"","S2","","html-keyboard-response","239","321130","0.0-1.0-328.0","0","0","47393","","null","","","null","36","","NaN","","","","","","","","","","","","","",""
"","response","","html-keyboard-response","240","321427","0.0-1.0-329.0-0.0","0","0","47393","","290","","","75","36","","","1","36","training","adjacent","EF","5","6","N.jpg","M.jpg","1","1","1","",""
"","feedback","","html-keyboard-response","241","322438","0.0-1.0-330.0-0.0","0","0","47393","","null","","","null","36","","","","","","","","","","","","","","","",""
"","ITI","","html-keyboard-response","242","323462","0.0-1.0-333.0","0","0","47393","","null","","","null","36","","","","","","","","","","","","","","","NaN",""
"","S1","","html-keyboard-response","243","323719","0.0-1.0-335.0","0","0","47393","","null","","","null","37","","","","","","","","","","","","","","","",""
"","ISI","","html-keyboard-response","244","325730","0.0-1.0-336.0","0","0","47393","","null","","","null","37","NaN","","","","","","","","","","","","","","",""
"","S2","","html-keyboard-response","245","325986","0.0-1.0-337.0","0","0","47393","","null","","","null","37","","NaN","","","","","","","","","","","","","",""
"","response","","html-keyboard-response","246","326508","0.0-1.0-338.0-0.0","0","0","47393","","515","","","68","37","","","1","37","training","adjacent","FE","6","5","M.jpg","N.jpg","0","0","1","",""
"","feedback","","html-keyboard-response","247","327520","0.0-1.0-339.0-0.0","0","0","47393","","null","","","null","37","","","","","","","","","","","","","","","",""
"","ITI","","html-keyboard-response","248","328533","0.0-1.0-342.0","0","0","47393","","null","","","null","37","","","","","","","","","","","","","","","NaN",""
"","S1","","html-keyboard-response","249","328798","0.0-1.0-344.0","0","0","47393","","null","","","null","38","","","","","","","","","","","","","","","",""
"","ISI","","html-keyboard-response","250","330808","0.0-1.0-345.0","0","0","47393","","null","","","null","38","NaN","","","","","","","","","","","","","","",""
"","S2","","html-keyboard-response","251","331064","0.0-1.0-346.0","0","0","47393","","null","","","null","38","","NaN","","","","","","","","","","","","","",""
"","response","","html-keyboard-response","252","331419","0.0-1.0-347.0-0.0","0","0","47393","","348","","","68","38","","","1","38","training","adjacent","DE","4","5","Q.jpg","N.jpg","0","1","0","",""
"","feedback","","html-keyboard-response","253","332435","0.0-1.0-348.0-0.0","0","0","47393","","null","","","null","38","","","","","","","","","","","","","","","",""
"","time_out","","html-keyboard-response","254","334448","0.0-1.0-350.0-0.0","0","0","47393","","null","","","null","38","","","","","","","","","","","","","","","",""
"","ITI","","html-keyboard-response","255","335455","0.0-1.0-351.0","0","0","47393","","null","","","null","38","","","","","","","","","","","","","","","NaN",""
"","S1","","html-keyboard-response","256","335712","0.0-1.0-353.0","0","0","47393","","null","","","null","39","","","","","","","","","","","","","","","",""
"","ISI","","html-keyboard-response","257","337730","0.0-1.0-354.0","0","0","47393","","null","","","null","39","NaN","","","","","","","","","","","","","","",""
"","S2","","html-keyboard-response","258","337991","0.0-1.0-355.0","0","0","47393","","null","","","null","39","","NaN","","","","","","","","","","","","","",""
"","response","","html-keyboard-response","259","338344","0.0-1.0-356.0-0.0","0","0","47393","","347","","","75","39","","","1","39","training","adjacent","DC","4","3","Q.jpg","L.jpg","1","0","0","",""
"","feedback","","html-keyboard-response","260","339359","0.0-1.0-357.0-0.0","0","0","47393","","null","","","null","39","","","","","","","","","","","","","","","",""
"","time_out","","html-keyboard-response","261","341375","0.0-1.0-359.0-0.0","0","0","47393","","null","","","null","39","","","","","","","","","","","","","","","",""
"","ITI","","html-keyboard-response","262","342391","0.0-1.0-360.0","0","0","47393","","null","","","null","39","","","","","","","","","","","","","","","NaN",""
"","S1","","html-keyboard-response","263","342652","0.0-1.0-362.0","0","0","47393","","null","","","null","40","","","","","","","","","","","","","","","",""
"","ISI","","html-keyboard-response","264","344667","0.0-1.0-363.0","0","0","47393","","null","","","null","40","NaN","","","","","","","","","","","","","","",""
"","S2","","html-keyboard-response","265","344926","0.0-1.0-364.0","0","0","47393","","null","","","null","40","","NaN","","","","","","","","","","","","","",""
"","response","","html-keyboard-response","266","345905","0.0-1.0-365.0-0.0","0","0","47393","","970","","","68","40","","","1","40","training","adjacent","FG","6","7","M.jpg","R.jpg","0","1","0","",""
"","feedback","","html-keyboard-response","267","346916","0.0-1.0-366.0-0.0","0","0","47393","","null","","","null","40","","","","","","","","","","","","","","","",""
"","time_out","","html-keyboard-response","268","348923","0.0-1.0-368.0-0.0","0","0","47393","","null","","","null","40","","","","","","","","","","","","","","","",""
"","ITI","","html-keyboard-response","269","349929","0.0-1.0-369.0","0","0","47393","","null","","","null","40","","","","","","","","","","","","","","","NaN",""
"","S1","","html-keyboard-response","270","350185","0.0-1.0-371.0","0","0","47393","","null","","","null","41","","","","","","","","","","","","","","","",""
"","ISI","","html-keyboard-response","271","352195","0.0-1.0-372.0","0","0","47393","","null","","","null","41","NaN","","","","","","","","","","","","","","",""
"","S2","","html-keyboard-response","272","352455","0.0-1.0-373.0","0","0","47393","","null","","","null","41","","NaN","","","","","","","","","","","","","",""
"","response","","html-keyboard-response","273","352869","0.0-1.0-374.0-0.0","0","0","47393","","406","","","75","41","","","1","41","training","adjacent","FG","6","7","M.jpg","R.jpg","1","1","1","",""
"","feedback","","html-keyboard-response","274","353879","0.0-1.0-375.0-0.0","0","0","47393","","null","","","null","41","","","","","","","","","","","","","","","",""
"","ITI","","html-keyboard-response","275","354891","0.0-1.0-378.0","0","0","47393","","null","","","null","41","","","","","","","","","","","","","","","NaN",""
"","S1","","html-keyboard-response","276","355153","0.0-1.0-380.0","0","0","47393","","null","","","null","42","","","","","","","","","","","","","","","",""
"","ISI","","html-keyboard-response","277","357161","0.0-1.0-381.0","0","0","47393","","null","","","null","42","NaN","","","","","","","","","","","","","","",""
"","S2","","html-keyboard-response","278","357424","0.0-1.0-382.0","0","0","47393","","null","","","null","42","","NaN","","","","","","","","","","","","","",""
"","response","","html-keyboard-response","279","357820","0.0-1.0-383.0-0.0","0","0","47393","","388","","","75","42","","","1","42","training","adjacent","AB","1","2","P.jpg","O.jpg","1","1","1","",""
"","feedback","","html-keyboard-response","280","358837","0.0-1.0-384.0-0.0","0","0","47393","","null","","","null","42","","","","","","","","","","","","","","","",""
"","ITI","","html-keyboard-response","281","359851","0.0-1.0-387.0","0","0","47393","","null","","","null","42","","","","","","","","","","","","","","","NaN",""
"","S1","","html-keyboard-response","282","360115","0.0-1.0-389.0","0","0","47393","","null","","","null","43","","","","","","","","","","","","","","","",""
"","ISI","","html-keyboard-response","283","362124","0.0-1.0-390.0","0","0","47393","","null","","","null","43","NaN","","","","","","","","","","","","","","",""
"","S2","","html-keyboard-response","284","362383","0.0-1.0-391.0","0","0","47393","","null","","","null","43","","NaN","","","","","","","","","","","","","",""
"","response","","html-keyboard-response","285","362923","0.0-1.0-392.0-0.0","0","0","47393","","532","","","68","43","","","1","43","training","adjacent","CD","3","4","L.jpg","Q.jpg","0","1","0","",""
"","feedback","","html-keyboard-response","286","363940","0.0-1.0-393.0-0.0","0","0","47393","","null","","","null","43","","","","","","","","","","","","","","","",""
"","time_out","","html-keyboard-response","287","365950","0.0-1.0-395.0-0.0","0","0","47393","","null","","","null","43","","","","","","","","","","","","","","","",""
"","ITI","","html-keyboard-response","288","366981","0.0-1.0-396.0","0","0","47393","","null","","","null","43","","","","","","","","","","","","","","","NaN",""
"","S1","","html-keyboard-response","289","367239","0.0-1.0-398.0","0","0","47393","","null","","","null","44","","","","","","","","","","","","","","","",""
"","ISI","","html-keyboard-response","290","369249","0.0-1.0-399.0","0","0","47393","","null","","","null","44","NaN","","","","","","","","","","","","","","",""
"","S2","","html-keyboard-response","291","369506","0.0-1.0-400.0","0","0","47393","","null","","","null","44","","NaN","","","","","","","","","","","","","",""
"","response","","html-keyboard-response","292","370373","0.0-1.0-401.0-0.0","0","0","47393","","861","","","75","44","","","1","44","training","adjacent","GF","7","6","R.jpg","M.jpg","1","0","0","",""
"","feedback","","html-keyboard-response","293","371383","0.0-1.0-402.0-0.0","0","0","47393","","null","","","null","44","","","","","","","","","","","","","","","",""
"","time_out","","html-keyboard-response","294","373394","0.0-1.0-404.0-0.0","0","0","47393","","null","","","null","44","","","","","","","","","","","","","","","",""
"","ITI","","html-keyboard-response","295","374405","0.0-1.0-405.0","0","0","47393","","null","","","null","44","","","","","","","","","","","","","","","NaN",""
"","S1","","html-keyboard-response","296","374669","0.0-1.0-407.0","0","0","47393","","null","","","null","45","","","","","","","","","","","","","","","",""
"","ISI","","html-keyboard-response","297","376680","0.0-1.0-408.0","0","0","47393","","null","","","null","45","NaN","","","","","","","","","","","","","","",""
"","S2","","html-keyboard-response","298","376942","0.0-1.0-409.0","0","0","47393","","null","","","null","45","","NaN","","","","","","","","","","","","","",""
"","response","","html-keyboard-response","299","377273","0.0-1.0-410.0-0.0","0","0","47393","","324","","","68","45","","","1","45","training","adjacent","CD","3","4","L.jpg","Q.jpg","0","1","0","",""
"","feedback","","html-keyboard-response","300","378282","0.0-1.0-411.0-0.0","0","0","47393","","null","","","null","45","","","","","","","","","","","","","","","",""
"","time_out","","html-keyboard-response","301","380296","0.0-1.0-413.0-0.0","0","0","47393","","null","","","null","45","","","","","","","","","","","","","","","",""
"","ITI","","html-keyboard-response","302","381310","0.0-1.0-414.0","0","0","47393","","null","","","null","45","","","","","","","","","","","","","","","NaN",""
"","S1","","html-keyboard-response","303","381571","0.0-1.0-416.0","0","0","47393","","null","","","null","46","","","","","","","","","","","","","","","",""
"","ISI","","html-keyboard-response","304","383583","0.0-1.0-417.0","0","0","47393","","null","","","null","46","NaN","","","","","","","","","","","","","","",""
"","S2","","html-keyboard-response","305","383847","0.0-1.0-418.0","0","0","47393","","null","","","null","46","","NaN","","","","","","","","","","","","","",""
"","response","","html-keyboard-response","306","384877","0.0-1.0-419.0-0.0","0","0","47393","","1022","","","68","46","","","1","46","training","adjacent","FG","6","7","M.jpg","R.jpg","0","1","0","",""
"","feedback","","html-keyboard-response","307","385897","0.0-1.0-420.0-0.0","0","0","47393","","null","","","null","46","","","","","","","","","","","","","","","",""
"","time_out","","html-keyboard-response","308","387911","0.0-1.0-422.0-0.0","0","0","47393","","null","","","null","46","","","","","","","","","","","","","","","",""
"","ITI","","html-keyboard-response","309","388921","0.0-1.0-423.0","0","0","47393","","null","","","null","46","","","","","","","","","","","","","","","NaN",""
"","S1","","html-keyboard-response","310","389183","0.0-1.0-425.0","0","0","47393","","null","","","null","47","","","","","","","","","","","","","","","",""
"","ISI","","html-keyboard-response","311","391202","0.0-1.0-426.0","0","0","47393","","null","","","null","47","NaN","","","","","","","","","","","","","","",""
"","S2","","html-keyboard-response","312","391462","0.0-1.0-427.0","0","0","47393","","null","","","null","47","","NaN","","","","","","","","","","","","","",""
"","response","","html-keyboard-response","313","391467","0.0-1.0-428.0-0.0","0","0","47393","","1","","","75","47","","","1","47","training","adjacent","EF","5","6","N.jpg","M.jpg","1","1","1","",""
"","feedback","","html-keyboard-response","314","392479","0.0-1.0-429.0-0.0","0","0","47393","","null","","","null","47","","","","","","","","","","","","","","","",""
"","ITI","","html-keyboard-response","315","393493","0.0-1.0-432.0","0","0","47393","","null","","","null","47","","","","","","","","","","","","","","","NaN",""
"","block_over","","html-keyboard-response","316","429960","0.0-1.0-433.0-0.0","0","0","47393","","36461","","","32","47","","","","","","","","","","","","","","","",""
"","S1","","html-keyboard-response","317","430222","0.0-1.0-434.0","0","0","47393","","null","","","null","48","","","","","","","","","","","","","","","",""
"","ISI","","html-keyboard-response","318","432236","0.0-1.0-435.0","0","0","47393","","null","","","null","48","NaN","","","","","","","","","","","","","","",""
"","S2","","html-keyboard-response","319","432523","0.0-1.0-436.0","0","0","47393","","null","","","null","48","","NaN","","","","","","","","","","","","","",""
"","response","","html-keyboard-response","320","434286","0.0-1.0-437.0-0.0","0","0","47393","","null","","","null","48","","","2","48","training","adjacent","FG","6","7","M.jpg","R.jpg","NaN","1","0","",""
"","too_slow_prompt","","html-keyboard-response","321","435301","0.0-1.0-439.0-0.0","1","0","47393","","null","","","null","","","","","","","","","","","","","","","","",""
"","time_out","","html-keyboard-response","322","437313","0.0-1.0-440.0-0.0","0","0","47393","","null","","","null","48","","","","","","","","","","","","","","","",""
"","ITI","","html-keyboard-response","323","438319","0.0-1.0-441.0","0","0","47393","","null","","","null","48","","","","","","","","","","","","","","","NaN",""
"","S1","","html-keyboard-response","324","438578","0.0-1.0-443.0","0","0","47393","","null","","","null","49","","","","","","","","","","","","","","","",""
"","ISI","","html-keyboard-response","325","440584","0.0-1.0-444.0","0","0","47393","","null","","","null","49","NaN","","","","","","","","","","","","","","",""
"","S2","","html-keyboard-response","326","440846","0.0-1.0-445.0","0","0","47393","","null","","","null","49","","NaN","","","","","","","","","","","","","",""
"","response","","html-keyboard-response","327","440897","0.0-1.0-446.0-0.0","0","0","47393","","39","","","75","49","","","2","49","training","adjacent","FG","6","7","M.jpg","R.jpg","1","1","1","",""
"","feedback","","html-keyboard-response","328","441916","0.0-1.0-447.0-0.0","0","0","47393","","null","","","null","49","","","","","","","","","","","","","","","",""
"","ITI","","html-keyboard-response","329","442931","0.0-1.0-450.0","0","0","47393","","null","","","null","49","","","","","","","","","","","","","","","NaN",""
"","S1","","html-keyboard-response","330","443199","0.0-1.0-452.0","0","0","47393","","null","","","null","50","","","","","","","","","","","","","","","",""
"","ISI","","html-keyboard-response","331","445209","0.0-1.0-453.0","0","0","47393","","null","","","null","50","NaN","","","","","","","","","","","","","","",""
"","S2","","html-keyboard-response","332","445472","0.0-1.0-454.0","0","0","47393","","null","","","null","50","","NaN","","","","","","","","","","","","","",""
"","response","","html-keyboard-response","333","445958","0.0-1.0-455.0-0.0","0","0","47393","","475","","","75","50","","","2","50","training","adjacent","GF","7","6","R.jpg","M.jpg","1","0","0","",""
"","feedback","","html-keyboard-response","334","446976","0.0-1.0-456.0-0.0","0","0","47393","","null","","","null","50","","","","","","","","","","","","","","","",""
"","time_out","","html-keyboard-response","335","448988","0.0-1.0-458.0-0.0","0","0","47393","","null","","","null","50","","","","","","","","","","","","","","","",""
"","ITI","","html-keyboard-response","336","450001","0.0-1.0-459.0","0","0","47393","","null","","","null","50","","","","","","","","","","","","","","","NaN",""
"","S1","","html-keyboard-response","337","450267","0.0-1.0-461.0","0","0","47393","","null","","","null","51","","","","","","","","","","","","","","","",""
"","ISI","","html-keyboard-response","338","452282","0.0-1.0-462.0","0","0","47393","","null","","","null","51","NaN","","","","","","","","","","","","","","",""
"","S2","","html-keyboard-response","339","452542","0.0-1.0-463.0","0","0","47393","","null","","","null","51","","NaN","","","","","","","","","","","","","",""
"","response","","html-keyboard-response","340","453128","0.0-1.0-464.0-0.0","0","0","47393","","580","","","68","51","","","2","51","training","adjacent","BA","2","1","O.jpg","P.jpg","0","0","1","",""
"","feedback","","html-keyboard-response","341","454143","0.0-1.0-465.0-0.0","0","0","47393","","null","","","null","51","","","","","","","","","","","","","","","",""
"","ITI","","html-keyboard-response","342","455157","0.0-1.0-468.0","0","0","47393","","null","","","null","51","","","","","","","","","","","","","","","NaN",""
"","S1","","html-keyboard-response","343","455427","0.0-1.0-470.0","0","0","47393","","null","","","null","52","","","","","","","","","","","","","","","",""
"","ISI","","html-keyboard-response","344","457437","0.0-1.0-471.0","0","0","47393","","null","","","null","52","NaN","","","","","","","","","","","","","","",""
"","S2","","html-keyboard-response","345","457728","0.0-1.0-472.0","0","0","47393","","null","","","null","52","","NaN","","","","","","","","","","","","","",""
"","response","","html-keyboard-response","346","458624","0.0-1.0-473.0-0.0","0","0","47393","","890","","","75","52","","","2","52","training","adjacent","CB","3","2","L.jpg","O.jpg","1","0","0","",""
"","feedback","","html-keyboard-response","347","459631","0.0-1.0-474.0-0.0","0","0","47393","","null","","","null","52","","","","","","","","","","","","","","","",""
"","time_out","","html-keyboard-response","348","461637","0.0-1.0-476.0-0.0","0","0","47393","","null","","","null","52","","","","","","","","","","","","","","","",""
"","ITI","","html-keyboard-response","349","462648","0.0-1.0-477.0","0","0","47393","","null","","","null","52","","","","","","","","","","","","","","","NaN",""
"","S1","","html-keyboard-response","350","462908","0.0-1.0-479.0","0","0","47393","","null","","","null","53","","","","","","","","","","","","","","","",""
"","ISI","","html-keyboard-response","351","464915","0.0-1.0-480.0","0","0","47393","","null","","","null","53","NaN","","","","","","","","","","","","","","",""
"","S2","","html-keyboard-response","352","465172","0.0-1.0-481.0","0","0","47393","","null","","","null","53","","NaN","","","","","","","","","","","","","",""
"","response","","html-keyboard-response","353","465968","0.0-1.0-482.0-0.0","0","0","47393","","788","","","68","53","","","2","53","training","adjacent","GF","7","6","R.jpg","M.jpg","0","0","1","",""
"","feedback","","html-keyboard-response","354","466978","0.0-1.0-483.0-0.0","0","0","47393","","null","","","null","53","","","","","","","","","","","","","","","",""
"","ITI","","html-keyboard-response","355","467994","0.0-1.0-486.0","0","0","47393","","null","","","null","53","","","","","","","","","","","","","","","NaN",""
"","S1","","html-keyboard-response","356","468256","0.0-1.0-488.0","0","0","47393","","null","","","null","54","","","","","","","","","","","","","","","",""
"","ISI","","html-keyboard-response","357","470264","0.0-1.0-489.0","0","0","47393","","null","","","null","54","NaN","","","","","","","","","","","","","","",""
"","S2","","html-keyboard-response","358","470530","0.0-1.0-490.0","0","0","47393","","null","","","null","54","","NaN","","","","","","","","","","","","","",""
"","response","","html-keyboard-response","359","471099","0.0-1.0-491.0-0.0","0","0","47393","","558","","","68","54","","","2","54","training","adjacent","CD","3","4","L.jpg","Q.jpg","0","1","0","",""
"","feedback","","html-keyboard-response","360","472117","0.0-1.0-492.0-0.0","0","0","47393","","null","","","null","54","","","","","","","","","","","","","","","",""
"","time_out","","html-keyboard-response","361","474128","0.0-1.0-494.0-0.0","0","0","47393","","null","","","null","54","","","","","","","","","","","","","","","",""
"","ITI","","html-keyboard-response","362","475135","0.0-1.0-495.0","0","0","47393","","null","","","null","54","","","","","","","","","","","","","","","NaN",""
"","S1","","html-keyboard-response","363","475394","0.0-1.0-497.0","0","0","47393","","null","","","null","55","","","","","","","","","","","","","","","",""
"","ISI","","html-keyboard-response","364","477408","0.0-1.0-498.0","0","0","47393","","null","","","null","55","NaN","","","","","","","","","","","","","","",""
"","S2","","html-keyboard-response","365","477669","0.0-1.0-499.0","0","0","47393","","null","","","null","55","","NaN","","","","","","","","","","","","","",""
"","response","","html-keyboard-response","366","478043","0.0-1.0-500.0-0.0","0","0","47393","","365","","","75","55","","","2","55","training","adjacent","DC","4","3","Q.jpg","L.jpg","1","0","0","",""
"","feedback","","html-keyboard-response","367","479053","0.0-1.0-501.0-0.0","0","0","47393","","null","","","null","55","","","","","","","","","","","","","","","",""
"","time_out","","html-keyboard-response","368","481061","0.0-1.0-503.0-0.0","0","0","47393","","null","","","null","55","","","","","","","","","","","","","","","",""
"","ITI","","html-keyboard-response","369","482069","0.0-1.0-504.0","0","0","47393","","null","","","null","55","","","","","","","","","","","","","","","NaN",""
"","S1","","html-keyboard-response","370","482330","0.0-1.0-506.0","0","0","47393","","null","","","null","56","","","","","","","","","","","","","","","",""
"","ISI","","html-keyboard-response","371","484344","0.0-1.0-507.0","0","0","47393","","null","","","null","56","NaN","","","","","","","","","","","","","","",""
"","S2","","html-keyboard-response","372","484602","0.0-1.0-508.0","0","0","47393","","null","","","null","56","","NaN","","","","","","","","","","","","","",""
"","response","","html-keyboard-response","373","484883","0.0-1.0-509.0-0.0","0","0","47393","","276","","","75","56","","","2","56","training","adjacent","CD","3","4","L.jpg","Q.jpg","1","1","1","",""
"","feedback","","html-keyboard-response","374","485893","0.0-1.0-510.0-0.0","0","0","47393","","null","","","null","56","","","","","","","","","","","","","","","",""
"","ITI","","html-keyboard-response","375","486907","0.0-1.0-513.0","0","0","47393","","null","","","null","56","","","","","","","","","","","","","","","NaN",""
"","S1","","html-keyboard-response","376","487167","0.0-1.0-515.0","0","0","47393","","null","","","null","57","","","","","","","","","","","","","","","",""
"","ISI","","html-keyboard-response","377","489175","0.0-1.0-516.0","0","0","47393","","null","","","null","57","NaN","","","","","","","","","","","","","","",""
"","S2","","html-keyboard-response","378","489435","0.0-1.0-517.0","0","0","47393","","null","","","null","57","","NaN","","","","","","","","","","","","","",""
"","response","","html-keyboard-response","379","490177","0.0-1.0-518.0-0.0","0","0","47393","","732","","","75","57","","","2","57","training","adjacent","CB","3","2","L.jpg","O.jpg","1","0","0","",""
"","feedback","","html-keyboard-response","380","491190","0.0-1.0-519.0-0.0","0","0","47393","","null","","","null","57","","","","","","","","","","","","","","","",""
"","time_out","","html-keyboard-response","381","493201","0.0-1.0-521.0-0.0","0","0","47393","","null","","","null","57","","","","","","","","","","","","","","","",""
"","ITI","","html-keyboard-response","382","494215","0.0-1.0-522.0","0","0","47393","","null","","","null","57","","","","","","","","","","","","","","","NaN",""
"","S1","","html-keyboard-response","383","494477","0.0-1.0-524.0","0","0","47393","","null","","","null","58","","","","","","","","","","","","","","","",""
"","ISI","","html-keyboard-response","384","496486","0.0-1.0-525.0","0","0","47393","","null","","","null","58","NaN","","","","","","","","","","","","","","",""
"","S2","","html-keyboard-response","385","496751","0.0-1.0-526.0","0","0","47393","","null","","","null","58","","NaN","","","","","","","","","","","","","",""
"","response","","html-keyboard-response","386","497282","0.0-1.0-527.0-0.0","0","0","47393","","526","","","68","58","","","2","58","training","adjacent","FE","6","5","M.jpg","N.jpg","0","0","1","",""
"","feedback","","html-keyboard-response","387","498292","0.0-1.0-528.0-0.0","0","0","47393","","null","","","null","58","","","","","","","","","","","","","","","",""
"","ITI","","html-keyboard-response","388","499308","0.0-1.0-531.0","0","0","47393","","null","","","null","58","","","","","","","","","","","","","","","NaN",""
"","S1","","html-keyboard-response","389","499588","0.0-1.0-533.0","0","0","47393","","null","","","null","59","","","","","","","","","","","","","","","",""
"","ISI","","html-keyboard-response","390","501598","0.0-1.0-534.0","0","0","47393","","null","","","null","59","NaN","","","","","","","","","","","","","","",""
"","S2","","html-keyboard-response","391","501858","0.0-1.0-535.0","0","0","47393","","null","","","null","59","","NaN","","","","","","","","","","","","","",""
"","response","","html-keyboard-response","392","502151","0.0-1.0-536.0-0.0","0","0","47393","","287","","","75","59","","","2","59","training","adjacent","AB","1","2","P.jpg","O.jpg","1","1","1","",""
"","feedback","","html-keyboard-response","393","503160","0.0-1.0-537.0-0.0","0","0","47393","","null","","","null","59","","","","","","","","","","","","","","","",""
"","ITI","","html-keyboard-response","394","504174","0.0-1.0-540.0","0","0","47393","","null","","","null","59","","","","","","","","","","","","","","","NaN",""
"","S1","","html-keyboard-response","395","504436","0.0-1.0-542.0","0","0","47393","","null","","","null","60","","","","","","","","","","","","","","","",""
"","ISI","","html-keyboard-response","396","506443","0.0-1.0-543.0","0","0","47393","","null","","","null","60","NaN","","","","","","","","","","","","","","",""
"","S2","","html-keyboard-response","397","506707","0.0-1.0-544.0","0","0","47393","","null","","","null","60","","NaN","","","","","","","","","","","","","",""
"","response","","html-keyboard-response","398","507312","0.0-1.0-545.0-0.0","0","0","47393","","599","","","68","60","","","2","60","training","adjacent","FG","6","7","M.jpg","R.jpg","0","1","0","",""
"","feedback","","html-keyboard-response","399","508322","0.0-1.0-546.0-0.0","0","0","47393","","null","","","null","60","","","","","","","","","","","","","","","",""
"","time_out","","html-keyboard-response","400","510334","0.0-1.0-548.0-0.0","0","0","47393","","null","","","null","60","","","","","","","","","","","","","","","",""
"","ITI","","html-keyboard-response","401","511357","0.0-1.0-549.0","0","0","47393","","null","","","null","60","","","","","","","","","","","","","","","NaN",""
"","S1","","html-keyboard-response","402","511618","0.0-1.0-551.0","0","0","47393","","null","","","null","61","","","","","","","","","","","","","","","",""
"","ISI","","html-keyboard-response","403","513629","0.0-1.0-552.0","0","0","47393","","null","","","null","61","NaN","","","","","","","","","","","","","","",""
"","S2","","html-keyboard-response","404","513890","0.0-1.0-553.0","0","0","47393","","null","","","null","61","","NaN","","","","","","","","","","","","","",""
"","response","","html-keyboard-response","405","514419","0.0-1.0-554.0-0.0","0","0","47393","","519","","","75","61","","","2","61","training","adjacent","ED","5","4","N.jpg","Q.jpg","1","0","0","",""
"","feedback","","html-keyboard-response","406","515436","0.0-1.0-555.0-0.0","0","0","47393","","null","","","null","61","","","","","","","","","","","","","","","",""
"","time_out","","html-keyboard-response","407","517450","0.0-1.0-557.0-0.0","0","0","47393","","null","","","null","61","","","","","","","","","","","","","","","",""
"","ITI","","html-keyboard-response","408","518460","0.0-1.0-558.0","0","0","47393","","null","","","null","61","","","","","","","","","","","","","","","NaN",""
"","S1","","html-keyboard-response","409","518725","0.0-1.0-560.0","0","0","47393","","null","","","null","62","","","","","","","","","","","","","","","",""
"","ISI","","html-keyboard-response","410","520734","0.0-1.0-561.0","0","0","47393","","null","","","null","62","NaN","","","","","","","","","","","","","","",""
"","S2","","html-keyboard-response","411","520992","0.0-1.0-562.0","0","0","47393","","null","","","null","62","","NaN","","","","","","","","","","","","","",""
"","response","","html-keyboard-response","412","521733","0.0-1.0-563.0-0.0","0","0","47393","","733","","","68","62","","","2","62","training","adjacent","DC","4","3","Q.jpg","L.jpg","0","0","1","",""
"","feedback","","html-keyboard-response","413","522748","0.0-1.0-564.0-0.0","0","0","47393","","null","","","null","62","","","","","","","","","","","","","","","",""
"","ITI","","html-keyboard-response","414","523762","0.0-1.0-567.0","0","0","47393","","null","","","null","62","","","","","","","","","","","","","","","NaN",""
"","S1","","html-keyboard-response","415","524022","0.0-1.0-569.0","0","0","47393","","null","","","null","63","","","","","","","","","","","","","","","",""
"","ISI","","html-keyboard-response","416","526035","0.0-1.0-570.0","0","0","47393","","null","","","null","63","NaN","","","","","","","","","","","","","","",""
"","S2","","html-keyboard-response","417","526303","0.0-1.0-571.0","0","0","47393","","null","","","null","63","","NaN","","","","","","","","","","","","","",""
"","response","","html-keyboard-response","418","526707","0.0-1.0-572.0-0.0","0","0","47393","","395","","","75","63","","","2","63","training","adjacent","EF","5","6","N.jpg","M.jpg","1","1","1","",""
"","feedback","","html-keyboard-response","419","527720","0.0-1.0-573.0-0.0","0","0","47393","","null","","","null","63","","","","","","","","","","","","","","","",""
"","ITI","","html-keyboard-response","420","528734","0.0-1.0-576.0","0","0","47393","","null","","","null","63","","","","","","","","","","","","","","","NaN",""
"","S1","","html-keyboard-response","421","528996","0.0-1.0-578.0","0","0","47393","","null","","","null","64","","","","","","","","","","","","","","","",""
"","ISI","","html-keyboard-response","422","531010","0.0-1.0-579.0","0","0","47393","","null","","","null","64","NaN","","","","","","","","","","","","","","",""
"","S2","","html-keyboard-response","423","531274","0.0-1.0-580.0","0","0","47393","","null","","","null","64","","NaN","","","","","","","","","","","","","",""
"","response","","html-keyboard-response","424","531840","0.0-1.0-581.0-0.0","0","0","47393","","560","","","75","64","","","2","64","training","adjacent","BC","2","3","O.jpg","L.jpg","1","1","1","",""
"","feedback","","html-keyboard-response","425","532857","0.0-1.0-582.0-0.0","0","0","47393","","null","","","null","64","","","","","","","","","","","","","","","",""
"","ITI","","html-keyboard-response","426","533873","0.0-1.0-585.0","0","0","47393","","null","","","null","64","","","","","","","","","","","","","","","NaN",""
"","S1","","html-keyboard-response","427","534137","0.0-1.0-587.0","0","0","47393","","null","","","null","65","","","","","","","","","","","","","","","",""
"","ISI","","html-keyboard-response","428","536148","0.0-1.0-588.0","0","0","47393","","null","","","null","65","NaN","","","","","","","","","","","","","","",""
"","S2","","html-keyboard-response","429","536410","0.0-1.0-589.0","0","0","47393","","null","","","null","65","","NaN","","","","","","","","","","","","","",""
"","response","","html-keyboard-response","430","537391","0.0-1.0-590.0-0.0","0","0","47393","","975","","","68","65","","","2","65","training","adjacent","BA","2","1","O.jpg","P.jpg","0","0","1","",""
"","feedback","","html-keyboard-response","431","538406","0.0-1.0-591.0-0.0","0","0","47393","","null","","","null","65","","","","","","","","","","","","","","","",""
"","ITI","","html-keyboard-response","432","539421","0.0-1.0-594.0","0","0","47393","","null","","","null","65","","","","","","","","","","","","","","","NaN",""
"","S1","","html-keyboard-response","433","539682","0.0-1.0-596.0","0","0","47393","","null","","","null","66","","","","","","","","","","","","","","","",""
"","ISI","","html-keyboard-response","434","541694","0.0-1.0-597.0","0","0","47393","","null","","","null","66","NaN","","","","","","","","","","","","","","",""
"","S2","","html-keyboard-response","435","541956","0.0-1.0-598.0","0","0","47393","","null","","","null","66","","NaN","","","","","","","","","","","","","",""
"","response","","html-keyboard-response","436","542741","0.0-1.0-599.0-0.0","0","0","47393","","776","","","75","66","","","2","66","training","adjacent","CD","3","4","L.jpg","Q.jpg","1","1","1","",""
"","feedback","","html-keyboard-response","437","543756","0.0-1.0-600.0-0.0","0","0","47393","","null","","","null","66","","","","","","","","","","","","","","","",""
"","ITI","","html-keyboard-response","438","544766","0.0-1.0-603.0","0","0","47393","","null","","","null","66","","","","","","","","","","","","","","","NaN",""
"","S1","","html-keyboard-response","439","545030","0.0-1.0-605.0","0","0","47393","","null","","","null","67","","","","","","","","","","","","","","","",""
"","ISI","","html-keyboard-response","440","547041","0.0-1.0-606.0","0","0","47393","","null","","","null","67","NaN","","","","","","","","","","","","","","",""
"","S2","","html-keyboard-response","441","547306","0.0-1.0-607.0","0","0","47393","","null","","","null","67","","NaN","","","","","","","","","","","","","",""
"","response","","html-keyboard-response","442","548052","0.0-1.0-608.0-0.0","0","0","47393","","737","","","75","67","","","2","67","training","adjacent","GF","7","6","R.jpg","M.jpg","1","0","0","",""
"","feedback","","html-keyboard-response","443","549065","0.0-1.0-609.0-0.0","0","0","47393","","null","","","null","67","","","","","","","","","","","","","","","",""
"","time_out","","html-keyboard-response","444","551078","0.0-1.0-611.0-0.0","0","0","47393","","null","","","null","67","","","","","","","","","","","","","","","",""
"","ITI","","html-keyboard-response","445","552086","0.0-1.0-612.0","0","0","47393","","null","","","null","67","","","","","","","","","","","","","","","NaN",""
"","S1","","html-keyboard-response","446","552351","0.0-1.0-614.0","0","0","47393","","null","","","null","68","","","","","","","","","","","","","","","",""
"","ISI","","html-keyboard-response","447","554362","0.0-1.0-615.0","0","0","47393","","null","","","null","68","NaN","","","","","","","","","","","","","","",""
"","S2","","html-keyboard-response","448","554628","0.0-1.0-616.0","0","0","47393","","null","","","null","68","","NaN","","","","","","","","","","","","","",""
"","response","","html-keyboard-response","449","555514","0.0-1.0-617.0-0.0","0","0","47393","","879","","","68","68","","","2","68","training","adjacent","DC","4","3","Q.jpg","L.jpg","0","0","1","",""
"","feedback","","html-keyboard-response","450","556521","0.0-1.0-618.0-0.0","0","0","47393","","null","","","null","68","","","","","","","","","","","","","","","",""
"","ITI","","html-keyboard-response","451","557530","0.0-1.0-621.0","0","0","47393","","null","","","null","68","","","","","","","","","","","","","","","NaN",""
"","S1","","html-keyboard-response","452","557790","0.0-1.0-623.0","0","0","47393","","null","","","null","69","","","","","","","","","","","","","","","",""
"","ISI","","html-keyboard-response","453","559805","0.0-1.0-624.0","0","0","47393","","null","","","null","69","NaN","","","","","","","","","","","","","","",""
"","S2","","html-keyboard-response","454","560070","0.0-1.0-625.0","0","0","47393","","null","","","null","69","","NaN","","","","","","","","","","","","","",""
"","response","","html-keyboard-response","455","560245","0.0-1.0-626.0-0.0","0","0","47393","","165","","","75","69","","","2","69","training","adjacent","ED","5","4","N.jpg","Q.jpg","1","0","0","",""
"","feedback","","html-keyboard-response","456","561259","0.0-1.0-627.0-0.0","0","0","47393","","null","","","null","69","","","","","","","","","","","","","","","",""
"","time_out","","html-keyboard-response","457","563267","0.0-1.0-629.0-0.0","0","0","47393","","null","","","null","69","","","","","","","","","","","","","","","",""
"","ITI","","html-keyboard-response","458","564276","0.0-1.0-630.0","0","0","47393","","null","","","null","69","","","","","","","","","","","","","","","NaN",""
"","S1","","html-keyboard-response","459","564539","0.0-1.0-632.0","0","0","47393","","null","","","null","70","","","","","","","","","","","","","","","",""
"","ISI","","html-keyboard-response","460","566546","0.0-1.0-633.0","0","0","47393","","null","","","null","70","NaN","","","","","","","","","","","","","","",""
"","S2","","html-keyboard-response","461","566803","0.0-1.0-634.0","0","0","47393","","null","","","null","70","","NaN","","","","","","","","","","","","","",""
"","response","","html-keyboard-response","462","567342","0.0-1.0-635.0-0.0","0","0","47393","","533","","","68","70","","","2","70","training","adjacent","FE","6","5","M.jpg","N.jpg","0","0","1","",""
"","feedback","","html-keyboard-response","463","568353","0.0-1.0-636.0-0.0","0","0","47393","","null","","","null","70","","","","","","","","","","","","","","","",""
"","ITI","","html-keyboard-response","464","569370","0.0-1.0-639.0","0","0","47393","","null","","","null","70","","","","","","","","","","","","","","","NaN",""
"","S1","","html-keyboard-response","465","569632","0.0-1.0-641.0","0","0","47393","","null","","","null","71","","","","","","","","","","","","","","","",""
"","ISI","","html-keyboard-response","466","571641","0.0-1.0-642.0","0","0","47393","","null","","","null","71","NaN","","","","","","","","","","","","","","",""
"","S2","","html-keyboard-response","467","571900","0.0-1.0-643.0","0","0","47393","","null","","","null","71","","NaN","","","","","","","","","","","","","",""
"","response","","html-keyboard-response","468","572567","0.0-1.0-644.0-0.0","0","0","47393","","662","","","68","71","","","2","71","training","adjacent","BA","2","1","O.jpg","P.jpg","0","0","1","",""
"","feedback","","html-keyboard-response","469","573575","0.0-1.0-645.0-0.0","0","0","47393","","null","","","null","71","","","","","","","","","","","","","","","",""
"","ITI","","html-keyboard-response","470","574586","0.0-1.0-648.0","0","0","47393","","null","","","null","71","","","","","","","","","","","","","","","NaN",""
"","S1","","html-keyboard-response","471","574845","0.0-1.0-650.0","0","0","47393","","null","","","null","72","","","","","","","","","","","","","","","",""
"","ISI","","html-keyboard-response","472","576858","0.0-1.0-651.0","0","0","47393","","null","","","null","72","NaN","","","","","","","","","","","","","","",""
"","S2","","html-keyboard-response","473","577120","0.0-1.0-652.0","0","0","47393","","null","","","null","72","","NaN","","","","","","","","","","","","","",""
"","response","","html-keyboard-response","474","578270","0.0-1.0-653.0-0.0","0","0","47393","","1141","","","75","72","","","2","72","training","adjacent","CB","3","2","L.jpg","O.jpg","1","0","0","",""
"","feedback","","html-keyboard-response","475","579282","0.0-1.0-654.0-0.0","0","0","47393","","null","","","null","72","","","","","","","","","","","","","","","",""
"","time_out","","html-keyboard-response","476","581298","0.0-1.0-656.0-0.0","0","0","47393","","null","","","null","72","","","","","","","","","","","","","","","",""
"","ITI","","html-keyboard-response","477","582307","0.0-1.0-657.0","0","0","47393","","null","","","null","72","","","","","","","","","","","","","","","NaN",""
"","S1","","html-keyboard-response","478","582575","0.0-1.0-659.0","0","0","47393","","null","","","null","73","","","","","","","","","","","","","","","",""
"","ISI","","html-keyboard-response","479","584587","0.0-1.0-660.0","0","0","47393","","null","","","null","73","NaN","","","","","","","","","","","","","","",""
"","S2","","html-keyboard-response","480","584847","0.0-1.0-661.0","0","0","47393","","null","","","null","73","","NaN","","","","","","","","","","","","","",""
"","response","","html-keyboard-response","481","585574","0.0-1.0-662.0-0.0","0","0","47393","","722","","","75","73","","","2","73","training","adjacent","FG","6","7","M.jpg","R.jpg","1","1","1","",""
"","feedback","","html-keyboard-response","482","586580","0.0-1.0-663.0-0.0","0","0","47393","","null","","","null","73","","","","","","","","","","","","","","","",""
"","ITI","","html-keyboard-response","483","587587","0.0-1.0-666.0","0","0","47393","","null","","","null","73","","","","","","","","","","","","","","","NaN",""
"","S1","","html-keyboard-response","484","587846","0.0-1.0-668.0","0","0","47393","","null","","","null","74","","","","","","","","","","","","","","","",""
"","ISI","","html-keyboard-response","485","589858","0.0-1.0-669.0","0","0","47393","","null","","","null","74","NaN","","","","","","","","","","","","","","",""
"","S2","","html-keyboard-response","486","590116","0.0-1.0-670.0","0","0","47393","","null","","","null","74","","NaN","","","","","","","","","","","","","",""
"","response","","html-keyboard-response","487","591126","0.0-1.0-671.0-0.0","0","0","47393","","1002","","","68","74","","","2","74","training","adjacent","CB","3","2","L.jpg","O.jpg","0","0","1","",""
"","feedback","","html-keyboard-response","488","592142","0.0-1.0-672.0-0.0","0","0","47393","","null","","","null","74","","","","","","","","","","","","","","","",""
"","ITI","","html-keyboard-response","489","593154","0.0-1.0-675.0","0","0","47393","","null","","","null","74","","","","","","","","","","","","","","","NaN",""
"","S1","","html-keyboard-response","490","593417","0.0-1.0-677.0","0","0","47393","","null","","","null","75","","","","","","","","","","","","","","","",""
"","ISI","","html-keyboard-response","491","595425","0.0-1.0-678.0","0","0","47393","","null","","","null","75","NaN","","","","","","","","","","","","","","",""
"","S2","","html-keyboard-response","492","595688","0.0-1.0-679.0","0","0","47393","","null","","","null","75","","NaN","","","","","","","","","","","","","",""
"","response","","html-keyboard-response","493","596147","0.0-1.0-680.0-0.0","0","0","47393","","453","","","75","75","","","2","75","training","adjacent","EF","5","6","N.jpg","M.jpg","1","1","1","",""
"","feedback","","html-keyboard-response","494","597158","0.0-1.0-681.0-0.0","0","0","47393","","null","","","null","75","","","","","","","","","","","","","","","",""
"","ITI","","html-keyboard-response","495","598167","0.0-1.0-684.0","0","0","47393","","null","","","null","75","","","","","","","","","","","","","","","NaN",""
"","S1","","html-keyboard-response","496","598434","0.0-1.0-686.0","0","0","47393","","null","","","null","76","","","","","","","","","","","","","","","",""
"","ISI","","html-keyboard-response","497","600448","0.0-1.0-687.0","0","0","47393","","null","","","null","76","NaN","","","","","","","","","","","","","","",""
"","S2","","html-keyboard-response","498","600712","0.0-1.0-688.0","0","0","47393","","null","","","null","76","","NaN","","","","","","","","","","","","","",""
"","response","","html-keyboard-response","499","601163","0.0-1.0-689.0-0.0","0","0","47393","","445","","","68","76","","","2","76","training","adjacent","BA","2","1","O.jpg","P.jpg","0","0","1","",""
"","feedback","","html-keyboard-response","500","602179","0.0-1.0-690.0-0.0","0","0","47393","","null","","","null","76","","","","","","","","","","","","","","","",""
"","ITI","","html-keyboard-response","501","603193","0.0-1.0-693.0","0","0","47393","","null","","","null","76","","","","","","","","","","","","","","","NaN",""
"","S1","","html-keyboard-response","502","603455","0.0-1.0-695.0","0","0","47393","","null","","","null","77","","","","","","","","","","","","","","","",""
"","ISI","","html-keyboard-response","503","605469","0.0-1.0-696.0","0","0","47393","","null","","","null","77","NaN","","","","","","","","","","","","","","",""
"","S2","","html-keyboard-response","504","605740","0.0-1.0-697.0","0","0","47393","","null","","","null","77","","NaN","","","","","","","","","","","","","",""
"","response","","html-keyboard-response","505","606320","0.0-1.0-698.0-0.0","0","0","47393","","577","","","68","77","","","2","77","training","adjacent","FE","6","5","M.jpg","N.jpg","0","0","1","",""
"","feedback","","html-keyboard-response","506","607333","0.0-1.0-699.0-0.0","0","0","47393","","null","","","null","77","","","","","","","","","","","","","","","",""
"","ITI","","html-keyboard-response","507","608348","0.0-1.0-702.0","0","0","47393","","null","","","null","77","","","","","","","","","","","","","","","NaN",""
"","S1","","html-keyboard-response","508","608618","0.0-1.0-704.0","0","0","47393","","null","","","null","78","","","","","","","","","","","","","","","",""
"","ISI","","html-keyboard-response","509","610626","0.0-1.0-705.0","0","0","47393","","null","","","null","78","NaN","","","","","","","","","","","","","","",""
"","S2","","html-keyboard-response","510","610905","0.0-1.0-706.0","0","0","47393","","null","","","null","78","","NaN","","","","","","","","","","","","","",""
"","response","","html-keyboard-response","511","611496","0.0-1.0-707.0-0.0","0","0","47393","","587","","","75","78","","","2","78","training","adjacent","DE","4","5","Q.jpg","N.jpg","1","1","1","",""
"","feedback","","html-keyboard-response","512","612513","0.0-1.0-708.0-0.0","0","0","47393","","null","","","null","78","","","","","","","","","","","","","","","",""
"","ITI","","html-keyboard-response","513","613528","0.0-1.0-711.0","0","0","47393","","null","","","null","78","","","","","","","","","","","","","","","NaN",""
"","S1","","html-keyboard-response","514","613787","0.0-1.0-713.0","0","0","47393","","null","","","null","79","","","","","","","","","","","","","","","",""
"","ISI","","html-keyboard-response","515","615794","0.0-1.0-714.0","0","0","47393","","null","","","null","79","NaN","","","","","","","","","","","","","","",""
"","S2","","html-keyboard-response","516","616058","0.0-1.0-715.0","0","0","47393","","null","","","null","79","","NaN","","","","","","","","","","","","","",""
"","response","","html-keyboard-response","517","616192","0.0-1.0-716.0-0.0","0","0","47393","","127","","","75","79","","","2","79","training","adjacent","AB","1","2","P.jpg","O.jpg","1","1","1","",""
"","feedback","","html-keyboard-response","518","617205","0.0-1.0-717.0-0.0","0","0","47393","","null","","","null","79","","","","","","","","","","","","","","","",""
"","ITI","","html-keyboard-response","519","618217","0.0-1.0-720.0","0","0","47393","","null","","","null","79","","","","","","","","","","","","","","","NaN",""
"","S1","","html-keyboard-response","520","618476","0.0-1.0-722.0","0","0","47393","","null","","","null","80","","","","","","","","","","","","","","","",""
"","ISI","","html-keyboard-response","521","620490","0.0-1.0-723.0","0","0","47393","","null","","","null","80","NaN","","","","","","","","","","","","","","",""
"","S2","","html-keyboard-response","522","620755","0.0-1.0-724.0","0","0","47393","","null","","","null","80","","NaN","","","","","","","","","","","","","",""
"","response","","html-keyboard-response","523","621380","0.0-1.0-725.0-0.0","0","0","47393","","619","","","75","80","","","2","80","training","adjacent","BC","2","3","O.jpg","L.jpg","1","1","1","",""
"","feedback","","html-keyboard-response","524","622388","0.0-1.0-726.0-0.0","0","0","47393","","null","","","null","80","","","","","","","","","","","","","","","",""
"","ITI","","html-keyboard-response","525","623397","0.0-1.0-729.0","0","0","47393","","null","","","null","80","","","","","","","","","","","","","","","NaN",""
"","S1","","html-keyboard-response","526","623654","0.0-1.0-731.0","0","0","47393","","null","","","null","81","","","","","","","","","","","","","","","",""
"","ISI","","html-keyboard-response","527","625661","0.0-1.0-732.0","0","0","47393","","null","","","null","81","NaN","","","","","","","","","","","","","","",""
"","S2","","html-keyboard-response","528","625920","0.0-1.0-733.0","0","0","47393","","null","","","null","81","","NaN","","","","","","","","","","","","","",""
"","response","","html-keyboard-response","529","626084","0.0-1.0-734.0-0.0","0","0","47393","","159","","","75","81","","","2","81","training","adjacent","AB","1","2","P.jpg","O.jpg","1","1","1","",""
"","feedback","","html-keyboard-response","530","627094","0.0-1.0-735.0-0.0","0","0","47393","","null","","","null","81","","","","","","","","","","","","","","","",""
"","ITI","","html-keyboard-response","531","628101","0.0-1.0-738.0","0","0","47393","","null","","","null","81","","","","","","","","","","","","","","","NaN",""
"","S1","","html-keyboard-response","532","628359","0.0-1.0-740.0","0","0","47393","","null","","","null","82","","","","","","","","","","","","","","","",""
"","ISI","","html-keyboard-response","533","630374","0.0-1.0-741.0","0","0","47393","","null","","","null","82","NaN","","","","","","","","","","","","","","",""
"","S2","","html-keyboard-response","534","630640","0.0-1.0-742.0","0","0","47393","","null","","","null","82","","NaN","","","","","","","","","","","","","",""
"","response","","html-keyboard-response","535","631354","0.0-1.0-743.0-0.0","0","0","47393","","707","","","75","82","","","2","82","training","adjacent","BC","2","3","O.jpg","L.jpg","1","1","1","",""
"","feedback","","html-keyboard-response","536","632363","0.0-1.0-744.0-0.0","0","0","47393","","null","","","null","82","","","","","","","","","","","","","","","",""
"","ITI","","html-keyboard-response","537","633370","0.0-1.0-747.0","0","0","47393","","null","","","null","82","","","","","","","","","","","","","","","NaN",""
"","S1","","html-keyboard-response","538","633631","0.0-1.0-749.0","0","0","47393","","null","","","null","83","","","","","","","","","","","","","","","",""
"","ISI","","html-keyboard-response","539","635640","0.0-1.0-750.0","0","0","47393","","null","","","null","83","NaN","","","","","","","","","","","","","","",""
"","S2","","html-keyboard-response","540","635897","0.0-1.0-751.0","0","0","47393","","null","","","null","83","","NaN","","","","","","","","","","","","","",""
"","response","","html-keyboard-response","541","636771","0.0-1.0-752.0-0.0","0","0","47393","","866","","","68","83","","","2","83","training","adjacent","DE","4","5","Q.jpg","N.jpg","0","1","0","",""
"","feedback","","html-keyboard-response","542","637784","0.0-1.0-753.0-0.0","0","0","47393","","null","","","null","83","","","","","","","","","","","","","","","",""
"","time_out","","html-keyboard-response","543","639802","0.0-1.0-755.0-0.0","0","0","47393","","null","","","null","83","","","","","","","","","","","","","","","",""
"","ITI","","html-keyboard-response","544","640815","0.0-1.0-756.0","0","0","47393","","null","","","null","83","","","","","","","","","","","","","","","NaN",""
"","S1","","html-keyboard-response","545","641078","0.0-1.0-758.0","0","0","47393","","null","","","null","84","","","","","","","","","","","","","","","",""
"","ISI","","html-keyboard-response","546","643090","0.0-1.0-759.0","0","0","47393","","null","","","null","84","NaN","","","","","","","","","","","","","","",""
"","S2","","html-keyboard-response","547","643351","0.0-1.0-760.0","0","0","47393","","null","","","null","84","","NaN","","","","","","","","","","","","","",""
"","response","","html-keyboard-response","548","644080","0.0-1.0-761.0-0.0","0","0","47393","","723","","","75","84","","","2","84","training","adjacent","BC","2","3","O.jpg","L.jpg","1","1","1","",""
"","feedback","","html-keyboard-response","549","645090","0.0-1.0-762.0-0.0","0","0","47393","","null","","","null","84","","","","","","","","","","","","","","","",""
"","ITI","","html-keyboard-response","550","646097","0.0-1.0-765.0","0","0","47393","","null","","","null","84","","","","","","","","","","","","","","","NaN",""
"","S1","","html-keyboard-response","551","646355","0.0-1.0-767.0","0","0","47393","","null","","","null","85","","","","","","","","","","","","","","","",""
"","ISI","","html-keyboard-response","552","648367","0.0-1.0-768.0","0","0","47393","","null","","","null","85","NaN","","","","","","","","","","","","","","",""
"","S2","","html-keyboard-response","553","648630","0.0-1.0-769.0","0","0","47393","","null","","","null","85","","NaN","","","","","","","","","","","","","",""
"","response","","html-keyboard-response","554","649237","0.0-1.0-770.0-0.0","0","0","47393","","601","","","68","85","","","2","85","training","adjacent","DE","4","5","Q.jpg","N.jpg","0","1","0","",""
"","feedback","","html-keyboard-response","555","650249","0.0-1.0-771.0-0.0","0","0","47393","","null","","","null","85","","","","","","","","","","","","","","","",""
"","time_out","","html-keyboard-response","556","652261","0.0-1.0-773.0-0.0","0","0","47393","","null","","","null","85","","","","","","","","","","","","","","","",""
"","ITI","","html-keyboard-response","557","653270","0.0-1.0-774.0","0","0","47393","","null","","","null","85","","","","","","","","","","","","","","","NaN",""
"","S1","","html-keyboard-response","558","653531","0.0-1.0-776.0","0","0","47393","","null","","","null","86","","","","","","","","","","","","","","","",""
"","ISI","","html-keyboard-response","559","655555","0.0-1.0-777.0","0","0","47393","","null","","","null","86","NaN","","","","","","","","","","","","","","",""
"","S2","","html-keyboard-response","560","655814","0.0-1.0-778.0","0","0","47393","","null","","","null","86","","NaN","","","","","","","","","","","","","",""
"","response","","html-keyboard-response","561","655893","0.0-1.0-779.0-0.0","0","0","47393","","71","","","75","86","","","2","86","training","adjacent","AB","1","2","P.jpg","O.jpg","1","1","1","",""
"","feedback","","html-keyboard-response","562","656911","0.0-1.0-780.0-0.0","0","0","47393","","null","","","null","86","","","","","","","","","","","","","","","",""
"","ITI","","html-keyboard-response","563","657926","0.0-1.0-783.0","0","0","47393","","null","","","null","86","","","","","","","","","","","","","","","NaN",""
"","S1","","html-keyboard-response","564","658187","0.0-1.0-785.0","0","0","47393","","null","","","null","87","","","","","","","","","","","","","","","",""
"","ISI","","html-keyboard-response","565","660193","0.0-1.0-786.0","0","0","47393","","null","","","null","87","NaN","","","","","","","","","","","","","","",""
"","S2","","html-keyboard-response","566","660460","0.0-1.0-787.0","0","0","47393","","null","","","null","87","","NaN","","","","","","","","","","","","","",""
"","response","","html-keyboard-response","567","661487","0.0-1.0-788.0-0.0","0","0","47393","","1018","","","75","87","","","2","87","training","adjacent","DE","4","5","Q.jpg","N.jpg","1","1","1","",""
"","feedback","","html-keyboard-response","568","662503","0.0-1.0-789.0-0.0","0","0","47393","","null","","","null","87","","","","","","","","","","","","","","","",""
"","ITI","","html-keyboard-response","569","663517","0.0-1.0-792.0","0","0","47393","","null","","","null","87","","","","","","","","","","","","","","","NaN",""
"","S1","","html-keyboard-response","570","663778","0.0-1.0-794.0","0","0","47393","","null","","","null","88","","","","","","","","","","","","","","","",""
"","ISI","","html-keyboard-response","571","665791","0.0-1.0-795.0","0","0","47393","","null","","","null","88","NaN","","","","","","","","","","","","","","",""
"","S2","","html-keyboard-response","572","666051","0.0-1.0-796.0","0","0","47393","","null","","","null","88","","NaN","","","","","","","","","","","","","",""
"","response","","html-keyboard-response","573","667296","0.0-1.0-797.0-0.0","0","0","47393","","1239","","","68","88","","","2","88","training","adjacent","DC","4","3","Q.jpg","L.jpg","0","0","1","",""
"","feedback","","html-keyboard-response","574","668308","0.0-1.0-798.0-0.0","0","0","47393","","null","","","null","88","","","","","","","","","","","","","","","",""
"","ITI","","html-keyboard-response","575","669319","0.0-1.0-801.0","0","0","47393","","null","","","null","88","","","","","","","","","","","","","","","NaN",""
"","S1","","html-keyboard-response","576","669581","0.0-1.0-803.0","0","0","47393","","null","","","null","89","","","","","","","","","","","","","","","",""
"","ISI","","html-keyboard-response","577","671589","0.0-1.0-804.0","0","0","47393","","null","","","null","89","NaN","","","","","","","","","","","","","","",""
"","S2","","html-keyboard-response","578","671851","0.0-1.0-805.0","0","0","47393","","null","","","null","89","","NaN","","","","","","","","","","","","","",""
"","response","","html-keyboard-response","579","672638","0.0-1.0-806.0-0.0","0","0","47393","","779","","","75","89","","","2","89","training","adjacent","EF","5","6","N.jpg","M.jpg","1","1","1","",""
"","feedback","","html-keyboard-response","580","673650","0.0-1.0-807.0-0.0","0","0","47393","","null","","","null","89","","","","","","","","","","","","","","","",""
"","ITI","","html-keyboard-response","581","674656","0.0-1.0-810.0","0","0","47393","","null","","","null","89","","","","","","","","","","","","","","","NaN",""
"","S1","","html-keyboard-response","582","674921","0.0-1.0-812.0","0","0","47393","","null","","","null","90","","","","","","","","","","","","","","","",""
