"success","ttype","start_time","trial_type","trial_index","time_elapsed","internal_node_id","warning","missed_checkup","PID","view_history","rt","responses","repeat_instructions","key_press","index","keypress_isi","keypress_S2","block","trial_num","phase","group_type","pair_type","S1_stim","S2_stim","S1_img","S2_img","S1_chosen","S1_higher","accuracy","keypress_iti","total_bonus_tally"
"true","full_screen","d04132023hr1357","fullscreen","0","3862","0.0-0.0","0","0","60640","","","","","","","","","","","","","","","","","","","","","",""
"","instructions","","instructions","1","15217","0.0-1.0-0.0-0.0","0","0","60640","[{""page_index"":0,""viewing_time"":2393},{""page_index"":1,""viewing_time"":3896},{""page_index"":2,""viewing_time"":3889},{""page_index"":3,""viewing_time"":1174}]","11352","","","","","","","","","","","","","","","","","","","",""
"","comprehension_check","","survey-multi-choice","2","25413","0.0-1.0-0.0-1.0","0","0","60640","","10193","{""Q0"":""True"",""Q1"":""K"",""Q2"":""Once the second image appears and while the screen 'MAKE A CHOICE' is shown"",""Q3"":""Green mark"",""Q4"":""either D or K""}","1","","","","","","","","","","","","","","","","","",""
"","missed_instruction_checkup","","html-keyboard-response","3","27843","0.0-1.0-0.0-2.0-0.0","0","1","60640","","2428","","","32","","","","","","","","","","","","","","","","",""
"","instructions","","instructions","4","33187","0.0-1.0-0.1-0.1","0","0","60640","[{""page_index"":0,""viewing_time"":1263},{""page_index"":1,""viewing_time"":2673},{""page_index"":2,""viewing_time"":740},{""page_index"":3,""viewing_time"":666}]","5342","","","","","","","","","","","","","","","","","","","",""
"","comprehension_check","","survey-multi-choice","5","42271","0.0-1.0-0.1-1.1","0","0","60640","","9081","{""Q0"":""True"",""Q1"":""D"",""Q2"":""Once the second image appears and while the screen 'MAKE A CHOICE' is shown"",""Q3"":""Green mark"",""Q4"":""either D or K""}","0","","","","","","","","","","","","","","","","","",""
"","start_exp","","html-keyboard-response","6","44357","0.0-1.0-1.0","0","0","60640","","2086","","","32","","","","","","","","","","","","","","","","",""
"","S1","","html-keyboard-response","7","44611","0.0-1.0-2.0","0","0","60640","","null","","","null","0","","","","","","","","","","","","","","","",""
"","ISI","","html-keyboard-response","8","45614","0.0-1.0-3.0","0","0","60640","","null","","","null","0","NaN","","","","","","","","","","","","","","",""
"","S2","","html-keyboard-response","9","45870","0.0-1.0-4.0","0","0","60640","","null","","","null","0","","NaN","","","","","","","","","","","","","",""
"","response","","html-keyboard-response","10","46638","0.0-1.0-5.0-0.0","0","0","60640","","765","","","68","0","","","1","0","training","adjacent","GF","7","6","N.jpg","L.jpg","1","0","0","",""
"","feedback","","html-keyboard-response","11","47641","0.0-1.0-6.0-0.0","0","0","60640","","null","","","null","0","","","","","","","","","","","","","","","",""
"","time_out","","html-keyboard-response","12","49645","0.0-1.0-8.0-0.0","0","0","60640","","null","","","null","0","","","","","","","","","","","","","","","",""
"","ITI","","html-keyboard-response","13","50647","0.0-1.0-9.0","0","0","60640","","null","","","null","0","","","","","","","","","","","","","","","NaN",""
"","S1","","html-keyboard-response","14","50901","0.0-1.0-11.0","0","0","60640","","null","","","null","1","","","","","","","","","","","","","","","",""
"","ISI","","html-keyboard-response","15","51904","0.0-1.0-12.0","0","0","60640","","null","","","null","1","NaN","","","","","","","","","","","","","","",""
"","S2","","html-keyboard-response","16","52156","0.0-1.0-13.0","0","0","60640","","null","","","null","1","","NaN","","","","","","","","","","","","","",""
"","response","","html-keyboard-response","17","52472","0.0-1.0-14.0-0.0","0","0","60640","","314","","","68","1","","","1","1","training","adjacent","CD","3","4","O.jpg","P.jpg","1","1","1","",""
"","feedback","","html-keyboard-response","18","53473","0.0-1.0-15.0-0.0","0","0","60640","","null","","","null","1","","","","","","","","","","","","","","","",""
"","ITI","","html-keyboard-response","19","54475","0.0-1.0-18.0","0","0","60640","","null","","","null","1","","","","","","","","","","","","","","","NaN",""
"","S1","","html-keyboard-response","20","54727","0.0-1.0-20.0","0","0","60640","","null","","","null","2","","","","","","","","","","","","","","","",""
"","ISI","","html-keyboard-response","21","55729","0.0-1.0-21.0","0","0","60640","","762","","","68","2","d","","","","","","","","","","","","","","",""
"","S2","","html-keyboard-response","22","55832","0.0-1.0-22.0","0","0","60640","","102","","","68","2","","d","1","2","training","adjacent","FE","6","5","L.jpg","R.jpg","1","0","0","",""
"","feedback","","html-keyboard-response","23","56836","0.0-1.0-24.0-0.0","0","0","60640","","null","","","null","2","","","","","","","","","","","","","","","",""
"","time_out","","html-keyboard-response","24","58840","0.0-1.0-26.0-0.0","0","0","60640","","null","","","null","2","","","","","","","","","","","","","","","",""
"","ITI","","html-keyboard-response","25","59844","0.0-1.0-27.0","0","0","60640","","363","","","68","2","","","","","","","","","","","","","","","d",""
"","S1","","html-keyboard-response","26","60096","0.0-1.0-29.0","0","0","60640","","null","","","null","3","","","","","","","","","","","","","","","",""
"","ISI","","html-keyboard-response","27","61099","0.0-1.0-30.0","0","0","60640","","null","","","null","3","NaN","","","","","","","","","","","","","","",""
"","S2","","html-keyboard-response","28","61325","0.0-1.0-31.0","0","0","60640","","225","","","75","3","","k","1","3","training","adjacent","GF","7","6","N.jpg","L.jpg","0","0","1","",""
"","feedback","","html-keyboard-response","29","62327","0.0-1.0-33.0-0.0","0","0","60640","","null","","","null","3","","","","","","","","","","","","","","","",""
"","ITI","","html-keyboard-response","30","63329","0.0-1.0-36.0","0","0","60640","","null","","","null","3","","","","","","","","","","","","","","","NaN",""
"","S1","","html-keyboard-response","31","63582","0.0-1.0-38.0","0","0","60640","","null","","","null","4","","","","","","","","","","","","","","","",""
"","ISI","","html-keyboard-response","32","64586","0.0-1.0-39.0","0","0","60640","","2","","","68","4","d","","","","","","","","","","","","","","",""
"","S2","","html-keyboard-response","33","64831","0.0-1.0-40.0","0","0","60640","","243","","","68","4","","d","1","4","training","adjacent","CD","3","4","O.jpg","P.jpg","1","1","1","",""
"","feedback","","html-keyboard-response","34","65834","0.0-1.0-42.0-0.0","0","0","60640","","null","","","null","4","","","","","","","","","","","","","","","",""
"","ITI","","html-keyboard-response","35","66838","0.0-1.0-45.0","0","0","60640","","null","","","null","4","","","","","","","","","","","","","","","NaN",""
"","S1","","html-keyboard-response","36","67090","0.0-1.0-47.0","0","0","60640","","null","","","null","5","","","","","","","","","","","","","","","",""
"","ISI","","html-keyboard-response","37","68092","0.0-1.0-48.0","0","0","60640","","null","","","null","5","NaN","","","","","","","","","","","","","","",""
"","S2","","html-keyboard-response","38","68356","0.0-1.0-49.0","0","0","60640","","null","","","null","5","","NaN","","","","","","","","","","","","","",""
"","response","","html-keyboard-response","39","68633","0.0-1.0-50.0-0.0","0","0","60640","","275","","","68","5","","","1","5","training","adjacent","BC","2","3","M.jpg","O.jpg","1","1","1","",""
"","feedback","","html-keyboard-response","40","69636","0.0-1.0-51.0-0.0","0","0","60640","","null","","","null","5","","","","","","","","","","","","","","","",""
"","ITI","","html-keyboard-response","41","70641","0.0-1.0-54.0","0","0","60640","","747","","","68","5","","","","","","","","","","","","","","","d",""
"","S1","","html-keyboard-response","42","70895","0.0-1.0-56.0","0","0","60640","","null","","","null","6","","","","","","","","","","","","","","","",""
"","ISI","","html-keyboard-response","43","71899","0.0-1.0-57.0","0","0","60640","","null","","","null","6","NaN","","","","","","","","","","","","","","",""
"","S2","","html-keyboard-response","44","72152","0.0-1.0-58.0","0","0","60640","","null","","","null","6","","NaN","","","","","","","","","","","","","",""
"","response","","html-keyboard-response","45","72471","0.0-1.0-59.0-0.0","0","0","60640","","318","","","68","6","","","1","6","training","adjacent","GF","7","6","N.jpg","L.jpg","1","0","0","",""
"","feedback","","html-keyboard-response","46","73474","0.0-1.0-60.0-0.0","0","0","60640","","null","","","null","6","","","","","","","","","","","","","","","",""
"","time_out","","html-keyboard-response","47","75476","0.0-1.0-62.0-0.0","0","0","60640","","null","","","null","6","","","","","","","","","","","","","","","",""
"","ITI","","html-keyboard-response","48","76479","0.0-1.0-63.0","0","0","60640","","null","","","null","6","","","","","","","","","","","","","","","NaN",""
"","S1","","html-keyboard-response","49","76733","0.0-1.0-65.0","0","0","60640","","null","","","null","7","","","","","","","","","","","","","","","",""
"","ISI","","html-keyboard-response","50","77735","0.0-1.0-66.0","0","0","60640","","8","","","68","7","d","","","","","","","","","","","","","","",""
"","S2","","html-keyboard-response","51","77839","0.0-1.0-67.0","0","0","60640","","101","","","75","7","","k","1","7","training","adjacent","FE","6","5","L.jpg","R.jpg","0","0","1","",""
"","feedback","","html-keyboard-response","52","78843","0.0-1.0-69.0-0.0","0","0","60640","","null","","","null","7","","","","","","","","","","","","","","","",""
"","ITI","","html-keyboard-response","53","79846","0.0-1.0-72.0","0","0","60640","","null","","","null","7","","","","","","","","","","","","","","","NaN",""
"","S1","","html-keyboard-response","54","80099","0.0-1.0-74.0","0","0","60640","","null","","","null","8","","","","","","","","","","","","","","","",""
"","ISI","","html-keyboard-response","55","81101","0.0-1.0-75.0","0","0","60640","","null","","","null","8","NaN","","","","","","","","","","","","","","",""
"","S2","","html-keyboard-response","56","81355","0.0-1.0-76.0","0","0","60640","","null","","","null","8","","NaN","","","","","","","","","","","","","",""
"","response","","html-keyboard-response","57","81410","0.0-1.0-77.0-0.0","0","0","60640","","52","","","68","8","","","1","8","training","adjacent","BC","2","3","M.jpg","O.jpg","1","1","1","",""
"","feedback","","html-keyboard-response","58","82430","0.0-1.0-78.0-0.0","0","0","60640","","null","","","null","8","","","","","","","","","","","","","","","",""
"","ITI","","html-keyboard-response","59","83434","0.0-1.0-81.0","0","0","60640","","null","","","null","8","","","","","","","","","","","","","","","NaN",""
"","S1","","html-keyboard-response","60","83687","0.0-1.0-83.0","0","0","60640","","null","","","null","9","","","","","","","","","","","","","","","",""
"","ISI","","html-keyboard-response","61","84690","0.0-1.0-84.0","0","0","60640","","null","","","null","9","NaN","","","","","","","","","","","","","","",""
"","S2","","html-keyboard-response","62","84945","0.0-1.0-85.0","0","0","60640","","null","","","null","9","","NaN","","","","","","","","","","","","","",""
"","response","","html-keyboard-response","63","85012","0.0-1.0-86.0-0.0","0","0","60640","","65","","","68","9","","","1","9","training","adjacent","AB","1","2","Q.jpg","M.jpg","1","1","1","",""
"","feedback","","html-keyboard-response","64","86015","0.0-1.0-87.0-0.0","0","0","60640","","null","","","null","9","","","","","","","","","","","","","","","",""
"","ITI","","html-keyboard-response","65","87020","0.0-1.0-90.0","0","0","60640","","null","","","null","9","","","","","","","","","","","","","","","NaN",""
"","S1","","html-keyboard-response","66","87274","0.0-1.0-92.0","0","0","60640","","null","","","null","10","","","","","","","","","","","","","","","",""
"","ISI","","html-keyboard-response","67","88277","0.0-1.0-93.0","0","0","60640","","310","","","75","10","k","","","","","","","","","","","","","","",""
"","S2","","html-keyboard-response","68","88531","0.0-1.0-94.0","0","0","60640","","null","","","null","10","","NaN","","","","","","","","","","","","","",""
"","response","","html-keyboard-response","69","89655","0.0-1.0-95.0-0.0","0","0","60640","","1121","","","75","10","","","1","10","training","adjacent","AB","1","2","Q.jpg","M.jpg","0","1","0","",""
"","feedback","","html-keyboard-response","70","90658","0.0-1.0-96.0-0.0","0","0","60640","","null","","","null","10","","","","","","","","","","","","","","","",""
"","time_out","","html-keyboard-response","71","92660","0.0-1.0-98.0-0.0","0","0","60640","","null","","","null","10","","","","","","","","","","","","","","","",""
"","ITI","","html-keyboard-response","72","93663","0.0-1.0-99.0","0","0","60640","","339","","","68","10","","","","","","","","","","","","","","","d",""
"","S1","","html-keyboard-response","73","93916","0.0-1.0-101.0","0","0","60640","","null","","","null","11","","","","","","","","","","","","","","","",""
"","ISI","","html-keyboard-response","74","94920","0.0-1.0-102.0","0","0","60640","","52","","","68","11","d","","","","","","","","","","","","","","",""
"","S2","","html-keyboard-response","75","95133","0.0-1.0-103.0","0","0","60640","","211","","","75","11","","k","1","11","training","adjacent","FG","6","7","L.jpg","N.jpg","0","1","0","",""
"","feedback","","html-keyboard-response","76","96136","0.0-1.0-105.0-0.0","0","0","60640","","null","","","null","11","","","","","","","","","","","","","","","",""
"","time_out","","html-keyboard-response","77","98139","0.0-1.0-107.0-0.0","0","0","60640","","null","","","null","11","","","","","","","","","","","","","","","",""
"","ITI","","html-keyboard-response","78","99142","0.0-1.0-108.0","0","0","60640","","173","","","68","11","","","","","","","","","","","","","","","d",""
"","S1","","html-keyboard-response","79","99407","0.0-1.0-110.0","0","0","60640","","null","","","null","12","","","","","","","","","","","","","","","",""
"","ISI","","html-keyboard-response","80","100414","0.0-1.0-111.0","0","0","60640","","null","","","null","12","NaN","","","","","","","","","","","","","","",""
"","S2","","html-keyboard-response","81","100543","0.0-1.0-112.0","0","0","60640","","127","","","68","12","","d","1","12","training","adjacent","BA","2","1","M.jpg","Q.jpg","1","0","0","",""
"","feedback","","html-keyboard-response","82","101546","0.0-1.0-114.0-0.0","0","0","60640","","null","","","null","12","","","","","","","","","","","","","","","",""
"","time_out","","html-keyboard-response","83","103550","0.0-1.0-116.0-0.0","0","0","60640","","null","","","null","12","","","","","","","","","","","","","","","",""
"","ITI","","html-keyboard-response","84","104552","0.0-1.0-117.0","0","0","60640","","632","","","68","12","","","","","","","","","","","","","","","d",""
"","S1","","html-keyboard-response","85","104803","0.0-1.0-119.0","0","0","60640","","null","","","null","13","","","","","","","","","","","","","","","",""
"","ISI","","html-keyboard-response","86","105808","0.0-1.0-120.0","0","0","60640","","56","","","68","13","d","","","","","","","","","","","","","","",""
"","S2","","html-keyboard-response","87","105875","0.0-1.0-121.0","0","0","60640","","64","","","68","13","","d","1","13","training","adjacent","FG","6","7","L.jpg","N.jpg","1","1","1","",""
"","feedback","","html-keyboard-response","88","106879","0.0-1.0-123.0-0.0","0","0","60640","","null","","","null","13","","","","","","","","","","","","","","","",""
"","ITI","","html-keyboard-response","89","107882","0.0-1.0-126.0","0","0","60640","","null","","","null","13","","","","","","","","","","","","","","","NaN",""
"","S1","","html-keyboard-response","90","108136","0.0-1.0-128.0","0","0","60640","","null","","","null","14","","","","","","","","","","","","","","","",""
"","ISI","","html-keyboard-response","91","109141","0.0-1.0-129.0","0","0","60640","","111","","","68","14","d","","","","","","","","","","","","","","",""
"","S2","","html-keyboard-response","92","109396","0.0-1.0-130.0","0","0","60640","","null","","","null","14","","NaN","","","","","","","","","","","","","",""
"","response","","html-keyboard-response","93","109594","0.0-1.0-131.0-0.0","0","0","60640","","196","","","68","14","","","1","14","training","adjacent","FG","6","7","L.jpg","N.jpg","1","1","1","",""
"","feedback","","html-keyboard-response","94","110597","0.0-1.0-132.0-0.0","0","0","60640","","null","","","null","14","","","","","","","","","","","","","","","",""
"","ITI","","html-keyboard-response","95","111599","0.0-1.0-135.0","0","0","60640","","275","","","68","14","","","","","","","","","","","","","","","d",""
"","S1","","html-keyboard-response","96","111852","0.0-1.0-137.0","0","0","60640","","null","","","null","15","","","","","","","","","","","","","","","",""
"","ISI","","html-keyboard-response","97","112854","0.0-1.0-138.0","0","0","60640","","null","","","null","15","NaN","","","","","","","","","","","","","","",""
"","S2","","html-keyboard-response","98","113107","0.0-1.0-139.0","0","0","60640","","null","","","null","15","","NaN","","","","","","","","","","","","","",""
"","response","","html-keyboard-response","99","113197","0.0-1.0-140.0-0.0","0","0","60640","","87","","","68","15","","","1","15","training","adjacent","ED","5","4","R.jpg","P.jpg","1","0","0","",""
"","feedback","","html-keyboard-response","100","114201","0.0-1.0-141.0-0.0","0","0","60640","","null","","","null","15","","","","","","","","","","","","","","","",""
"","time_out","","html-keyboard-response","101","116204","0.0-1.0-143.0-0.0","0","0","60640","","null","","","null","15","","","","","","","","","","","","","","","",""
"","ITI","","html-keyboard-response","102","117206","0.0-1.0-144.0","0","0","60640","","462","","","68","15","","","","","","","","","","","","","","","d",""
"","S1","","html-keyboard-response","103","117459","0.0-1.0-146.0","0","0","60640","","null","","","null","16","","","","","","","","","","","","","","","",""
"","ISI","","html-keyboard-response","104","118462","0.0-1.0-147.0","0","0","60640","","70","","","68","16","d","","","","","","","","","","","","","","",""
"","S2","","html-keyboard-response","105","118715","0.0-1.0-148.0","0","0","60640","","null","","","null","16","","NaN","","","","","","","","","","","","","",""
"","response","","html-keyboard-response","106","118726","0.0-1.0-149.0-0.0","0","0","60640","","11","","","68","16","","","1","16","training","adjacent","BA","2","1","M.jpg","Q.jpg","1","0","0","",""
"","feedback","","html-keyboard-response","107","119729","0.0-1.0-150.0-0.0","0","0","60640","","null","","","null","16","","","","","","","","","","","","","","","",""
"","time_out","","html-keyboard-response","108","121731","0.0-1.0-152.0-0.0","0","0","60640","","null","","","null","16","","","","","","","","","","","","","","","",""
"","ITI","","html-keyboard-response","109","122734","0.0-1.0-153.0","0","0","60640","","null","","","null","16","","","","","","","","","","","","","","","NaN",""
"","S1","","html-keyboard-response","110","122988","0.0-1.0-155.0","0","0","60640","","null","","","null","17","","","","","","","","","","","","","","","",""
"","ISI","","html-keyboard-response","111","123991","0.0-1.0-156.0","0","0","60640","","null","","","null","17","NaN","","","","","","","","","","","","","","",""
"","S2","","html-keyboard-response","112","124257","0.0-1.0-157.0","0","0","60640","","null","","","null","17","","NaN","","","","","","","","","","","","","",""
"","response","","html-keyboard-response","113","124610","0.0-1.0-158.0-0.0","0","0","60640","","351","","","68","17","","","1","17","training","adjacent","BA","2","1","M.jpg","Q.jpg","1","0","0","",""
"","feedback","","html-keyboard-response","114","125614","0.0-1.0-159.0-0.0","0","0","60640","","null","","","null","17","","","","","","","","","","","","","","","",""
"","time_out","","html-keyboard-response","115","127619","0.0-1.0-161.0-0.0","0","0","60640","","null","","","null","17","","","","","","","","","","","","","","","",""
"","ITI","","html-keyboard-response","116","128621","0.0-1.0-162.0","0","0","60640","","null","","","null","17","","","","","","","","","","","","","","","NaN",""
"","S1","","html-keyboard-response","117","128874","0.0-1.0-164.0","0","0","60640","","null","","","null","18","","","","","","","","","","","","","","","",""
"","ISI","","html-keyboard-response","118","129879","0.0-1.0-165.0","0","0","60640","","null","","","null","18","NaN","","","","","","","","","","","","","","",""
"","S2","","html-keyboard-response","119","129886","0.0-1.0-166.0","0","0","60640","","3","","","68","18","","d","1","18","training","adjacent","DE","4","5","P.jpg","R.jpg","1","1","1","",""
"","feedback","","html-keyboard-response","120","130890","0.0-1.0-168.0-0.0","0","0","60640","","null","","","null","18","","","","","","","","","","","","","","","",""
"","ITI","","html-keyboard-response","121","131894","0.0-1.0-171.0","0","0","60640","","null","","","null","18","","","","","","","","","","","","","","","NaN",""
"","S1","","html-keyboard-response","122","132147","0.0-1.0-173.0","0","0","60640","","null","","","null","19","","","","","","","","","","","","","","","",""
"","ISI","","html-keyboard-response","123","133150","0.0-1.0-174.0","0","0","60640","","null","","","null","19","NaN","","","","","","","","","","","","","","",""
"","S2","","html-keyboard-response","124","133405","0.0-1.0-175.0","0","0","60640","","null","","","null","19","","NaN","","","","","","","","","","","","","",""
"","response","","html-keyboard-response","125","133822","0.0-1.0-176.0-0.0","0","0","60640","","414","","","68","19","","","1","19","training","adjacent","DE","4","5","P.jpg","R.jpg","1","1","1","",""
"","feedback","","html-keyboard-response","126","134827","0.0-1.0-177.0-0.0","0","0","60640","","null","","","null","19","","","","","","","","","","","","","","","",""
"","ITI","","html-keyboard-response","127","135831","0.0-1.0-180.0","0","0","60640","","272","","","68","19","","","","","","","","","","","","","","","d",""
"","S1","","html-keyboard-response","128","136085","0.0-1.0-182.0","0","0","60640","","null","","","null","20","","","","","","","","","","","","","","","",""
"","ISI","","html-keyboard-response","129","137089","0.0-1.0-183.0","0","0","60640","","190","","","68","20","d","","","","","","","","","","","","","","",""
"","S2","","html-keyboard-response","130","137238","0.0-1.0-184.0","0","0","60640","","146","","","68","20","","d","1","20","training","adjacent","DC","4","3","P.jpg","O.jpg","1","0","0","",""
"","feedback","","html-keyboard-response","131","138241","0.0-1.0-186.0-0.0","0","0","60640","","null","","","null","20","","","","","","","","","","","","","","","",""
"","time_out","","html-keyboard-response","132","140245","0.0-1.0-188.0-0.0","0","0","60640","","null","","","null","20","","","","","","","","","","","","","","","",""
"","ITI","","html-keyboard-response","133","141248","0.0-1.0-189.0","0","0","60640","","153","","","68","20","","","","","","","","","","","","","","","d",""
"","S1","","html-keyboard-response","134","141501","0.0-1.0-191.0","0","0","60640","","null","","","null","21","","","","","","","","","","","","","","","",""
"","ISI","","html-keyboard-response","135","142504","0.0-1.0-192.0","0","0","60640","","281","","","68","21","d","","","","","","","","","","","","","","",""
"","S2","","html-keyboard-response","136","142758","0.0-1.0-193.0","0","0","60640","","null","","","null","21","","NaN","","","","","","","","","","","","","",""
"","response","","html-keyboard-response","137","142791","0.0-1.0-194.0-0.0","0","0","60640","","32","","","68","21","","","1","21","training","adjacent","BC","2","3","M.jpg","O.jpg","1","1","1","",""
"","feedback","","html-keyboard-response","138","143796","0.0-1.0-195.0-0.0","0","0","60640","","null","","","null","21","","","","","","","","","","","","","","","",""
"","ITI","","html-keyboard-response","139","144800","0.0-1.0-198.0","0","0","60640","","25","","","68","21","","","","","","","","","","","","","","","d",""
"","S1","","html-keyboard-response","140","145054","0.0-1.0-200.0","0","0","60640","","null","","","null","22","","","","","","","","","","","","","","","",""
"","ISI","","html-keyboard-response","141","146057","0.0-1.0-201.0","0","0","60640","","29","","","68","22","d","","","","","","","","","","","","","","",""
"","S2","","html-keyboard-response","142","146308","0.0-1.0-202.0","0","0","60640","","null","","","null","22","","NaN","","","","","","","","","","","","","",""
"","response","","html-keyboard-response","143","146631","0.0-1.0-203.0-0.0","0","0","60640","","322","","","68","22","","","1","22","training","adjacent","DC","4","3","P.jpg","O.jpg","1","0","0","",""
"","feedback","","html-keyboard-response","144","147633","0.0-1.0-204.0-0.0","0","0","60640","","null","","","null","22","","","","","","","","","","","","","","","",""
"","time_out","","html-keyboard-response","145","149637","0.0-1.0-206.0-0.0","0","0","60640","","null","","","null","22","","","","","","","","","","","","","","","",""
"","ITI","","html-keyboard-response","146","150642","0.0-1.0-207.0","0","0","60640","","158","","","68","22","","","","","","","","","","","","","","","d",""
"","S1","","html-keyboard-response","147","150895","0.0-1.0-209.0","0","0","60640","","null","","","null","23","","","","","","","","","","","","","","","",""
"","ISI","","html-keyboard-response","148","151898","0.0-1.0-210.0","0","0","60640","","338","","","68","23","d","","","","","","","","","","","","","","",""
"","S2","","html-keyboard-response","149","152152","0.0-1.0-211.0","0","0","60640","","null","","","null","23","","NaN","","","","","","","","","","","","","",""
"","response","","html-keyboard-response","150","152359","0.0-1.0-212.0-0.0","0","0","60640","","203","","","68","23","","","1","23","training","adjacent","DE","4","5","P.jpg","R.jpg","1","1","1","",""
"","feedback","","html-keyboard-response","151","153362","0.0-1.0-213.0-0.0","0","0","60640","","null","","","null","23","","","","","","","","","","","","","","","",""
"","ITI","","html-keyboard-response","152","154370","0.0-1.0-216.0","0","0","60640","","375","","","68","23","","","","","","","","","","","","","","","d",""
"","S1","","html-keyboard-response","153","154622","0.0-1.0-218.0","0","0","60640","","null","","","null","24","","","","","","","","","","","","","","","",""
"","ISI","","html-keyboard-response","154","155623","0.0-1.0-219.0","0","0","60640","","273","","","68","24","d","","","","","","","","","","","","","","",""
"","S2","","html-keyboard-response","155","155876","0.0-1.0-220.0","0","0","60640","","null","","","null","24","","NaN","","","","","","","","","","","","","",""
"","response","","html-keyboard-response","156","155889","0.0-1.0-221.0-0.0","0","0","60640","","11","","","68","24","","","1","24","training","adjacent","FE","6","5","L.jpg","R.jpg","1","0","0","",""
"","feedback","","html-keyboard-response","157","156893","0.0-1.0-222.0-0.0","0","0","60640","","null","","","null","24","","","","","","","","","","","","","","","",""
"","time_out","","html-keyboard-response","158","158897","0.0-1.0-224.0-0.0","0","0","60640","","null","","","null","24","","","","","","","","","","","","","","","",""
"","ITI","","html-keyboard-response","159","159900","0.0-1.0-225.0","0","0","60640","","79","","","68","24","","","","","","","","","","","","","","","d",""
"","S1","","html-keyboard-response","160","160155","0.0-1.0-227.0","0","0","60640","","null","","","null","25","","","","","","","","","","","","","","","",""
"","ISI","","html-keyboard-response","161","161159","0.0-1.0-228.0","0","0","60640","","70","","","68","25","d","","","","","","","","","","","","","","",""
"","S2","","html-keyboard-response","162","161413","0.0-1.0-229.0","0","0","60640","","null","","","null","25","","NaN","","","","","","","","","","","","","",""
"","response","","html-keyboard-response","163","161490","0.0-1.0-230.0-0.0","0","0","60640","","75","","","68","25","","","1","25","training","adjacent","ED","5","4","R.jpg","P.jpg","1","0","0","",""
"","feedback","","html-keyboard-response","164","162495","0.0-1.0-231.0-0.0","0","0","60640","","null","","","null","25","","","","","","","","","","","","","","","",""
"","time_out","","html-keyboard-response","165","164498","0.0-1.0-233.0-0.0","0","0","60640","","null","","","null","25","","","","","","","","","","","","","","","",""
"","ITI","","html-keyboard-response","166","165501","0.0-1.0-234.0","0","0","60640","","603","","","75","25","","","","","","","","","","","","","","","k",""
"","S1","","html-keyboard-response","167","165755","0.0-1.0-236.0","0","0","60640","","null","","","null","26","","","","","","","","","","","","","","","",""
"","ISI","","html-keyboard-response","168","166757","0.0-1.0-237.0","0","0","60640","","11","","","75","26","k","","","","","","","","","","","","","","",""
"","S2","","html-keyboard-response","169","167010","0.0-1.0-238.0","0","0","60640","","null","","","null","26","","NaN","","","","","","","","","","","","","",""
"","response","","html-keyboard-response","170","167122","0.0-1.0-239.0-0.0","0","0","60640","","111","","","75","26","","","1","26","training","adjacent","DC","4","3","P.jpg","O.jpg","0","0","1","",""
"","feedback","","html-keyboard-response","171","168125","0.0-1.0-240.0-0.0","0","0","60640","","null","","","null","26","","","","","","","","","","","","","","","",""
"","ITI","","html-keyboard-response","172","169129","0.0-1.0-243.0","0","0","60640","","309","","","75","26","","","","","","","","","","","","","","","k",""
"","S1","","html-keyboard-response","173","169388","0.0-1.0-245.0","0","0","60640","","null","","","null","27","","","","","","","","","","","","","","","",""
"","ISI","","html-keyboard-response","174","170392","0.0-1.0-246.0","0","0","60640","","624","","","68","27","d","","","","","","","","","","","","","","",""
"","S2","","html-keyboard-response","175","170438","0.0-1.0-247.0","0","0","60640","","43","","","68","27","","d","1","27","training","adjacent","GF","7","6","N.jpg","L.jpg","1","0","0","",""
"","feedback","","html-keyboard-response","176","171440","0.0-1.0-249.0-0.0","0","0","60640","","null","","","null","27","","","","","","","","","","","","","","","",""
"","time_out","","html-keyboard-response","177","173442","0.0-1.0-251.0-0.0","0","0","60640","","null","","","null","27","","","","","","","","","","","","","","","",""
"","ITI","","html-keyboard-response","178","174444","0.0-1.0-252.0","0","0","60640","","2","","","68","27","","","","","","","","","","","","","","","d",""
"","S1","","html-keyboard-response","179","174697","0.0-1.0-254.0","0","0","60640","","null","","","null","28","","","","","","","","","","","","","","","",""
"","ISI","","html-keyboard-response","180","175699","0.0-1.0-255.0","0","0","60640","","null","","","null","28","NaN","","","","","","","","","","","","","","",""
"","S2","","html-keyboard-response","181","175953","0.0-1.0-256.0","0","0","60640","","null","","","null","28","","NaN","","","","","","","","","","","","","",""
"","response","","html-keyboard-response","182","177705","0.0-1.0-257.0-0.0","0","0","60640","","null","","","null","28","","","1","28","training","adjacent","EF","5","6","R.jpg","L.jpg","NaN","1","0","",""
"","too_slow_prompt","","html-keyboard-response","183","178707","0.0-1.0-259.0-0.0","1","0","60640","","null","","","null","","","","","","","","","","","","","","","","",""
"","time_out","","html-keyboard-response","184","180709","0.0-1.0-260.0-0.0","0","0","60640","","null","","","null","28","","","","","","","","","","","","","","","",""
"","ITI","","html-keyboard-response","185","181711","0.0-1.0-261.0","0","0","60640","","null","","","null","28","","","","","","","","","","","","","","","NaN",""
"","S1","","html-keyboard-response","186","181963","0.0-1.0-263.0","0","0","60640","","null","","","null","29","","","","","","","","","","","","","","","",""
"","ISI","","html-keyboard-response","187","182965","0.0-1.0-264.0","0","0","60640","","null","","","null","29","NaN","","","","","","","","","","","","","","",""
"","S2","","html-keyboard-response","188","183217","0.0-1.0-265.0","0","0","60640","","null","","","null","29","","NaN","","","","","","","","","","","","","",""
"","response","","html-keyboard-response","189","183517","0.0-1.0-266.0-0.0","0","0","60640","","299","","","68","29","","","1","29","training","adjacent","ED","5","4","R.jpg","P.jpg","1","0","0","",""
"","feedback","","html-keyboard-response","190","184521","0.0-1.0-267.0-0.0","0","0","60640","","null","","","null","29","","","","","","","","","","","","","","","",""
"","time_out","","html-keyboard-response","191","186525","0.0-1.0-269.0-0.0","0","0","60640","","null","","","null","29","","","","","","","","","","","","","","","",""
"","ITI","","html-keyboard-response","192","187529","0.0-1.0-270.0","0","0","60640","","67","","","75","29","","","","","","","","","","","","","","","k",""
"","S1","","html-keyboard-response","193","187783","0.0-1.0-272.0","0","0","60640","","null","","","null","30","","","","","","","","","","","","","","","",""
"","ISI","","html-keyboard-response","194","188786","0.0-1.0-273.0","0","0","60640","","17","","","68","30","d","","","","","","","","","","","","","","",""
"","S2","","html-keyboard-response","195","189009","0.0-1.0-274.0","0","0","60640","","221","","","68","30","","d","1","30","training","adjacent","ED","5","4","R.jpg","P.jpg","1","0","0","",""
"","feedback","","html-keyboard-response","196","190012","0.0-1.0-276.0-0.0","0","0","60640","","null","","","null","30","","","","","","","","","","","","","","","",""
"","time_out","","html-keyboard-response","197","192013","0.0-1.0-278.0-0.0","0","0","60640","","null","","","null","30","","","","","","","","","","","","","","","",""
"","ITI","","html-keyboard-response","198","193015","0.0-1.0-279.0","0","0","60640","","121","","","75","30","","","","","","","","","","","","","","","k",""
"","S1","","html-keyboard-response","199","193267","0.0-1.0-281.0","0","0","60640","","null","","","null","31","","","","","","","","","","","","","","","",""
"","ISI","","html-keyboard-response","200","194271","0.0-1.0-282.0","0","0","60640","","689","","","68","31","d","","","","","","","","","","","","","","",""
"","S2","","html-keyboard-response","201","194525","0.0-1.0-283.0","0","0","60640","","null","","","null","31","","NaN","","","","","","","","","","","","","",""
"","response","","html-keyboard-response","202","194962","0.0-1.0-284.0-0.0","0","0","60640","","435","","","68","31","","","1","31","training","adjacent","BA","2","1","M.jpg","Q.jpg","1","0","0","",""
"","feedback","","html-keyboard-response","203","195966","0.0-1.0-285.0-0.0","0","0","60640","","null","","","null","31","","","","","","","","","","","","","","","",""
"","time_out","","html-keyboard-response","204","197972","0.0-1.0-287.0-0.0","0","0","60640","","null","","","null","31","","","","","","","","","","","","","","","",""
"","ITI","","html-keyboard-response","205","198974","0.0-1.0-288.0","0","0","60640","","310","","","68","31","","","","","","","","","","","","","","","d",""
"","S1","","html-keyboard-response","206","199228","0.0-1.0-290.0","0","0","60640","","null","","","null","32","","","","","","","","","","","","","","","",""
"","ISI","","html-keyboard-response","207","200232","0.0-1.0-291.0","0","0","60640","","245","","","68","32","d","","","","","","","","","","","","","","",""
"","S2","","html-keyboard-response","208","200445","0.0-1.0-292.0","0","0","60640","","210","","","68","32","","d","1","32","training","adjacent","BC","2","3","M.jpg","O.jpg","1","1","1","",""
"","feedback","","html-keyboard-response","209","201455","0.0-1.0-294.0-0.0","0","0","60640","","null","","","null","32","","","","","","","","","","","","","","","",""
"","ITI","","html-keyboard-response","210","202458","0.0-1.0-297.0","0","0","60640","","179","","","75","32","","","","","","","","","","","","","","","k",""
"","S1","","html-keyboard-response","211","202711","0.0-1.0-299.0","0","0","60640","","null","","","null","33","","","","","","","","","","","","","","","",""
"","ISI","","html-keyboard-response","212","203712","0.0-1.0-300.0","0","0","60640","","1","","","75","33","k","","","","","","","","","","","","","","",""
"","S2","","html-keyboard-response","213","203966","0.0-1.0-301.0","0","0","60640","","null","","","null","33","","NaN","","","","","","","","","","","","","",""
"","response","","html-keyboard-response","214","204489","0.0-1.0-302.0-0.0","0","0","60640","","520","","","68","33","","","1","33","training","adjacent","CB","3","2","O.jpg","M.jpg","1","0","0","",""
"","feedback","","html-keyboard-response","215","205492","0.0-1.0-303.0-0.0","0","0","60640","","null","","","null","33","","","","","","","","","","","","","","","",""
"","time_out","","html-keyboard-response","216","207495","0.0-1.0-305.0-0.0","0","0","60640","","null","","","null","33","","","","","","","","","","","","","","","",""
"","ITI","","html-keyboard-response","217","208497","0.0-1.0-306.0","0","0","60640","","696","","","75","33","","","","","","","","","","","","","","","k",""
"","S1","","html-keyboard-response","218","208749","0.0-1.0-308.0","0","0","60640","","null","","","null","34","","","","","","","","","","","","","","","",""
"","ISI","","html-keyboard-response","219","209752","0.0-1.0-309.0","0","0","60640","","293","","","68","34","d","","","","","","","","","","","","","","",""
"","S2","","html-keyboard-response","220","209956","0.0-1.0-310.0","0","0","60640","","200","","","68","34","","d","1","34","training","adjacent","EF","5","6","R.jpg","L.jpg","1","1","1","",""
"","feedback","","html-keyboard-response","221","210961","0.0-1.0-312.0-0.0","0","0","60640","","null","","","null","34","","","","","","","","","","","","","","","",""
"","ITI","","html-keyboard-response","222","211964","0.0-1.0-315.0","0","0","60640","","526","","","75","34","","","","","","","","","","","","","","","k",""
"","S1","","html-keyboard-response","223","212218","0.0-1.0-317.0","0","0","60640","","null","","","null","35","","","","","","","","","","","","","","","",""
"","ISI","","html-keyboard-response","224","213222","0.0-1.0-318.0","0","0","60640","","775","","","68","35","d","","","","","","","","","","","","","","",""
"","S2","","html-keyboard-response","225","213475","0.0-1.0-319.0","0","0","60640","","null","","","null","35","","NaN","","","","","","","","","","","","","",""
"","response","","html-keyboard-response","226","213526","0.0-1.0-320.0-0.0","0","0","60640","","48","","","68","35","","","1","35","training","adjacent","FE","6","5","L.jpg","R.jpg","1","0","0","",""
"","feedback","","html-keyboard-response","227","214530","0.0-1.0-321.0-0.0","0","0","60640","","null","","","null","35","","","","","","","","","","","","","","","",""
"","time_out","","html-keyboard-response","228","216533","0.0-1.0-323.0-0.0","0","0","60640","","null","","","null","35","","","","","","","","","","","","","","","",""
"","ITI","","html-keyboard-response","229","217535","0.0-1.0-324.0","0","0","60640","","null","","","null","35","","","","","","","","","","","","","","","NaN",""
"","S1","","html-keyboard-response","230","217789","0.0-1.0-326.0","0","0","60640","","null","","","null","36","","","","","","","","","","","","","","","",""
"","ISI","","html-keyboard-response","231","218792","0.0-1.0-327.0","0","0","60640","","89","","","68","36","d","","","","","","","","","","","","","","",""
"","S2","","html-keyboard-response","232","218837","0.0-1.0-328.0","0","0","60640","","43","","","68","36","","d","1","36","training","adjacent","CB","3","2","O.jpg","M.jpg","1","0","0","",""
"","feedback","","html-keyboard-response","233","219841","0.0-1.0-330.0-0.0","0","0","60640","","null","","","null","36","","","","","","","","","","","","","","","",""
"","time_out","","html-keyboard-response","234","221844","0.0-1.0-332.0-0.0","0","0","60640","","null","","","null","36","","","","","","","","","","","","","","","",""
"","ITI","","html-keyboard-response","235","222847","0.0-1.0-333.0","0","0","60640","","96","","","75","36","","","","","","","","","","","","","","","k",""
"","S1","","html-keyboard-response","236","223101","0.0-1.0-335.0","0","0","60640","","null","","","null","37","","","","","","","","","","","","","","","",""
"","ISI","","html-keyboard-response","237","224104","0.0-1.0-336.0","0","0","60640","","85","","","75","37","k","","","","","","","","","","","","","","",""
"","S2","","html-keyboard-response","238","224243","0.0-1.0-337.0","0","0","60640","","136","","","68","37","","d","1","37","training","adjacent","CD","3","4","O.jpg","P.jpg","1","1","1","",""
"","feedback","","html-keyboard-response","239","225248","0.0-1.0-339.0-0.0","0","0","60640","","null","","","null","37","","","","","","","","","","","","","","","",""
"","ITI","","html-keyboard-response","240","226252","0.0-1.0-342.0","0","0","60640","","151","","","75","37","","","","","","","","","","","","","","","k",""
"","S1","","html-keyboard-response","241","226506","0.0-1.0-344.0","0","0","60640","","null","","","null","38","","","","","","","","","","","","","","","",""
"","ISI","","html-keyboard-response","242","227508","0.0-1.0-345.0","0","0","60640","","98","","","68","38","d","","","","","","","","","","","","","","",""
"","S2","","html-keyboard-response","243","227760","0.0-1.0-346.0","0","0","60640","","null","","","null","38","","NaN","","","","","","","","","","","","","",""
"","response","","html-keyboard-response","244","227795","0.0-1.0-347.0-0.0","0","0","60640","","32","","","68","38","","","1","38","training","adjacent","AB","1","2","Q.jpg","M.jpg","1","1","1","",""
"","feedback","","html-keyboard-response","245","228799","0.0-1.0-348.0-0.0","0","0","60640","","null","","","null","38","","","","","","","","","","","","","","","",""
"","ITI","","html-keyboard-response","246","229802","0.0-1.0-351.0","0","0","60640","","271","","","68","38","","","","","","","","","","","","","","","d",""
"","S1","","html-keyboard-response","247","230057","0.0-1.0-353.0","0","0","60640","","null","","","null","39","","","","","","","","","","","","","","","",""
"","ISI","","html-keyboard-response","248","231060","0.0-1.0-354.0","0","0","60640","","28","","","75","39","k","","","","","","","","","","","","","","",""
"","S2","","html-keyboard-response","249","231194","0.0-1.0-355.0","0","0","60640","","130","","","75","39","","k","1","39","training","adjacent","FG","6","7","L.jpg","N.jpg","0","1","0","",""
"","feedback","","html-keyboard-response","250","232198","0.0-1.0-357.0-0.0","0","0","60640","","null","","","null","39","","","","","","","","","","","","","","","",""
"","time_out","","html-keyboard-response","251","234202","0.0-1.0-359.0-0.0","0","0","60640","","null","","","null","39","","","","","","","","","","","","","","","",""
"","ITI","","html-keyboard-response","252","235205","0.0-1.0-360.0","0","0","60640","","44","","","68","39","","","","","","","","","","","","","","","d",""
"","S1","","html-keyboard-response","253","235457","0.0-1.0-362.0","0","0","60640","","null","","","null","40","","","","","","","","","","","","","","","",""
"","ISI","","html-keyboard-response","254","236474","0.0-1.0-363.0","0","0","60640","","94","","","68","40","d","","","","","","","","","","","","","","",""
"","S2","","html-keyboard-response","255","236514","0.0-1.0-364.0","0","0","60640","","37","","","68","40","","d","1","40","training","adjacent","EF","5","6","R.jpg","L.jpg","1","1","1","",""
"","feedback","","html-keyboard-response","256","237519","0.0-1.0-366.0-0.0","0","0","60640","","null","","","null","40","","","","","","","","","","","","","","","",""
"","ITI","","html-keyboard-response","257","238524","0.0-1.0-369.0","0","0","60640","","39","","","68","40","","","","","","","","","","","","","","","d",""
"","S1","","html-keyboard-response","258","238779","0.0-1.0-371.0","0","0","60640","","null","","","null","41","","","","","","","","","","","","","","","",""
"","ISI","","html-keyboard-response","259","239782","0.0-1.0-372.0","0","0","60640","","19","","","68","41","d","","","","","","","","","","","","","","",""
"","S2","","html-keyboard-response","260","239939","0.0-1.0-373.0","0","0","60640","","155","","","68","41","","d","1","41","training","adjacent","AB","1","2","Q.jpg","M.jpg","1","1","1","",""
"","feedback","","html-keyboard-response","261","240943","0.0-1.0-375.0-0.0","0","0","60640","","null","","","null","41","","","","","","","","","","","","","","","",""
"","ITI","","html-keyboard-response","262","241946","0.0-1.0-378.0","0","0","60640","","53","","","68","41","","","","","","","","","","","","","","","d",""
"","S1","","html-keyboard-response","263","242199","0.0-1.0-380.0","0","0","60640","","null","","","null","42","","","","","","","","","","","","","","","",""
"","ISI","","html-keyboard-response","264","243203","0.0-1.0-381.0","0","0","60640","","74","","","68","42","d","","","","","","","","","","","","","","",""
"","S2","","html-keyboard-response","265","243386","0.0-1.0-382.0","0","0","60640","","178","","","68","42","","d","1","42","training","adjacent","DC","4","3","P.jpg","O.jpg","1","0","0","",""
"","feedback","","html-keyboard-response","266","244391","0.0-1.0-384.0-0.0","0","0","60640","","null","","","null","42","","","","","","","","","","","","","","","",""
"","time_out","","html-keyboard-response","267","246408","0.0-1.0-386.0-0.0","0","0","60640","","null","","","null","42","","","","","","","","","","","","","","","",""
"","ITI","","html-keyboard-response","268","247411","0.0-1.0-387.0","0","0","60640","","775","","","75","42","","","","","","","","","","","","","","","k",""
"","S1","","html-keyboard-response","269","247665","0.0-1.0-389.0","0","0","60640","","null","","","null","43","","","","","","","","","","","","","","","",""
"","ISI","","html-keyboard-response","270","248670","0.0-1.0-390.0","0","0","60640","","328","","","68","43","d","","","","","","","","","","","","","","",""
"","S2","","html-keyboard-response","271","248703","0.0-1.0-391.0","0","0","60640","","32","","","68","43","","d","1","43","training","adjacent","EF","5","6","R.jpg","L.jpg","1","1","1","",""
"","feedback","","html-keyboard-response","272","249707","0.0-1.0-393.0-0.0","0","0","60640","","null","","","null","43","","","","","","","","","","","","","","","",""
"","ITI","","html-keyboard-response","273","250710","0.0-1.0-396.0","0","0","60640","","146","","","68","43","","","","","","","","","","","","","","","d",""
"","S1","","html-keyboard-response","274","250963","0.0-1.0-398.0","0","0","60640","","null","","","null","44","","","","","","","","","","","","","","","",""
"","ISI","","html-keyboard-response","275","251966","0.0-1.0-399.0","0","0","60640","","30","","","68","44","d","","","","","","","","","","","","","","",""
"","S2","","html-keyboard-response","276","252085","0.0-1.0-400.0","0","0","60640","","115","","","68","44","","d","1","44","training","adjacent","CD","3","4","O.jpg","P.jpg","1","1","1","",""
"","feedback","","html-keyboard-response","277","253090","0.0-1.0-402.0-0.0","0","0","60640","","null","","","null","44","","","","","","","","","","","","","","","",""
"","ITI","","html-keyboard-response","278","254094","0.0-1.0-405.0","0","0","60640","","142","","","68","44","","","","","","","","","","","","","","","d",""
"","S1","","html-keyboard-response","279","254348","0.0-1.0-407.0","0","0","60640","","null","","","null","45","","","","","","","","","","","","","","","",""
"","ISI","","html-keyboard-response","280","255352","0.0-1.0-408.0","0","0","60640","","54","","","75","45","k","","","","","","","","","","","","","","",""
"","S2","","html-keyboard-response","281","255382","0.0-1.0-409.0","0","0","60640","","29","","","68","45","","d","1","45","training","adjacent","CB","3","2","O.jpg","M.jpg","1","0","0","",""
"","feedback","","html-keyboard-response","282","256384","0.0-1.0-411.0-0.0","0","0","60640","","null","","","null","45","","","","","","","","","","","","","","","",""
"","time_out","","html-keyboard-response","283","258388","0.0-1.0-413.0-0.0","0","0","60640","","null","","","null","45","","","","","","","","","","","","","","","",""
"","ITI","","html-keyboard-response","284","259393","0.0-1.0-414.0","0","0","60640","","32","","","75","45","","","","","","","","","","","","","","","k",""
"","S1","","html-keyboard-response","285","259647","0.0-1.0-416.0","0","0","60640","","null","","","null","46","","","","","","","","","","","","","","","",""
"","ISI","","html-keyboard-response","286","260650","0.0-1.0-417.0","0","0","60640","","196","","","68","46","d","","","","","","","","","","","","","","",""
"","S2","","html-keyboard-response","287","260798","0.0-1.0-418.0","0","0","60640","","146","","","68","46","","d","1","46","training","adjacent","CB","3","2","O.jpg","M.jpg","1","0","0","",""
"","feedback","","html-keyboard-response","288","261799","0.0-1.0-420.0-0.0","0","0","60640","","null","","","null","46","","","","","","","","","","","","","","","",""
"","time_out","","html-keyboard-response","289","263801","0.0-1.0-422.0-0.0","0","0","60640","","null","","","null","46","","","","","","","","","","","","","","","",""
"","ITI","","html-keyboard-response","290","264803","0.0-1.0-423.0","0","0","60640","","194","","","68","46","","","","","","","","","","","","","","","d",""
"","S1","","html-keyboard-response","291","265055","0.0-1.0-425.0","0","0","60640","","null","","","null","47","","","","","","","","","","","","","","","",""
"","ISI","","html-keyboard-response","292","266057","0.0-1.0-426.0","0","0","60640","","73","","","68","47","d","","","","","","","","","","","","","","",""
"","S2","","html-keyboard-response","293","266155","0.0-1.0-427.0","0","0","60640","","96","","","68","47","","d","1","47","training","adjacent","DE","4","5","P.jpg","R.jpg","1","1","1","",""
"","feedback","","html-keyboard-response","294","267158","0.0-1.0-429.0-0.0","0","0","60640","","null","","","null","47","","","","","","","","","","","","","","","",""
"","ITI","","html-keyboard-response","295","268161","0.0-1.0-432.0","0","0","60640","","33","","","68","47","","","","","","","","","","","","","","","d",""
"","block_over","","html-keyboard-response","296","289841","0.0-1.0-433.0-0.0","0","0","60640","","21676","","","32","47","","","","","","","","","","","","","","","",""
"","S1","","html-keyboard-response","297","290092","0.0-1.0-434.0","0","0","60640","","null","","","null","48","","","","","","","","","","","","","","","",""
"","ISI","","html-keyboard-response","298","291095","0.0-1.0-435.0","0","0","60640","","159","","","75","48","k","","","","","","","","","","","","","","",""
"","S2","","html-keyboard-response","299","291176","0.0-1.0-436.0","0","0","60640","","77","","","68","48","","d","2","48","training","adjacent","DC","4","3","P.jpg","O.jpg","1","0","0","",""
"","feedback","","html-keyboard-response","300","292179","0.0-1.0-438.0-0.0","0","0","60640","","null","","","null","48","","","","","","","","","","","","","","","",""
"","time_out","","html-keyboard-response","301","294182","0.0-1.0-440.0-0.0","0","0","60640","","null","","","null","48","","","","","","","","","","","","","","","",""
"","ITI","","html-keyboard-response","302","295185","0.0-1.0-441.0","0","0","60640","","220","","","68","48","","","","","","","","","","","","","","","d",""
"","S1","","html-keyboard-response","303","295438","0.0-1.0-443.0","0","0","60640","","null","","","null","49","","","","","","","","","","","","","","","",""
"","ISI","","html-keyboard-response","304","296441","0.0-1.0-444.0","0","0","60640","","54","","","68","49","d","","","","","","","","","","","","","","",""
"","S2","","html-keyboard-response","305","296522","0.0-1.0-445.0","0","0","60640","","77","","","68","49","","d","2","49","training","adjacent","EF","5","6","R.jpg","L.jpg","1","1","1","",""
"","feedback","","html-keyboard-response","306","297527","0.0-1.0-447.0-0.0","0","0","60640","","null","","","null","49","","","","","","","","","","","","","","","",""
"","ITI","","html-keyboard-response","307","298531","0.0-1.0-450.0","0","0","60640","","242","","","68","49","","","","","","","","","","","","","","","d",""
"","S1","","html-keyboard-response","308","298785","0.0-1.0-452.0","0","0","60640","","null","","","null","50","","","","","","","","","","","","","","","",""
"","ISI","","html-keyboard-response","309","299788","0.0-1.0-453.0","0","0","60640","","101","","","75","50","k","","","","","","","","","","","","","","",""
"","S2","","html-keyboard-response","310","299886","0.0-1.0-454.0","0","0","60640","","96","","","68","50","","d","2","50","training","adjacent","GF","7","6","N.jpg","L.jpg","1","0","0","",""
"","feedback","","html-keyboard-response","311","300888","0.0-1.0-456.0-0.0","0","0","60640","","null","","","null","50","","","","","","","","","","","","","","","",""
"","time_out","","html-keyboard-response","312","302890","0.0-1.0-458.0-0.0","0","0","60640","","null","","","null","50","","","","","","","","","","","","","","","",""
"","ITI","","html-keyboard-response","313","303893","0.0-1.0-459.0","0","0","60640","","113","","","68","50","","","","","","","","","","","","","","","d",""
"","S1","","html-keyboard-response","314","304145","0.0-1.0-461.0","0","0","60640","","null","","","null","51","","","","","","","","","","","","","","","",""
"","ISI","","html-keyboard-response","315","305149","0.0-1.0-462.0","0","0","60640","","93","","","75","51","k","","","","","","","","","","","","","","",""
"","S2","","html-keyboard-response","316","305174","0.0-1.0-463.0","0","0","60640","","23","","","68","51","","d","2","51","training","adjacent","DC","4","3","P.jpg","O.jpg","1","0","0","",""
"","feedback","","html-keyboard-response","317","306178","0.0-1.0-465.0-0.0","0","0","60640","","null","","","null","51","","","","","","","","","","","","","","","",""
"","time_out","","html-keyboard-response","318","308182","0.0-1.0-467.0-0.0","0","0","60640","","null","","","null","51","","","","","","","","","","","","","","","",""
"","ITI","","html-keyboard-response","319","309187","0.0-1.0-468.0","0","0","60640","","7","","","68","51","","","","","","","","","","","","","","","d",""
"","S1","","html-keyboard-response","320","309440","0.0-1.0-470.0","0","0","60640","","null","","","null","52","","","","","","","","","","","","","","","",""
"","ISI","","html-keyboard-response","321","310444","0.0-1.0-471.0","0","0","60640","","253","","","68","52","d","","","","","","","","","","","","","","",""
"","S2","","html-keyboard-response","322","310661","0.0-1.0-472.0","0","0","60640","","214","","","68","52","","d","2","52","training","adjacent","CB","3","2","O.jpg","M.jpg","1","0","0","",""
"","feedback","","html-keyboard-response","323","311668","0.0-1.0-474.0-0.0","0","0","60640","","null","","","null","52","","","","","","","","","","","","","","","",""
"","time_out","","html-keyboard-response","324","313669","0.0-1.0-476.0-0.0","0","0","60640","","null","","","null","52","","","","","","","","","","","","","","","",""
"","ITI","","html-keyboard-response","325","314671","0.0-1.0-477.0","0","0","60640","","82","","","68","52","","","","","","","","","","","","","","","d",""
"","S1","","html-keyboard-response","326","314923","0.0-1.0-479.0","0","0","60640","","null","","","null","53","","","","","","","","","","","","","","","",""
"","ISI","","html-keyboard-response","327","315924","0.0-1.0-480.0","0","0","60640","","12","","","75","53","k","","","","","","","","","","","","","","",""
"","S2","","html-keyboard-response","328","315932","0.0-1.0-481.0","0","0","60640","","8","","","68","53","","d","2","53","training","adjacent","AB","1","2","Q.jpg","M.jpg","1","1","1","",""
"","feedback","","html-keyboard-response","329","316934","0.0-1.0-483.0-0.0","0","0","60640","","null","","","null","53","","","","","","","","","","","","","","","",""
"","ITI","","html-keyboard-response","330","317936","0.0-1.0-486.0","0","0","60640","","41","","","68","53","","","","","","","","","","","","","","","d",""
"","S1","","html-keyboard-response","331","318189","0.0-1.0-488.0","0","0","60640","","null","","","null","54","","","","","","","","","","","","","","","",""
"","ISI","","html-keyboard-response","332","319193","0.0-1.0-489.0","0","0","60640","","148","","","75","54","k","","","","","","","","","","","","","","",""
"","S2","","html-keyboard-response","333","319381","0.0-1.0-490.0","0","0","60640","","186","","","68","54","","d","2","54","training","adjacent","CD","3","4","O.jpg","P.jpg","1","1","1","",""
"","feedback","","html-keyboard-response","334","320384","0.0-1.0-492.0-0.0","0","0","60640","","null","","","null","54","","","","","","","","","","","","","","","",""
"","ITI","","html-keyboard-response","335","321387","0.0-1.0-495.0","0","0","60640","","12","","","75","54","","","","","","","","","","","","","","","k",""
"","S1","","html-keyboard-response","336","321643","0.0-1.0-497.0","0","0","60640","","null","","","null","55","","","","","","","","","","","","","","","",""
"","ISI","","html-keyboard-response","337","322645","0.0-1.0-498.0","0","0","60640","","256","","","68","55","d","","","","","","","","","","","","","","",""
"","S2","","html-keyboard-response","338","322725","0.0-1.0-499.0","0","0","60640","","77","","","68","55","","d","2","55","training","adjacent","CD","3","4","O.jpg","P.jpg","1","1","1","",""
"","feedback","","html-keyboard-response","339","323727","0.0-1.0-501.0-0.0","0","0","60640","","null","","","null","55","","","","","","","","","","","","","","","",""
"","ITI","","html-keyboard-response","340","324729","0.0-1.0-504.0","0","0","60640","","250","","","68","55","","","","","","","","","","","","","","","d",""
"","S1","","html-keyboard-response","341","324981","0.0-1.0-506.0","0","0","60640","","null","","","null","56","","","","","","","","","","","","","","","",""
"","ISI","","html-keyboard-response","342","325984","0.0-1.0-507.0","0","0","60640","","66","","","68","56","d","","","","","","","","","","","","","","",""
"","S2","","html-keyboard-response","343","325994","0.0-1.0-508.0","0","0","60640","","7","","","68","56","","d","2","56","training","adjacent","DE","4","5","P.jpg","R.jpg","1","1","1","",""
"","feedback","","html-keyboard-response","344","326998","0.0-1.0-510.0-0.0","0","0","60640","","null","","","null","56","","","","","","","","","","","","","","","",""
"","ITI","","html-keyboard-response","345","327999","0.0-1.0-513.0","0","0","60640","","56","","","68","56","","","","","","","","","","","","","","","d",""
"","S1","","html-keyboard-response","346","328252","0.0-1.0-515.0","0","0","60640","","null","","","null","57","","","","","","","","","","","","","","","",""
"","ISI","","html-keyboard-response","347","329256","0.0-1.0-516.0","0","0","60640","","105","","","68","57","d","","","","","","","","","","","","","","",""
"","S2","","html-keyboard-response","348","329429","0.0-1.0-517.0","0","0","60640","","172","","","75","57","","k","2","57","training","adjacent","CB","3","2","O.jpg","M.jpg","0","0","1","",""
"","feedback","","html-keyboard-response","349","330431","0.0-1.0-519.0-0.0","0","0","60640","","null","","","null","57","","","","","","","","","","","","","","","",""
"","ITI","","html-keyboard-response","350","331435","0.0-1.0-522.0","0","0","60640","","196","","","75","57","","","","","","","","","","","","","","","k",""
"","S1","","html-keyboard-response","351","331689","0.0-1.0-524.0","0","0","60640","","null","","","null","58","","","","","","","","","","","","","","","",""
"","ISI","","html-keyboard-response","352","332692","0.0-1.0-525.0","0","0","60640","","117","","","68","58","d","","","","","","","","","","","","","","",""
"","S2","","html-keyboard-response","353","332726","0.0-1.0-526.0","0","0","60640","","31","","","68","58","","d","2","58","training","adjacent","ED","5","4","R.jpg","P.jpg","1","0","0","",""
"","feedback","","html-keyboard-response","354","333728","0.0-1.0-528.0-0.0","0","0","60640","","null","","","null","58","","","","","","","","","","","","","","","",""
"","time_out","","html-keyboard-response","355","335731","0.0-1.0-530.0-0.0","0","0","60640","","null","","","null","58","","","","","","","","","","","","","","","",""
"","ITI","","html-keyboard-response","356","336733","0.0-1.0-531.0","0","0","60640","","88","","","68","58","","","","","","","","","","","","","","","d",""
"","S1","","html-keyboard-response","357","336985","0.0-1.0-533.0","0","0","60640","","null","","","null","59","","","","","","","","","","","","","","","",""
"","ISI","","html-keyboard-response","358","337989","0.0-1.0-534.0","0","0","60640","","63","","","68","59","d","","","","","","","","","","","","","","",""
"","S2","","html-keyboard-response","359","338115","0.0-1.0-535.0","0","0","60640","","123","","","68","59","","d","2","59","training","adjacent","CD","3","4","O.jpg","P.jpg","1","1","1","",""
"","feedback","","html-keyboard-response","360","339134","0.0-1.0-537.0-0.0","0","0","60640","","null","","","null","59","","","","","","","","","","","","","","","",""
"","ITI","","html-keyboard-response","361","340138","0.0-1.0-540.0","0","0","60640","","381","","","68","59","","","","","","","","","","","","","","","d",""
"","S1","","html-keyboard-response","362","340391","0.0-1.0-542.0","0","0","60640","","null","","","null","60","","","","","","","","","","","","","","","",""
"","ISI","","html-keyboard-response","363","341394","0.0-1.0-543.0","0","0","60640","","170","","","68","60","d","","","","","","","","","","","","","","",""
"","S2","","html-keyboard-response","364","341507","0.0-1.0-544.0","0","0","60640","","111","","","68","60","","d","2","60","training","adjacent","GF","7","6","N.jpg","L.jpg","1","0","0","",""
"","feedback","","html-keyboard-response","365","342518","0.0-1.0-546.0-0.0","0","0","60640","","null","","","null","60","","","","","","","","","","","","","","","",""
"","time_out","","html-keyboard-response","366","344522","0.0-1.0-548.0-0.0","0","0","60640","","null","","","null","60","","","","","","","","","","","","","","","",""
"","ITI","","html-keyboard-response","367","345524","0.0-1.0-549.0","0","0","60640","","165","","","68","60","","","","","","","","","","","","","","","d",""
"","S1","","html-keyboard-response","368","345778","0.0-1.0-551.0","0","0","60640","","null","","","null","61","","","","","","","","","","","","","","","",""
"","ISI","","html-keyboard-response","369","346781","0.0-1.0-552.0","0","0","60640","","27","","","68","61","d","","","","","","","","","","","","","","",""
"","S2","","html-keyboard-response","370","346954","0.0-1.0-553.0","0","0","60640","","172","","","68","61","","d","2","61","training","adjacent","DE","4","5","P.jpg","R.jpg","1","1","1","",""
"","feedback","","html-keyboard-response","371","347961","0.0-1.0-555.0-0.0","0","0","60640","","null","","","null","61","","","","","","","","","","","","","","","",""
"","ITI","","html-keyboard-response","372","348964","0.0-1.0-558.0","0","0","60640","","114","","","68","61","","","","","","","","","","","","","","","d",""
"","S1","","html-keyboard-response","373","349227","0.0-1.0-560.0","0","0","60640","","null","","","null","62","","","","","","","","","","","","","","","",""
"","ISI","","html-keyboard-response","374","350231","0.0-1.0-561.0","0","0","60640","","396","","","68","62","d","","","","","","","","","","","","","","",""
"","S2","","html-keyboard-response","375","350255","0.0-1.0-562.0","0","0","60640","","23","","","75","62","","k","2","62","training","adjacent","CD","3","4","O.jpg","P.jpg","0","1","0","",""
"","feedback","","html-keyboard-response","376","351259","0.0-1.0-564.0-0.0","0","0","60640","","null","","","null","62","","","","","","","","","","","","","","","",""
"","time_out","","html-keyboard-response","377","353262","0.0-1.0-566.0-0.0","0","0","60640","","null","","","null","62","","","","","","","","","","","","","","","",""
"","ITI","","html-keyboard-response","378","354264","0.0-1.0-567.0","0","0","60640","","166","","","68","62","","","","","","","","","","","","","","","d",""
"","S1","","html-keyboard-response","379","354518","0.0-1.0-569.0","0","0","60640","","null","","","null","63","","","","","","","","","","","","","","","",""
"","ISI","","html-keyboard-response","380","355520","0.0-1.0-570.0","0","0","60640","","120","","","68","63","d","","","","","","","","","","","","","","",""
"","S2","","html-keyboard-response","381","355740","0.0-1.0-571.0","0","0","60640","","219","","","68","63","","d","2","63","training","adjacent","DE","4","5","P.jpg","R.jpg","1","1","1","",""
"","feedback","","html-keyboard-response","382","356744","0.0-1.0-573.0-0.0","0","0","60640","","null","","","null","63","","","","","","","","","","","","","","","",""
"","ITI","","html-keyboard-response","383","357747","0.0-1.0-576.0","0","0","60640","","70","","","68","63","","","","","","","","","","","","","","","d",""
"","S1","","html-keyboard-response","384","358001","0.0-1.0-578.0","0","0","60640","","null","","","null","64","","","","","","","","","","","","","","","",""
"","ISI","","html-keyboard-response","385","359002","0.0-1.0-579.0","0","0","60640","","160","","","68","64","d","","","","","","","","","","","","","","",""
"","S2","","html-keyboard-response","386","359068","0.0-1.0-580.0","0","0","60640","","62","","","68","64","","d","2","64","training","adjacent","FG","6","7","L.jpg","N.jpg","1","1","1","",""
"","feedback","","html-keyboard-response","387","360070","0.0-1.0-582.0-0.0","0","0","60640","","null","","","null","64","","","","","","","","","","","","","","","",""
"","ITI","","html-keyboard-response","388","361073","0.0-1.0-585.0","0","0","60640","","214","","","68","64","","","","","","","","","","","","","","","d",""
"","S1","","html-keyboard-response","389","361325","0.0-1.0-587.0","0","0","60640","","null","","","null","65","","","","","","","","","","","","","","","",""
"","ISI","","html-keyboard-response","390","362328","0.0-1.0-588.0","0","0","60640","","50","","","68","65","d","","","","","","","","","","","","","","",""
"","S2","","html-keyboard-response","391","362580","0.0-1.0-589.0","0","0","60640","","null","","","null","65","","NaN","","","","","","","","","","","","","",""
"","response","","html-keyboard-response","392","362620","0.0-1.0-590.0-0.0","0","0","60640","","39","","","75","65","","","2","65","training","adjacent","AB","1","2","Q.jpg","M.jpg","0","1","0","",""
"","feedback","","html-keyboard-response","393","363624","0.0-1.0-591.0-0.0","0","0","60640","","null","","","null","65","","","","","","","","","","","","","","","",""
"","time_out","","html-keyboard-response","394","365627","0.0-1.0-593.0-0.0","0","0","60640","","null","","","null","65","","","","","","","","","","","","","","","",""
"","ITI","","html-keyboard-response","395","366630","0.0-1.0-594.0","0","0","60640","","105","","","68","65","","","","","","","","","","","","","","","d",""
"","S1","","html-keyboard-response","396","366884","0.0-1.0-596.0","0","0","60640","","null","","","null","66","","","","","","","","","","","","","","","",""
"","ISI","","html-keyboard-response","397","367889","0.0-1.0-597.0","0","0","60640","","59","","","75","66","k","","","","","","","","","","","","","","",""
"","S2","","html-keyboard-response","398","368144","0.0-1.0-598.0","0","0","60640","","null","","","null","66","","NaN","","","","","","","","","","","","","",""
"","response","","html-keyboard-response","399","368264","0.0-1.0-599.0-0.0","0","0","60640","","117","","","68","66","","","2","66","training","adjacent","BC","2","3","M.jpg","O.jpg","1","1","1","",""
"","feedback","","html-keyboard-response","400","369269","0.0-1.0-600.0-0.0","0","0","60640","","null","","","null","66","","","","","","","","","","","","","","","",""
"","ITI","","html-keyboard-response","401","370275","0.0-1.0-603.0","0","0","60640","","73","","","68","66","","","","","","","","","","","","","","","d",""
"","S1","","html-keyboard-response","402","370530","0.0-1.0-605.0","0","0","60640","","null","","","null","67","","","","","","","","","","","","","","","",""
"","ISI","","html-keyboard-response","403","371533","0.0-1.0-606.0","0","0","60640","","201","","","68","67","d","","","","","","","","","","","","","","",""
"","S2","","html-keyboard-response","404","371673","0.0-1.0-607.0","0","0","60640","","137","","","68","67","","d","2","67","training","adjacent","FE","6","5","L.jpg","R.jpg","1","0","0","",""
"","feedback","","html-keyboard-response","405","372675","0.0-1.0-609.0-0.0","0","0","60640","","null","","","null","67","","","","","","","","","","","","","","","",""
"","time_out","","html-keyboard-response","406","374677","0.0-1.0-611.0-0.0","0","0","60640","","null","","","null","67","","","","","","","","","","","","","","","",""
"","ITI","","html-keyboard-response","407","375680","0.0-1.0-612.0","0","0","60640","","122","","","68","67","","","","","","","","","","","","","","","d",""
"","S1","","html-keyboard-response","408","375934","0.0-1.0-614.0","0","0","60640","","null","","","null","68","","","","","","","","","","","","","","","",""
"","ISI","","html-keyboard-response","409","376938","0.0-1.0-615.0","0","0","60640","","63","","","75","68","k","","","","","","","","","","","","","","",""
"","S2","","html-keyboard-response","410","377028","0.0-1.0-616.0","0","0","60640","","87","","","75","68","","k","2","68","training","adjacent","DC","4","3","P.jpg","O.jpg","0","0","1","",""
"","feedback","","html-keyboard-response","411","378033","0.0-1.0-618.0-0.0","0","0","60640","","null","","","null","68","","","","","","","","","","","","","","","",""
"","ITI","","html-keyboard-response","412","379038","0.0-1.0-621.0","0","0","60640","","171","","","68","68","","","","","","","","","","","","","","","d",""
"","S1","","html-keyboard-response","413","379291","0.0-1.0-623.0","0","0","60640","","null","","","null","69","","","","","","","","","","","","","","","",""
"","ISI","","html-keyboard-response","414","380293","0.0-1.0-624.0","0","0","60640","","201","","","68","69","d","","","","","","","","","","","","","","",""
"","S2","","html-keyboard-response","415","380524","0.0-1.0-625.0","0","0","60640","","230","","","75","69","","k","2","69","training","adjacent","DC","4","3","P.jpg","O.jpg","0","0","1","",""
"","feedback","","html-keyboard-response","416","381528","0.0-1.0-627.0-0.0","0","0","60640","","null","","","null","69","","","","","","","","","","","","","","","",""
"","ITI","","html-keyboard-response","417","382531","0.0-1.0-630.0","0","0","60640","","88","","","68","69","","","","","","","","","","","","","","","d",""
"","S1","","html-keyboard-response","418","382784","0.0-1.0-632.0","0","0","60640","","null","","","null","70","","","","","","","","","","","","","","","",""
"","ISI","","html-keyboard-response","419","383786","0.0-1.0-633.0","0","0","60640","","192","","","75","70","k","","","","","","","","","","","","","","",""
"","S2","","html-keyboard-response","420","383918","0.0-1.0-634.0","0","0","60640","","130","","","68","70","","d","2","70","training","adjacent","FE","6","5","L.jpg","R.jpg","1","0","0","",""
"","feedback","","html-keyboard-response","421","384921","0.0-1.0-636.0-0.0","0","0","60640","","null","","","null","70","","","","","","","","","","","","","","","",""
"","time_out","","html-keyboard-response","422","386924","0.0-1.0-638.0-0.0","0","0","60640","","null","","","null","70","","","","","","","","","","","","","","","",""
"","ITI","","html-keyboard-response","423","387929","0.0-1.0-639.0","0","0","60640","","14","","","68","70","","","","","","","","","","","","","","","d",""
"","S1","","html-keyboard-response","424","388182","0.0-1.0-641.0","0","0","60640","","null","","","null","71","","","","","","","","","","","","","","","",""
"","ISI","","html-keyboard-response","425","389183","0.0-1.0-642.0","0","0","60640","","75","","","68","71","d","","","","","","","","","","","","","","",""
"","S2","","html-keyboard-response","426","389212","0.0-1.0-643.0","0","0","60640","","26","","","68","71","","d","2","71","training","adjacent","DE","4","5","P.jpg","R.jpg","1","1","1","",""
"","feedback","","html-keyboard-response","427","390216","0.0-1.0-645.0-0.0","0","0","60640","","null","","","null","71","","","","","","","","","","","","","","","",""
"","ITI","","html-keyboard-response","428","391220","0.0-1.0-648.0","0","0","60640","","46","","","68","71","","","","","","","","","","","","","","","d",""
"","S1","","html-keyboard-response","429","391475","0.0-1.0-650.0","0","0","60640","","null","","","null","72","","","","","","","","","","","","","","","",""
"","ISI","","html-keyboard-response","430","392480","0.0-1.0-651.0","0","0","60640","","131","","","75","72","k","","","","","","","","","","","","","","",""
"","S2","","html-keyboard-response","431","392732","0.0-1.0-652.0","0","0","60640","","null","","","null","72","","NaN","","","","","","","","","","","","","",""
"","response","","html-keyboard-response","432","392857","0.0-1.0-653.0-0.0","0","0","60640","","123","","","75","72","","","2","72","training","adjacent","FE","6","5","L.jpg","R.jpg","0","0","1","",""
"","feedback","","html-keyboard-response","433","393862","0.0-1.0-654.0-0.0","0","0","60640","","null","","","null","72","","","","","","","","","","","","","","","",""
"","ITI","","html-keyboard-response","434","394866","0.0-1.0-657.0","0","0","60640","","5","","","68","72","","","","","","","","","","","","","","","d",""
"","S1","","html-keyboard-response","435","395119","0.0-1.0-659.0","0","0","60640","","null","","","null","73","","","","","","","","","","","","","","","",""
"","ISI","","html-keyboard-response","436","396123","0.0-1.0-660.0","0","0","60640","","125","","","75","73","k","","","","","","","","","","","","","","",""
"","S2","","html-keyboard-response","437","396176","0.0-1.0-661.0","0","0","60640","","49","","","75","73","","k","2","73","training","adjacent","BC","2","3","M.jpg","O.jpg","0","1","0","",""
"","feedback","","html-keyboard-response","438","397181","0.0-1.0-663.0-0.0","0","0","60640","","null","","","null","73","","","","","","","","","","","","","","","",""
"","time_out","","html-keyboard-response","439","399186","0.0-1.0-665.0-0.0","0","0","60640","","null","","","null","73","","","","","","","","","","","","","","","",""
"","ITI","","html-keyboard-response","440","400190","0.0-1.0-666.0","0","0","60640","","182","","","68","73","","","","","","","","","","","","","","","d",""
"","S1","","html-keyboard-response","441","400444","0.0-1.0-668.0","0","0","60640","","null","","","null","74","","","","","","","","","","","","","","","",""
"","ISI","","html-keyboard-response","442","401448","0.0-1.0-669.0","0","0","60640","","76","","","68","74","d","","","","","","","","","","","","","","",""
"","S2","","html-keyboard-response","443","401462","0.0-1.0-670.0","0","0","60640","","12","","","68","74","","d","2","74","training","adjacent","EF","5","6","R.jpg","L.jpg","1","1","1","",""
"","feedback","","html-keyboard-response","444","402466","0.0-1.0-672.0-0.0","0","0","60640","","null","","","null","74","","","","","","","","","","","","","","","",""
"","ITI","","html-keyboard-response","445","403470","0.0-1.0-675.0","0","0","60640","","43","","","68","74","","","","","","","","","","","","","","","d",""
"","S1","","html-keyboard-response","446","403723","0.0-1.0-677.0","0","0","60640","","null","","","null","75","","","","","","","","","","","","","","","",""
"","ISI","","html-keyboard-response","447","404725","0.0-1.0-678.0","0","0","60640","","503","","","68","75","d","","","","","","","","","","","","","","",""
"","S2","","html-keyboard-response","448","404850","0.0-1.0-679.0","0","0","60640","","122","","","75","75","","k","2","75","training","adjacent","GF","7","6","N.jpg","L.jpg","0","0","1","",""
"","feedback","","html-keyboard-response","449","405855","0.0-1.0-681.0-0.0","0","0","60640","","null","","","null","75","","","","","","","","","","","","","","","",""
"","ITI","","html-keyboard-response","450","406857","0.0-1.0-684.0","0","0","60640","","142","","","68","75","","","","","","","","","","","","","","","d",""
"","S1","","html-keyboard-response","451","407111","0.0-1.0-686.0","0","0","60640","","null","","","null","76","","","","","","","","","","","","","","","",""
"","ISI","","html-keyboard-response","452","408114","0.0-1.0-687.0","0","0","60640","","92","","","68","76","d","","","","","","","","","","","","","","",""
"","S2","","html-keyboard-response","453","408229","0.0-1.0-688.0","0","0","60640","","113","","","68","76","","d","2","76","training","adjacent","FG","6","7","L.jpg","N.jpg","1","1","1","",""
"","feedback","","html-keyboard-response","454","409235","0.0-1.0-690.0-0.0","0","0","60640","","null","","","null","76","","","","","","","","","","","","","","","",""
"","ITI","","html-keyboard-response","455","410240","0.0-1.0-693.0","0","0","60640","","267","","","68","76","","","","","","","","","","","","","","","d",""
"","S1","","html-keyboard-response","456","410493","0.0-1.0-695.0","0","0","60640","","null","","","null","77","","","","","","","","","","","","","","","",""
"","ISI","","html-keyboard-response","457","411495","0.0-1.0-696.0","0","0","60640","","77","","","68","77","d","","","","","","","","","","","","","","",""
"","S2","","html-keyboard-response","458","411585","0.0-1.0-697.0","0","0","60640","","87","","","68","77","","d","2","77","training","adjacent","CB","3","2","O.jpg","M.jpg","1","0","0","",""
"","feedback","","html-keyboard-response","459","412589","0.0-1.0-699.0-0.0","0","0","60640","","null","","","null","77","","","","","","","","","","","","","","","",""
"","time_out","","html-keyboard-response","460","414592","0.0-1.0-701.0-0.0","0","0","60640","","null","","","null","77","","","","","","","","","","","","","","","",""
"","ITI","","html-keyboard-response","461","415593","0.0-1.0-702.0","0","0","60640","","243","","","68","77","","","","","","","","","","","","","","","d",""
"","S1","","html-keyboard-response","462","415847","0.0-1.0-704.0","0","0","60640","","null","","","null","78","","","","","","","","","","","","","","","",""
"","ISI","","html-keyboard-response","463","416849","0.0-1.0-705.0","0","0","60640","","101","","","68","78","d","","","","","","","","","","","","","","",""
"","S2","","html-keyboard-response","464","417045","0.0-1.0-706.0","0","0","60640","","194","","","75","78","","k","2","78","training","adjacent","AB","1","2","Q.jpg","M.jpg","0","1","0","",""
"","feedback","","html-keyboard-response","465","418049","0.0-1.0-708.0-0.0","0","0","60640","","null","","","null","78","","","","","","","","","","","","","","","",""
"","time_out","","html-keyboard-response","466","420051","0.0-1.0-710.0-0.0","0","0","60640","","null","","","null","78","","","","","","","","","","","","","","","",""
"","ITI","","html-keyboard-response","467","421055","0.0-1.0-711.0","0","0","60640","","257","","","68","78","","","","","","","","","","","","","","","d",""
"","S1","","html-keyboard-response","468","421310","0.0-1.0-713.0","0","0","60640","","null","","","null","79","","","","","","","","","","","","","","","",""
"","ISI","","html-keyboard-response","469","422314","0.0-1.0-714.0","0","0","60640","","47","","","68","79","d","","","","","","","","","","","","","","",""
"","S2","","html-keyboard-response","470","422433","0.0-1.0-715.0","0","0","60640","","116","","","68","79","","d","2","79","training","adjacent","BC","2","3","M.jpg","O.jpg","1","1","1","",""
"","feedback","","html-keyboard-response","471","423437","0.0-1.0-717.0-0.0","0","0","60640","","null","","","null","79","","","","","","","","","","","","","","","",""
"","ITI","","html-keyboard-response","472","424441","0.0-1.0-720.0","0","0","60640","","223","","","68","79","","","","","","","","","","","","","","","d",""
"","S1","","html-keyboard-response","473","424695","0.0-1.0-722.0","0","0","60640","","null","","","null","80","","","","","","","","","","","","","","","",""
"","ISI","","html-keyboard-response","474","425698","0.0-1.0-723.0","0","0","60640","","76","","","68","80","d","","","","","","","","","","","","","","",""
"","S2","","html-keyboard-response","475","425712","0.0-1.0-724.0","0","0","60640","","12","","","68","80","","d","2","80","training","adjacent","ED","5","4","R.jpg","P.jpg","1","0","0","",""
"","feedback","","html-keyboard-response","476","426714","0.0-1.0-726.0-0.0","0","0","60640","","null","","","null","80","","","","","","","","","","","","","","","",""
"","time_out","","html-keyboard-response","477","428716","0.0-1.0-728.0-0.0","0","0","60640","","null","","","null","80","","","","","","","","","","","","","","","",""
"","ITI","","html-keyboard-response","478","429719","0.0-1.0-729.0","0","0","60640","","247","","","68","80","","","","","","","","","","","","","","","d",""
"","S1","","html-keyboard-response","479","429973","0.0-1.0-731.0","0","0","60640","","null","","","null","81","","","","","","","","","","","","","","","",""
"","ISI","","html-keyboard-response","480","430977","0.0-1.0-732.0","0","0","60640","","201","","","68","81","d","","","","","","","","","","","","","","",""
"","S2","","html-keyboard-response","481","431232","0.0-1.0-733.0","0","0","60640","","null","","","null","81","","NaN","","","","","","","","","","","","","",""
"","response","","html-keyboard-response","482","431280","0.0-1.0-734.0-0.0","0","0","60640","","45","","","68","81","","","2","81","training","adjacent","AB","1","2","Q.jpg","M.jpg","1","1","1","",""
"","feedback","","html-keyboard-response","483","432283","0.0-1.0-735.0-0.0","0","0","60640","","null","","","null","81","","","","","","","","","","","","","","","",""
"","ITI","","html-keyboard-response","484","433285","0.0-1.0-738.0","0","0","60640","","233","","","68","81","","","","","","","","","","","","","","","d",""
"","S1","","html-keyboard-response","485","433540","0.0-1.0-740.0","0","0","60640","","null","","","null","82","","","","","","","","","","","","","","","",""
"","ISI","","html-keyboard-response","486","434543","0.0-1.0-741.0","0","0","60640","","237","","","75","82","k","","","","","","","","","","","","","","",""
"","S2","","html-keyboard-response","487","434641","0.0-1.0-742.0","0","0","60640","","94","","","75","82","","k","2","82","training","adjacent","FE","6","5","L.jpg","R.jpg","0","0","1","",""
"","feedback","","html-keyboard-response","488","435644","0.0-1.0-744.0-0.0","0","0","60640","","null","","","null","82","","","","","","","","","","","","","","","",""
"","ITI","","html-keyboard-response","489","436648","0.0-1.0-747.0","0","0","60640","","83","","","68","82","","","","","","","","","","","","","","","d",""
"","S1","","html-keyboard-response","490","436902","0.0-1.0-749.0","0","0","60640","","null","","","null","83","","","","","","","","","","","","","","","",""
"","ISI","","html-keyboard-response","491","437905","0.0-1.0-750.0","0","0","60640","","21","","","68","83","d","","","","","","","","","","","","","","",""
"","S2","","html-keyboard-response","492","438012","0.0-1.0-751.0","0","0","60640","","104","","","68","83","","d","2","83","training","adjacent","BA","2","1","M.jpg","Q.jpg","1","0","0","",""
"","feedback","","html-keyboard-response","493","439016","0.0-1.0-753.0-0.0","0","0","60640","","null","","","null","83","","","","","","","","","","","","","","","",""
"","time_out","","html-keyboard-response","494","441020","0.0-1.0-755.0-0.0","0","0","60640","","null","","","null","83","","","","","","","","","","","","","","","",""
"","ITI","","html-keyboard-response","495","442024","0.0-1.0-756.0","0","0","60640","","133","","","68","83","","","","","","","","","","","","","","","d",""
"","S1","","html-keyboard-response","496","442277","0.0-1.0-758.0","0","0","60640","","null","","","null","84","","","","","","","","","","","","","","","",""
"","ISI","","html-keyboard-response","497","443279","0.0-1.0-759.0","0","0","60640","","5","","","68","84","d","","","","","","","","","","","","","","",""
"","S2","","html-keyboard-response","498","443288","0.0-1.0-760.0","0","0","60640","","9","","","68","84","","d","2","84","training","adjacent","EF","5","6","R.jpg","L.jpg","1","1","1","",""
"","feedback","","html-keyboard-response","499","444290","0.0-1.0-762.0-0.0","0","0","60640","","null","","","null","84","","","","","","","","","","","","","","","",""
"","ITI","","html-keyboard-response","500","445294","0.0-1.0-765.0","0","0","60640","","129","","","75","84","","","","","","","","","","","","","","","k",""
"","S1","","html-keyboard-response","501","445550","0.0-1.0-767.0","0","0","60640","","null","","","null","85","","","","","","","","","","","","","","","",""
"","ISI","","html-keyboard-response","502","446552","0.0-1.0-768.0","0","0","60640","","249","","","68","85","d","","","","","","","","","","","","","","",""
"","S2","","html-keyboard-response","503","446589","0.0-1.0-769.0","0","0","60640","","36","","","68","85","","d","2","85","training","adjacent","FG","6","7","L.jpg","N.jpg","1","1","1","",""
"","feedback","","html-keyboard-response","504","447591","0.0-1.0-771.0-0.0","0","0","60640","","null","","","null","85","","","","","","","","","","","","","","","",""
"","ITI","","html-keyboard-response","505","448595","0.0-1.0-774.0","0","0","60640","","207","","","68","85","","","","","","","","","","","","","","","d",""
"","S1","","html-keyboard-response","506","448849","0.0-1.0-776.0","0","0","60640","","null","","","null","86","","","","","","","","","","","","","","","",""
"","ISI","","html-keyboard-response","507","449852","0.0-1.0-777.0","0","0","60640","","176","","","68","86","d","","","","","","","","","","","","","","",""
"","S2","","html-keyboard-response","508","449996","0.0-1.0-778.0","0","0","60640","","143","","","68","86","","d","2","86","training","adjacent","ED","5","4","R.jpg","P.jpg","1","0","0","",""
"","feedback","","html-keyboard-response","509","450999","0.0-1.0-780.0-0.0","0","0","60640","","null","","","null","86","","","","","","","","","","","","","","","",""
"","time_out","","html-keyboard-response","510","453002","0.0-1.0-782.0-0.0","0","0","60640","","null","","","null","86","","","","","","","","","","","","","","","",""
"","ITI","","html-keyboard-response","511","454006","0.0-1.0-783.0","0","0","60640","","154","","","68","86","","","","","","","","","","","","","","","d",""
"","S1","","html-keyboard-response","512","454259","0.0-1.0-785.0","0","0","60640","","null","","","null","87","","","","","","","","","","","","","","","",""
"","ISI","","html-keyboard-response","513","455264","0.0-1.0-786.0","0","0","60640","","21","","","75","87","k","","","","","","","","","","","","","","",""
"","S2","","html-keyboard-response","514","455358","0.0-1.0-787.0","0","0","60640","","92","","","68","87","","d","2","87","training","adjacent","ED","5","4","R.jpg","P.jpg","1","0","0","",""
"","feedback","","html-keyboard-response","515","456359","0.0-1.0-789.0-0.0","0","0","60640","","null","","","null","87","","","","","","","","","","","","","","","",""
"","time_out","","html-keyboard-response","516","458363","0.0-1.0-791.0-0.0","0","0","60640","","null","","","null","87","","","","","","","","","","","","","","","",""
"","ITI","","html-keyboard-response","517","459375","0.0-1.0-792.0","0","0","60640","","2","","","68","87","","","","","","","","","","","","","","","d",""
"","S1","","html-keyboard-response","518","459629","0.0-1.0-794.0","0","0","60640","","null","","","null","88","","","","","","","","","","","","","","","",""
"","ISI","","html-keyboard-response","519","460632","0.0-1.0-795.0","0","0","60640","","237","","","68","88","d","","","","","","","","","","","","","","",""
"","S2","","html-keyboard-response","520","460701","0.0-1.0-796.0","0","0","60640","","67","","","68","88","","d","2","88","training","adjacent","BA","2","1","M.jpg","Q.jpg","1","0","0","",""
"","feedback","","html-keyboard-response","521","461705","0.0-1.0-798.0-0.0","0","0","60640","","null","","","null","88","","","","","","","","","","","","","","","",""
"","time_out","","html-keyboard-response","522","463709","0.0-1.0-800.0-0.0","0","0","60640","","null","","","null","88","","","","","","","","","","","","","","","",""
"","ITI","","html-keyboard-response","523","464711","0.0-1.0-801.0","0","0","60640","","217","","","75","88","","","","","","","","","","","","","","","k",""
"","S1","","html-keyboard-response","524","464964","0.0-1.0-803.0","0","0","60640","","null","","","null","89","","","","","","","","","","","","","","","",""
"","ISI","","html-keyboard-response","525","465966","0.0-1.0-804.0","0","0","60640","","193","","","75","89","k","","","","","","","","","","","","","","",""
"","S2","","html-keyboard-response","526","465969","0.0-1.0-805.0","0","0","60640","","1","","","75","89","","k","2","89","training","adjacent","CB","3","2","O.jpg","M.jpg","0","0","1","",""
"","feedback","","html-keyboard-response","527","466971","0.0-1.0-807.0-0.0","0","0","60640","","null","","","null","89","","","","","","","","","","","","","","","",""
"","ITI","","html-keyboard-response","528","467972","0.0-1.0-810.0","0","0","60640","","213","","","68","89","","","","","","","","","","","","","","","d",""
"","S1","","html-keyboard-response","529","468225","0.0-1.0-812.0","0","0","60640","","null","","","null","90","","","","","","","","","","","","","","","",""
"","ISI","","html-keyboard-response","530","469229","0.0-1.0-813.0","0","0","60640","","166","","","68","90","d","","","","","","","","","","","","","","",""
"","S2","","html-keyboard-response","531","469303","0.0-1.0-814.0","0","0","60640","","71","","","68","90","","d","2","90","training","adjacent","FG","6","7","L.jpg","N.jpg","1","1","1","",""
"","feedback","","html-keyboard-response","532","470309","0.0-1.0-816.0-0.0","0","0","60640","","null","","","null","90","","","","","","","","","","","","","","","",""
"","ITI","","html-keyboard-response","533","471313","0.0-1.0-819.0","0","0","60640","","126","","","68","90","","","","","","","","","","","","","","","d",""
"","S1","","html-keyboard-response","534","471568","0.0-1.0-821.0","0","0","60640","","null","","","null","91","","","","","","","","","","","","","","","",""
"","ISI","","html-keyboard-response","535","472572","0.0-1.0-822.0","0","0","60640","","134","","","68","91","d","","","","","","","","","","","","","","",""
"","S2","","html-keyboard-response","536","472655","0.0-1.0-823.0","0","0","60640","","80","","","68","91","","d","2","91","training","adjacent","BC","2","3","M.jpg","O.jpg","1","1","1","",""
"","feedback","","html-keyboard-response","537","473657","0.0-1.0-825.0-0.0","0","0","60640","","null","","","null","91","","","","","","","","","","","","","","","",""
"","ITI","","html-keyboard-response","538","474660","0.0-1.0-828.0","0","0","60640","","255","","","68","91","","","","","","","","","","","","","","","d",""
"","S1","","html-keyboard-response","539","474913","0.0-1.0-830.0","0","0","60640","","null","","","null","92","","","","","","","","","","","","","","","",""
"","ISI","","html-keyboard-response","540","475917","0.0-1.0-831.0","0","0","60640","","122","","","68","92","d","","","","","","","","","","","","","","",""
"","S2","","html-keyboard-response","541","475983","0.0-1.0-832.0","0","0","60640","","64","","","68","92","","d","2","92","training","adjacent","EF","5","6","R.jpg","L.jpg","1","1","1","",""
"","feedback","","html-keyboard-response","542","476986","0.0-1.0-834.0-0.0","0","0","60640","","null","","","null","92","","","","","","","","","","","","","","","",""
"","ITI","","html-keyboard-response","543","477989","0.0-1.0-837.0","0","0","60640","","141","","","68","92","","","","","","","","","","","","","","","d",""
"","S1","","html-keyboard-response","544","478242","0.0-1.0-839.0","0","0","60640","","null","","","null","93","","","","","","","","","","","","","","","",""
"","ISI","","html-keyboard-response","545","479247","0.0-1.0-840.0","0","0","60640","","76","","","68","93","d","","","","","","","","","","","","","","",""
"","S2","","html-keyboard-response","546","479423","0.0-1.0-841.0","0","0","60640","","173","","","68","93","","d","2","93","training","adjacent","BA","2","1","M.jpg","Q.jpg","1","0","0","",""
"","feedback","","html-keyboard-response","547","480428","0.0-1.0-843.0-0.0","0","0","60640","","null","","","null","93","","","","","","","","","","","","","","","",""
"","time_out","","html-keyboard-response","548","482432","0.0-1.0-845.0-0.0","0","0","60640","","null","","","null","93","","","","","","","","","","","","","","","",""
"","ITI","","html-keyboard-response","549","483437","0.0-1.0-846.0","0","0","60640","","16","","","68","93","","","","","","","","","","","","","","","d",""
"","S1","","html-keyboard-response","550","483692","0.0-1.0-848.0","0","0","60640","","null","","","null","94","","","","","","","","","","","","","","","",""
"","ISI","","html-keyboard-response","551","484694","0.0-1.0-849.0","0","0","60640","","96","","","75","94","k","","","","","","","","","","","","","","",""
"","S2","","html-keyboard-response","552","484701","0.0-1.0-850.0","0","0","60640","","4","","","68","94","","d","2","94","training","adjacent","BA","2","1","M.jpg","Q.jpg","1","0","0","",""
"","feedback","","html-keyboard-response","553","485703","0.0-1.0-852.0-0.0","0","0","60640","","null","","","null","94","","","","","","","","","","","","","","","",""
"","time_out","","html-keyboard-response","554","487706","0.0-1.0-854.0-0.0","0","0","60640","","null","","","null","94","","","","","","","","","","","","","","","",""
"","ITI","","html-keyboard-response","555","488709","0.0-1.0-855.0","0","0","60640","","29","","","68","94","","","","","","","","","","","","","","","d",""
"","S1","","html-keyboard-response","556","488964","0.0-1.0-857.0","0","0","60640","","null","","","null","95","","","","","","","","","","","","","","","",""
"","ISI","","html-keyboard-response","557","489966","0.0-1.0-858.0","0","0","60640","","197","","","68","95","d","","","","","","","","","","","","","","",""
"","S2","","html-keyboard-response","558","490050","0.0-1.0-859.0","0","0","60640","","82","","","68","95","","d","2","95","training","adjacent","GF","7","6","N.jpg","L.jpg","1","0","0","",""
"","feedback","","html-keyboard-response","559","491053","0.0-1.0-861.0-0.0","0","0","60640","","null","","","null","95","","","","","","","","","","","","","","","",""
"","time_out","","html-keyboard-response","560","493054","0.0-1.0-863.0-0.0","0","0","60640","","null","","","null","95","","","","","","","","","","","","","","","",""
"","ITI","","html-keyboard-response","561","494056","0.0-1.0-864.0","0","0","60640","","99","","","68","95","","","","","","","","","","","","","","","d",""
"","block_over","","html-keyboard-response","562","502916","0.0-1.0-865.0-0.0","0","0","60640","","8857","","","32","95","","","","","","","","","","","","","","","",""
"","S1","","html-keyboard-response","563","503169","0.0-1.0-866.0","0","0","60640","","null","","","null","96","","","","","","","","","","","","","","","",""
"","ISI","","html-keyboard-response","564","504172","0.0-1.0-867.0","0","0","60640","","83","","","68","96","d","","","","","","","","","","","","","","",""
"","S2","","html-keyboard-response","565","504273","0.0-1.0-868.0","0","0","60640","","99","","","75","96","","k","3","96","training","adjacent","CD","3","4","O.jpg","P.jpg","0","1","0","",""
"","feedback","","html-keyboard-response","566","505274","0.0-1.0-870.0-0.0","0","0","60640","","null","","","null","96","","","","","","","","","","","","","","","",""
"","time_out","","html-keyboard-response","567","507277","0.0-1.0-872.0-0.0","0","0","60640","","null","","","null","96","","","","","","","","","","","","","","","",""
"","ITI","","html-keyboard-response","568","508282","0.0-1.0-873.0","0","0","60640","","89","","","75","96","","","","","","","","","","","","","","","k",""
"","S1","","html-keyboard-response","569","508538","0.0-1.0-875.0","0","0","60640","","null","","","null","97","","","","","","","","","","","","","","","",""
"","ISI","","html-keyboard-response","570","509541","0.0-1.0-876.0","0","0","60640","","200","","","75","97","k","","","","","","","","","","","","","","",""
"","S2","","html-keyboard-response","571","509557","0.0-1.0-877.0","0","0","60640","","13","","","68","97","","d","3","97","training","adjacent","CD","3","4","O.jpg","P.jpg","1","1","1","",""
"","feedback","","html-keyboard-response","572","510562","0.0-1.0-879.0-0.0","0","0","60640","","null","","","null","97","","","","","","","","","","","","","","","",""
"","ITI","","html-keyboard-response","573","511567","0.0-1.0-882.0","0","0","60640","","312","","","75","97","","","","","","","","","","","","","","","k",""
"","S1","","html-keyboard-response","574","511821","0.0-1.0-884.0","0","0","60640","","null","","","null","98","","","","","","","","","","","","","","","",""
"","ISI","","html-keyboard-response","575","512823","0.0-1.0-885.0","0","0","60640","","5","","","68","98","d","","","","","","","","","","","","","","",""
"","S2","","html-keyboard-response","576","512846","0.0-1.0-886.0","0","0","60640","","22","","","68","98","","d","3","98","training","adjacent","DE","4","5","P.jpg","R.jpg","1","1","1","",""
"","feedback","","html-keyboard-response","577","513850","0.0-1.0-888.0-0.0","0","0","60640","","null","","","null","98","","","","","","","","","","","","","","","",""
"","ITI","","html-keyboard-response","578","514853","0.0-1.0-891.0","0","0","60640","","57","","","75","98","","","","","","","","","","","","","","","k",""
"","S1","","html-keyboard-response","579","515107","0.0-1.0-893.0","0","0","60640","","null","","","null","99","","","","","","","","","","","","","","","",""
"","ISI","","html-keyboard-response","580","516111","0.0-1.0-894.0","0","0","60640","","45","","","68","99","d","","","","","","","","","","","","","","",""
"","S2","","html-keyboard-response","581","516291","0.0-1.0-895.0","0","0","60640","","177","","","68","99","","d","3","99","training","adjacent","EF","5","6","R.jpg","L.jpg","1","1","1","",""
"","feedback","","html-keyboard-response","582","517295","0.0-1.0-897.0-0.0","0","0","60640","","null","","","null","99","","","","","","","","","","","","","","","",""
"","ITI","","html-keyboard-response","583","518298","0.0-1.0-900.0","0","0","60640","","264","","","68","99","","","","","","","","","","","","","","","d",""
"","S1","","html-keyboard-response","584","518552","0.0-1.0-902.0","0","0","60640","","null","","","null","100","","","","","","","","","","","","","","","",""
"","ISI","","html-keyboard-response","585","519556","0.0-1.0-903.0","0","0","60640","","61","","","68","100","d","","","","","","","","","","","","","","",""
"","S2","","html-keyboard-response","586","519622","0.0-1.0-904.0","0","0","60640","","61","","","68","100","","d","3","100","training","adjacent","AB","1","2","Q.jpg","M.jpg","1","1","1","",""
"","feedback","","html-keyboard-response","587","520627","0.0-1.0-906.0-0.0","0","0","60640","","null","","","null","100","","","","","","","","","","","","","","","",""
