"success","ttype","start_time","trial_type","trial_index","time_elapsed","internal_node_id","warning","missed_checkup","PID","view_history","rt","responses","repeat_instructions","key_press","index","keypress_isi","keypress_S2","block","trial_num","phase","group_type","pair_type","S1_stim","S2_stim","S1_img","S2_img","S1_chosen","S1_higher","accuracy","keypress_iti","total_bonus_tally"
"true","full_screen","d03082023hr1431","fullscreen","0","15160","0.0-0.0","0","0","62179","","","","","","","","","","","","","","","","","","","","","",""
"","instructions","","instructions","1","80665","0.0-1.0-0.0-0.0","0","0","62179","[{""page_index"":0,""viewing_time"":9372},{""page_index"":1,""viewing_time"":28539},{""page_index"":2,""viewing_time"":23137},{""page_index"":3,""viewing_time"":4448}]","65498","","","","","","","","","","","","","","","","","","","",""
"","comprehension_check","","survey-multi-choice","2","107461","0.0-1.0-0.0-1.0","0","0","62179","","26776","{""Q0"":""True"",""Q1"":""K"",""Q2"":""Once the second image appears and while the screen 'MAKE A CHOICE' is shown"",""Q3"":""Green mark"",""Q4"":""either D or K""}","0","","","","","","","","","","","","","","","","","",""
"","start_exp","","html-keyboard-response","3","110200","0.0-1.0-1.0","0","0","62179","","2729","","","32","","","","","","","","","","","","","","","","",""
"","S1","","html-keyboard-response","4","110459","0.0-1.0-2.0","0","0","62179","","null","","","null","0","","","","","","","","","","","","","","","",""
"","ISI","","html-keyboard-response","5","110620","0.0-1.0-3.0","0","0","62179","","null","","","null","0","NaN","","","","","","","","","","","","","","",""
"","S2","","html-keyboard-response","6","110886","0.0-1.0-4.0","0","0","62179","","null","","","null","0","","NaN","","","","","","","","","","","","","",""
"","response","","html-keyboard-response","7","111490","0.0-1.0-5.0-0.0","0","0","62179","","598","","","68","0","","","1","0","training","adjacent","DE","4","5","L.jpg","Q.jpg","0","1","0","",""
"","feedback","","html-keyboard-response","8","112499","0.0-1.0-6.0-0.0","0","0","62179","","null","","","null","0","","","","","","","","","","","","","","","",""
"","time_out","","html-keyboard-response","9","114506","0.0-1.0-8.0-0.0","0","0","62179","","null","","","null","0","","","","","","","","","","","","","","","",""
"","ITI","","html-keyboard-response","10","115525","0.0-1.0-9.0","0","0","62179","","null","","","null","0","","","","","","","","","","","","","","","NaN",""
"","S1","","html-keyboard-response","11","115782","0.0-1.0-11.0","0","0","62179","","null","","","null","1","","","","","","","","","","","","","","","",""
"","ISI","","html-keyboard-response","12","115943","0.0-1.0-12.0","0","0","62179","","null","","","null","1","NaN","","","","","","","","","","","","","","",""
"","S2","","html-keyboard-response","13","116201","0.0-1.0-13.0","0","0","62179","","null","","","null","1","","NaN","","","","","","","","","","","","","",""
"","response","","html-keyboard-response","14","116947","0.0-1.0-14.0-0.0","0","0","62179","","739","","","75","1","","","1","1","training","adjacent","AB","1","2","R.jpg","N.jpg","1","1","1","",""
"","feedback","","html-keyboard-response","15","117961","0.0-1.0-15.0-0.0","0","0","62179","","null","","","null","1","","","","","","","","","","","","","","","",""
"","ITI","","html-keyboard-response","16","118967","0.0-1.0-18.0","0","0","62179","","null","","","null","1","","","","","","","","","","","","","","","NaN",""
"","S1","","html-keyboard-response","17","119230","0.0-1.0-20.0","0","0","62179","","null","","","null","2","","","","","","","","","","","","","","","",""
"","ISI","","html-keyboard-response","18","119391","0.0-1.0-21.0","0","0","62179","","null","","","null","2","NaN","","","","","","","","","","","","","","",""
"","S2","","html-keyboard-response","19","119654","0.0-1.0-22.0","0","0","62179","","null","","","null","2","","NaN","","","","","","","","","","","","","",""
"","response","","html-keyboard-response","20","120282","0.0-1.0-23.0-0.0","0","0","62179","","622","","","68","2","","","1","2","training","adjacent","CD","3","4","M.jpg","L.jpg","0","1","0","",""
"","feedback","","html-keyboard-response","21","121294","0.0-1.0-24.0-0.0","0","0","62179","","null","","","null","2","","","","","","","","","","","","","","","",""
"","time_out","","html-keyboard-response","22","123299","0.0-1.0-26.0-0.0","0","0","62179","","null","","","null","2","","","","","","","","","","","","","","","",""
"","ITI","","html-keyboard-response","23","124310","0.0-1.0-27.0","0","0","62179","","null","","","null","2","","","","","","","","","","","","","","","NaN",""
"","S1","","html-keyboard-response","24","124576","0.0-1.0-29.0","0","0","62179","","null","","","null","3","","","","","","","","","","","","","","","",""
"","ISI","","html-keyboard-response","25","124736","0.0-1.0-30.0","0","0","62179","","null","","","null","3","NaN","","","","","","","","","","","","","","",""
"","S2","","html-keyboard-response","26","125001","0.0-1.0-31.0","0","0","62179","","null","","","null","3","","NaN","","","","","","","","","","","","","",""
"","response","","html-keyboard-response","27","125148","0.0-1.0-32.0-0.0","0","0","62179","","142","","","75","3","","","1","3","training","adjacent","BC","2","3","N.jpg","M.jpg","1","1","1","",""
"","feedback","","html-keyboard-response","28","126155","0.0-1.0-33.0-0.0","0","0","62179","","null","","","null","3","","","","","","","","","","","","","","","",""
"","ITI","","html-keyboard-response","29","127177","0.0-1.0-36.0","0","0","62179","","null","","","null","3","","","","","","","","","","","","","","","NaN",""
"","S1","","html-keyboard-response","30","127444","0.0-1.0-38.0","0","0","62179","","null","","","null","4","","","","","","","","","","","","","","","",""
"","ISI","","html-keyboard-response","31","127604","0.0-1.0-39.0","0","0","62179","","null","","","null","4","NaN","","","","","","","","","","","","","","",""
"","S2","","html-keyboard-response","32","127861","0.0-1.0-40.0","0","0","62179","","null","","","null","4","","NaN","","","","","","","","","","","","","",""
"","response","","html-keyboard-response","33","128181","0.0-1.0-41.0-0.0","0","0","62179","","316","","","75","4","","","1","4","training","adjacent","AB","1","2","R.jpg","N.jpg","1","1","1","",""
"","feedback","","html-keyboard-response","34","129189","0.0-1.0-42.0-0.0","0","0","62179","","null","","","null","4","","","","","","","","","","","","","","","",""
"","ITI","","html-keyboard-response","35","130210","0.0-1.0-45.0","0","0","62179","","null","","","null","4","","","","","","","","","","","","","","","NaN",""
"","S1","","html-keyboard-response","36","130473","0.0-1.0-47.0","0","0","62179","","null","","","null","5","","","","","","","","","","","","","","","",""
"","ISI","","html-keyboard-response","37","130634","0.0-1.0-48.0","0","0","62179","","null","","","null","5","NaN","","","","","","","","","","","","","","",""
"","S2","","html-keyboard-response","38","130898","0.0-1.0-49.0","0","0","62179","","null","","","null","5","","NaN","","","","","","","","","","","","","",""
"","response","","html-keyboard-response","39","131283","0.0-1.0-50.0-0.0","0","0","62179","","380","","","75","5","","","1","5","training","adjacent","DE","4","5","L.jpg","Q.jpg","1","1","1","",""
"","feedback","","html-keyboard-response","40","132296","0.0-1.0-51.0-0.0","0","0","62179","","null","","","null","5","","","","","","","","","","","","","","","",""
"","ITI","","html-keyboard-response","41","133304","0.0-1.0-54.0","0","0","62179","","null","","","null","5","","","","","","","","","","","","","","","NaN",""
"","S1","","html-keyboard-response","42","133568","0.0-1.0-56.0","0","0","62179","","null","","","null","6","","","","","","","","","","","","","","","",""
"","ISI","","html-keyboard-response","43","133727","0.0-1.0-57.0","0","0","62179","","null","","","null","6","NaN","","","","","","","","","","","","","","",""
"","S2","","html-keyboard-response","44","133984","0.0-1.0-58.0","0","0","62179","","null","","","null","6","","NaN","","","","","","","","","","","","","",""
"","response","","html-keyboard-response","45","134610","0.0-1.0-59.0-0.0","0","0","62179","","619","","","75","6","","","1","6","training","adjacent","EF","5","6","Q.jpg","O.jpg","1","1","1","",""
"","feedback","","html-keyboard-response","46","135629","0.0-1.0-60.0-0.0","0","0","62179","","null","","","null","6","","","","","","","","","","","","","","","",""
"","ITI","","html-keyboard-response","47","136637","0.0-1.0-63.0","0","0","62179","","null","","","null","6","","","","","","","","","","","","","","","NaN",""
"","S1","","html-keyboard-response","48","136894","0.0-1.0-65.0","0","0","62179","","null","","","null","7","","","","","","","","","","","","","","","",""
"","ISI","","html-keyboard-response","49","137054","0.0-1.0-66.0","0","0","62179","","null","","","null","7","NaN","","","","","","","","","","","","","","",""
"","S2","","html-keyboard-response","50","137311","0.0-1.0-67.0","0","0","62179","","null","","","null","7","","NaN","","","","","","","","","","","","","",""
"","response","","html-keyboard-response","51","137802","0.0-1.0-68.0-0.0","0","0","62179","","486","","","75","7","","","1","7","training","adjacent","AB","1","2","R.jpg","N.jpg","1","1","1","",""
"","feedback","","html-keyboard-response","52","138817","0.0-1.0-69.0-0.0","0","0","62179","","null","","","null","7","","","","","","","","","","","","","","","",""
"","ITI","","html-keyboard-response","53","139826","0.0-1.0-72.0","0","0","62179","","null","","","null","7","","","","","","","","","","","","","","","NaN",""
"","S1","","html-keyboard-response","54","140091","0.0-1.0-74.0","0","0","62179","","null","","","null","8","","","","","","","","","","","","","","","",""
"","ISI","","html-keyboard-response","55","140251","0.0-1.0-75.0","0","0","62179","","null","","","null","8","NaN","","","","","","","","","","","","","","",""
"","S2","","html-keyboard-response","56","140510","0.0-1.0-76.0","0","0","62179","","null","","","null","8","","NaN","","","","","","","","","","","","","",""
"","response","","html-keyboard-response","57","140696","0.0-1.0-77.0-0.0","0","0","62179","","181","","","75","8","","","1","8","training","adjacent","ED","5","4","Q.jpg","L.jpg","1","0","0","",""
"","feedback","","html-keyboard-response","58","141715","0.0-1.0-78.0-0.0","0","0","62179","","null","","","null","8","","","","","","","","","","","","","","","",""
"","time_out","","html-keyboard-response","59","143730","0.0-1.0-80.0-0.0","0","0","62179","","null","","","null","8","","","","","","","","","","","","","","","",""
"","ITI","","html-keyboard-response","60","144743","0.0-1.0-81.0","0","0","62179","","null","","","null","8","","","","","","","","","","","","","","","NaN",""
"","S1","","html-keyboard-response","61","145000","0.0-1.0-83.0","0","0","62179","","null","","","null","9","","","","","","","","","","","","","","","",""
"","ISI","","html-keyboard-response","62","145162","0.0-1.0-84.0","0","0","62179","","null","","","null","9","NaN","","","","","","","","","","","","","","",""
"","S2","","html-keyboard-response","63","145418","0.0-1.0-85.0","0","0","62179","","null","","","null","9","","NaN","","","","","","","","","","","","","",""
"","response","","html-keyboard-response","64","145982","0.0-1.0-86.0-0.0","0","0","62179","","558","","","68","9","","","1","9","training","adjacent","FG","6","7","O.jpg","P.jpg","0","1","0","",""
"","feedback","","html-keyboard-response","65","146996","0.0-1.0-87.0-0.0","0","0","62179","","null","","","null","9","","","","","","","","","","","","","","","",""
"","time_out","","html-keyboard-response","66","149005","0.0-1.0-89.0-0.0","0","0","62179","","null","","","null","9","","","","","","","","","","","","","","","",""
"","ITI","","html-keyboard-response","67","150019","0.0-1.0-90.0","0","0","62179","","null","","","null","9","","","","","","","","","","","","","","","NaN",""
"","S1","","html-keyboard-response","68","150283","0.0-1.0-92.0","0","0","62179","","null","","","null","10","","","","","","","","","","","","","","","",""
"","ISI","","html-keyboard-response","69","150443","0.0-1.0-93.0","0","0","62179","","null","","","null","10","NaN","","","","","","","","","","","","","","",""
"","S2","","html-keyboard-response","70","150704","0.0-1.0-94.0","0","0","62179","","null","","","null","10","","NaN","","","","","","","","","","","","","",""
"","response","","html-keyboard-response","71","151220","0.0-1.0-95.0-0.0","0","0","62179","","512","","","75","10","","","1","10","training","adjacent","BA","2","1","N.jpg","R.jpg","1","0","0","",""
"","feedback","","html-keyboard-response","72","152228","0.0-1.0-96.0-0.0","0","0","62179","","null","","","null","10","","","","","","","","","","","","","","","",""
"","time_out","","html-keyboard-response","73","154243","0.0-1.0-98.0-0.0","0","0","62179","","null","","","null","10","","","","","","","","","","","","","","","",""
"","ITI","","html-keyboard-response","74","155256","0.0-1.0-99.0","0","0","62179","","null","","","null","10","","","","","","","","","","","","","","","NaN",""
"","S1","","html-keyboard-response","75","155513","0.0-1.0-101.0","0","0","62179","","null","","","null","11","","","","","","","","","","","","","","","",""
"","ISI","","html-keyboard-response","76","155675","0.0-1.0-102.0","0","0","62179","","null","","","null","11","NaN","","","","","","","","","","","","","","",""
"","S2","","html-keyboard-response","77","155938","0.0-1.0-103.0","0","0","62179","","null","","","null","11","","NaN","","","","","","","","","","","","","",""
"","response","","html-keyboard-response","78","156020","0.0-1.0-104.0-0.0","0","0","62179","","77","","","75","11","","","1","11","training","adjacent","AB","1","2","R.jpg","N.jpg","1","1","1","",""
"","feedback","","html-keyboard-response","79","157029","0.0-1.0-105.0-0.0","0","0","62179","","null","","","null","11","","","","","","","","","","","","","","","",""
"","ITI","","html-keyboard-response","80","158043","0.0-1.0-108.0","0","0","62179","","null","","","null","11","","","","","","","","","","","","","","","NaN",""
"","S1","","html-keyboard-response","81","158306","0.0-1.0-110.0","0","0","62179","","null","","","null","12","","","","","","","","","","","","","","","",""
"","ISI","","html-keyboard-response","82","158467","0.0-1.0-111.0","0","0","62179","","null","","","null","12","NaN","","","","","","","","","","","","","","",""
"","S2","","html-keyboard-response","83","158724","0.0-1.0-112.0","0","0","62179","","null","","","null","12","","NaN","","","","","","","","","","","","","",""
"","response","","html-keyboard-response","84","159040","0.0-1.0-113.0-0.0","0","0","62179","","311","","","75","12","","","1","12","training","adjacent","DE","4","5","L.jpg","Q.jpg","1","1","1","",""
"","feedback","","html-keyboard-response","85","160050","0.0-1.0-114.0-0.0","0","0","62179","","null","","","null","12","","","","","","","","","","","","","","","",""
"","ITI","","html-keyboard-response","86","161063","0.0-1.0-117.0","0","0","62179","","null","","","null","12","","","","","","","","","","","","","","","NaN",""
"","S1","","html-keyboard-response","87","161328","0.0-1.0-119.0","0","0","62179","","null","","","null","13","","","","","","","","","","","","","","","",""
"","ISI","","html-keyboard-response","88","161491","0.0-1.0-120.0","0","0","62179","","null","","","null","13","NaN","","","","","","","","","","","","","","",""
"","S2","","html-keyboard-response","89","161748","0.0-1.0-121.0","0","0","62179","","null","","","null","13","","NaN","","","","","","","","","","","","","",""
"","response","","html-keyboard-response","90","162079","0.0-1.0-122.0-0.0","0","0","62179","","327","","","75","13","","","1","13","training","adjacent","DC","4","3","L.jpg","M.jpg","1","0","0","",""
"","feedback","","html-keyboard-response","91","163087","0.0-1.0-123.0-0.0","0","0","62179","","null","","","null","13","","","","","","","","","","","","","","","",""
"","time_out","","html-keyboard-response","92","165094","0.0-1.0-125.0-0.0","0","0","62179","","null","","","null","13","","","","","","","","","","","","","","","",""
"","ITI","","html-keyboard-response","93","166105","0.0-1.0-126.0","0","0","62179","","null","","","null","13","","","","","","","","","","","","","","","NaN",""
"","S1","","html-keyboard-response","94","166363","0.0-1.0-128.0","0","0","62179","","null","","","null","14","","","","","","","","","","","","","","","",""
"","ISI","","html-keyboard-response","95","166523","0.0-1.0-129.0","0","0","62179","","null","","","null","14","NaN","","","","","","","","","","","","","","",""
"","S2","","html-keyboard-response","96","166780","0.0-1.0-130.0","0","0","62179","","null","","","null","14","","NaN","","","","","","","","","","","","","",""
"","response","","html-keyboard-response","97","167121","0.0-1.0-131.0-0.0","0","0","62179","","335","","","75","14","","","1","14","training","adjacent","FG","6","7","O.jpg","P.jpg","1","1","1","",""
"","feedback","","html-keyboard-response","98","168135","0.0-1.0-132.0-0.0","0","0","62179","","null","","","null","14","","","","","","","","","","","","","","","",""
"","ITI","","html-keyboard-response","99","169156","0.0-1.0-135.0","0","0","62179","","null","","","null","14","","","","","","","","","","","","","","","NaN",""
"","S1","","html-keyboard-response","100","169416","0.0-1.0-137.0","0","0","62179","","null","","","null","15","","","","","","","","","","","","","","","",""
"","ISI","","html-keyboard-response","101","169574","0.0-1.0-138.0","0","0","62179","","null","","","null","15","NaN","","","","","","","","","","","","","","",""
"","S2","","html-keyboard-response","102","169843","0.0-1.0-139.0","0","0","62179","","null","","","null","15","","NaN","","","","","","","","","","","","","",""
"","response","","html-keyboard-response","103","170145","0.0-1.0-140.0-0.0","0","0","62179","","298","","","68","15","","","1","15","training","adjacent","CD","3","4","M.jpg","L.jpg","0","1","0","",""
"","feedback","","html-keyboard-response","104","171154","0.0-1.0-141.0-0.0","0","0","62179","","null","","","null","15","","","","","","","","","","","","","","","",""
"","time_out","","html-keyboard-response","105","173168","0.0-1.0-143.0-0.0","0","0","62179","","null","","","null","15","","","","","","","","","","","","","","","",""
"","ITI","","html-keyboard-response","106","174189","0.0-1.0-144.0","0","0","62179","","null","","","null","15","","","","","","","","","","","","","","","NaN",""
"","S1","","html-keyboard-response","107","174450","0.0-1.0-146.0","0","0","62179","","null","","","null","16","","","","","","","","","","","","","","","",""
"","ISI","","html-keyboard-response","108","174608","0.0-1.0-147.0","0","0","62179","","null","","","null","16","NaN","","","","","","","","","","","","","","",""
"","S2","","html-keyboard-response","109","174874","0.0-1.0-148.0","0","0","62179","","null","","","null","16","","NaN","","","","","","","","","","","","","",""
"","response","","html-keyboard-response","110","175195","0.0-1.0-149.0-0.0","0","0","62179","","316","","","68","16","","","1","16","training","adjacent","BA","2","1","N.jpg","R.jpg","0","0","1","",""
"","feedback","","html-keyboard-response","111","176202","0.0-1.0-150.0-0.0","0","0","62179","","null","","","null","16","","","","","","","","","","","","","","","",""
"","ITI","","html-keyboard-response","112","177216","0.0-1.0-153.0","0","0","62179","","null","","","null","16","","","","","","","","","","","","","","","NaN",""
"","S1","","html-keyboard-response","113","177482","0.0-1.0-155.0","0","0","62179","","null","","","null","17","","","","","","","","","","","","","","","",""
"","ISI","","html-keyboard-response","114","177643","0.0-1.0-156.0","0","0","62179","","null","","","null","17","NaN","","","","","","","","","","","","","","",""
"","S2","","html-keyboard-response","115","177901","0.0-1.0-157.0","0","0","62179","","null","","","null","17","","NaN","","","","","","","","","","","","","",""
"","response","","html-keyboard-response","116","178288","0.0-1.0-158.0-0.0","0","0","62179","","382","","","75","17","","","1","17","training","adjacent","GF","7","6","P.jpg","O.jpg","1","0","0","",""
"","feedback","","html-keyboard-response","117","179310","0.0-1.0-159.0-0.0","0","0","62179","","null","","","null","17","","","","","","","","","","","","","","","",""
"","time_out","","html-keyboard-response","118","181318","0.0-1.0-161.0-0.0","0","0","62179","","null","","","null","17","","","","","","","","","","","","","","","",""
"","ITI","","html-keyboard-response","119","182329","0.0-1.0-162.0","0","0","62179","","null","","","null","17","","","","","","","","","","","","","","","NaN",""
"","S1","","html-keyboard-response","120","182594","0.0-1.0-164.0","0","0","62179","","null","","","null","18","","","","","","","","","","","","","","","",""
"","ISI","","html-keyboard-response","121","182754","0.0-1.0-165.0","0","0","62179","","null","","","null","18","NaN","","","","","","","","","","","","","","",""
"","S2","","html-keyboard-response","122","183013","0.0-1.0-166.0","0","0","62179","","null","","","null","18","","NaN","","","","","","","","","","","","","",""
"","response","","html-keyboard-response","123","183327","0.0-1.0-167.0-0.0","0","0","62179","","309","","","75","18","","","1","18","training","adjacent","EF","5","6","Q.jpg","O.jpg","1","1","1","",""
"","feedback","","html-keyboard-response","124","184346","0.0-1.0-168.0-0.0","0","0","62179","","null","","","null","18","","","","","","","","","","","","","","","",""
"","ITI","","html-keyboard-response","125","185362","0.0-1.0-171.0","0","0","62179","","null","","","null","18","","","","","","","","","","","","","","","NaN",""
"","S1","","html-keyboard-response","126","185626","0.0-1.0-173.0","0","0","62179","","null","","","null","19","","","","","","","","","","","","","","","",""
"","ISI","","html-keyboard-response","127","185789","0.0-1.0-174.0","0","0","62179","","null","","","null","19","NaN","","","","","","","","","","","","","","",""
"","S2","","html-keyboard-response","128","186055","0.0-1.0-175.0","0","0","62179","","null","","","null","19","","NaN","","","","","","","","","","","","","",""
"","response","","html-keyboard-response","129","186401","0.0-1.0-176.0-0.0","0","0","62179","","340","","","75","19","","","1","19","training","adjacent","FE","6","5","O.jpg","Q.jpg","1","0","0","",""
"","feedback","","html-keyboard-response","130","187414","0.0-1.0-177.0-0.0","0","0","62179","","null","","","null","19","","","","","","","","","","","","","","","",""
"","time_out","","html-keyboard-response","131","189424","0.0-1.0-179.0-0.0","0","0","62179","","null","","","null","19","","","","","","","","","","","","","","","",""
"","ITI","","html-keyboard-response","132","190438","0.0-1.0-180.0","0","0","62179","","null","","","null","19","","","","","","","","","","","","","","","NaN",""
"","S1","","html-keyboard-response","133","190703","0.0-1.0-182.0","0","0","62179","","null","","","null","20","","","","","","","","","","","","","","","",""
"","ISI","","html-keyboard-response","134","190872","0.0-1.0-183.0","0","0","62179","","null","","","null","20","NaN","","","","","","","","","","","","","","",""
"","S2","","html-keyboard-response","135","191130","0.0-1.0-184.0","0","0","62179","","null","","","null","20","","NaN","","","","","","","","","","","","","",""
"","response","","html-keyboard-response","136","191339","0.0-1.0-185.0-0.0","0","0","62179","","203","","","68","20","","","1","20","training","adjacent","ED","5","4","Q.jpg","L.jpg","0","0","1","",""
"","feedback","","html-keyboard-response","137","192349","0.0-1.0-186.0-0.0","0","0","62179","","null","","","null","20","","","","","","","","","","","","","","","",""
"","ITI","","html-keyboard-response","138","193366","0.0-1.0-189.0","0","0","62179","","null","","","null","20","","","","","","","","","","","","","","","NaN",""
"","S1","","html-keyboard-response","139","193639","0.0-1.0-191.0","0","0","62179","","null","","","null","21","","","","","","","","","","","","","","","",""
"","ISI","","html-keyboard-response","140","193800","0.0-1.0-192.0","0","0","62179","","null","","","null","21","NaN","","","","","","","","","","","","","","",""
"","S2","","html-keyboard-response","141","194058","0.0-1.0-193.0","0","0","62179","","null","","","null","21","","NaN","","","","","","","","","","","","","",""
"","response","","html-keyboard-response","142","194393","0.0-1.0-194.0-0.0","0","0","62179","","330","","","68","21","","","1","21","training","adjacent","BC","2","3","N.jpg","M.jpg","0","1","0","",""
"","feedback","","html-keyboard-response","143","195408","0.0-1.0-195.0-0.0","0","0","62179","","null","","","null","21","","","","","","","","","","","","","","","",""
"","time_out","","html-keyboard-response","144","197421","0.0-1.0-197.0-0.0","0","0","62179","","null","","","null","21","","","","","","","","","","","","","","","",""
"","ITI","","html-keyboard-response","145","198442","0.0-1.0-198.0","0","0","62179","","null","","","null","21","","","","","","","","","","","","","","","NaN",""
"","S1","","html-keyboard-response","146","198700","0.0-1.0-200.0","0","0","62179","","null","","","null","22","","","","","","","","","","","","","","","",""
"","ISI","","html-keyboard-response","147","198861","0.0-1.0-201.0","0","0","62179","","57","","","68","22","d","","","","","","","","","","","","","","",""
"","S2","","html-keyboard-response","148","199125","0.0-1.0-202.0","0","0","62179","","null","","","null","22","","NaN","","","","","","","","","","","","","",""
"","response","","html-keyboard-response","149","199601","0.0-1.0-203.0-0.0","0","0","62179","","470","","","68","22","","","1","22","training","adjacent","BA","2","1","N.jpg","R.jpg","0","0","1","",""
"","feedback","","html-keyboard-response","150","200614","0.0-1.0-204.0-0.0","0","0","62179","","null","","","null","22","","","","","","","","","","","","","","","",""
"","ITI","","html-keyboard-response","151","201626","0.0-1.0-207.0","0","0","62179","","null","","","null","22","","","","","","","","","","","","","","","NaN",""
"","S1","","html-keyboard-response","152","201890","0.0-1.0-209.0","0","0","62179","","null","","","null","23","","","","","","","","","","","","","","","",""
"","ISI","","html-keyboard-response","153","202052","0.0-1.0-210.0","0","0","62179","","null","","","null","23","NaN","","","","","","","","","","","","","","",""
"","S2","","html-keyboard-response","154","202309","0.0-1.0-211.0","0","0","62179","","null","","","null","23","","NaN","","","","","","","","","","","","","",""
"","response","","html-keyboard-response","155","202757","0.0-1.0-212.0-0.0","0","0","62179","","442","","","75","23","","","1","23","training","adjacent","CD","3","4","M.jpg","L.jpg","1","1","1","",""
"","feedback","","html-keyboard-response","156","203766","0.0-1.0-213.0-0.0","0","0","62179","","null","","","null","23","","","","","","","","","","","","","","","",""
"","ITI","","html-keyboard-response","157","204777","0.0-1.0-216.0","0","0","62179","","null","","","null","23","","","","","","","","","","","","","","","NaN",""
"","S1","","html-keyboard-response","158","205038","0.0-1.0-218.0","0","0","62179","","null","","","null","24","","","","","","","","","","","","","","","",""
"","ISI","","html-keyboard-response","159","205198","0.0-1.0-219.0","0","0","62179","","null","","","null","24","NaN","","","","","","","","","","","","","","",""
"","S2","","html-keyboard-response","160","205464","0.0-1.0-220.0","0","0","62179","","null","","","null","24","","NaN","","","","","","","","","","","","","",""
"","response","","html-keyboard-response","161","205580","0.0-1.0-221.0-0.0","0","0","62179","","111","","","75","24","","","1","24","training","adjacent","CB","3","2","M.jpg","N.jpg","1","0","0","",""
"","feedback","","html-keyboard-response","162","206592","0.0-1.0-222.0-0.0","0","0","62179","","null","","","null","24","","","","","","","","","","","","","","","",""
"","time_out","","html-keyboard-response","163","208606","0.0-1.0-224.0-0.0","0","0","62179","","null","","","null","24","","","","","","","","","","","","","","","",""
"","ITI","","html-keyboard-response","164","209613","0.0-1.0-225.0","0","0","62179","","null","","","null","24","","","","","","","","","","","","","","","NaN",""
"","S1","","html-keyboard-response","165","209876","0.0-1.0-227.0","0","0","62179","","null","","","null","25","","","","","","","","","","","","","","","",""
"","ISI","","html-keyboard-response","166","210044","0.0-1.0-228.0","0","0","62179","","null","","","null","25","NaN","","","","","","","","","","","","","","",""
"","S2","","html-keyboard-response","167","210309","0.0-1.0-229.0","0","0","62179","","null","","","null","25","","NaN","","","","","","","","","","","","","",""
"","response","","html-keyboard-response","168","210762","0.0-1.0-230.0-0.0","0","0","62179","","447","","","75","25","","","1","25","training","adjacent","DC","4","3","L.jpg","M.jpg","1","0","0","",""
"","feedback","","html-keyboard-response","169","211769","0.0-1.0-231.0-0.0","0","0","62179","","null","","","null","25","","","","","","","","","","","","","","","",""
"","time_out","","html-keyboard-response","170","213783","0.0-1.0-233.0-0.0","0","0","62179","","null","","","null","25","","","","","","","","","","","","","","","",""
"","ITI","","html-keyboard-response","171","214797","0.0-1.0-234.0","0","0","62179","","null","","","null","25","","","","","","","","","","","","","","","NaN",""
"","S1","","html-keyboard-response","172","215059","0.0-1.0-236.0","0","0","62179","","null","","","null","26","","","","","","","","","","","","","","","",""
"","ISI","","html-keyboard-response","173","215223","0.0-1.0-237.0","0","0","62179","","null","","","null","26","NaN","","","","","","","","","","","","","","",""
"","S2","","html-keyboard-response","174","215485","0.0-1.0-238.0","0","0","62179","","null","","","null","26","","NaN","","","","","","","","","","","","","",""
"","response","","html-keyboard-response","175","215685","0.0-1.0-239.0-0.0","0","0","62179","","194","","","68","26","","","1","26","training","adjacent","EF","5","6","Q.jpg","O.jpg","0","1","0","",""
"","feedback","","html-keyboard-response","176","216694","0.0-1.0-240.0-0.0","0","0","62179","","null","","","null","26","","","","","","","","","","","","","","","",""
"","time_out","","html-keyboard-response","177","218706","0.0-1.0-242.0-0.0","0","0","62179","","null","","","null","26","","","","","","","","","","","","","","","",""
"","ITI","","html-keyboard-response","178","219726","0.0-1.0-243.0","0","0","62179","","null","","","null","26","","","","","","","","","","","","","","","NaN",""
"","S1","","html-keyboard-response","179","219988","0.0-1.0-245.0","0","0","62179","","null","","","null","27","","","","","","","","","","","","","","","",""
"","ISI","","html-keyboard-response","180","220150","0.0-1.0-246.0","0","0","62179","","null","","","null","27","NaN","","","","","","","","","","","","","","",""
"","S2","","html-keyboard-response","181","220416","0.0-1.0-247.0","0","0","62179","","null","","","null","27","","NaN","","","","","","","","","","","","","",""
"","response","","html-keyboard-response","182","220498","0.0-1.0-248.0-0.0","0","0","62179","","76","","","68","27","","","1","27","training","adjacent","ED","5","4","Q.jpg","L.jpg","0","0","1","",""
"","feedback","","html-keyboard-response","183","221517","0.0-1.0-249.0-0.0","0","0","62179","","null","","","null","27","","","","","","","","","","","","","","","",""
"","ITI","","html-keyboard-response","184","222523","0.0-1.0-252.0","0","0","62179","","null","","","null","27","","","","","","","","","","","","","","","NaN",""
"","S1","","html-keyboard-response","185","222782","0.0-1.0-254.0","0","0","62179","","null","","","null","28","","","","","","","","","","","","","","","",""
"","ISI","","html-keyboard-response","186","222943","0.0-1.0-255.0","0","0","62179","","null","","","null","28","NaN","","","","","","","","","","","","","","",""
"","S2","","html-keyboard-response","187","223200","0.0-1.0-256.0","0","0","62179","","null","","","null","28","","NaN","","","","","","","","","","","","","",""
"","response","","html-keyboard-response","188","223293","0.0-1.0-257.0-0.0","0","0","62179","","87","","","75","28","","","1","28","training","adjacent","CB","3","2","M.jpg","N.jpg","1","0","0","",""
"","feedback","","html-keyboard-response","189","224305","0.0-1.0-258.0-0.0","0","0","62179","","null","","","null","28","","","","","","","","","","","","","","","",""
"","time_out","","html-keyboard-response","190","226324","0.0-1.0-260.0-0.0","0","0","62179","","null","","","null","28","","","","","","","","","","","","","","","",""
"","ITI","","html-keyboard-response","191","227332","0.0-1.0-261.0","0","0","62179","","null","","","null","28","","","","","","","","","","","","","","","NaN",""
"","S1","","html-keyboard-response","192","227596","0.0-1.0-263.0","0","0","62179","","null","","","null","29","","","","","","","","","","","","","","","",""
"","ISI","","html-keyboard-response","193","227759","0.0-1.0-264.0","0","0","62179","","null","","","null","29","NaN","","","","","","","","","","","","","","",""
"","S2","","html-keyboard-response","194","228017","0.0-1.0-265.0","0","0","62179","","null","","","null","29","","NaN","","","","","","","","","","","","","",""
"","response","","html-keyboard-response","195","228361","0.0-1.0-266.0-0.0","0","0","62179","","339","","","68","29","","","1","29","training","adjacent","DC","4","3","L.jpg","M.jpg","0","0","1","",""
"","feedback","","html-keyboard-response","196","229374","0.0-1.0-267.0-0.0","0","0","62179","","null","","","null","29","","","","","","","","","","","","","","","",""
"","ITI","","html-keyboard-response","197","230383","0.0-1.0-270.0","0","0","62179","","null","","","null","29","","","","","","","","","","","","","","","NaN",""
"","S1","","html-keyboard-response","198","230641","0.0-1.0-272.0","0","0","62179","","null","","","null","30","","","","","","","","","","","","","","","",""
"","ISI","","html-keyboard-response","199","230800","0.0-1.0-273.0","0","0","62179","","null","","","null","30","NaN","","","","","","","","","","","","","","",""
"","S2","","html-keyboard-response","200","231058","0.0-1.0-274.0","0","0","62179","","null","","","null","30","","NaN","","","","","","","","","","","","","",""
"","response","","html-keyboard-response","201","231345","0.0-1.0-275.0-0.0","0","0","62179","","282","","","68","30","","","1","30","training","adjacent","FG","6","7","O.jpg","P.jpg","0","1","0","",""
"","feedback","","html-keyboard-response","202","232354","0.0-1.0-276.0-0.0","0","0","62179","","null","","","null","30","","","","","","","","","","","","","","","",""
"","time_out","","html-keyboard-response","203","234365","0.0-1.0-278.0-0.0","0","0","62179","","null","","","null","30","","","","","","","","","","","","","","","",""
"","ITI","","html-keyboard-response","204","235373","0.0-1.0-279.0","0","0","62179","","null","","","null","30","","","","","","","","","","","","","","","NaN",""
"","S1","","html-keyboard-response","205","235637","0.0-1.0-281.0","0","0","62179","","null","","","null","31","","","","","","","","","","","","","","","",""
"","ISI","","html-keyboard-response","206","235807","0.0-1.0-282.0","0","0","62179","","null","","","null","31","NaN","","","","","","","","","","","","","","",""
"","S2","","html-keyboard-response","207","236064","0.0-1.0-283.0","0","0","62179","","null","","","null","31","","NaN","","","","","","","","","","","","","",""
"","response","","html-keyboard-response","208","236485","0.0-1.0-284.0-0.0","0","0","62179","","416","","","68","31","","","1","31","training","adjacent","DC","4","3","L.jpg","M.jpg","0","0","1","",""
"","feedback","","html-keyboard-response","209","237507","0.0-1.0-285.0-0.0","0","0","62179","","null","","","null","31","","","","","","","","","","","","","","","",""
"","ITI","","html-keyboard-response","210","238528","0.0-1.0-288.0","0","0","62179","","null","","","null","31","","","","","","","","","","","","","","","NaN",""
"","S1","","html-keyboard-response","211","238792","0.0-1.0-290.0","0","0","62179","","null","","","null","32","","","","","","","","","","","","","","","",""
"","ISI","","html-keyboard-response","212","238952","0.0-1.0-291.0","0","0","62179","","null","","","null","32","NaN","","","","","","","","","","","","","","",""
"","S2","","html-keyboard-response","213","239224","0.0-1.0-292.0","0","0","62179","","null","","","null","32","","NaN","","","","","","","","","","","","","",""
"","response","","html-keyboard-response","214","239257","0.0-1.0-293.0-0.0","0","0","62179","","29","","","75","32","","","1","32","training","adjacent","GF","7","6","P.jpg","O.jpg","1","0","0","",""
"","feedback","","html-keyboard-response","215","240269","0.0-1.0-294.0-0.0","0","0","62179","","null","","","null","32","","","","","","","","","","","","","","","",""
"","time_out","","html-keyboard-response","216","242289","0.0-1.0-296.0-0.0","0","0","62179","","null","","","null","32","","","","","","","","","","","","","","","",""
"","ITI","","html-keyboard-response","217","243296","0.0-1.0-297.0","0","0","62179","","null","","","null","32","","","","","","","","","","","","","","","NaN",""
"","S1","","html-keyboard-response","218","243555","0.0-1.0-299.0","0","0","62179","","null","","","null","33","","","","","","","","","","","","","","","",""
"","ISI","","html-keyboard-response","219","243716","0.0-1.0-300.0","0","0","62179","","null","","","null","33","NaN","","","","","","","","","","","","","","",""
"","S2","","html-keyboard-response","220","243984","0.0-1.0-301.0","0","0","62179","","null","","","null","33","","NaN","","","","","","","","","","","","","",""
"","response","","html-keyboard-response","221","244821","0.0-1.0-302.0-0.0","0","0","62179","","832","","","68","33","","","1","33","training","adjacent","BA","2","1","N.jpg","R.jpg","0","0","1","",""
"","feedback","","html-keyboard-response","222","245834","0.0-1.0-303.0-0.0","0","0","62179","","null","","","null","33","","","","","","","","","","","","","","","",""
"","ITI","","html-keyboard-response","223","246844","0.0-1.0-306.0","0","0","62179","","null","","","null","33","","","","","","","","","","","","","","","NaN",""
"","S1","","html-keyboard-response","224","247100","0.0-1.0-308.0","0","0","62179","","null","","","null","34","","","","","","","","","","","","","","","",""
"","ISI","","html-keyboard-response","225","247262","0.0-1.0-309.0","0","0","62179","","null","","","null","34","NaN","","","","","","","","","","","","","","",""
"","S2","","html-keyboard-response","226","247526","0.0-1.0-310.0","0","0","62179","","null","","","null","34","","NaN","","","","","","","","","","","","","",""
"","response","","html-keyboard-response","227","247669","0.0-1.0-311.0-0.0","0","0","62179","","137","","","75","34","","","1","34","training","adjacent","DE","4","5","L.jpg","Q.jpg","1","1","1","",""
"","feedback","","html-keyboard-response","228","248680","0.0-1.0-312.0-0.0","0","0","62179","","null","","","null","34","","","","","","","","","","","","","","","",""
"","ITI","","html-keyboard-response","229","249692","0.0-1.0-315.0","0","0","62179","","null","","","null","34","","","","","","","","","","","","","","","NaN",""
"","S1","","html-keyboard-response","230","249959","0.0-1.0-317.0","0","0","62179","","null","","","null","35","","","","","","","","","","","","","","","",""
"","ISI","","html-keyboard-response","231","250120","0.0-1.0-318.0","0","0","62179","","null","","","null","35","NaN","","","","","","","","","","","","","","",""
"","S2","","html-keyboard-response","232","250384","0.0-1.0-319.0","0","0","62179","","null","","","null","35","","NaN","","","","","","","","","","","","","",""
"","response","","html-keyboard-response","233","250751","0.0-1.0-320.0-0.0","0","0","62179","","362","","","75","35","","","1","35","training","adjacent","CB","3","2","M.jpg","N.jpg","1","0","0","",""
"","feedback","","html-keyboard-response","234","251766","0.0-1.0-321.0-0.0","0","0","62179","","null","","","null","35","","","","","","","","","","","","","","","",""
"","time_out","","html-keyboard-response","235","253773","0.0-1.0-323.0-0.0","0","0","62179","","null","","","null","35","","","","","","","","","","","","","","","",""
"","ITI","","html-keyboard-response","236","254782","0.0-1.0-324.0","0","0","62179","","null","","","null","35","","","","","","","","","","","","","","","NaN",""
"","S1","","html-keyboard-response","237","255040","0.0-1.0-326.0","0","0","62179","","null","","","null","36","","","","","","","","","","","","","","","",""
"","ISI","","html-keyboard-response","238","255200","0.0-1.0-327.0","0","0","62179","","141","","","68","36","d","","","","","","","","","","","","","","",""
"","S2","","html-keyboard-response","239","255473","0.0-1.0-328.0","0","0","62179","","null","","","null","36","","NaN","","","","","","","","","","","","","",""
"","response","","html-keyboard-response","240","255956","0.0-1.0-329.0-0.0","0","0","62179","","477","","","68","36","","","1","36","training","adjacent","GF","7","6","P.jpg","O.jpg","0","0","1","",""
"","feedback","","html-keyboard-response","241","256968","0.0-1.0-330.0-0.0","0","0","62179","","null","","","null","36","","","","","","","","","","","","","","","",""
"","ITI","","html-keyboard-response","242","257977","0.0-1.0-333.0","0","0","62179","","null","","","null","36","","","","","","","","","","","","","","","NaN",""
"","S1","","html-keyboard-response","243","258235","0.0-1.0-335.0","0","0","62179","","null","","","null","37","","","","","","","","","","","","","","","",""
"","ISI","","html-keyboard-response","244","258395","0.0-1.0-336.0","0","0","62179","","null","","","null","37","NaN","","","","","","","","","","","","","","",""
"","S2","","html-keyboard-response","245","258658","0.0-1.0-337.0","0","0","62179","","null","","","null","37","","NaN","","","","","","","","","","","","","",""
"","response","","html-keyboard-response","246","259277","0.0-1.0-338.0-0.0","0","0","62179","","613","","","68","37","","","1","37","training","adjacent","CB","3","2","M.jpg","N.jpg","0","0","1","",""
"","feedback","","html-keyboard-response","247","260290","0.0-1.0-339.0-0.0","0","0","62179","","null","","","null","37","","","","","","","","","","","","","","","",""
"","ITI","","html-keyboard-response","248","261304","0.0-1.0-342.0","0","0","62179","","null","","","null","37","","","","","","","","","","","","","","","NaN",""
"","S1","","html-keyboard-response","249","261565","0.0-1.0-344.0","0","0","62179","","null","","","null","38","","","","","","","","","","","","","","","",""
"","ISI","","html-keyboard-response","250","261726","0.0-1.0-345.0","0","0","62179","","null","","","null","38","NaN","","","","","","","","","","","","","","",""
"","S2","","html-keyboard-response","251","261992","0.0-1.0-346.0","0","0","62179","","null","","","null","38","","NaN","","","","","","","","","","","","","",""
"","response","","html-keyboard-response","252","262384","0.0-1.0-347.0-0.0","0","0","62179","","386","","","75","38","","","1","38","training","adjacent","FE","6","5","O.jpg","Q.jpg","1","0","0","",""
"","feedback","","html-keyboard-response","253","263407","0.0-1.0-348.0-0.0","0","0","62179","","null","","","null","38","","","","","","","","","","","","","","","",""
"","time_out","","html-keyboard-response","254","265414","0.0-1.0-350.0-0.0","0","0","62179","","null","","","null","38","","","","","","","","","","","","","","","",""
"","ITI","","html-keyboard-response","255","266429","0.0-1.0-351.0","0","0","62179","","null","","","null","38","","","","","","","","","","","","","","","NaN",""
"","S1","","html-keyboard-response","256","266692","0.0-1.0-353.0","0","0","62179","","null","","","null","39","","","","","","","","","","","","","","","",""
"","ISI","","html-keyboard-response","257","266861","0.0-1.0-354.0","0","0","62179","","null","","","null","39","NaN","","","","","","","","","","","","","","",""
"","S2","","html-keyboard-response","258","267122","0.0-1.0-355.0","0","0","62179","","null","","","null","39","","NaN","","","","","","","","","","","","","",""
"","response","","html-keyboard-response","259","267368","0.0-1.0-356.0-0.0","0","0","62179","","241","","","68","39","","","1","39","training","adjacent","FE","6","5","O.jpg","Q.jpg","0","0","1","",""
"","feedback","","html-keyboard-response","260","268374","0.0-1.0-357.0-0.0","0","0","62179","","null","","","null","39","","","","","","","","","","","","","","","",""
"","ITI","","html-keyboard-response","261","269385","0.0-1.0-360.0","0","0","62179","","null","","","null","39","","","","","","","","","","","","","","","NaN",""
"","S1","","html-keyboard-response","262","269648","0.0-1.0-362.0","0","0","62179","","null","","","null","40","","","","","","","","","","","","","","","",""
"","ISI","","html-keyboard-response","263","269809","0.0-1.0-363.0","0","0","62179","","null","","","null","40","NaN","","","","","","","","","","","","","","",""
"","S2","","html-keyboard-response","264","270067","0.0-1.0-364.0","0","0","62179","","null","","","null","40","","NaN","","","","","","","","","","","","","",""
"","response","","html-keyboard-response","265","270667","0.0-1.0-365.0-0.0","0","0","62179","","594","","","68","40","","","1","40","training","adjacent","CD","3","4","M.jpg","L.jpg","0","1","0","",""
"","feedback","","html-keyboard-response","266","271684","0.0-1.0-366.0-0.0","0","0","62179","","null","","","null","40","","","","","","","","","","","","","","","",""
"","time_out","","html-keyboard-response","267","273695","0.0-1.0-368.0-0.0","0","0","62179","","null","","","null","40","","","","","","","","","","","","","","","",""
"","ITI","","html-keyboard-response","268","274704","0.0-1.0-369.0","0","0","62179","","null","","","null","40","","","","","","","","","","","","","","","NaN",""
"","S1","","html-keyboard-response","269","274961","0.0-1.0-371.0","0","0","62179","","null","","","null","41","","","","","","","","","","","","","","","",""
"","ISI","","html-keyboard-response","270","275123","0.0-1.0-372.0","0","0","62179","","null","","","null","41","NaN","","","","","","","","","","","","","","",""
"","S2","","html-keyboard-response","271","275387","0.0-1.0-373.0","0","0","62179","","null","","","null","41","","NaN","","","","","","","","","","","","","",""
"","response","","html-keyboard-response","272","275515","0.0-1.0-374.0-0.0","0","0","62179","","123","","","68","41","","","1","41","training","adjacent","BC","2","3","N.jpg","M.jpg","0","1","0","",""
"","feedback","","html-keyboard-response","273","276522","0.0-1.0-375.0-0.0","0","0","62179","","null","","","null","41","","","","","","","","","","","","","","","",""
"","time_out","","html-keyboard-response","274","278537","0.0-1.0-377.0-0.0","0","0","62179","","null","","","null","41","","","","","","","","","","","","","","","",""
"","ITI","","html-keyboard-response","275","279545","0.0-1.0-378.0","0","0","62179","","null","","","null","41","","","","","","","","","","","","","","","NaN",""
"","S1","","html-keyboard-response","276","279803","0.0-1.0-380.0","0","0","62179","","null","","","null","42","","","","","","","","","","","","","","","",""
"","ISI","","html-keyboard-response","277","279962","0.0-1.0-381.0","0","0","62179","","null","","","null","42","NaN","","","","","","","","","","","","","","",""
"","S2","","html-keyboard-response","278","280225","0.0-1.0-382.0","0","0","62179","","null","","","null","42","","NaN","","","","","","","","","","","","","",""
"","response","","html-keyboard-response","279","280610","0.0-1.0-383.0-0.0","0","0","62179","","380","","","75","42","","","1","42","training","adjacent","EF","5","6","Q.jpg","O.jpg","1","1","1","",""
"","feedback","","html-keyboard-response","280","281625","0.0-1.0-384.0-0.0","0","0","62179","","null","","","null","42","","","","","","","","","","","","","","","",""
"","ITI","","html-keyboard-response","281","282633","0.0-1.0-387.0","0","0","62179","","null","","","null","42","","","","","","","","","","","","","","","NaN",""
"","S1","","html-keyboard-response","282","282898","0.0-1.0-389.0","0","0","62179","","null","","","null","43","","","","","","","","","","","","","","","",""
"","ISI","","html-keyboard-response","283","283066","0.0-1.0-390.0","0","0","62179","","null","","","null","43","NaN","","","","","","","","","","","","","","",""
"","S2","","html-keyboard-response","284","283323","0.0-1.0-391.0","0","0","62179","","null","","","null","43","","NaN","","","","","","","","","","","","","",""
"","response","","html-keyboard-response","285","283544","0.0-1.0-392.0-0.0","0","0","62179","","217","","","68","43","","","1","43","training","adjacent","BC","2","3","N.jpg","M.jpg","0","1","0","",""
"","feedback","","html-keyboard-response","286","284553","0.0-1.0-393.0-0.0","0","0","62179","","null","","","null","43","","","","","","","","","","","","","","","",""
"","time_out","","html-keyboard-response","287","286569","0.0-1.0-395.0-0.0","0","0","62179","","null","","","null","43","","","","","","","","","","","","","","","",""
"","ITI","","html-keyboard-response","288","287576","0.0-1.0-396.0","0","0","62179","","null","","","null","43","","","","","","","","","","","","","","","NaN",""
"","S1","","html-keyboard-response","289","287848","0.0-1.0-398.0","0","0","62179","","null","","","null","44","","","","","","","","","","","","","","","",""
"","ISI","","html-keyboard-response","290","288004","0.0-1.0-399.0","0","0","62179","","null","","","null","44","NaN","","","","","","","","","","","","","","",""
"","S2","","html-keyboard-response","291","288264","0.0-1.0-400.0","0","0","62179","","null","","","null","44","","NaN","","","","","","","","","","","","","",""
"","response","","html-keyboard-response","292","288494","0.0-1.0-401.0-0.0","0","0","62179","","225","","","68","44","","","1","44","training","adjacent","FG","6","7","O.jpg","P.jpg","0","1","0","",""
"","feedback","","html-keyboard-response","293","289507","0.0-1.0-402.0-0.0","0","0","62179","","null","","","null","44","","","","","","","","","","","","","","","",""
"","time_out","","html-keyboard-response","294","291514","0.0-1.0-404.0-0.0","0","0","62179","","null","","","null","44","","","","","","","","","","","","","","","",""
"","ITI","","html-keyboard-response","295","292527","0.0-1.0-405.0","0","0","62179","","null","","","null","44","","","","","","","","","","","","","","","NaN",""
"","S1","","html-keyboard-response","296","292791","0.0-1.0-407.0","0","0","62179","","null","","","null","45","","","","","","","","","","","","","","","",""
"","ISI","","html-keyboard-response","297","292951","0.0-1.0-408.0","0","0","62179","","null","","","null","45","NaN","","","","","","","","","","","","","","",""
"","S2","","html-keyboard-response","298","293217","0.0-1.0-409.0","0","0","62179","","null","","","null","45","","NaN","","","","","","","","","","","","","",""
"","response","","html-keyboard-response","299","293573","0.0-1.0-410.0-0.0","0","0","62179","","351","","","75","45","","","1","45","training","adjacent","GF","7","6","P.jpg","O.jpg","1","0","0","",""
"","feedback","","html-keyboard-response","300","294587","0.0-1.0-411.0-0.0","0","0","62179","","null","","","null","45","","","","","","","","","","","","","","","",""
"","time_out","","html-keyboard-response","301","296597","0.0-1.0-413.0-0.0","0","0","62179","","null","","","null","45","","","","","","","","","","","","","","","",""
"","ITI","","html-keyboard-response","302","297608","0.0-1.0-414.0","0","0","62179","","null","","","null","45","","","","","","","","","","","","","","","NaN",""
"","S1","","html-keyboard-response","303","297867","0.0-1.0-416.0","0","0","62179","","null","","","null","46","","","","","","","","","","","","","","","",""
"","ISI","","html-keyboard-response","304","298026","0.0-1.0-417.0","0","0","62179","","null","","","null","46","NaN","","","","","","","","","","","","","","",""
"","S2","","html-keyboard-response","305","298288","0.0-1.0-418.0","0","0","62179","","null","","","null","46","","NaN","","","","","","","","","","","","","",""
"","response","","html-keyboard-response","306","298657","0.0-1.0-419.0-0.0","0","0","62179","","363","","","75","46","","","1","46","training","adjacent","FE","6","5","O.jpg","Q.jpg","1","0","0","",""
"","feedback","","html-keyboard-response","307","299679","0.0-1.0-420.0-0.0","0","0","62179","","null","","","null","46","","","","","","","","","","","","","","","",""
"","time_out","","html-keyboard-response","308","301687","0.0-1.0-422.0-0.0","0","0","62179","","null","","","null","46","","","","","","","","","","","","","","","",""
"","ITI","","html-keyboard-response","309","302697","0.0-1.0-423.0","0","0","62179","","null","","","null","46","","","","","","","","","","","","","","","NaN",""
"","S1","","html-keyboard-response","310","302960","0.0-1.0-425.0","0","0","62179","","null","","","null","47","","","","","","","","","","","","","","","",""
"","ISI","","html-keyboard-response","311","303122","0.0-1.0-426.0","0","0","62179","","null","","","null","47","NaN","","","","","","","","","","","","","","",""
"","S2","","html-keyboard-response","312","303380","0.0-1.0-427.0","0","0","62179","","null","","","null","47","","NaN","","","","","","","","","","","","","",""
"","response","","html-keyboard-response","313","303533","0.0-1.0-428.0-0.0","0","0","62179","","147","","","68","47","","","1","47","training","adjacent","ED","5","4","Q.jpg","L.jpg","0","0","1","",""
"","feedback","","html-keyboard-response","314","304556","0.0-1.0-429.0-0.0","0","0","62179","","null","","","null","47","","","","","","","","","","","","","","","",""
"","ITI","","html-keyboard-response","315","305567","0.0-1.0-432.0","0","0","62179","","null","","","null","47","","","","","","","","","","","","","","","NaN",""
"","block_over","","html-keyboard-response","316","316065","0.0-1.0-433.0-0.0","0","0","62179","","10492","","","32","47","","","","","","","","","","","","","","","",""
"","S1","","html-keyboard-response","317","316327","0.0-1.0-434.0","0","0","62179","","null","","","null","48","","","","","","","","","","","","","","","",""
"","ISI","","html-keyboard-response","318","316489","0.0-1.0-435.0","0","0","62179","","null","","","null","48","NaN","","","","","","","","","","","","","","",""
"","S2","","html-keyboard-response","319","316755","0.0-1.0-436.0","0","0","62179","","null","","","null","48","","NaN","","","","","","","","","","","","","",""
"","response","","html-keyboard-response","320","317172","0.0-1.0-437.0-0.0","0","0","62179","","411","","","75","48","","","2","48","training","adjacent","AB","1","2","R.jpg","N.jpg","1","1","1","",""
"","feedback","","html-keyboard-response","321","318182","0.0-1.0-438.0-0.0","0","0","62179","","null","","","null","48","","","","","","","","","","","","","","","",""
"","ITI","","html-keyboard-response","322","319193","0.0-1.0-441.0","0","0","62179","","null","","","null","48","","","","","","","","","","","","","","","NaN",""
"","S1","","html-keyboard-response","323","319449","0.0-1.0-443.0","0","0","62179","","null","","","null","49","","","","","","","","","","","","","","","",""
"","ISI","","html-keyboard-response","324","319610","0.0-1.0-444.0","0","0","62179","","null","","","null","49","NaN","","","","","","","","","","","","","","",""
"","S2","","html-keyboard-response","325","319873","0.0-1.0-445.0","0","0","62179","","null","","","null","49","","NaN","","","","","","","","","","","","","",""
"","response","","html-keyboard-response","326","320037","0.0-1.0-446.0-0.0","0","0","62179","","159","","","68","49","","","2","49","training","adjacent","DC","4","3","L.jpg","M.jpg","0","0","1","",""
"","feedback","","html-keyboard-response","327","321050","0.0-1.0-447.0-0.0","0","0","62179","","null","","","null","49","","","","","","","","","","","","","","","",""
"","ITI","","html-keyboard-response","328","322059","0.0-1.0-450.0","0","0","62179","","null","","","null","49","","","","","","","","","","","","","","","NaN",""
"","S1","","html-keyboard-response","329","322324","0.0-1.0-452.0","0","0","62179","","null","","","null","50","","","","","","","","","","","","","","","",""
"","ISI","","html-keyboard-response","330","322484","0.0-1.0-453.0","0","0","62179","","null","","","null","50","NaN","","","","","","","","","","","","","","",""
"","S2","","html-keyboard-response","331","322748","0.0-1.0-454.0","0","0","62179","","null","","","null","50","","NaN","","","","","","","","","","","","","",""
"","response","","html-keyboard-response","332","322798","0.0-1.0-455.0-0.0","0","0","62179","","45","","","75","50","","","2","50","training","adjacent","ED","5","4","Q.jpg","L.jpg","1","0","0","",""
"","feedback","","html-keyboard-response","333","323809","0.0-1.0-456.0-0.0","0","0","62179","","null","","","null","50","","","","","","","","","","","","","","","",""
"","time_out","","html-keyboard-response","334","325823","0.0-1.0-458.0-0.0","0","0","62179","","null","","","null","50","","","","","","","","","","","","","","","",""
"","ITI","","html-keyboard-response","335","326834","0.0-1.0-459.0","0","0","62179","","null","","","null","50","","","","","","","","","","","","","","","NaN",""
"","S1","","html-keyboard-response","336","327096","0.0-1.0-461.0","0","0","62179","","null","","","null","51","","","","","","","","","","","","","","","",""
"","ISI","","html-keyboard-response","337","327256","0.0-1.0-462.0","0","0","62179","","null","","","null","51","NaN","","","","","","","","","","","","","","",""
"","S2","","html-keyboard-response","338","327514","0.0-1.0-463.0","0","0","62179","","null","","","null","51","","NaN","","","","","","","","","","","","","",""
"","response","","html-keyboard-response","339","327841","0.0-1.0-464.0-0.0","0","0","62179","","321","","","68","51","","","2","51","training","adjacent","CB","3","2","M.jpg","N.jpg","0","0","1","",""
"","feedback","","html-keyboard-response","340","328854","0.0-1.0-465.0-0.0","0","0","62179","","null","","","null","51","","","","","","","","","","","","","","","",""
"","ITI","","html-keyboard-response","341","329868","0.0-1.0-468.0","0","0","62179","","null","","","null","51","","","","","","","","","","","","","","","NaN",""
"","S1","","html-keyboard-response","342","330137","0.0-1.0-470.0","0","0","62179","","null","","","null","52","","","","","","","","","","","","","","","",""
"","ISI","","html-keyboard-response","343","330299","0.0-1.0-471.0","0","0","62179","","null","","","null","52","NaN","","","","","","","","","","","","","","",""
"","S2","","html-keyboard-response","344","330563","0.0-1.0-472.0","0","0","62179","","null","","","null","52","","NaN","","","","","","","","","","","","","",""
"","response","","html-keyboard-response","345","330710","0.0-1.0-473.0-0.0","0","0","62179","","141","","","75","52","","","2","52","training","adjacent","DE","4","5","L.jpg","Q.jpg","1","1","1","",""
"","feedback","","html-keyboard-response","346","331720","0.0-1.0-474.0-0.0","0","0","62179","","null","","","null","52","","","","","","","","","","","","","","","",""
"","ITI","","html-keyboard-response","347","332726","0.0-1.0-477.0","0","0","62179","","null","","","null","52","","","","","","","","","","","","","","","NaN",""
"","S1","","html-keyboard-response","348","332994","0.0-1.0-479.0","0","0","62179","","null","","","null","53","","","","","","","","","","","","","","","",""
"","ISI","","html-keyboard-response","349","333155","0.0-1.0-480.0","0","0","62179","","null","","","null","53","NaN","","","","","","","","","","","","","","",""
"","S2","","html-keyboard-response","350","333418","0.0-1.0-481.0","0","0","62179","","null","","","null","53","","NaN","","","","","","","","","","","","","",""
"","response","","html-keyboard-response","351","333714","0.0-1.0-482.0-0.0","0","0","62179","","290","","","75","53","","","2","53","training","adjacent","FE","6","5","O.jpg","Q.jpg","1","0","0","",""
"","feedback","","html-keyboard-response","352","334727","0.0-1.0-483.0-0.0","0","0","62179","","null","","","null","53","","","","","","","","","","","","","","","",""
"","time_out","","html-keyboard-response","353","336733","0.0-1.0-485.0-0.0","0","0","62179","","null","","","null","53","","","","","","","","","","","","","","","",""
"","ITI","","html-keyboard-response","354","337746","0.0-1.0-486.0","0","0","62179","","null","","","null","53","","","","","","","","","","","","","","","NaN",""
"","S1","","html-keyboard-response","355","338009","0.0-1.0-488.0","0","0","62179","","null","","","null","54","","","","","","","","","","","","","","","",""
"","ISI","","html-keyboard-response","356","338179","0.0-1.0-489.0","0","0","62179","","null","","","null","54","NaN","","","","","","","","","","","","","","",""
"","S2","","html-keyboard-response","357","338443","0.0-1.0-490.0","0","0","62179","","null","","","null","54","","NaN","","","","","","","","","","","","","",""
"","response","","html-keyboard-response","358","338550","0.0-1.0-491.0-0.0","0","0","62179","","101","","","75","54","","","2","54","training","adjacent","DC","4","3","L.jpg","M.jpg","1","0","0","",""
"","feedback","","html-keyboard-response","359","339560","0.0-1.0-492.0-0.0","0","0","62179","","null","","","null","54","","","","","","","","","","","","","","","",""
"","time_out","","html-keyboard-response","360","341574","0.0-1.0-494.0-0.0","0","0","62179","","null","","","null","54","","","","","","","","","","","","","","","",""
"","ITI","","html-keyboard-response","361","342589","0.0-1.0-495.0","0","0","62179","","null","","","null","54","","","","","","","","","","","","","","","NaN",""
"","S1","","html-keyboard-response","362","342854","0.0-1.0-497.0","0","0","62179","","null","","","null","55","","","","","","","","","","","","","","","",""
"","ISI","","html-keyboard-response","363","343023","0.0-1.0-498.0","0","0","62179","","null","","","null","55","NaN","","","","","","","","","","","","","","",""
"","S2","","html-keyboard-response","364","343280","0.0-1.0-499.0","0","0","62179","","null","","","null","55","","NaN","","","","","","","","","","","","","",""
"","response","","html-keyboard-response","365","343758","0.0-1.0-500.0-0.0","0","0","62179","","472","","","68","55","","","2","55","training","adjacent","EF","5","6","Q.jpg","O.jpg","0","1","0","",""
"","feedback","","html-keyboard-response","366","344777","0.0-1.0-501.0-0.0","0","0","62179","","null","","","null","55","","","","","","","","","","","","","","","",""
"","time_out","","html-keyboard-response","367","346787","0.0-1.0-503.0-0.0","0","0","62179","","null","","","null","55","","","","","","","","","","","","","","","",""
"","ITI","","html-keyboard-response","368","347800","0.0-1.0-504.0","0","0","62179","","null","","","null","55","","","","","","","","","","","","","","","NaN",""
"","S1","","html-keyboard-response","369","348063","0.0-1.0-506.0","0","0","62179","","null","","","null","56","","","","","","","","","","","","","","","",""
"","ISI","","html-keyboard-response","370","348225","0.0-1.0-507.0","0","0","62179","","null","","","null","56","NaN","","","","","","","","","","","","","","",""
"","S2","","html-keyboard-response","371","348482","0.0-1.0-508.0","0","0","62179","","null","","","null","56","","NaN","","","","","","","","","","","","","",""
"","response","","html-keyboard-response","372","348717","0.0-1.0-509.0-0.0","0","0","62179","","229","","","75","56","","","2","56","training","adjacent","FE","6","5","O.jpg","Q.jpg","1","0","0","",""
"","feedback","","html-keyboard-response","373","349727","0.0-1.0-510.0-0.0","0","0","62179","","null","","","null","56","","","","","","","","","","","","","","","",""
"","time_out","","html-keyboard-response","374","351737","0.0-1.0-512.0-0.0","0","0","62179","","null","","","null","56","","","","","","","","","","","","","","","",""
"","ITI","","html-keyboard-response","375","352752","0.0-1.0-513.0","0","0","62179","","null","","","null","56","","","","","","","","","","","","","","","NaN",""
"","S1","","html-keyboard-response","376","353017","0.0-1.0-515.0","0","0","62179","","null","","","null","57","","","","","","","","","","","","","","","",""
"","ISI","","html-keyboard-response","377","353179","0.0-1.0-516.0","0","0","62179","","null","","","null","57","NaN","","","","","","","","","","","","","","",""
"","S2","","html-keyboard-response","378","353444","0.0-1.0-517.0","0","0","62179","","null","","","null","57","","NaN","","","","","","","","","","","","","",""
"","response","","html-keyboard-response","379","353787","0.0-1.0-518.0-0.0","0","0","62179","","338","","","68","57","","","2","57","training","adjacent","EF","5","6","Q.jpg","O.jpg","0","1","0","",""
"","feedback","","html-keyboard-response","380","354796","0.0-1.0-519.0-0.0","0","0","62179","","null","","","null","57","","","","","","","","","","","","","","","",""
"","time_out","","html-keyboard-response","381","356810","0.0-1.0-521.0-0.0","0","0","62179","","null","","","null","57","","","","","","","","","","","","","","","",""
"","ITI","","html-keyboard-response","382","357824","0.0-1.0-522.0","0","0","62179","","null","","","null","57","","","","","","","","","","","","","","","NaN",""
"","S1","","html-keyboard-response","383","358089","0.0-1.0-524.0","0","0","62179","","null","","","null","58","","","","","","","","","","","","","","","",""
"","ISI","","html-keyboard-response","384","358249","0.0-1.0-525.0","0","0","62179","","null","","","null","58","NaN","","","","","","","","","","","","","","",""
"","S2","","html-keyboard-response","385","358509","0.0-1.0-526.0","0","0","62179","","null","","","null","58","","NaN","","","","","","","","","","","","","",""
"","response","","html-keyboard-response","386","358664","0.0-1.0-527.0-0.0","0","0","62179","","148","","","68","58","","","2","58","training","adjacent","DE","4","5","L.jpg","Q.jpg","0","1","0","",""
"","feedback","","html-keyboard-response","387","359675","0.0-1.0-528.0-0.0","0","0","62179","","null","","","null","58","","","","","","","","","","","","","","","",""
"","time_out","","html-keyboard-response","388","361684","0.0-1.0-530.0-0.0","0","0","62179","","null","","","null","58","","","","","","","","","","","","","","","",""
"","ITI","","html-keyboard-response","389","362704","0.0-1.0-531.0","0","0","62179","","null","","","null","58","","","","","","","","","","","","","","","NaN",""
"","S1","","html-keyboard-response","390","362968","0.0-1.0-533.0","0","0","62179","","null","","","null","59","","","","","","","","","","","","","","","",""
"","ISI","","html-keyboard-response","391","363129","0.0-1.0-534.0","0","0","62179","","null","","","null","59","NaN","","","","","","","","","","","","","","",""
"","S2","","html-keyboard-response","392","363393","0.0-1.0-535.0","0","0","62179","","null","","","null","59","","NaN","","","","","","","","","","","","","",""
"","response","","html-keyboard-response","393","363930","0.0-1.0-536.0-0.0","0","0","62179","","532","","","68","59","","","2","59","training","adjacent","BC","2","3","N.jpg","M.jpg","0","1","0","",""
"","feedback","","html-keyboard-response","394","364946","0.0-1.0-537.0-0.0","0","0","62179","","null","","","null","59","","","","","","","","","","","","","","","",""
"","time_out","","html-keyboard-response","395","366959","0.0-1.0-539.0-0.0","0","0","62179","","null","","","null","59","","","","","","","","","","","","","","","",""
"","ITI","","html-keyboard-response","396","367970","0.0-1.0-540.0","0","0","62179","","null","","","null","59","","","","","","","","","","","","","","","NaN",""
"","S1","","html-keyboard-response","397","368232","0.0-1.0-542.0","0","0","62179","","null","","","null","60","","","","","","","","","","","","","","","",""
"","ISI","","html-keyboard-response","398","368394","0.0-1.0-543.0","0","0","62179","","null","","","null","60","NaN","","","","","","","","","","","","","","",""
"","S2","","html-keyboard-response","399","368419","0.0-1.0-544.0","0","0","62179","","20","","","75","60","","k","2","60","training","adjacent","GF","7","6","P.jpg","O.jpg","1","0","0","",""
"","feedback","","html-keyboard-response","400","369440","0.0-1.0-546.0-0.0","0","0","62179","","null","","","null","60","","","","","","","","","","","","","","","",""
"","time_out","","html-keyboard-response","401","371460","0.0-1.0-548.0-0.0","0","0","62179","","null","","","null","60","","","","","","","","","","","","","","","",""
"","ITI","","html-keyboard-response","402","372472","0.0-1.0-549.0","0","0","62179","","null","","","null","60","","","","","","","","","","","","","","","NaN",""
"","S1","","html-keyboard-response","403","372737","0.0-1.0-551.0","0","0","62179","","null","","","null","61","","","","","","","","","","","","","","","",""
"","ISI","","html-keyboard-response","404","372899","0.0-1.0-552.0","0","0","62179","","null","","","null","61","NaN","","","","","","","","","","","","","","",""
"","S2","","html-keyboard-response","405","373164","0.0-1.0-553.0","0","0","62179","","null","","","null","61","","NaN","","","","","","","","","","","","","",""
"","response","","html-keyboard-response","406","373735","0.0-1.0-554.0-0.0","0","0","62179","","566","","","68","61","","","2","61","training","adjacent","DC","4","3","L.jpg","M.jpg","0","0","1","",""
"","feedback","","html-keyboard-response","407","374743","0.0-1.0-555.0-0.0","0","0","62179","","null","","","null","61","","","","","","","","","","","","","","","",""
"","ITI","","html-keyboard-response","408","375755","0.0-1.0-558.0","0","0","62179","","null","","","null","61","","","","","","","","","","","","","","","NaN",""
"","S1","","html-keyboard-response","409","376013","0.0-1.0-560.0","0","0","62179","","null","","","null","62","","","","","","","","","","","","","","","",""
"","ISI","","html-keyboard-response","410","376174","0.0-1.0-561.0","0","0","62179","","null","","","null","62","NaN","","","","","","","","","","","","","","",""
"","S2","","html-keyboard-response","411","376438","0.0-1.0-562.0","0","0","62179","","null","","","null","62","","NaN","","","","","","","","","","","","","",""
"","response","","html-keyboard-response","412","377086","0.0-1.0-563.0-0.0","0","0","62179","","641","","","75","62","","","2","62","training","adjacent","CB","3","2","M.jpg","N.jpg","1","0","0","",""
"","feedback","","html-keyboard-response","413","378104","0.0-1.0-564.0-0.0","0","0","62179","","null","","","null","62","","","","","","","","","","","","","","","",""
"","time_out","","html-keyboard-response","414","380112","0.0-1.0-566.0-0.0","0","0","62179","","null","","","null","62","","","","","","","","","","","","","","","",""
"","ITI","","html-keyboard-response","415","381132","0.0-1.0-567.0","0","0","62179","","null","","","null","62","","","","","","","","","","","","","","","NaN",""
"","S1","","html-keyboard-response","416","381396","0.0-1.0-569.0","0","0","62179","","null","","","null","63","","","","","","","","","","","","","","","",""
"","ISI","","html-keyboard-response","417","381559","0.0-1.0-570.0","0","0","62179","","null","","","null","63","NaN","","","","","","","","","","","","","","",""
"","S2","","html-keyboard-response","418","381824","0.0-1.0-571.0","0","0","62179","","null","","","null","63","","NaN","","","","","","","","","","","","","",""
"","response","","html-keyboard-response","419","382152","0.0-1.0-572.0-0.0","0","0","62179","","322","","","75","63","","","2","63","training","adjacent","AB","1","2","R.jpg","N.jpg","1","1","1","",""
"","feedback","","html-keyboard-response","420","383175","0.0-1.0-573.0-0.0","0","0","62179","","null","","","null","63","","","","","","","","","","","","","","","",""
"","ITI","","html-keyboard-response","421","384187","0.0-1.0-576.0","0","0","62179","","null","","","null","63","","","","","","","","","","","","","","","NaN",""
"","S1","","html-keyboard-response","422","384445","0.0-1.0-578.0","0","0","62179","","null","","","null","64","","","","","","","","","","","","","","","",""
"","ISI","","html-keyboard-response","423","384606","0.0-1.0-579.0","0","0","62179","","null","","","null","64","NaN","","","","","","","","","","","","","","",""
"","S2","","html-keyboard-response","424","384871","0.0-1.0-580.0","0","0","62179","","null","","","null","64","","NaN","","","","","","","","","","","","","",""
"","response","","html-keyboard-response","425","385189","0.0-1.0-581.0-0.0","0","0","62179","","314","","","68","64","","","2","64","training","adjacent","FE","6","5","O.jpg","Q.jpg","0","0","1","",""
"","feedback","","html-keyboard-response","426","386201","0.0-1.0-582.0-0.0","0","0","62179","","null","","","null","64","","","","","","","","","","","","","","","",""
"","ITI","","html-keyboard-response","427","387214","0.0-1.0-585.0","0","0","62179","","null","","","null","64","","","","","","","","","","","","","","","NaN",""
"","S1","","html-keyboard-response","428","387477","0.0-1.0-587.0","0","0","62179","","null","","","null","65","","","","","","","","","","","","","","","",""
"","ISI","","html-keyboard-response","429","387637","0.0-1.0-588.0","0","0","62179","","null","","","null","65","NaN","","","","","","","","","","","","","","",""
"","S2","","html-keyboard-response","430","387907","0.0-1.0-589.0","0","0","62179","","null","","","null","65","","NaN","","","","","","","","","","","","","",""
"","response","","html-keyboard-response","431","388078","0.0-1.0-590.0-0.0","0","0","62179","","165","","","68","65","","","2","65","training","adjacent","DE","4","5","L.jpg","Q.jpg","0","1","0","",""
"","feedback","","html-keyboard-response","432","389093","0.0-1.0-591.0-0.0","0","0","62179","","null","","","null","65","","","","","","","","","","","","","","","",""
"","time_out","","html-keyboard-response","433","391099","0.0-1.0-593.0-0.0","0","0","62179","","null","","","null","65","","","","","","","","","","","","","","","",""
"","ITI","","html-keyboard-response","434","392109","0.0-1.0-594.0","0","0","62179","","null","","","null","65","","","","","","","","","","","","","","","NaN",""
"","S1","","html-keyboard-response","435","392368","0.0-1.0-596.0","0","0","62179","","null","","","null","66","","","","","","","","","","","","","","","",""
"","ISI","","html-keyboard-response","436","392527","0.0-1.0-597.0","0","0","62179","","null","","","null","66","NaN","","","","","","","","","","","","","","",""
"","S2","","html-keyboard-response","437","392793","0.0-1.0-598.0","0","0","62179","","null","","","null","66","","NaN","","","","","","","","","","","","","",""
"","response","","html-keyboard-response","438","393123","0.0-1.0-599.0-0.0","0","0","62179","","326","","","68","66","","","2","66","training","adjacent","BA","2","1","N.jpg","R.jpg","0","0","1","",""
"","feedback","","html-keyboard-response","439","394144","0.0-1.0-600.0-0.0","0","0","62179","","null","","","null","66","","","","","","","","","","","","","","","",""
"","ITI","","html-keyboard-response","440","395154","0.0-1.0-603.0","0","0","62179","","null","","","null","66","","","","","","","","","","","","","","","NaN",""
"","S1","","html-keyboard-response","441","395417","0.0-1.0-605.0","0","0","62179","","null","","","null","67","","","","","","","","","","","","","","","",""
"","ISI","","html-keyboard-response","442","395580","0.0-1.0-606.0","0","0","62179","","null","","","null","67","NaN","","","","","","","","","","","","","","",""
"","S2","","html-keyboard-response","443","395844","0.0-1.0-607.0","0","0","62179","","null","","","null","67","","NaN","","","","","","","","","","","","","",""
"","response","","html-keyboard-response","444","396030","0.0-1.0-608.0-0.0","0","0","62179","","179","","","75","67","","","2","67","training","adjacent","ED","5","4","Q.jpg","L.jpg","1","0","0","",""
"","feedback","","html-keyboard-response","445","397048","0.0-1.0-609.0-0.0","0","0","62179","","null","","","null","67","","","","","","","","","","","","","","","",""
"","time_out","","html-keyboard-response","446","399061","0.0-1.0-611.0-0.0","0","0","62179","","null","","","null","67","","","","","","","","","","","","","","","",""
"","ITI","","html-keyboard-response","447","400069","0.0-1.0-612.0","0","0","62179","","null","","","null","67","","","","","","","","","","","","","","","NaN",""
"","S1","","html-keyboard-response","448","400334","0.0-1.0-614.0","0","0","62179","","null","","","null","68","","","","","","","","","","","","","","","",""
"","ISI","","html-keyboard-response","449","400493","0.0-1.0-615.0","0","0","62179","","null","","","null","68","NaN","","","","","","","","","","","","","","",""
"","S2","","html-keyboard-response","450","400751","0.0-1.0-616.0","0","0","62179","","null","","","null","68","","NaN","","","","","","","","","","","","","",""
"","response","","html-keyboard-response","451","401223","0.0-1.0-617.0-0.0","0","0","62179","","466","","","75","68","","","2","68","training","adjacent","BA","2","1","N.jpg","R.jpg","1","0","0","",""
"","feedback","","html-keyboard-response","452","402244","0.0-1.0-618.0-0.0","0","0","62179","","null","","","null","68","","","","","","","","","","","","","","","",""
"","time_out","","html-keyboard-response","453","404257","0.0-1.0-620.0-0.0","0","0","62179","","null","","","null","68","","","","","","","","","","","","","","","",""
"","ITI","","html-keyboard-response","454","405272","0.0-1.0-621.0","0","0","62179","","null","","","null","68","","","","","","","","","","","","","","","NaN",""
"","S1","","html-keyboard-response","455","405536","0.0-1.0-623.0","0","0","62179","","null","","","null","69","","","","","","","","","","","","","","","",""
"","ISI","","html-keyboard-response","456","405706","0.0-1.0-624.0","0","0","62179","","null","","","null","69","NaN","","","","","","","","","","","","","","",""
"","S2","","html-keyboard-response","457","405970","0.0-1.0-625.0","0","0","62179","","null","","","null","69","","NaN","","","","","","","","","","","","","",""
"","response","","html-keyboard-response","458","406485","0.0-1.0-626.0-0.0","0","0","62179","","510","","","68","69","","","2","69","training","adjacent","ED","5","4","Q.jpg","L.jpg","0","0","1","",""
"","feedback","","html-keyboard-response","459","407499","0.0-1.0-627.0-0.0","0","0","62179","","null","","","null","69","","","","","","","","","","","","","","","",""
"","ITI","","html-keyboard-response","460","408518","0.0-1.0-630.0","0","0","62179","","null","","","null","69","","","","","","","","","","","","","","","NaN",""
"","S1","","html-keyboard-response","461","408783","0.0-1.0-632.0","0","0","62179","","null","","","null","70","","","","","","","","","","","","","","","",""
"","ISI","","html-keyboard-response","462","408944","0.0-1.0-633.0","0","0","62179","","null","","","null","70","NaN","","","","","","","","","","","","","","",""
"","S2","","html-keyboard-response","463","409200","0.0-1.0-634.0","0","0","62179","","null","","","null","70","","NaN","","","","","","","","","","","","","",""
"","response","","html-keyboard-response","464","409548","0.0-1.0-635.0-0.0","0","0","62179","","343","","","68","70","","","2","70","training","adjacent","FG","6","7","O.jpg","P.jpg","0","1","0","",""
"","feedback","","html-keyboard-response","465","410556","0.0-1.0-636.0-0.0","0","0","62179","","null","","","null","70","","","","","","","","","","","","","","","",""
"","time_out","","html-keyboard-response","466","412566","0.0-1.0-638.0-0.0","0","0","62179","","null","","","null","70","","","","","","","","","","","","","","","",""
"","ITI","","html-keyboard-response","467","413572","0.0-1.0-639.0","0","0","62179","","null","","","null","70","","","","","","","","","","","","","","","NaN",""
"","S1","","html-keyboard-response","468","413837","0.0-1.0-641.0","0","0","62179","","null","","","null","71","","","","","","","","","","","","","","","",""
"","ISI","","html-keyboard-response","469","413997","0.0-1.0-642.0","0","0","62179","","null","","","null","71","NaN","","","","","","","","","","","","","","",""
"","S2","","html-keyboard-response","470","414256","0.0-1.0-643.0","0","0","62179","","null","","","null","71","","NaN","","","","","","","","","","","","","",""
"","response","","html-keyboard-response","471","414447","0.0-1.0-644.0-0.0","0","0","62179","","186","","","68","71","","","2","71","training","adjacent","EF","5","6","Q.jpg","O.jpg","0","1","0","",""
"","feedback","","html-keyboard-response","472","415469","0.0-1.0-645.0-0.0","0","0","62179","","null","","","null","71","","","","","","","","","","","","","","","",""
"","time_out","","html-keyboard-response","473","417489","0.0-1.0-647.0-0.0","0","0","62179","","null","","","null","71","","","","","","","","","","","","","","","",""
"","ITI","","html-keyboard-response","474","418496","0.0-1.0-648.0","0","0","62179","","null","","","null","71","","","","","","","","","","","","","","","NaN",""
"","S1","","html-keyboard-response","475","418759","0.0-1.0-650.0","0","0","62179","","null","","","null","72","","","","","","","","","","","","","","","",""
"","ISI","","html-keyboard-response","476","418922","0.0-1.0-651.0","0","0","62179","","null","","","null","72","NaN","","","","","","","","","","","","","","",""
"","S2","","html-keyboard-response","477","419179","0.0-1.0-652.0","0","0","62179","","null","","","null","72","","NaN","","","","","","","","","","","","","",""
"","response","","html-keyboard-response","478","419279","0.0-1.0-653.0-0.0","0","0","62179","","94","","","68","72","","","2","72","training","adjacent","AB","1","2","R.jpg","N.jpg","0","1","0","",""
"","feedback","","html-keyboard-response","479","420303","0.0-1.0-654.0-0.0","0","0","62179","","null","","","null","72","","","","","","","","","","","","","","","",""
"","time_out","","html-keyboard-response","480","422315","0.0-1.0-656.0-0.0","0","0","62179","","null","","","null","72","","","","","","","","","","","","","","","",""
"","ITI","","html-keyboard-response","481","423328","0.0-1.0-657.0","0","0","62179","","null","","","null","72","","","","","","","","","","","","","","","NaN",""
"","S1","","html-keyboard-response","482","423589","0.0-1.0-659.0","0","0","62179","","null","","","null","73","","","","","","","","","","","","","","","",""
"","ISI","","html-keyboard-response","483","423751","0.0-1.0-660.0","0","0","62179","","null","","","null","73","NaN","","","","","","","","","","","","","","",""
"","S2","","html-keyboard-response","484","424024","0.0-1.0-661.0","0","0","62179","","null","","","null","73","","NaN","","","","","","","","","","","","","",""
"","response","","html-keyboard-response","485","424511","0.0-1.0-662.0-0.0","0","0","62179","","481","","","68","73","","","2","73","training","adjacent","EF","5","6","Q.jpg","O.jpg","0","1","0","",""
"","feedback","","html-keyboard-response","486","425525","0.0-1.0-663.0-0.0","0","0","62179","","null","","","null","73","","","","","","","","","","","","","","","",""
"","time_out","","html-keyboard-response","487","427534","0.0-1.0-665.0-0.0","0","0","62179","","null","","","null","73","","","","","","","","","","","","","","","",""
"","ITI","","html-keyboard-response","488","428545","0.0-1.0-666.0","0","0","62179","","null","","","null","73","","","","","","","","","","","","","","","NaN",""
"","S1","","html-keyboard-response","489","428812","0.0-1.0-668.0","0","0","62179","","null","","","null","74","","","","","","","","","","","","","","","",""
"","ISI","","html-keyboard-response","490","428974","0.0-1.0-669.0","0","0","62179","","null","","","null","74","NaN","","","","","","","","","","","","","","",""
"","S2","","html-keyboard-response","491","429239","0.0-1.0-670.0","0","0","62179","","null","","","null","74","","NaN","","","","","","","","","","","","","",""
"","response","","html-keyboard-response","492","429835","0.0-1.0-671.0-0.0","0","0","62179","","590","","","75","74","","","2","74","training","adjacent","FG","6","7","O.jpg","P.jpg","1","1","1","",""
"","feedback","","html-keyboard-response","493","430843","0.0-1.0-672.0-0.0","0","0","62179","","null","","","null","74","","","","","","","","","","","","","","","",""
"","ITI","","html-keyboard-response","494","431862","0.0-1.0-675.0","0","0","62179","","null","","","null","74","","","","","","","","","","","","","","","NaN",""
"","S1","","html-keyboard-response","495","432119","0.0-1.0-677.0","0","0","62179","","null","","","null","75","","","","","","","","","","","","","","","",""
"","ISI","","html-keyboard-response","496","432279","0.0-1.0-678.0","0","0","62179","","null","","","null","75","NaN","","","","","","","","","","","","","","",""
"","S2","","html-keyboard-response","497","432537","0.0-1.0-679.0","0","0","62179","","null","","","null","75","","NaN","","","","","","","","","","","","","",""
"","response","","html-keyboard-response","498","433162","0.0-1.0-680.0-0.0","0","0","62179","","619","","","68","75","","","2","75","training","adjacent","DC","4","3","L.jpg","M.jpg","0","0","1","",""
"","feedback","","html-keyboard-response","499","434174","0.0-1.0-681.0-0.0","0","0","62179","","null","","","null","75","","","","","","","","","","","","","","","",""
"","ITI","","html-keyboard-response","500","435197","0.0-1.0-684.0","0","0","62179","","null","","","null","75","","","","","","","","","","","","","","","NaN",""
"","S1","","html-keyboard-response","501","435459","0.0-1.0-686.0","0","0","62179","","null","","","null","76","","","","","","","","","","","","","","","",""
"","ISI","","html-keyboard-response","502","435624","0.0-1.0-687.0","0","0","62179","","null","","","null","76","NaN","","","","","","","","","","","","","","",""
"","S2","","html-keyboard-response","503","435890","0.0-1.0-688.0","0","0","62179","","null","","","null","76","","NaN","","","","","","","","","","","","","",""
"","response","","html-keyboard-response","504","436282","0.0-1.0-689.0-0.0","0","0","62179","","387","","","75","76","","","2","76","training","adjacent","BC","2","3","N.jpg","M.jpg","1","1","1","",""
"","feedback","","html-keyboard-response","505","437295","0.0-1.0-690.0-0.0","0","0","62179","","null","","","null","76","","","","","","","","","","","","","","","",""
"","ITI","","html-keyboard-response","506","438307","0.0-1.0-693.0","0","0","62179","","null","","","null","76","","","","","","","","","","","","","","","NaN",""
"","S1","","html-keyboard-response","507","438569","0.0-1.0-695.0","0","0","62179","","null","","","null","77","","","","","","","","","","","","","","","",""
"","ISI","","html-keyboard-response","508","438738","0.0-1.0-696.0","0","0","62179","","null","","","null","77","NaN","","","","","","","","","","","","","","",""
"","S2","","html-keyboard-response","509","439004","0.0-1.0-697.0","0","0","62179","","null","","","null","77","","NaN","","","","","","","","","","","","","",""
"","response","","html-keyboard-response","510","439530","0.0-1.0-698.0-0.0","0","0","62179","","522","","","75","77","","","2","77","training","adjacent","CD","3","4","M.jpg","L.jpg","1","1","1","",""
"","feedback","","html-keyboard-response","511","440553","0.0-1.0-699.0-0.0","0","0","62179","","null","","","null","77","","","","","","","","","","","","","","","",""
"","ITI","","html-keyboard-response","512","441565","0.0-1.0-702.0","0","0","62179","","null","","","null","77","","","","","","","","","","","","","","","NaN",""
"","S1","","html-keyboard-response","513","441826","0.0-1.0-704.0","0","0","62179","","null","","","null","78","","","","","","","","","","","","","","","",""
"","ISI","","html-keyboard-response","514","441986","0.0-1.0-705.0","0","0","62179","","null","","","null","78","NaN","","","","","","","","","","","","","","",""
"","S2","","html-keyboard-response","515","442249","0.0-1.0-706.0","0","0","62179","","null","","","null","78","","NaN","","","","","","","","","","","","","",""
"","response","","html-keyboard-response","516","442625","0.0-1.0-707.0-0.0","0","0","62179","","370","","","68","78","","","2","78","training","adjacent","FG","6","7","O.jpg","P.jpg","0","1","0","",""
"","feedback","","html-keyboard-response","517","443639","0.0-1.0-708.0-0.0","0","0","62179","","null","","","null","78","","","","","","","","","","","","","","","",""
"","time_out","","html-keyboard-response","518","445652","0.0-1.0-710.0-0.0","0","0","62179","","null","","","null","78","","","","","","","","","","","","","","","",""
"","ITI","","html-keyboard-response","519","446666","0.0-1.0-711.0","0","0","62179","","null","","","null","78","","","","","","","","","","","","","","","NaN",""
"","S1","","html-keyboard-response","520","446928","0.0-1.0-713.0","0","0","62179","","null","","","null","79","","","","","","","","","","","","","","","",""
"","ISI","","html-keyboard-response","521","447096","0.0-1.0-714.0","0","0","62179","","null","","","null","79","NaN","","","","","","","","","","","","","","",""
"","S2","","html-keyboard-response","522","447358","0.0-1.0-715.0","0","0","62179","","null","","","null","79","","NaN","","","","","","","","","","","","","",""
"","response","","html-keyboard-response","523","447587","0.0-1.0-716.0-0.0","0","0","62179","","223","","","75","79","","","2","79","training","adjacent","CD","3","4","M.jpg","L.jpg","1","1","1","",""
"","feedback","","html-keyboard-response","524","448595","0.0-1.0-717.0-0.0","0","0","62179","","null","","","null","79","","","","","","","","","","","","","","","",""
"","ITI","","html-keyboard-response","525","449602","0.0-1.0-720.0","0","0","62179","","null","","","null","79","","","","","","","","","","","","","","","NaN",""
"","S1","","html-keyboard-response","526","449865","0.0-1.0-722.0","0","0","62179","","null","","","null","80","","","","","","","","","","","","","","","",""
"","ISI","","html-keyboard-response","527","450026","0.0-1.0-723.0","0","0","62179","","null","","","null","80","NaN","","","","","","","","","","","","","","",""
"","S2","","html-keyboard-response","528","450289","0.0-1.0-724.0","0","0","62179","","null","","","null","80","","NaN","","","","","","","","","","","","","",""
"","response","","html-keyboard-response","529","450449","0.0-1.0-725.0-0.0","0","0","62179","","154","","","68","80","","","2","80","training","adjacent","BC","2","3","N.jpg","M.jpg","0","1","0","",""
"","feedback","","html-keyboard-response","530","451457","0.0-1.0-726.0-0.0","0","0","62179","","null","","","null","80","","","","","","","","","","","","","","","",""
"","time_out","","html-keyboard-response","531","453469","0.0-1.0-728.0-0.0","0","0","62179","","null","","","null","80","","","","","","","","","","","","","","","",""
"","ITI","","html-keyboard-response","532","454489","0.0-1.0-729.0","0","0","62179","","null","","","null","80","","","","","","","","","","","","","","","NaN",""
"","S1","","html-keyboard-response","533","454747","0.0-1.0-731.0","0","0","62179","","null","","","null","81","","","","","","","","","","","","","","","",""
"","ISI","","html-keyboard-response","534","454907","0.0-1.0-732.0","0","0","62179","","null","","","null","81","NaN","","","","","","","","","","","","","","",""
"","S2","","html-keyboard-response","535","455172","0.0-1.0-733.0","0","0","62179","","null","","","null","81","","NaN","","","","","","","","","","","","","",""
"","response","","html-keyboard-response","536","455343","0.0-1.0-734.0-0.0","0","0","62179","","165","","","75","81","","","2","81","training","adjacent","ED","5","4","Q.jpg","L.jpg","1","0","0","",""
"","feedback","","html-keyboard-response","537","456352","0.0-1.0-735.0-0.0","0","0","62179","","null","","","null","81","","","","","","","","","","","","","","","",""
"","time_out","","html-keyboard-response","538","458364","0.0-1.0-737.0-0.0","0","0","62179","","null","","","null","81","","","","","","","","","","","","","","","",""
"","ITI","","html-keyboard-response","539","459374","0.0-1.0-738.0","0","0","62179","","null","","","null","81","","","","","","","","","","","","","","","NaN",""
"","S1","","html-keyboard-response","540","459630","0.0-1.0-740.0","0","0","62179","","null","","","null","82","","","","","","","","","","","","","","","",""
"","ISI","","html-keyboard-response","541","459800","0.0-1.0-741.0","0","0","62179","","null","","","null","82","NaN","","","","","","","","","","","","","","",""
"","S2","","html-keyboard-response","542","460059","0.0-1.0-742.0","0","0","62179","","null","","","null","82","","NaN","","","","","","","","","","","","","",""
"","response","","html-keyboard-response","543","460348","0.0-1.0-743.0-0.0","0","0","62179","","283","","","75","82","","","2","82","training","adjacent","FG","6","7","O.jpg","P.jpg","1","1","1","",""
"","feedback","","html-keyboard-response","544","461371","0.0-1.0-744.0-0.0","0","0","62179","","null","","","null","82","","","","","","","","","","","","","","","",""
"","ITI","","html-keyboard-response","545","462379","0.0-1.0-747.0","0","0","62179","","null","","","null","82","","","","","","","","","","","","","","","NaN",""
"","S1","","html-keyboard-response","546","462638","0.0-1.0-749.0","0","0","62179","","null","","","null","83","","","","","","","","","","","","","","","",""
"","ISI","","html-keyboard-response","547","462798","0.0-1.0-750.0","0","0","62179","","null","","","null","83","NaN","","","","","","","","","","","","","","",""
"","S2","","html-keyboard-response","548","463054","0.0-1.0-751.0","0","0","62179","","null","","","null","83","","NaN","","","","","","","","","","","","","",""
"","response","","html-keyboard-response","549","463169","0.0-1.0-752.0-0.0","0","0","62179","","109","","","68","83","","","2","83","training","adjacent","CD","3","4","M.jpg","L.jpg","0","1","0","",""
"","feedback","","html-keyboard-response","550","464188","0.0-1.0-753.0-0.0","0","0","62179","","null","","","null","83","","","","","","","","","","","","","","","",""
"","time_out","","html-keyboard-response","551","466197","0.0-1.0-755.0-0.0","0","0","62179","","null","","","null","83","","","","","","","","","","","","","","","",""
"","ITI","","html-keyboard-response","552","467207","0.0-1.0-756.0","0","0","62179","","null","","","null","83","","","","","","","","","","","","","","","NaN",""
"","S1","","html-keyboard-response","553","467470","0.0-1.0-758.0","0","0","62179","","null","","","null","84","","","","","","","","","","","","","","","",""
"","ISI","","html-keyboard-response","554","467632","0.0-1.0-759.0","0","0","62179","","null","","","null","84","NaN","","","","","","","","","","","","","","",""
"","S2","","html-keyboard-response","555","467903","0.0-1.0-760.0","0","0","62179","","null","","","null","84","","NaN","","","","","","","","","","","","","",""
"","response","","html-keyboard-response","556","468099","0.0-1.0-761.0-0.0","0","0","62179","","190","","","75","84","","","2","84","training","adjacent","CB","3","2","M.jpg","N.jpg","1","0","0","",""
"","feedback","","html-keyboard-response","557","469119","0.0-1.0-762.0-0.0","0","0","62179","","null","","","null","84","","","","","","","","","","","","","","","",""
"","time_out","","html-keyboard-response","558","471132","0.0-1.0-764.0-0.0","0","0","62179","","null","","","null","84","","","","","","","","","","","","","","","",""
"","ITI","","html-keyboard-response","559","472142","0.0-1.0-765.0","0","0","62179","","null","","","null","84","","","","","","","","","","","","","","","NaN",""
"","S1","","html-keyboard-response","560","472400","0.0-1.0-767.0","0","0","62179","","null","","","null","85","","","","","","","","","","","","","","","",""
"","ISI","","html-keyboard-response","561","472562","0.0-1.0-768.0","0","0","62179","","null","","","null","85","NaN","","","","","","","","","","","","","","",""
"","S2","","html-keyboard-response","562","472820","0.0-1.0-769.0","0","0","62179","","null","","","null","85","","NaN","","","","","","","","","","","","","",""
"","response","","html-keyboard-response","563","473652","0.0-1.0-770.0-0.0","0","0","62179","","827","","","68","85","","","2","85","training","adjacent","BA","2","1","N.jpg","R.jpg","0","0","1","",""
"","feedback","","html-keyboard-response","564","474661","0.0-1.0-771.0-0.0","0","0","62179","","null","","","null","85","","","","","","","","","","","","","","","",""
"","ITI","","html-keyboard-response","565","475674","0.0-1.0-774.0","0","0","62179","","null","","","null","85","","","","","","","","","","","","","","","NaN",""
"","S1","","html-keyboard-response","566","475931","0.0-1.0-776.0","0","0","62179","","null","","","null","86","","","","","","","","","","","","","","","",""
"","ISI","","html-keyboard-response","567","476100","0.0-1.0-777.0","0","0","62179","","null","","","null","86","NaN","","","","","","","","","","","","","","",""
"","S2","","html-keyboard-response","568","476363","0.0-1.0-778.0","0","0","62179","","null","","","null","86","","NaN","","","","","","","","","","","","","",""
"","response","","html-keyboard-response","569","477039","0.0-1.0-779.0-0.0","0","0","62179","","670","","","68","86","","","2","86","training","adjacent","CB","3","2","M.jpg","N.jpg","0","0","1","",""
"","feedback","","html-keyboard-response","570","478054","0.0-1.0-780.0-0.0","0","0","62179","","null","","","null","86","","","","","","","","","","","","","","","",""
"","ITI","","html-keyboard-response","571","479061","0.0-1.0-783.0","0","0","62179","","null","","","null","86","","","","","","","","","","","","","","","NaN",""
"","S1","","html-keyboard-response","572","479326","0.0-1.0-785.0","0","0","62179","","null","","","null","87","","","","","","","","","","","","","","","",""
"","ISI","","html-keyboard-response","573","479487","0.0-1.0-786.0","0","0","62179","","null","","","null","87","NaN","","","","","","","","","","","","","","",""
"","S2","","html-keyboard-response","574","479745","0.0-1.0-787.0","0","0","62179","","null","","","null","87","","NaN","","","","","","","","","","","","","",""
"","response","","html-keyboard-response","575","480118","0.0-1.0-788.0-0.0","0","0","62179","","367","","","68","87","","","2","87","training","adjacent","GF","7","6","P.jpg","O.jpg","0","0","1","",""
"","feedback","","html-keyboard-response","576","481134","0.0-1.0-789.0-0.0","0","0","62179","","null","","","null","87","","","","","","","","","","","","","","","",""
"","ITI","","html-keyboard-response","577","482149","0.0-1.0-792.0","0","0","62179","","null","","","null","87","","","","","","","","","","","","","","","NaN",""
"","S1","","html-keyboard-response","578","482414","0.0-1.0-794.0","0","0","62179","","null","","","null","88","","","","","","","","","","","","","","","",""
"","ISI","","html-keyboard-response","579","482576","0.0-1.0-795.0","0","0","62179","","null","","","null","88","NaN","","","","","","","","","","","","","","",""
"","S2","","html-keyboard-response","580","482833","0.0-1.0-796.0","0","0","62179","","null","","","null","88","","NaN","","","","","","","","","","","","","",""
"","response","","html-keyboard-response","581","483141","0.0-1.0-797.0-0.0","0","0","62179","","303","","","75","88","","","2","88","training","adjacent","DE","4","5","L.jpg","Q.jpg","1","1","1","",""
"","feedback","","html-keyboard-response","582","484155","0.0-1.0-798.0-0.0","0","0","62179","","null","","","null","88","","","","","","","","","","","","","","","",""
