"success","ttype","start_time","trial_type","trial_index","time_elapsed","internal_node_id","warning","missed_checkup","PID","view_history","rt","responses","repeat_instructions","key_press","index","keypress_isi","keypress_S2","block","trial_num","phase","group_type","pair_type","S1_stim","S2_stim","S1_img","S2_img","S1_chosen","S1_higher","accuracy","keypress_iti","total_bonus_tally"
"true","full_screen","d08012022hr1626","fullscreen","0","18715","0.0-0.0","0","0","22136","","","","","","","","","","","","","","","","","","","","","",""
"","instructions","","instructions","1","71062","0.0-1.0-0.0-0.0","0","0","22136","[{""page_index"":0,""viewing_time"":8022},{""page_index"":1,""viewing_time"":17273},{""page_index"":2,""viewing_time"":14135},{""page_index"":3,""viewing_time"":1009},{""page_index"":2,""viewing_time"":218},{""page_index"":1,""viewing_time"":7050},{""page_index"":0,""viewing_time"":708},{""page_index"":1,""viewing_time"":481},{""page_index"":0,""viewing_time"":775},{""page_index"":1,""viewing_time"":478},{""page_index"":2,""viewing_time"":1347},{""page_index"":3,""viewing_time"":848}]","52344","","","","","","","","","","","","","","","","","","","",""
"","comprehension_check","","survey-multi-choice","2","87094","0.0-1.0-0.0-1.0","0","0","22136","","16026","{""Q0"":""True"",""Q1"":""D"",""Q2"":""When you see the prompt 'MAKE A CHOICE' after the second image was presented"",""Q3"":""Green mark"",""Q4"":""either D or K""}","0","","","","","","","","","","","","","","","","","",""
"","start_exp","","html-keyboard-response","3","89183","0.0-1.0-1.0","0","0","22136","","2081","","","32","","","","","","","","","","","","","","","","",""
"","S1","","html-keyboard-response","4","89438","0.0-1.0-2.0","0","0","22136","","null","","","null","0","","","","","","","","","","","","","","","",""
"","ISI","","html-keyboard-response","5","91441","0.0-1.0-3.0","0","0","22136","","null","","","null","0","NaN","","","","","","","","","","","","","","",""
"","S2","","html-keyboard-response","6","91696","0.0-1.0-4.0","0","0","22136","","null","","","null","0","","NaN","","","","","","","","","","","","","",""
"","response","","html-keyboard-response","7","92689","0.0-1.0-5.0","0","0","22136","","990","","","75","0","","","1","0","training","adjacent","BC","2","3","L.jpg","N.jpg","0","1","0","",""
"","feedback","","html-keyboard-response","8","93692","0.0-1.0-6.0-0.0","0","0","22136","","null","","","null","0","","","","","","","","","","","","","","","",""
"","time_out","","html-keyboard-response","9","95697","0.0-1.0-8.0-0.0","0","0","22136","","null","","","null","0","","","","","","","","","","","","","","","",""
"","ITI","","html-keyboard-response","10","96700","0.0-1.0-9.0","0","0","22136","","null","","","null","0","","","","","","","","","","","","","","","NaN",""
"","S1","","html-keyboard-response","11","96956","0.0-1.0-11.0","0","0","22136","","null","","","null","1","","","","","","","","","","","","","","","",""
"","ISI","","html-keyboard-response","12","98959","0.0-1.0-12.0","0","0","22136","","null","","","null","1","NaN","","","","","","","","","","","","","","",""
"","S2","","html-keyboard-response","13","99213","0.0-1.0-13.0","0","0","22136","","null","","","null","1","","NaN","","","","","","","","","","","","","",""
"","response","","html-keyboard-response","14","100290","0.0-1.0-14.0","0","0","22136","","1074","","","68","1","","","1","1","training","adjacent","DC","4","3","O.jpg","N.jpg","1","0","0","",""
"","feedback","","html-keyboard-response","15","101293","0.0-1.0-15.0-0.0","0","0","22136","","null","","","null","1","","","","","","","","","","","","","","","",""
"","time_out","","html-keyboard-response","16","103296","0.0-1.0-17.0-0.0","0","0","22136","","null","","","null","1","","","","","","","","","","","","","","","",""
"","ITI","","html-keyboard-response","17","104299","0.0-1.0-18.0","0","0","22136","","null","","","null","1","","","","","","","","","","","","","","","NaN",""
"","S1","","html-keyboard-response","18","104552","0.0-1.0-20.0","0","0","22136","","null","","","null","2","","","","","","","","","","","","","","","",""
"","ISI","","html-keyboard-response","19","106555","0.0-1.0-21.0","0","0","22136","","null","","","null","2","NaN","","","","","","","","","","","","","","",""
"","S2","","html-keyboard-response","20","106808","0.0-1.0-22.0","0","0","22136","","null","","","null","2","","NaN","","","","","","","","","","","","","",""
"","response","","html-keyboard-response","21","107545","0.0-1.0-23.0","0","0","22136","","735","","","68","2","","","1","2","training","adjacent","FE","6","5","M.jpg","P.jpg","1","0","0","",""
"","feedback","","html-keyboard-response","22","108549","0.0-1.0-24.0-0.0","0","0","22136","","null","","","null","2","","","","","","","","","","","","","","","",""
"","time_out","","html-keyboard-response","23","110552","0.0-1.0-26.0-0.0","0","0","22136","","null","","","null","2","","","","","","","","","","","","","","","",""
"","ITI","","html-keyboard-response","24","111555","0.0-1.0-27.0","0","0","22136","","null","","","null","2","","","","","","","","","","","","","","","NaN",""
"","S1","","html-keyboard-response","25","111809","0.0-1.0-29.0","0","0","22136","","null","","","null","3","","","","","","","","","","","","","","","",""
"","ISI","","html-keyboard-response","26","113812","0.0-1.0-30.0","0","0","22136","","null","","","null","3","NaN","","","","","","","","","","","","","","",""
"","S2","","html-keyboard-response","27","114064","0.0-1.0-31.0","0","0","22136","","null","","","null","3","","NaN","","","","","","","","","","","","","",""
"","response","","html-keyboard-response","28","114866","0.0-1.0-32.0","0","0","22136","","799","","","68","3","","","1","3","training","adjacent","BA","2","1","L.jpg","Q.jpg","1","0","0","",""
"","feedback","","html-keyboard-response","29","115870","0.0-1.0-33.0-0.0","0","0","22136","","null","","","null","3","","","","","","","","","","","","","","","",""
"","time_out","","html-keyboard-response","30","117873","0.0-1.0-35.0-0.0","0","0","22136","","null","","","null","3","","","","","","","","","","","","","","","",""
"","ITI","","html-keyboard-response","31","118876","0.0-1.0-36.0","0","0","22136","","null","","","null","3","","","","","","","","","","","","","","","NaN",""
"","S1","","html-keyboard-response","32","119130","0.0-1.0-38.0","0","0","22136","","null","","","null","4","","","","","","","","","","","","","","","",""
"","ISI","","html-keyboard-response","33","121133","0.0-1.0-39.0","0","0","22136","","null","","","null","4","NaN","","","","","","","","","","","","","","",""
"","S2","","html-keyboard-response","34","121387","0.0-1.0-40.0","0","0","22136","","null","","","null","4","","NaN","","","","","","","","","","","","","",""
"","response","","html-keyboard-response","35","121994","0.0-1.0-41.0","0","0","22136","","604","","","68","4","","","1","4","training","adjacent","AB","1","2","Q.jpg","L.jpg","1","1","1","",""
"","feedback","","html-keyboard-response","36","122999","0.0-1.0-42.0-0.0","0","0","22136","","null","","","null","4","","","","","","","","","","","","","","","",""
"","ITI","","html-keyboard-response","37","124001","0.0-1.0-45.0","0","0","22136","","null","","","null","4","","","","","","","","","","","","","","","NaN",""
"","S1","","html-keyboard-response","38","124255","0.0-1.0-47.0","0","0","22136","","null","","","null","5","","","","","","","","","","","","","","","",""
"","ISI","","html-keyboard-response","39","126258","0.0-1.0-48.0","0","0","22136","","null","","","null","5","NaN","","","","","","","","","","","","","","",""
"","S2","","html-keyboard-response","40","126514","0.0-1.0-49.0","0","0","22136","","null","","","null","5","","NaN","","","","","","","","","","","","","",""
"","response","","html-keyboard-response","41","127007","0.0-1.0-50.0","0","0","22136","","490","","","68","5","","","1","5","training","adjacent","CB","3","2","N.jpg","L.jpg","1","0","0","",""
"","feedback","","html-keyboard-response","42","128010","0.0-1.0-51.0-0.0","0","0","22136","","null","","","null","5","","","","","","","","","","","","","","","",""
"","time_out","","html-keyboard-response","43","130013","0.0-1.0-53.0-0.0","0","0","22136","","null","","","null","5","","","","","","","","","","","","","","","",""
"","ITI","","html-keyboard-response","44","131019","0.0-1.0-54.0","0","0","22136","","null","","","null","5","","","","","","","","","","","","","","","NaN",""
"","S1","","html-keyboard-response","45","131272","0.0-1.0-56.0","0","0","22136","","null","","","null","6","","","","","","","","","","","","","","","",""
"","ISI","","html-keyboard-response","46","133276","0.0-1.0-57.0","0","0","22136","","null","","","null","6","NaN","","","","","","","","","","","","","","",""
"","S2","","html-keyboard-response","47","133530","0.0-1.0-58.0","0","0","22136","","null","","","null","6","","NaN","","","","","","","","","","","","","",""
"","response","","html-keyboard-response","48","134170","0.0-1.0-59.0","0","0","22136","","638","","","75","6","","","1","6","training","adjacent","FE","6","5","M.jpg","P.jpg","0","0","1","",""
"","feedback","","html-keyboard-response","49","135174","0.0-1.0-60.0-0.0","0","0","22136","","null","","","null","6","","","","","","","","","","","","","","","",""
"","ITI","","html-keyboard-response","50","136177","0.0-1.0-63.0","0","0","22136","","null","","","null","6","","","","","","","","","","","","","","","NaN",""
"","S1","","html-keyboard-response","51","136430","0.0-1.0-65.0","0","0","22136","","null","","","null","7","","","","","","","","","","","","","","","",""
"","ISI","","html-keyboard-response","52","138449","0.0-1.0-66.0","0","0","22136","","null","","","null","7","NaN","","","","","","","","","","","","","","",""
"","S2","","html-keyboard-response","53","138703","0.0-1.0-67.0","0","0","22136","","null","","","null","7","","NaN","","","","","","","","","","","","","",""
"","response","","html-keyboard-response","54","139183","0.0-1.0-68.0","0","0","22136","","478","","","75","7","","","1","7","training","adjacent","CD","3","4","N.jpg","O.jpg","0","1","0","",""
"","feedback","","html-keyboard-response","55","140188","0.0-1.0-69.0-0.0","0","0","22136","","null","","","null","7","","","","","","","","","","","","","","","",""
"","time_out","","html-keyboard-response","56","142191","0.0-1.0-71.0-0.0","0","0","22136","","null","","","null","7","","","","","","","","","","","","","","","",""
"","ITI","","html-keyboard-response","57","143195","0.0-1.0-72.0","0","0","22136","","null","","","null","7","","","","","","","","","","","","","","","NaN",""
"","S1","","html-keyboard-response","58","143448","0.0-1.0-74.0","0","0","22136","","null","","","null","8","","","","","","","","","","","","","","","",""
"","ISI","","html-keyboard-response","59","145451","0.0-1.0-75.0","0","0","22136","","null","","","null","8","NaN","","","","","","","","","","","","","","",""
"","S2","","html-keyboard-response","60","145705","0.0-1.0-76.0","0","0","22136","","null","","","null","8","","NaN","","","","","","","","","","","","","",""
"","response","","html-keyboard-response","61","146389","0.0-1.0-77.0","0","0","22136","","681","","","75","8","","","1","8","training","adjacent","BC","2","3","L.jpg","N.jpg","0","1","0","",""
"","feedback","","html-keyboard-response","62","147392","0.0-1.0-78.0-0.0","0","0","22136","","null","","","null","8","","","","","","","","","","","","","","","",""
"","time_out","","html-keyboard-response","63","149395","0.0-1.0-80.0-0.0","0","0","22136","","null","","","null","8","","","","","","","","","","","","","","","",""
"","ITI","","html-keyboard-response","64","150398","0.0-1.0-81.0","0","0","22136","","null","","","null","8","","","","","","","","","","","","","","","NaN",""
"","S1","","html-keyboard-response","65","150653","0.0-1.0-83.0","0","0","22136","","null","","","null","9","","","","","","","","","","","","","","","",""
"","ISI","","html-keyboard-response","66","152657","0.0-1.0-84.0","0","0","22136","","null","","","null","9","NaN","","","","","","","","","","","","","","",""
"","S2","","html-keyboard-response","67","152911","0.0-1.0-85.0","0","0","22136","","null","","","null","9","","NaN","","","","","","","","","","","","","",""
"","response","","html-keyboard-response","68","153737","0.0-1.0-86.0","0","0","22136","","824","","","68","9","","","1","9","training","adjacent","CB","3","2","N.jpg","L.jpg","1","0","0","",""
"","feedback","","html-keyboard-response","69","154741","0.0-1.0-87.0-0.0","0","0","22136","","null","","","null","9","","","","","","","","","","","","","","","",""
"","time_out","","html-keyboard-response","70","156744","0.0-1.0-89.0-0.0","0","0","22136","","null","","","null","9","","","","","","","","","","","","","","","",""
"","ITI","","html-keyboard-response","71","157747","0.0-1.0-90.0","0","0","22136","","null","","","null","9","","","","","","","","","","","","","","","NaN",""
"","S1","","html-keyboard-response","72","158005","0.0-1.0-92.0","0","0","22136","","null","","","null","10","","","","","","","","","","","","","","","",""
"","ISI","","html-keyboard-response","73","160019","0.0-1.0-93.0","0","0","22136","","null","","","null","10","NaN","","","","","","","","","","","","","","",""
"","S2","","html-keyboard-response","74","160273","0.0-1.0-94.0","0","0","22136","","null","","","null","10","","NaN","","","","","","","","","","","","","",""
"","response","","html-keyboard-response","75","160988","0.0-1.0-95.0","0","0","22136","","714","","","68","10","","","1","10","training","adjacent","FG","6","7","M.jpg","R.jpg","1","1","1","",""
"","feedback","","html-keyboard-response","76","161991","0.0-1.0-96.0-0.0","0","0","22136","","null","","","null","10","","","","","","","","","","","","","","","",""
"","ITI","","html-keyboard-response","77","162994","0.0-1.0-99.0","0","0","22136","","null","","","null","10","","","","","","","","","","","","","","","NaN",""
"","S1","","html-keyboard-response","78","163248","0.0-1.0-101.0","0","0","22136","","null","","","null","11","","","","","","","","","","","","","","","",""
"","ISI","","html-keyboard-response","79","165252","0.0-1.0-102.0","0","0","22136","","null","","","null","11","NaN","","","","","","","","","","","","","","",""
"","S2","","html-keyboard-response","80","165506","0.0-1.0-103.0","0","0","22136","","null","","","null","11","","NaN","","","","","","","","","","","","","",""
"","response","","html-keyboard-response","81","166035","0.0-1.0-104.0","0","0","22136","","528","","","68","11","","","1","11","training","adjacent","ED","5","4","P.jpg","O.jpg","1","0","0","",""
"","feedback","","html-keyboard-response","82","167039","0.0-1.0-105.0-0.0","0","0","22136","","null","","","null","11","","","","","","","","","","","","","","","",""
"","time_out","","html-keyboard-response","83","169042","0.0-1.0-107.0-0.0","0","0","22136","","null","","","null","11","","","","","","","","","","","","","","","",""
"","ITI","","html-keyboard-response","84","170045","0.0-1.0-108.0","0","0","22136","","null","","","null","11","","","","","","","","","","","","","","","NaN",""
"","S1","","html-keyboard-response","85","170301","0.0-1.0-110.0","0","0","22136","","null","","","null","12","","","","","","","","","","","","","","","",""
"","ISI","","html-keyboard-response","86","172304","0.0-1.0-111.0","0","0","22136","","null","","","null","12","NaN","","","","","","","","","","","","","","",""
"","S2","","html-keyboard-response","87","172563","0.0-1.0-112.0","0","0","22136","","null","","","null","12","","NaN","","","","","","","","","","","","","",""
"","response","","html-keyboard-response","88","173214","0.0-1.0-113.0","0","0","22136","","649","","","75","12","","","1","12","training","adjacent","BA","2","1","L.jpg","Q.jpg","0","0","1","",""
"","feedback","","html-keyboard-response","89","174218","0.0-1.0-114.0-0.0","0","0","22136","","null","","","null","12","","","","","","","","","","","","","","","",""
"","ITI","","html-keyboard-response","90","175222","0.0-1.0-117.0","0","0","22136","","null","","","null","12","","","","","","","","","","","","","","","NaN",""
"","S1","","html-keyboard-response","91","175476","0.0-1.0-119.0","0","0","22136","","null","","","null","13","","","","","","","","","","","","","","","",""
"","ISI","","html-keyboard-response","92","177482","0.0-1.0-120.0","0","0","22136","","null","","","null","13","NaN","","","","","","","","","","","","","","",""
"","S2","","html-keyboard-response","93","177736","0.0-1.0-121.0","0","0","22136","","null","","","null","13","","NaN","","","","","","","","","","","","","",""
"","response","","html-keyboard-response","94","178442","0.0-1.0-122.0","0","0","22136","","704","","","68","13","","","1","13","training","adjacent","DC","4","3","O.jpg","N.jpg","1","0","0","",""
"","feedback","","html-keyboard-response","95","179446","0.0-1.0-123.0-0.0","0","0","22136","","null","","","null","13","","","","","","","","","","","","","","","",""
"","time_out","","html-keyboard-response","96","181448","0.0-1.0-125.0-0.0","0","0","22136","","null","","","null","13","","","","","","","","","","","","","","","",""
"","ITI","","html-keyboard-response","97","182451","0.0-1.0-126.0","0","0","22136","","null","","","null","13","","","","","","","","","","","","","","","NaN",""
"","S1","","html-keyboard-response","98","182705","0.0-1.0-128.0","0","0","22136","","null","","","null","14","","","","","","","","","","","","","","","",""
"","ISI","","html-keyboard-response","99","184707","0.0-1.0-129.0","0","0","22136","","null","","","null","14","NaN","","","","","","","","","","","","","","",""
"","S2","","html-keyboard-response","100","184963","0.0-1.0-130.0","0","0","22136","","null","","","null","14","","NaN","","","","","","","","","","","","","",""
"","response","","html-keyboard-response","101","185804","0.0-1.0-131.0","0","0","22136","","839","","","68","14","","","1","14","training","adjacent","CD","3","4","N.jpg","O.jpg","1","1","1","",""
"","feedback","","html-keyboard-response","102","186808","0.0-1.0-132.0-0.0","0","0","22136","","null","","","null","14","","","","","","","","","","","","","","","",""
"","ITI","","html-keyboard-response","103","187812","0.0-1.0-135.0","0","0","22136","","null","","","null","14","","","","","","","","","","","","","","","NaN",""
"","S1","","html-keyboard-response","104","188066","0.0-1.0-137.0","0","0","22136","","null","","","null","15","","","","","","","","","","","","","","","",""
"","ISI","","html-keyboard-response","105","190069","0.0-1.0-138.0","0","0","22136","","null","","","null","15","NaN","","","","","","","","","","","","","","",""
"","S2","","html-keyboard-response","106","190323","0.0-1.0-139.0","0","0","22136","","null","","","null","15","","NaN","","","","","","","","","","","","","",""
"","response","","html-keyboard-response","107","191207","0.0-1.0-140.0","0","0","22136","","882","","","68","15","","","1","15","training","adjacent","FG","6","7","M.jpg","R.jpg","1","1","1","",""
"","feedback","","html-keyboard-response","108","192211","0.0-1.0-141.0-0.0","0","0","22136","","null","","","null","15","","","","","","","","","","","","","","","",""
"","ITI","","html-keyboard-response","109","193214","0.0-1.0-144.0","0","0","22136","","null","","","null","15","","","","","","","","","","","","","","","NaN",""
"","S1","","html-keyboard-response","110","193467","0.0-1.0-146.0","0","0","22136","","null","","","null","16","","","","","","","","","","","","","","","",""
"","ISI","","html-keyboard-response","111","195471","0.0-1.0-147.0","0","0","22136","","null","","","null","16","NaN","","","","","","","","","","","","","","",""
"","S2","","html-keyboard-response","112","195724","0.0-1.0-148.0","0","0","22136","","null","","","null","16","","NaN","","","","","","","","","","","","","",""
"","response","","html-keyboard-response","113","196276","0.0-1.0-149.0","0","0","22136","","549","","","75","16","","","1","16","training","adjacent","BA","2","1","L.jpg","Q.jpg","0","0","1","",""
"","feedback","","html-keyboard-response","114","197280","0.0-1.0-150.0-0.0","0","0","22136","","null","","","null","16","","","","","","","","","","","","","","","",""
"","ITI","","html-keyboard-response","115","198286","0.0-1.0-153.0","0","0","22136","","null","","","null","16","","","","","","","","","","","","","","","NaN",""
"","S1","","html-keyboard-response","116","198541","0.0-1.0-155.0","0","0","22136","","null","","","null","17","","","","","","","","","","","","","","","",""
"","ISI","","html-keyboard-response","117","200544","0.0-1.0-156.0","0","0","22136","","null","","","null","17","NaN","","","","","","","","","","","","","","",""
"","S2","","html-keyboard-response","118","200798","0.0-1.0-157.0","0","0","22136","","null","","","null","17","","NaN","","","","","","","","","","","","","",""
"","response","","html-keyboard-response","119","201588","0.0-1.0-158.0","0","0","22136","","788","","","68","17","","","1","17","training","adjacent","FE","6","5","M.jpg","P.jpg","1","0","0","",""
"","feedback","","html-keyboard-response","120","202593","0.0-1.0-159.0-0.0","0","0","22136","","null","","","null","17","","","","","","","","","","","","","","","",""
"","time_out","","html-keyboard-response","121","204596","0.0-1.0-161.0-0.0","0","0","22136","","null","","","null","17","","","","","","","","","","","","","","","",""
"","ITI","","html-keyboard-response","122","205600","0.0-1.0-162.0","0","0","22136","","null","","","null","17","","","","","","","","","","","","","","","NaN",""
"","S1","","html-keyboard-response","123","205856","0.0-1.0-164.0","0","0","22136","","null","","","null","18","","","","","","","","","","","","","","","",""
"","ISI","","html-keyboard-response","124","207860","0.0-1.0-165.0","0","0","22136","","null","","","null","18","NaN","","","","","","","","","","","","","","",""
"","S2","","html-keyboard-response","125","208113","0.0-1.0-166.0","0","0","22136","","null","","","null","18","","NaN","","","","","","","","","","","","","",""
"","response","","html-keyboard-response","126","208791","0.0-1.0-167.0","0","0","22136","","676","","","68","18","","","1","18","training","adjacent","EF","5","6","P.jpg","M.jpg","1","1","1","",""
"","feedback","","html-keyboard-response","127","209794","0.0-1.0-168.0-0.0","0","0","22136","","null","","","null","18","","","","","","","","","","","","","","","",""
"","ITI","","html-keyboard-response","128","210798","0.0-1.0-171.0","0","0","22136","","null","","","null","18","","","","","","","","","","","","","","","NaN",""
"","S1","","html-keyboard-response","129","211052","0.0-1.0-173.0","0","0","22136","","null","","","null","19","","","","","","","","","","","","","","","",""
"","ISI","","html-keyboard-response","130","213056","0.0-1.0-174.0","0","0","22136","","null","","","null","19","NaN","","","","","","","","","","","","","","",""
"","S2","","html-keyboard-response","131","213309","0.0-1.0-175.0","0","0","22136","","null","","","null","19","","NaN","","","","","","","","","","","","","",""
"","response","","html-keyboard-response","132","214263","0.0-1.0-176.0","0","0","22136","","950","","","68","19","","","1","19","training","adjacent","DE","4","5","O.jpg","P.jpg","1","1","1","",""
"","feedback","","html-keyboard-response","133","215267","0.0-1.0-177.0-0.0","0","0","22136","","null","","","null","19","","","","","","","","","","","","","","","",""
"","ITI","","html-keyboard-response","134","216271","0.0-1.0-180.0","0","0","22136","","null","","","null","19","","","","","","","","","","","","","","","NaN",""
"","S1","","html-keyboard-response","135","216525","0.0-1.0-182.0","0","0","22136","","null","","","null","20","","","","","","","","","","","","","","","",""
"","ISI","","html-keyboard-response","136","218529","0.0-1.0-183.0","0","0","22136","","null","","","null","20","NaN","","","","","","","","","","","","","","",""
"","S2","","html-keyboard-response","137","218783","0.0-1.0-184.0","0","0","22136","","null","","","null","20","","NaN","","","","","","","","","","","","","",""
"","response","","html-keyboard-response","138","219537","0.0-1.0-185.0","0","0","22136","","753","","","75","20","","","1","20","training","adjacent","BC","2","3","L.jpg","N.jpg","0","1","0","",""
"","feedback","","html-keyboard-response","139","220540","0.0-1.0-186.0-0.0","0","0","22136","","null","","","null","20","","","","","","","","","","","","","","","",""
"","time_out","","html-keyboard-response","140","222543","0.0-1.0-188.0-0.0","0","0","22136","","null","","","null","20","","","","","","","","","","","","","","","",""
"","ITI","","html-keyboard-response","141","223546","0.0-1.0-189.0","0","0","22136","","null","","","null","20","","","","","","","","","","","","","","","NaN",""
"","S1","","html-keyboard-response","142","223799","0.0-1.0-191.0","0","0","22136","","null","","","null","21","","","","","","","","","","","","","","","",""
"","ISI","","html-keyboard-response","143","225804","0.0-1.0-192.0","0","0","22136","","null","","","null","21","NaN","","","","","","","","","","","","","","",""
"","S2","","html-keyboard-response","144","226057","0.0-1.0-193.0","0","0","22136","","null","","","null","21","","NaN","","","","","","","","","","","","","",""
"","response","","html-keyboard-response","145","226555","0.0-1.0-194.0","0","0","22136","","495","","","68","21","","","1","21","training","adjacent","DE","4","5","O.jpg","P.jpg","1","1","1","",""
"","feedback","","html-keyboard-response","146","227559","0.0-1.0-195.0-0.0","0","0","22136","","null","","","null","21","","","","","","","","","","","","","","","",""
"","ITI","","html-keyboard-response","147","228562","0.0-1.0-198.0","0","0","22136","","null","","","null","21","","","","","","","","","","","","","","","NaN",""
"","S1","","html-keyboard-response","148","228816","0.0-1.0-200.0","0","0","22136","","null","","","null","22","","","","","","","","","","","","","","","",""
"","ISI","","html-keyboard-response","149","230820","0.0-1.0-201.0","0","0","22136","","null","","","null","22","NaN","","","","","","","","","","","","","","",""
"","S2","","html-keyboard-response","150","231073","0.0-1.0-202.0","0","0","22136","","null","","","null","22","","NaN","","","","","","","","","","","","","",""
"","response","","html-keyboard-response","151","231703","0.0-1.0-203.0","0","0","22136","","628","","","75","22","","","1","22","training","adjacent","DC","4","3","O.jpg","N.jpg","0","0","1","",""
"","feedback","","html-keyboard-response","152","232706","0.0-1.0-204.0-0.0","0","0","22136","","null","","","null","22","","","","","","","","","","","","","","","",""
"","ITI","","html-keyboard-response","153","233710","0.0-1.0-207.0","0","0","22136","","null","","","null","22","","","","","","","","","","","","","","","NaN",""
"","S1","","html-keyboard-response","154","233964","0.0-1.0-209.0","0","0","22136","","null","","","null","23","","","","","","","","","","","","","","","",""
"","ISI","","html-keyboard-response","155","235968","0.0-1.0-210.0","0","0","22136","","null","","","null","23","NaN","","","","","","","","","","","","","","",""
"","S2","","html-keyboard-response","156","236224","0.0-1.0-211.0","0","0","22136","","null","","","null","23","","NaN","","","","","","","","","","","","","",""
"","response","","html-keyboard-response","157","236746","0.0-1.0-212.0","0","0","22136","","520","","","68","23","","","1","23","training","adjacent","DE","4","5","O.jpg","P.jpg","1","1","1","",""
"","feedback","","html-keyboard-response","158","237750","0.0-1.0-213.0-0.0","0","0","22136","","null","","","null","23","","","","","","","","","","","","","","","",""
"","ITI","","html-keyboard-response","159","238753","0.0-1.0-216.0","0","0","22136","","null","","","null","23","","","","","","","","","","","","","","","NaN",""
"","S1","","html-keyboard-response","160","239014","0.0-1.0-218.0","0","0","22136","","null","","","null","24","","","","","","","","","","","","","","","",""
"","ISI","","html-keyboard-response","161","241018","0.0-1.0-219.0","0","0","22136","","null","","","null","24","NaN","","","","","","","","","","","","","","",""
"","S2","","html-keyboard-response","162","241276","0.0-1.0-220.0","0","0","22136","","null","","","null","24","","NaN","","","","","","","","","","","","","",""
"","response","","html-keyboard-response","163","241745","0.0-1.0-221.0","0","0","22136","","467","","","68","24","","","1","24","training","adjacent","AB","1","2","Q.jpg","L.jpg","1","1","1","",""
"","feedback","","html-keyboard-response","164","242748","0.0-1.0-222.0-0.0","0","0","22136","","null","","","null","24","","","","","","","","","","","","","","","",""
"","ITI","","html-keyboard-response","165","243752","0.0-1.0-225.0","0","0","22136","","null","","","null","24","","","","","","","","","","","","","","","NaN",""
"","S1","","html-keyboard-response","166","244006","0.0-1.0-227.0","0","0","22136","","null","","","null","25","","","","","","","","","","","","","","","",""
"","ISI","","html-keyboard-response","167","246009","0.0-1.0-228.0","0","0","22136","","null","","","null","25","NaN","","","","","","","","","","","","","","",""
"","S2","","html-keyboard-response","168","246264","0.0-1.0-229.0","0","0","22136","","null","","","null","25","","NaN","","","","","","","","","","","","","",""
"","response","","html-keyboard-response","169","246824","0.0-1.0-230.0","0","0","22136","","559","","","68","25","","","1","25","training","adjacent","GF","7","6","R.jpg","M.jpg","1","0","0","",""
"","feedback","","html-keyboard-response","170","247827","0.0-1.0-231.0-0.0","0","0","22136","","null","","","null","25","","","","","","","","","","","","","","","",""
"","time_out","","html-keyboard-response","171","249830","0.0-1.0-233.0-0.0","0","0","22136","","null","","","null","25","","","","","","","","","","","","","","","",""
"","ITI","","html-keyboard-response","172","250834","0.0-1.0-234.0","0","0","22136","","null","","","null","25","","","","","","","","","","","","","","","NaN",""
"","S1","","html-keyboard-response","173","251088","0.0-1.0-236.0","0","0","22136","","null","","","null","26","","","","","","","","","","","","","","","",""
"","ISI","","html-keyboard-response","174","253103","0.0-1.0-237.0","0","0","22136","","null","","","null","26","NaN","","","","","","","","","","","","","","",""
"","S2","","html-keyboard-response","175","253358","0.0-1.0-238.0","0","0","22136","","null","","","null","26","","NaN","","","","","","","","","","","","","",""
"","response","","html-keyboard-response","176","254300","0.0-1.0-239.0","0","0","22136","","941","","","68","26","","","1","26","training","adjacent","EF","5","6","P.jpg","M.jpg","1","1","1","",""
"","feedback","","html-keyboard-response","177","255304","0.0-1.0-240.0-0.0","0","0","22136","","null","","","null","26","","","","","","","","","","","","","","","",""
"","ITI","","html-keyboard-response","178","256308","0.0-1.0-243.0","0","0","22136","","null","","","null","26","","","","","","","","","","","","","","","NaN",""
"","S1","","html-keyboard-response","179","256561","0.0-1.0-245.0","0","0","22136","","null","","","null","27","","","","","","","","","","","","","","","",""
"","ISI","","html-keyboard-response","180","258565","0.0-1.0-246.0","0","0","22136","","null","","","null","27","NaN","","","","","","","","","","","","","","",""
"","S2","","html-keyboard-response","181","258820","0.0-1.0-247.0","0","0","22136","","null","","","null","27","","NaN","","","","","","","","","","","","","",""
"","response","","html-keyboard-response","182","259783","0.0-1.0-248.0","0","0","22136","","961","","","68","27","","","1","27","training","adjacent","CD","3","4","N.jpg","O.jpg","1","1","1","",""
"","feedback","","html-keyboard-response","183","260787","0.0-1.0-249.0-0.0","0","0","22136","","null","","","null","27","","","","","","","","","","","","","","","",""
"","ITI","","html-keyboard-response","184","261804","0.0-1.0-252.0","0","0","22136","","null","","","null","27","","","","","","","","","","","","","","","NaN",""
"","S1","","html-keyboard-response","185","262059","0.0-1.0-254.0","0","0","22136","","null","","","null","28","","","","","","","","","","","","","","","",""
"","ISI","","html-keyboard-response","186","264062","0.0-1.0-255.0","0","0","22136","","null","","","null","28","NaN","","","","","","","","","","","","","","",""
"","S2","","html-keyboard-response","187","264315","0.0-1.0-256.0","0","0","22136","","null","","","null","28","","NaN","","","","","","","","","","","","","",""
"","response","","html-keyboard-response","188","264675","0.0-1.0-257.0","0","0","22136","","359","","","68","28","","","1","28","training","adjacent","AB","1","2","Q.jpg","L.jpg","1","1","1","",""
"","feedback","","html-keyboard-response","189","265689","0.0-1.0-258.0-0.0","0","0","22136","","null","","","null","28","","","","","","","","","","","","","","","",""
"","ITI","","html-keyboard-response","190","266692","0.0-1.0-261.0","0","0","22136","","null","","","null","28","","","","","","","","","","","","","","","NaN",""
"","S1","","html-keyboard-response","191","266945","0.0-1.0-263.0","0","0","22136","","null","","","null","29","","","","","","","","","","","","","","","",""
"","ISI","","html-keyboard-response","192","268948","0.0-1.0-264.0","0","0","22136","","null","","","null","29","NaN","","","","","","","","","","","","","","",""
"","S2","","html-keyboard-response","193","269204","0.0-1.0-265.0","0","0","22136","","null","","","null","29","","NaN","","","","","","","","","","","","","",""
"","response","","html-keyboard-response","194","269541","0.0-1.0-266.0","0","0","22136","","333","","","75","29","","","1","29","training","adjacent","ED","5","4","P.jpg","O.jpg","0","0","1","",""
"","feedback","","html-keyboard-response","195","270545","0.0-1.0-267.0-0.0","0","0","22136","","null","","","null","29","","","","","","","","","","","","","","","",""
"","ITI","","html-keyboard-response","196","271551","0.0-1.0-270.0","0","0","22136","","null","","","null","29","","","","","","","","","","","","","","","NaN",""
"","S1","","html-keyboard-response","197","271805","0.0-1.0-272.0","0","0","22136","","null","","","null","30","","","","","","","","","","","","","","","",""
"","ISI","","html-keyboard-response","198","273808","0.0-1.0-273.0","0","0","22136","","null","","","null","30","NaN","","","","","","","","","","","","","","",""
"","S2","","html-keyboard-response","199","274062","0.0-1.0-274.0","0","0","22136","","null","","","null","30","","NaN","","","","","","","","","","","","","",""
"","response","","html-keyboard-response","200","274522","0.0-1.0-275.0","0","0","22136","","457","","","75","30","","","1","30","training","adjacent","ED","5","4","P.jpg","O.jpg","0","0","1","",""
"","feedback","","html-keyboard-response","201","275547","0.0-1.0-276.0-0.0","0","0","22136","","null","","","null","30","","","","","","","","","","","","","","","",""
"","ITI","","html-keyboard-response","202","276551","0.0-1.0-279.0","0","0","22136","","null","","","null","30","","","","","","","","","","","","","","","NaN",""
"","S1","","html-keyboard-response","203","276804","0.0-1.0-281.0","0","0","22136","","null","","","null","31","","","","","","","","","","","","","","","",""
"","ISI","","html-keyboard-response","204","278807","0.0-1.0-282.0","0","0","22136","","null","","","null","31","NaN","","","","","","","","","","","","","","",""
"","S2","","html-keyboard-response","205","279071","0.0-1.0-283.0","0","0","22136","","null","","","null","31","","NaN","","","","","","","","","","","","","",""
"","response","","html-keyboard-response","206","279354","0.0-1.0-284.0","0","0","22136","","281","","","75","31","","","1","31","training","adjacent","ED","5","4","P.jpg","O.jpg","0","0","1","",""
"","feedback","","html-keyboard-response","207","280357","0.0-1.0-285.0-0.0","0","0","22136","","null","","","null","31","","","","","","","","","","","","","","","",""
"","ITI","","html-keyboard-response","208","281360","0.0-1.0-288.0","0","0","22136","","null","","","null","31","","","","","","","","","","","","","","","NaN",""
"","S1","","html-keyboard-response","209","281614","0.0-1.0-290.0","0","0","22136","","null","","","null","32","","","","","","","","","","","","","","","",""
"","ISI","","html-keyboard-response","210","283617","0.0-1.0-291.0","0","0","22136","","null","","","null","32","NaN","","","","","","","","","","","","","","",""
"","S2","","html-keyboard-response","211","283884","0.0-1.0-292.0","0","0","22136","","null","","","null","32","","NaN","","","","","","","","","","","","","",""
"","response","","html-keyboard-response","212","284840","0.0-1.0-293.0","0","0","22136","","953","","","75","32","","","1","32","training","adjacent","CB","3","2","N.jpg","L.jpg","0","0","1","",""
"","feedback","","html-keyboard-response","213","285844","0.0-1.0-294.0-0.0","0","0","22136","","null","","","null","32","","","","","","","","","","","","","","","",""
"","ITI","","html-keyboard-response","214","286847","0.0-1.0-297.0","0","0","22136","","null","","","null","32","","","","","","","","","","","","","","","NaN",""
"","S1","","html-keyboard-response","215","287101","0.0-1.0-299.0","0","0","22136","","null","","","null","33","","","","","","","","","","","","","","","",""
"","ISI","","html-keyboard-response","216","289104","0.0-1.0-300.0","0","0","22136","","null","","","null","33","NaN","","","","","","","","","","","","","","",""
"","S2","","html-keyboard-response","217","289358","0.0-1.0-301.0","0","0","22136","","null","","","null","33","","NaN","","","","","","","","","","","","","",""
"","response","","html-keyboard-response","218","289945","0.0-1.0-302.0","0","0","22136","","586","","","75","33","","","1","33","training","adjacent","BA","2","1","L.jpg","Q.jpg","0","0","1","",""
"","feedback","","html-keyboard-response","219","290950","0.0-1.0-303.0-0.0","0","0","22136","","null","","","null","33","","","","","","","","","","","","","","","",""
"","ITI","","html-keyboard-response","220","291953","0.0-1.0-306.0","0","0","22136","","null","","","null","33","","","","","","","","","","","","","","","NaN",""
"","S1","","html-keyboard-response","221","292207","0.0-1.0-308.0","0","0","22136","","null","","","null","34","","","","","","","","","","","","","","","",""
"","ISI","","html-keyboard-response","222","294210","0.0-1.0-309.0","0","0","22136","","null","","","null","34","NaN","","","","","","","","","","","","","","",""
"","S2","","html-keyboard-response","223","294464","0.0-1.0-310.0","0","0","22136","","null","","","null","34","","NaN","","","","","","","","","","","","","",""
"","response","","html-keyboard-response","224","295368","0.0-1.0-311.0","0","0","22136","","901","","","75","34","","","1","34","training","adjacent","EF","5","6","P.jpg","M.jpg","0","1","0","",""
"","feedback","","html-keyboard-response","225","296371","0.0-1.0-312.0-0.0","0","0","22136","","null","","","null","34","","","","","","","","","","","","","","","",""
"","time_out","","html-keyboard-response","226","298376","0.0-1.0-314.0-0.0","0","0","22136","","null","","","null","34","","","","","","","","","","","","","","","",""
"","ITI","","html-keyboard-response","227","299378","0.0-1.0-315.0","0","0","22136","","null","","","null","34","","","","","","","","","","","","","","","NaN",""
"","S1","","html-keyboard-response","228","299632","0.0-1.0-317.0","0","0","22136","","null","","","null","35","","","","","","","","","","","","","","","",""
"","ISI","","html-keyboard-response","229","301635","0.0-1.0-318.0","0","0","22136","","null","","","null","35","NaN","","","","","","","","","","","","","","",""
"","S2","","html-keyboard-response","230","301888","0.0-1.0-319.0","0","0","22136","","null","","","null","35","","NaN","","","","","","","","","","","","","",""
"","response","","html-keyboard-response","231","302554","0.0-1.0-320.0","0","0","22136","","663","","","68","35","","","1","35","training","adjacent","CD","3","4","N.jpg","O.jpg","1","1","1","",""
"","feedback","","html-keyboard-response","232","303557","0.0-1.0-321.0-0.0","0","0","22136","","null","","","null","35","","","","","","","","","","","","","","","",""
"","ITI","","html-keyboard-response","233","304561","0.0-1.0-324.0","0","0","22136","","null","","","null","35","","","","","","","","","","","","","","","NaN",""
"","S1","","html-keyboard-response","234","304815","0.0-1.0-326.0","0","0","22136","","null","","","null","36","","","","","","","","","","","","","","","",""
"","ISI","","html-keyboard-response","235","306819","0.0-1.0-327.0","0","0","22136","","null","","","null","36","NaN","","","","","","","","","","","","","","",""
"","S2","","html-keyboard-response","236","307073","0.0-1.0-328.0","0","0","22136","","null","","","null","36","","NaN","","","","","","","","","","","","","",""
"","response","","html-keyboard-response","237","307503","0.0-1.0-329.0","0","0","22136","","429","","","68","36","","","1","36","training","adjacent","DE","4","5","O.jpg","P.jpg","1","1","1","",""
"","feedback","","html-keyboard-response","238","308506","0.0-1.0-330.0-0.0","0","0","22136","","null","","","null","36","","","","","","","","","","","","","","","",""
"","ITI","","html-keyboard-response","239","309510","0.0-1.0-333.0","0","0","22136","","null","","","null","36","","","","","","","","","","","","","","","NaN",""
"","S1","","html-keyboard-response","240","309762","0.0-1.0-335.0","0","0","22136","","null","","","null","37","","","","","","","","","","","","","","","",""
"","ISI","","html-keyboard-response","241","311766","0.0-1.0-336.0","0","0","22136","","null","","","null","37","NaN","","","","","","","","","","","","","","",""
"","S2","","html-keyboard-response","242","312019","0.0-1.0-337.0","0","0","22136","","null","","","null","37","","NaN","","","","","","","","","","","","","",""
"","response","","html-keyboard-response","243","313072","0.0-1.0-338.0","0","0","22136","","1050","","","68","37","","","1","37","training","adjacent","FG","6","7","M.jpg","R.jpg","1","1","1","",""
"","feedback","","html-keyboard-response","244","314076","0.0-1.0-339.0-0.0","0","0","22136","","null","","","null","37","","","","","","","","","","","","","","","",""
"","ITI","","html-keyboard-response","245","315080","0.0-1.0-342.0","0","0","22136","","null","","","null","37","","","","","","","","","","","","","","","NaN",""
"","S1","","html-keyboard-response","246","315334","0.0-1.0-344.0","0","0","22136","","null","","","null","38","","","","","","","","","","","","","","","",""
"","ISI","","html-keyboard-response","247","317338","0.0-1.0-345.0","0","0","22136","","null","","","null","38","NaN","","","","","","","","","","","","","","",""
"","S2","","html-keyboard-response","248","317605","0.0-1.0-346.0","0","0","22136","","null","","","null","38","","NaN","","","","","","","","","","","","","",""
"","response","","html-keyboard-response","249","317953","0.0-1.0-347.0","0","0","22136","","345","","","75","38","","","1","38","training","adjacent","CB","3","2","N.jpg","L.jpg","0","0","1","",""
"","feedback","","html-keyboard-response","250","318957","0.0-1.0-348.0-0.0","0","0","22136","","null","","","null","38","","","","","","","","","","","","","","","",""
"","ITI","","html-keyboard-response","251","319959","0.0-1.0-351.0","0","0","22136","","null","","","null","38","","","","","","","","","","","","","","","NaN",""
"","S1","","html-keyboard-response","252","320212","0.0-1.0-353.0","0","0","22136","","null","","","null","39","","","","","","","","","","","","","","","",""
"","ISI","","html-keyboard-response","253","322215","0.0-1.0-354.0","0","0","22136","","null","","","null","39","NaN","","","","","","","","","","","","","","",""
"","S2","","html-keyboard-response","254","322468","0.0-1.0-355.0","0","0","22136","","null","","","null","39","","NaN","","","","","","","","","","","","","",""
"","response","","html-keyboard-response","255","323282","0.0-1.0-356.0","0","0","22136","","811","","","75","39","","","1","39","training","adjacent","GF","7","6","R.jpg","M.jpg","0","0","1","",""
"","feedback","","html-keyboard-response","256","324285","0.0-1.0-357.0-0.0","0","0","22136","","null","","","null","39","","","","","","","","","","","","","","","",""
"","ITI","","html-keyboard-response","257","325289","0.0-1.0-360.0","0","0","22136","","null","","","null","39","","","","","","","","","","","","","","","NaN",""
"","S1","","html-keyboard-response","258","325543","0.0-1.0-362.0","0","0","22136","","null","","","null","40","","","","","","","","","","","","","","","",""
"","ISI","","html-keyboard-response","259","327546","0.0-1.0-363.0","0","0","22136","","null","","","null","40","NaN","","","","","","","","","","","","","","",""
"","S2","","html-keyboard-response","260","327801","0.0-1.0-364.0","0","0","22136","","null","","","null","40","","NaN","","","","","","","","","","","","","",""
"","response","","html-keyboard-response","261","328844","0.0-1.0-365.0","0","0","22136","","1042","","","68","40","","","1","40","training","adjacent","GF","7","6","R.jpg","M.jpg","1","0","0","",""
"","feedback","","html-keyboard-response","262","329848","0.0-1.0-366.0-0.0","0","0","22136","","null","","","null","40","","","","","","","","","","","","","","","",""
"","time_out","","html-keyboard-response","263","331850","0.0-1.0-368.0-0.0","0","0","22136","","null","","","null","40","","","","","","","","","","","","","","","",""
"","ITI","","html-keyboard-response","264","332853","0.0-1.0-369.0","0","0","22136","","null","","","null","40","","","","","","","","","","","","","","","NaN",""
"","S1","","html-keyboard-response","265","333123","0.0-1.0-371.0","0","0","22136","","null","","","null","41","","","","","","","","","","","","","","","",""
"","ISI","","html-keyboard-response","266","335126","0.0-1.0-372.0","0","0","22136","","null","","","null","41","NaN","","","","","","","","","","","","","","",""
"","S2","","html-keyboard-response","267","335380","0.0-1.0-373.0","0","0","22136","","null","","","null","41","","NaN","","","","","","","","","","","","","",""
"","response","","html-keyboard-response","268","336052","0.0-1.0-374.0","0","0","22136","","670","","","75","41","","","1","41","training","adjacent","GF","7","6","R.jpg","M.jpg","0","0","1","",""
"","feedback","","html-keyboard-response","269","337055","0.0-1.0-375.0-0.0","0","0","22136","","null","","","null","41","","","","","","","","","","","","","","","",""
"","ITI","","html-keyboard-response","270","338059","0.0-1.0-378.0","0","0","22136","","null","","","null","41","","","","","","","","","","","","","","","NaN",""
"","S1","","html-keyboard-response","271","338313","0.0-1.0-380.0","0","0","22136","","null","","","null","42","","","","","","","","","","","","","","","",""
"","ISI","","html-keyboard-response","272","340316","0.0-1.0-381.0","0","0","22136","","null","","","null","42","NaN","","","","","","","","","","","","","","",""
"","S2","","html-keyboard-response","273","340583","0.0-1.0-382.0","0","0","22136","","null","","","null","42","","NaN","","","","","","","","","","","","","",""
"","response","","html-keyboard-response","274","341651","0.0-1.0-383.0","0","0","22136","","1065","","","68","42","","","1","42","training","adjacent","FE","6","5","M.jpg","P.jpg","1","0","0","",""
"","feedback","","html-keyboard-response","275","342656","0.0-1.0-384.0-0.0","0","0","22136","","null","","","null","42","","","","","","","","","","","","","","","",""
"","time_out","","html-keyboard-response","276","344659","0.0-1.0-386.0-0.0","0","0","22136","","null","","","null","42","","","","","","","","","","","","","","","",""
"","ITI","","html-keyboard-response","277","345671","0.0-1.0-387.0","0","0","22136","","null","","","null","42","","","","","","","","","","","","","","","NaN",""
"","S1","","html-keyboard-response","278","345926","0.0-1.0-389.0","0","0","22136","","null","","","null","43","","","","","","","","","","","","","","","",""
"","ISI","","html-keyboard-response","279","347928","0.0-1.0-390.0","0","0","22136","","null","","","null","43","NaN","","","","","","","","","","","","","","",""
"","S2","","html-keyboard-response","280","348182","0.0-1.0-391.0","0","0","22136","","null","","","null","43","","NaN","","","","","","","","","","","","","",""
"","response","","html-keyboard-response","281","349020","0.0-1.0-392.0","0","0","22136","","834","","","75","43","","","1","43","training","adjacent","DC","4","3","O.jpg","N.jpg","0","0","1","",""
"","feedback","","html-keyboard-response","282","350024","0.0-1.0-393.0-0.0","0","0","22136","","null","","","null","43","","","","","","","","","","","","","","","",""
"","ITI","","html-keyboard-response","283","351027","0.0-1.0-396.0","0","0","22136","","null","","","null","43","","","","","","","","","","","","","","","NaN",""
"","S1","","html-keyboard-response","284","351281","0.0-1.0-398.0","0","0","22136","","null","","","null","44","","","","","","","","","","","","","","","",""
"","ISI","","html-keyboard-response","285","353284","0.0-1.0-399.0","0","0","22136","","null","","","null","44","NaN","","","","","","","","","","","","","","",""
"","S2","","html-keyboard-response","286","353536","0.0-1.0-400.0","0","0","22136","","null","","","null","44","","NaN","","","","","","","","","","","","","",""
"","response","","html-keyboard-response","287","354262","0.0-1.0-401.0","0","0","22136","","724","","","68","44","","","1","44","training","adjacent","BC","2","3","L.jpg","N.jpg","1","1","1","",""
"","feedback","","html-keyboard-response","288","355264","0.0-1.0-402.0-0.0","0","0","22136","","null","","","null","44","","","","","","","","","","","","","","","",""
"","ITI","","html-keyboard-response","289","356268","0.0-1.0-405.0","0","0","22136","","null","","","null","44","","","","","","","","","","","","","","","NaN",""
"","S1","","html-keyboard-response","290","356531","0.0-1.0-407.0","0","0","22136","","null","","","null","45","","","","","","","","","","","","","","","",""
"","ISI","","html-keyboard-response","291","358536","0.0-1.0-408.0","0","0","22136","","null","","","null","45","NaN","","","","","","","","","","","","","","",""
"","S2","","html-keyboard-response","292","358790","0.0-1.0-409.0","0","0","22136","","null","","","null","45","","NaN","","","","","","","","","","","","","",""
"","response","","html-keyboard-response","293","359435","0.0-1.0-410.0","0","0","22136","","644","","","75","45","","","1","45","training","adjacent","FG","6","7","M.jpg","R.jpg","0","1","0","",""
"","feedback","","html-keyboard-response","294","360437","0.0-1.0-411.0-0.0","0","0","22136","","null","","","null","45","","","","","","","","","","","","","","","",""
"","time_out","","html-keyboard-response","295","362442","0.0-1.0-413.0-0.0","0","0","22136","","null","","","null","45","","","","","","","","","","","","","","","",""
"","ITI","","html-keyboard-response","296","363446","0.0-1.0-414.0","0","0","22136","","null","","","null","45","","","","","","","","","","","","","","","NaN",""
"","S1","","html-keyboard-response","297","363698","0.0-1.0-416.0","0","0","22136","","null","","","null","46","","","","","","","","","","","","","","","",""
"","ISI","","html-keyboard-response","298","365701","0.0-1.0-417.0","0","0","22136","","null","","","null","46","NaN","","","","","","","","","","","","","","",""
"","S2","","html-keyboard-response","299","365955","0.0-1.0-418.0","0","0","22136","","null","","","null","46","","NaN","","","","","","","","","","","","","",""
"","response","","html-keyboard-response","300","366265","0.0-1.0-419.0","0","0","22136","","307","","","68","46","","","1","46","training","adjacent","AB","1","2","Q.jpg","L.jpg","1","1","1","",""
"","feedback","","html-keyboard-response","301","367268","0.0-1.0-420.0-0.0","0","0","22136","","null","","","null","46","","","","","","","","","","","","","","","",""
"","ITI","","html-keyboard-response","302","368271","0.0-1.0-423.0","0","0","22136","","null","","","null","46","","","","","","","","","","","","","","","NaN",""
"","S1","","html-keyboard-response","303","368525","0.0-1.0-425.0","0","0","22136","","null","","","null","47","","","","","","","","","","","","","","","",""
"","ISI","","html-keyboard-response","304","370529","0.0-1.0-426.0","0","0","22136","","null","","","null","47","NaN","","","","","","","","","","","","","","",""
"","S2","","html-keyboard-response","305","370783","0.0-1.0-427.0","0","0","22136","","null","","","null","47","","NaN","","","","","","","","","","","","","",""
"","response","","html-keyboard-response","306","371435","0.0-1.0-428.0","0","0","22136","","649","","","68","47","","","1","47","training","adjacent","EF","5","6","P.jpg","M.jpg","1","1","1","",""
"","feedback","","html-keyboard-response","307","372439","0.0-1.0-429.0-0.0","0","0","22136","","null","","","null","47","","","","","","","","","","","","","","","",""
"","ITI","","html-keyboard-response","308","373453","0.0-1.0-432.0","0","0","22136","","null","","","null","47","","","","","","","","","","","","","","","NaN",""
"","block_over","","html-keyboard-response","309","388511","0.0-1.0-433.0-0.0","0","0","22136","","15053","","","32","47","","","","","","","","","","","","","","","",""
"","S1","","html-keyboard-response","310","388770","0.0-1.0-434.0","0","0","22136","","null","","","null","48","","","","","","","","","","","","","","","",""
"","ISI","","html-keyboard-response","311","390772","0.0-1.0-435.0","0","0","22136","","null","","","null","48","NaN","","","","","","","","","","","","","","",""
"","S2","","html-keyboard-response","312","391025","0.0-1.0-436.0","0","0","22136","","null","","","null","48","","NaN","","","","","","","","","","","","","",""
"","response","","html-keyboard-response","313","391824","0.0-1.0-437.0","0","0","22136","","796","","","68","48","","","2","48","training","adjacent","CB","3","2","N.jpg","L.jpg","1","0","0","",""
"","feedback","","html-keyboard-response","314","392828","0.0-1.0-438.0-0.0","0","0","22136","","null","","","null","48","","","","","","","","","","","","","","","",""
"","time_out","","html-keyboard-response","315","394837","0.0-1.0-440.0-0.0","0","0","22136","","null","","","null","48","","","","","","","","","","","","","","","",""
"","ITI","","html-keyboard-response","316","395841","0.0-1.0-441.0","0","0","22136","","null","","","null","48","","","","","","","","","","","","","","","NaN",""
"","S1","","html-keyboard-response","317","396112","0.0-1.0-443.0","0","0","22136","","null","","","null","49","","","","","","","","","","","","","","","",""
"","ISI","","html-keyboard-response","318","398115","0.0-1.0-444.0","0","0","22136","","null","","","null","49","NaN","","","","","","","","","","","","","","",""
"","S2","","html-keyboard-response","319","398368","0.0-1.0-445.0","0","0","22136","","null","","","null","49","","NaN","","","","","","","","","","","","","",""
"","response","","html-keyboard-response","320","398812","0.0-1.0-446.0","0","0","22136","","441","","","75","49","","","2","49","training","adjacent","ED","5","4","P.jpg","O.jpg","0","0","1","",""
"","feedback","","html-keyboard-response","321","399815","0.0-1.0-447.0-0.0","0","0","22136","","null","","","null","49","","","","","","","","","","","","","","","",""
"","ITI","","html-keyboard-response","322","400818","0.0-1.0-450.0","0","0","22136","","null","","","null","49","","","","","","","","","","","","","","","NaN",""
"","S1","","html-keyboard-response","323","401072","0.0-1.0-452.0","0","0","22136","","null","","","null","50","","","","","","","","","","","","","","","",""
"","ISI","","html-keyboard-response","324","403074","0.0-1.0-453.0","0","0","22136","","null","","","null","50","NaN","","","","","","","","","","","","","","",""
"","S2","","html-keyboard-response","325","403326","0.0-1.0-454.0","0","0","22136","","null","","","null","50","","NaN","","","","","","","","","","","","","",""
"","response","","html-keyboard-response","326","404018","0.0-1.0-455.0","0","0","22136","","690","","","68","50","","","2","50","training","adjacent","BC","2","3","L.jpg","N.jpg","1","1","1","",""
"","feedback","","html-keyboard-response","327","405021","0.0-1.0-456.0-0.0","0","0","22136","","null","","","null","50","","","","","","","","","","","","","","","",""
"","ITI","","html-keyboard-response","328","406026","0.0-1.0-459.0","0","0","22136","","null","","","null","50","","","","","","","","","","","","","","","NaN",""
"","S1","","html-keyboard-response","329","406295","0.0-1.0-461.0","0","0","22136","","null","","","null","51","","","","","","","","","","","","","","","",""
"","ISI","","html-keyboard-response","330","408298","0.0-1.0-462.0","0","0","22136","","null","","","null","51","NaN","","","","","","","","","","","","","","",""
"","S2","","html-keyboard-response","331","408550","0.0-1.0-463.0","0","0","22136","","null","","","null","51","","NaN","","","","","","","","","","","","","",""
"","response","","html-keyboard-response","332","408984","0.0-1.0-464.0","0","0","22136","","431","","","75","51","","","2","51","training","adjacent","GF","7","6","R.jpg","M.jpg","0","0","1","",""
"","feedback","","html-keyboard-response","333","409987","0.0-1.0-465.0-0.0","0","0","22136","","null","","","null","51","","","","","","","","","","","","","","","",""
"","ITI","","html-keyboard-response","334","410991","0.0-1.0-468.0","0","0","22136","","null","","","null","51","","","","","","","","","","","","","","","NaN",""
"","S1","","html-keyboard-response","335","411245","0.0-1.0-470.0","0","0","22136","","null","","","null","52","","","","","","","","","","","","","","","",""
"","ISI","","html-keyboard-response","336","413259","0.0-1.0-471.0","0","0","22136","","null","","","null","52","NaN","","","","","","","","","","","","","","",""
"","S2","","html-keyboard-response","337","413513","0.0-1.0-472.0","0","0","22136","","null","","","null","52","","NaN","","","","","","","","","","","","","",""
"","response","","html-keyboard-response","338","413931","0.0-1.0-473.0","0","0","22136","","415","","","68","52","","","2","52","training","adjacent","AB","1","2","Q.jpg","L.jpg","1","1","1","",""
"","feedback","","html-keyboard-response","339","414935","0.0-1.0-474.0-0.0","0","0","22136","","null","","","null","52","","","","","","","","","","","","","","","",""
"","ITI","","html-keyboard-response","340","415938","0.0-1.0-477.0","0","0","22136","","null","","","null","52","","","","","","","","","","","","","","","NaN",""
"","S1","","html-keyboard-response","341","416200","0.0-1.0-479.0","0","0","22136","","null","","","null","53","","","","","","","","","","","","","","","",""
"","ISI","","html-keyboard-response","342","418203","0.0-1.0-480.0","0","0","22136","","null","","","null","53","NaN","","","","","","","","","","","","","","",""
"","S2","","html-keyboard-response","343","418456","0.0-1.0-481.0","0","0","22136","","null","","","null","53","","NaN","","","","","","","","","","","","","",""
"","response","","html-keyboard-response","344","419235","0.0-1.0-482.0","0","0","22136","","776","","","75","53","","","2","53","training","adjacent","FE","6","5","M.jpg","P.jpg","0","0","1","",""
"","feedback","","html-keyboard-response","345","420247","0.0-1.0-483.0-0.0","0","0","22136","","null","","","null","53","","","","","","","","","","","","","","","",""
"","ITI","","html-keyboard-response","346","421251","0.0-1.0-486.0","0","0","22136","","null","","","null","53","","","","","","","","","","","","","","","NaN",""
"","S1","","html-keyboard-response","347","421504","0.0-1.0-488.0","0","0","22136","","null","","","null","54","","","","","","","","","","","","","","","",""
"","ISI","","html-keyboard-response","348","423507","0.0-1.0-489.0","0","0","22136","","null","","","null","54","NaN","","","","","","","","","","","","","","",""
"","S2","","html-keyboard-response","349","423769","0.0-1.0-490.0","0","0","22136","","null","","","null","54","","NaN","","","","","","","","","","","","","",""
"","response","","html-keyboard-response","350","424553","0.0-1.0-491.0","0","0","22136","","782","","","68","54","","","2","54","training","adjacent","CD","3","4","N.jpg","O.jpg","1","1","1","",""
"","feedback","","html-keyboard-response","351","425558","0.0-1.0-492.0-0.0","0","0","22136","","null","","","null","54","","","","","","","","","","","","","","","",""
"","ITI","","html-keyboard-response","352","426561","0.0-1.0-495.0","0","0","22136","","null","","","null","54","","","","","","","","","","","","","","","NaN",""
"","S1","","html-keyboard-response","353","426813","0.0-1.0-497.0","0","0","22136","","null","","","null","55","","","","","","","","","","","","","","","",""
"","ISI","","html-keyboard-response","354","428817","0.0-1.0-498.0","0","0","22136","","null","","","null","55","NaN","","","","","","","","","","","","","","",""
"","S2","","html-keyboard-response","355","429083","0.0-1.0-499.0","0","0","22136","","null","","","null","55","","NaN","","","","","","","","","","","","","",""
"","response","","html-keyboard-response","356","429800","0.0-1.0-500.0","0","0","22136","","714","","","68","55","","","2","55","training","adjacent","FG","6","7","M.jpg","R.jpg","1","1","1","",""
"","feedback","","html-keyboard-response","357","430803","0.0-1.0-501.0-0.0","0","0","22136","","null","","","null","55","","","","","","","","","","","","","","","",""
"","ITI","","html-keyboard-response","358","431806","0.0-1.0-504.0","0","0","22136","","null","","","null","55","","","","","","","","","","","","","","","NaN",""
"","S1","","html-keyboard-response","359","432058","0.0-1.0-506.0","0","0","22136","","null","","","null","56","","","","","","","","","","","","","","","",""
"","ISI","","html-keyboard-response","360","434063","0.0-1.0-507.0","0","0","22136","","null","","","null","56","NaN","","","","","","","","","","","","","","",""
"","S2","","html-keyboard-response","361","434316","0.0-1.0-508.0","0","0","22136","","null","","","null","56","","NaN","","","","","","","","","","","","","",""
"","response","","html-keyboard-response","362","434960","0.0-1.0-509.0","0","0","22136","","641","","","68","56","","","2","56","training","adjacent","EF","5","6","P.jpg","M.jpg","1","1","1","",""
"","feedback","","html-keyboard-response","363","435965","0.0-1.0-510.0-0.0","0","0","22136","","null","","","null","56","","","","","","","","","","","","","","","",""
"","ITI","","html-keyboard-response","364","436968","0.0-1.0-513.0","0","0","22136","","null","","","null","56","","","","","","","","","","","","","","","NaN",""
"","S1","","html-keyboard-response","365","437221","0.0-1.0-515.0","0","0","22136","","null","","","null","57","","","","","","","","","","","","","","","",""
"","ISI","","html-keyboard-response","366","439224","0.0-1.0-516.0","0","0","22136","","null","","","null","57","NaN","","","","","","","","","","","","","","",""
"","S2","","html-keyboard-response","367","439479","0.0-1.0-517.0","0","0","22136","","null","","","null","57","","NaN","","","","","","","","","","","","","",""
"","response","","html-keyboard-response","368","439899","0.0-1.0-518.0","0","0","22136","","418","","","75","57","","","2","57","training","adjacent","BA","2","1","L.jpg","Q.jpg","0","0","1","",""
"","feedback","","html-keyboard-response","369","440903","0.0-1.0-519.0-0.0","0","0","22136","","null","","","null","57","","","","","","","","","","","","","","","",""
"","ITI","","html-keyboard-response","370","441907","0.0-1.0-522.0","0","0","22136","","null","","","null","57","","","","","","","","","","","","","","","NaN",""
"","S1","","html-keyboard-response","371","442171","0.0-1.0-524.0","0","0","22136","","null","","","null","58","","","","","","","","","","","","","","","",""
"","ISI","","html-keyboard-response","372","444175","0.0-1.0-525.0","0","0","22136","","null","","","null","58","NaN","","","","","","","","","","","","","","",""
"","S2","","html-keyboard-response","373","444430","0.0-1.0-526.0","0","0","22136","","null","","","null","58","","NaN","","","","","","","","","","","","","",""
"","response","","html-keyboard-response","374","445152","0.0-1.0-527.0","0","0","22136","","719","","","75","58","","","2","58","training","adjacent","DC","4","3","O.jpg","N.jpg","0","0","1","",""
"","feedback","","html-keyboard-response","375","446155","0.0-1.0-528.0-0.0","0","0","22136","","null","","","null","58","","","","","","","","","","","","","","","",""
"","ITI","","html-keyboard-response","376","447162","0.0-1.0-531.0","0","0","22136","","null","","","null","58","","","","","","","","","","","","","","","NaN",""
"","S1","","html-keyboard-response","377","447416","0.0-1.0-533.0","0","0","22136","","null","","","null","59","","","","","","","","","","","","","","","",""
"","ISI","","html-keyboard-response","378","449420","0.0-1.0-534.0","0","0","22136","","null","","","null","59","NaN","","","","","","","","","","","","","","",""
"","S2","","html-keyboard-response","379","449674","0.0-1.0-535.0","0","0","22136","","null","","","null","59","","NaN","","","","","","","","","","","","","",""
"","response","","html-keyboard-response","380","450432","0.0-1.0-536.0","0","0","22136","","756","","","68","59","","","2","59","training","adjacent","CD","3","4","N.jpg","O.jpg","1","1","1","",""
"","feedback","","html-keyboard-response","381","451446","0.0-1.0-537.0-0.0","0","0","22136","","null","","","null","59","","","","","","","","","","","","","","","",""
"","ITI","","html-keyboard-response","382","452450","0.0-1.0-540.0","0","0","22136","","null","","","null","59","","","","","","","","","","","","","","","NaN",""
"","S1","","html-keyboard-response","383","452704","0.0-1.0-542.0","0","0","22136","","null","","","null","60","","","","","","","","","","","","","","","",""
"","ISI","","html-keyboard-response","384","454708","0.0-1.0-543.0","0","0","22136","","null","","","null","60","NaN","","","","","","","","","","","","","","",""
"","S2","","html-keyboard-response","385","454962","0.0-1.0-544.0","0","0","22136","","null","","","null","60","","NaN","","","","","","","","","","","","","",""
"","response","","html-keyboard-response","386","455781","0.0-1.0-545.0","0","0","22136","","816","","","68","60","","","2","60","training","adjacent","GF","7","6","R.jpg","M.jpg","1","0","0","",""
"","feedback","","html-keyboard-response","387","456789","0.0-1.0-546.0-0.0","0","0","22136","","null","","","null","60","","","","","","","","","","","","","","","",""
"","time_out","","html-keyboard-response","388","458793","0.0-1.0-548.0-0.0","0","0","22136","","null","","","null","60","","","","","","","","","","","","","","","",""
"","ITI","","html-keyboard-response","389","459797","0.0-1.0-549.0","0","0","22136","","null","","","null","60","","","","","","","","","","","","","","","NaN",""
"","S1","","html-keyboard-response","390","460050","0.0-1.0-551.0","0","0","22136","","null","","","null","61","","","","","","","","","","","","","","","",""
"","ISI","","html-keyboard-response","391","462054","0.0-1.0-552.0","0","0","22136","","null","","","null","61","NaN","","","","","","","","","","","","","","",""
"","S2","","html-keyboard-response","392","462307","0.0-1.0-553.0","0","0","22136","","null","","","null","61","","NaN","","","","","","","","","","","","","",""
"","response","","html-keyboard-response","393","462567","0.0-1.0-554.0","0","0","22136","","259","","","68","61","","","2","61","training","adjacent","DE","4","5","O.jpg","P.jpg","1","1","1","",""
"","feedback","","html-keyboard-response","394","463571","0.0-1.0-555.0-0.0","0","0","22136","","null","","","null","61","","","","","","","","","","","","","","","",""
"","ITI","","html-keyboard-response","395","464574","0.0-1.0-558.0","0","0","22136","","null","","","null","61","","","","","","","","","","","","","","","NaN",""
"","S1","","html-keyboard-response","396","464827","0.0-1.0-560.0","0","0","22136","","null","","","null","62","","","","","","","","","","","","","","","",""
"","ISI","","html-keyboard-response","397","466831","0.0-1.0-561.0","0","0","22136","","null","","","null","62","NaN","","","","","","","","","","","","","","",""
"","S2","","html-keyboard-response","398","467085","0.0-1.0-562.0","0","0","22136","","null","","","null","62","","NaN","","","","","","","","","","","","","",""
"","response","","html-keyboard-response","399","467712","0.0-1.0-563.0","0","0","22136","","624","","","68","62","","","2","62","training","adjacent","CD","3","4","N.jpg","O.jpg","1","1","1","",""
"","feedback","","html-keyboard-response","400","468716","0.0-1.0-564.0-0.0","0","0","22136","","null","","","null","62","","","","","","","","","","","","","","","",""
"","ITI","","html-keyboard-response","401","469719","0.0-1.0-567.0","0","0","22136","","null","","","null","62","","","","","","","","","","","","","","","NaN",""
"","S1","","html-keyboard-response","402","469972","0.0-1.0-569.0","0","0","22136","","null","","","null","63","","","","","","","","","","","","","","","",""
"","ISI","","html-keyboard-response","403","471975","0.0-1.0-570.0","0","0","22136","","null","","","null","63","NaN","","","","","","","","","","","","","","",""
"","S2","","html-keyboard-response","404","472228","0.0-1.0-571.0","0","0","22136","","null","","","null","63","","NaN","","","","","","","","","","","","","",""
"","response","","html-keyboard-response","405","472964","0.0-1.0-572.0","0","0","22136","","734","","","75","63","","","2","63","training","adjacent","CB","3","2","N.jpg","L.jpg","0","0","1","",""
"","feedback","","html-keyboard-response","406","473967","0.0-1.0-573.0-0.0","0","0","22136","","null","","","null","63","","","","","","","","","","","","","","","",""
"","ITI","","html-keyboard-response","407","474970","0.0-1.0-576.0","0","0","22136","","null","","","null","63","","","","","","","","","","","","","","","NaN",""
"","S1","","html-keyboard-response","408","475224","0.0-1.0-578.0","0","0","22136","","null","","","null","64","","","","","","","","","","","","","","","",""
"","ISI","","html-keyboard-response","409","477227","0.0-1.0-579.0","0","0","22136","","null","","","null","64","NaN","","","","","","","","","","","","","","",""
"","S2","","html-keyboard-response","410","477486","0.0-1.0-580.0","0","0","22136","","null","","","null","64","","NaN","","","","","","","","","","","","","",""
"","response","","html-keyboard-response","411","477948","0.0-1.0-581.0","0","0","22136","","461","","","75","64","","","2","64","training","adjacent","CB","3","2","N.jpg","L.jpg","0","0","1","",""
"","feedback","","html-keyboard-response","412","478951","0.0-1.0-582.0-0.0","0","0","22136","","null","","","null","64","","","","","","","","","","","","","","","",""
"","ITI","","html-keyboard-response","413","479955","0.0-1.0-585.0","0","0","22136","","null","","","null","64","","","","","","","","","","","","","","","NaN",""
"","S1","","html-keyboard-response","414","480210","0.0-1.0-587.0","0","0","22136","","null","","","null","65","","","","","","","","","","","","","","","",""
"","ISI","","html-keyboard-response","415","482213","0.0-1.0-588.0","0","0","22136","","null","","","null","65","NaN","","","","","","","","","","","","","","",""
"","S2","","html-keyboard-response","416","482468","0.0-1.0-589.0","0","0","22136","","null","","","null","65","","NaN","","","","","","","","","","","","","",""
"","response","","html-keyboard-response","417","483076","0.0-1.0-590.0","0","0","22136","","606","","","75","65","","","2","65","training","adjacent","ED","5","4","P.jpg","O.jpg","0","0","1","",""
"","feedback","","html-keyboard-response","418","484079","0.0-1.0-591.0-0.0","0","0","22136","","null","","","null","65","","","","","","","","","","","","","","","",""
"","ITI","","html-keyboard-response","419","485084","0.0-1.0-594.0","0","0","22136","","null","","","null","65","","","","","","","","","","","","","","","NaN",""
"","S1","","html-keyboard-response","420","485344","0.0-1.0-596.0","0","0","22136","","null","","","null","66","","","","","","","","","","","","","","","",""
"","ISI","","html-keyboard-response","421","487349","0.0-1.0-597.0","0","0","22136","","null","","","null","66","NaN","","","","","","","","","","","","","","",""
"","S2","","html-keyboard-response","422","487627","0.0-1.0-598.0","0","0","22136","","null","","","null","66","","NaN","","","","","","","","","","","","","",""
"","response","","html-keyboard-response","423","488389","0.0-1.0-599.0","0","0","22136","","755","","","75","66","","","2","66","training","adjacent","DC","4","3","O.jpg","N.jpg","0","0","1","",""
"","feedback","","html-keyboard-response","424","489393","0.0-1.0-600.0-0.0","0","0","22136","","null","","","null","66","","","","","","","","","","","","","","","",""
"","ITI","","html-keyboard-response","425","490399","0.0-1.0-603.0","0","0","22136","","null","","","null","66","","","","","","","","","","","","","","","NaN",""
"","S1","","html-keyboard-response","426","490653","0.0-1.0-605.0","0","0","22136","","null","","","null","67","","","","","","","","","","","","","","","",""
"","ISI","","html-keyboard-response","427","492656","0.0-1.0-606.0","0","0","22136","","null","","","null","67","NaN","","","","","","","","","","","","","","",""
"","S2","","html-keyboard-response","428","492910","0.0-1.0-607.0","0","0","22136","","null","","","null","67","","NaN","","","","","","","","","","","","","",""
"","response","","html-keyboard-response","429","493457","0.0-1.0-608.0","0","0","22136","","544","","","75","67","","","2","67","training","adjacent","EF","5","6","P.jpg","M.jpg","0","1","0","",""
"","feedback","","html-keyboard-response","430","494460","0.0-1.0-609.0-0.0","0","0","22136","","null","","","null","67","","","","","","","","","","","","","","","",""
"","time_out","","html-keyboard-response","431","496464","0.0-1.0-611.0-0.0","0","0","22136","","null","","","null","67","","","","","","","","","","","","","","","",""
"","ITI","","html-keyboard-response","432","497468","0.0-1.0-612.0","0","0","22136","","null","","","null","67","","","","","","","","","","","","","","","NaN",""
"","S1","","html-keyboard-response","433","497722","0.0-1.0-614.0","0","0","22136","","null","","","null","68","","","","","","","","","","","","","","","",""
"","ISI","","html-keyboard-response","434","499727","0.0-1.0-615.0","0","0","22136","","null","","","null","68","NaN","","","","","","","","","","","","","","",""
"","S2","","html-keyboard-response","435","499981","0.0-1.0-616.0","0","0","22136","","null","","","null","68","","NaN","","","","","","","","","","","","","",""
"","response","","html-keyboard-response","436","500391","0.0-1.0-617.0","0","0","22136","","407","","","75","68","","","2","68","training","adjacent","ED","5","4","P.jpg","O.jpg","0","0","1","",""
"","feedback","","html-keyboard-response","437","501395","0.0-1.0-618.0-0.0","0","0","22136","","null","","","null","68","","","","","","","","","","","","","","","",""
"","ITI","","html-keyboard-response","438","502398","0.0-1.0-621.0","0","0","22136","","null","","","null","68","","","","","","","","","","","","","","","NaN",""
"","S1","","html-keyboard-response","439","502652","0.0-1.0-623.0","0","0","22136","","null","","","null","69","","","","","","","","","","","","","","","",""
"","ISI","","html-keyboard-response","440","504655","0.0-1.0-624.0","0","0","22136","","null","","","null","69","NaN","","","","","","","","","","","","","","",""
"","S2","","html-keyboard-response","441","504909","0.0-1.0-625.0","0","0","22136","","null","","","null","69","","NaN","","","","","","","","","","","","","",""
"","response","","html-keyboard-response","442","505395","0.0-1.0-626.0","0","0","22136","","484","","","75","69","","","2","69","training","adjacent","BA","2","1","L.jpg","Q.jpg","0","0","1","",""
"","feedback","","html-keyboard-response","443","506400","0.0-1.0-627.0-0.0","0","0","22136","","null","","","null","69","","","","","","","","","","","","","","","",""
"","ITI","","html-keyboard-response","444","507402","0.0-1.0-630.0","0","0","22136","","null","","","null","69","","","","","","","","","","","","","","","NaN",""
"","S1","","html-keyboard-response","445","507656","0.0-1.0-632.0","0","0","22136","","null","","","null","70","","","","","","","","","","","","","","","",""
"","ISI","","html-keyboard-response","446","509661","0.0-1.0-633.0","0","0","22136","","null","","","null","70","NaN","","","","","","","","","","","","","","",""
"","S2","","html-keyboard-response","447","509917","0.0-1.0-634.0","0","0","22136","","null","","","null","70","","NaN","","","","","","","","","","","","","",""
"","response","","html-keyboard-response","448","510772","0.0-1.0-635.0","0","0","22136","","852","","","75","70","","","2","70","training","adjacent","FE","6","5","M.jpg","P.jpg","0","0","1","",""
"","feedback","","html-keyboard-response","449","511776","0.0-1.0-636.0-0.0","0","0","22136","","null","","","null","70","","","","","","","","","","","","","","","",""
"","ITI","","html-keyboard-response","450","512781","0.0-1.0-639.0","0","0","22136","","null","","","null","70","","","","","","","","","","","","","","","NaN",""
"","S1","","html-keyboard-response","451","513035","0.0-1.0-641.0","0","0","22136","","null","","","null","71","","","","","","","","","","","","","","","",""
"","ISI","","html-keyboard-response","452","515037","0.0-1.0-642.0","0","0","22136","","null","","","null","71","NaN","","","","","","","","","","","","","","",""
"","S2","","html-keyboard-response","453","515302","0.0-1.0-643.0","0","0","22136","","null","","","null","71","","NaN","","","","","","","","","","","","","",""
"","response","","html-keyboard-response","454","516053","0.0-1.0-644.0","0","0","22136","","748","","","68","71","","","2","71","training","adjacent","CD","3","4","N.jpg","O.jpg","1","1","1","",""
"","feedback","","html-keyboard-response","455","517057","0.0-1.0-645.0-0.0","0","0","22136","","null","","","null","71","","","","","","","","","","","","","","","",""
"","ITI","","html-keyboard-response","456","518060","0.0-1.0-648.0","0","0","22136","","null","","","null","71","","","","","","","","","","","","","","","NaN",""
"","S1","","html-keyboard-response","457","518314","0.0-1.0-650.0","0","0","22136","","null","","","null","72","","","","","","","","","","","","","","","",""
"","ISI","","html-keyboard-response","458","520317","0.0-1.0-651.0","0","0","22136","","null","","","null","72","NaN","","","","","","","","","","","","","","",""
"","S2","","html-keyboard-response","459","520571","0.0-1.0-652.0","0","0","22136","","null","","","null","72","","NaN","","","","","","","","","","","","","",""
"","response","","html-keyboard-response","460","520914","0.0-1.0-653.0","0","0","22136","","340","","","68","72","","","2","72","training","adjacent","AB","1","2","Q.jpg","L.jpg","1","1","1","",""
"","feedback","","html-keyboard-response","461","521918","0.0-1.0-654.0-0.0","0","0","22136","","null","","","null","72","","","","","","","","","","","","","","","",""
"","ITI","","html-keyboard-response","462","522924","0.0-1.0-657.0","0","0","22136","","null","","","null","72","","","","","","","","","","","","","","","NaN",""
"","S1","","html-keyboard-response","463","523177","0.0-1.0-659.0","0","0","22136","","null","","","null","73","","","","","","","","","","","","","","","",""
"","ISI","","html-keyboard-response","464","525180","0.0-1.0-660.0","0","0","22136","","null","","","null","73","NaN","","","","","","","","","","","","","","",""
"","S2","","html-keyboard-response","465","525434","0.0-1.0-661.0","0","0","22136","","null","","","null","73","","NaN","","","","","","","","","","","","","",""
"","response","","html-keyboard-response","466","526302","0.0-1.0-662.0","0","0","22136","","865","","","68","73","","","2","73","training","adjacent","EF","5","6","P.jpg","M.jpg","1","1","1","",""
"","feedback","","html-keyboard-response","467","527305","0.0-1.0-663.0-0.0","0","0","22136","","null","","","null","73","","","","","","","","","","","","","","","",""
"","ITI","","html-keyboard-response","468","528309","0.0-1.0-666.0","0","0","22136","","null","","","null","73","","","","","","","","","","","","","","","NaN",""
"","S1","","html-keyboard-response","469","528563","0.0-1.0-668.0","0","0","22136","","null","","","null","74","","","","","","","","","","","","","","","",""
"","ISI","","html-keyboard-response","470","530566","0.0-1.0-669.0","0","0","22136","","null","","","null","74","NaN","","","","","","","","","","","","","","",""
"","S2","","html-keyboard-response","471","530819","0.0-1.0-670.0","0","0","22136","","null","","","null","74","","NaN","","","","","","","","","","","","","",""
"","response","","html-keyboard-response","472","531372","0.0-1.0-671.0","0","0","22136","","551","","","68","74","","","2","74","training","adjacent","FG","6","7","M.jpg","R.jpg","1","1","1","",""
"","feedback","","html-keyboard-response","473","532375","0.0-1.0-672.0-0.0","0","0","22136","","null","","","null","74","","","","","","","","","","","","","","","",""
"","ITI","","html-keyboard-response","474","533379","0.0-1.0-675.0","0","0","22136","","null","","","null","74","","","","","","","","","","","","","","","NaN",""
"","S1","","html-keyboard-response","475","533633","0.0-1.0-677.0","0","0","22136","","null","","","null","75","","","","","","","","","","","","","","","",""
"","ISI","","html-keyboard-response","476","535636","0.0-1.0-678.0","0","0","22136","","null","","","null","75","NaN","","","","","","","","","","","","","","",""
"","S2","","html-keyboard-response","477","535889","0.0-1.0-679.0","0","0","22136","","null","","","null","75","","NaN","","","","","","","","","","","","","",""
"","response","","html-keyboard-response","478","536510","0.0-1.0-680.0","0","0","22136","","619","","","68","75","","","2","75","training","adjacent","FG","6","7","M.jpg","R.jpg","1","1","1","",""
"","feedback","","html-keyboard-response","479","537515","0.0-1.0-681.0-0.0","0","0","22136","","null","","","null","75","","","","","","","","","","","","","","","",""
"","ITI","","html-keyboard-response","480","538518","0.0-1.0-684.0","0","0","22136","","null","","","null","75","","","","","","","","","","","","","","","NaN",""
"","S1","","html-keyboard-response","481","538771","0.0-1.0-686.0","0","0","22136","","null","","","null","76","","","","","","","","","","","","","","","",""
"","ISI","","html-keyboard-response","482","540775","0.0-1.0-687.0","0","0","22136","","null","","","null","76","NaN","","","","","","","","","","","","","","",""
"","S2","","html-keyboard-response","483","541027","0.0-1.0-688.0","0","0","22136","","null","","","null","76","","NaN","","","","","","","","","","","","","",""
"","response","","html-keyboard-response","484","541662","0.0-1.0-689.0","0","0","22136","","631","","","68","76","","","2","76","training","adjacent","BC","2","3","L.jpg","N.jpg","1","1","1","",""
"","feedback","","html-keyboard-response","485","542666","0.0-1.0-690.0-0.0","0","0","22136","","null","","","null","76","","","","","","","","","","","","","","","",""
"","ITI","","html-keyboard-response","486","543669","0.0-1.0-693.0","0","0","22136","","null","","","null","76","","","","","","","","","","","","","","","NaN",""
"","S1","","html-keyboard-response","487","543922","0.0-1.0-695.0","0","0","22136","","null","","","null","77","","","","","","","","","","","","","","","",""
"","ISI","","html-keyboard-response","488","545925","0.0-1.0-696.0","0","0","22136","","null","","","null","77","NaN","","","","","","","","","","","","","","",""
"","S2","","html-keyboard-response","489","546179","0.0-1.0-697.0","0","0","22136","","null","","","null","77","","NaN","","","","","","","","","","","","","",""
"","response","","html-keyboard-response","490","546763","0.0-1.0-698.0","0","0","22136","","581","","","68","77","","","2","77","training","adjacent","FG","6","7","M.jpg","R.jpg","1","1","1","",""
"","feedback","","html-keyboard-response","491","547767","0.0-1.0-699.0-0.0","0","0","22136","","null","","","null","77","","","","","","","","","","","","","","","",""
"","ITI","","html-keyboard-response","492","548771","0.0-1.0-702.0","0","0","22136","","null","","","null","77","","","","","","","","","","","","","","","NaN",""
"","S1","","html-keyboard-response","493","549024","0.0-1.0-704.0","0","0","22136","","null","","","null","78","","","","","","","","","","","","","","","",""
"","ISI","","html-keyboard-response","494","551027","0.0-1.0-705.0","0","0","22136","","null","","","null","78","NaN","","","","","","","","","","","","","","",""
"","S2","","html-keyboard-response","495","551288","0.0-1.0-706.0","0","0","22136","","null","","","null","78","","NaN","","","","","","","","","","","","","",""
"","response","","html-keyboard-response","496","552194","0.0-1.0-707.0","0","0","22136","","903","","","75","78","","","2","78","training","adjacent","CB","3","2","N.jpg","L.jpg","0","0","1","",""
"","feedback","","html-keyboard-response","497","553198","0.0-1.0-708.0-0.0","0","0","22136","","null","","","null","78","","","","","","","","","","","","","","","",""
"","ITI","","html-keyboard-response","498","554202","0.0-1.0-711.0","0","0","22136","","null","","","null","78","","","","","","","","","","","","","","","NaN",""
"","S1","","html-keyboard-response","499","554456","0.0-1.0-713.0","0","0","22136","","null","","","null","79","","","","","","","","","","","","","","","",""
"","ISI","","html-keyboard-response","500","556460","0.0-1.0-714.0","0","0","22136","","null","","","null","79","NaN","","","","","","","","","","","","","","",""
"","S2","","html-keyboard-response","501","556714","0.0-1.0-715.0","0","0","22136","","null","","","null","79","","NaN","","","","","","","","","","","","","",""
"","response","","html-keyboard-response","502","557408","0.0-1.0-716.0","0","0","22136","","692","","","75","79","","","2","79","training","adjacent","DC","4","3","O.jpg","N.jpg","0","0","1","",""
"","feedback","","html-keyboard-response","503","558411","0.0-1.0-717.0-0.0","0","0","22136","","null","","","null","79","","","","","","","","","","","","","","","",""
"","ITI","","html-keyboard-response","504","559417","0.0-1.0-720.0","0","0","22136","","null","","","null","79","","","","","","","","","","","","","","","NaN",""
"","S1","","html-keyboard-response","505","559673","0.0-1.0-722.0","0","0","22136","","null","","","null","80","","","","","","","","","","","","","","","",""
"","ISI","","html-keyboard-response","506","561677","0.0-1.0-723.0","0","0","22136","","null","","","null","80","NaN","","","","","","","","","","","","","","",""
"","S2","","html-keyboard-response","507","561940","0.0-1.0-724.0","0","0","22136","","null","","","null","80","","NaN","","","","","","","","","","","","","",""
"","response","","html-keyboard-response","508","563165","0.0-1.0-725.0","0","0","22136","","1222","","","68","80","","","2","80","training","adjacent","AB","1","2","Q.jpg","L.jpg","1","1","1","",""
"","feedback","","html-keyboard-response","509","564170","0.0-1.0-726.0-0.0","0","0","22136","","null","","","null","80","","","","","","","","","","","","","","","",""
"","ITI","","html-keyboard-response","510","565174","0.0-1.0-729.0","0","0","22136","","null","","","null","80","","","","","","","","","","","","","","","NaN",""
"","S1","","html-keyboard-response","511","565429","0.0-1.0-731.0","0","0","22136","","null","","","null","81","","","","","","","","","","","","","","","",""
"","ISI","","html-keyboard-response","512","567432","0.0-1.0-732.0","0","0","22136","","null","","","null","81","NaN","","","","","","","","","","","","","","",""
"","S2","","html-keyboard-response","513","567687","0.0-1.0-733.0","0","0","22136","","null","","","null","81","","NaN","","","","","","","","","","","","","",""
"","response","","html-keyboard-response","514","568429","0.0-1.0-734.0","0","0","22136","","739","","","68","81","","","2","81","training","adjacent","BC","2","3","L.jpg","N.jpg","1","1","1","",""
"","feedback","","html-keyboard-response","515","569434","0.0-1.0-735.0-0.0","0","0","22136","","null","","","null","81","","","","","","","","","","","","","","","",""
"","ITI","","html-keyboard-response","516","570438","0.0-1.0-738.0","0","0","22136","","null","","","null","81","","","","","","","","","","","","","","","NaN",""
"","S1","","html-keyboard-response","517","570691","0.0-1.0-740.0","0","0","22136","","null","","","null","82","","","","","","","","","","","","","","","",""
"","ISI","","html-keyboard-response","518","572695","0.0-1.0-741.0","0","0","22136","","null","","","null","82","NaN","","","","","","","","","","","","","","",""
"","S2","","html-keyboard-response","519","572957","0.0-1.0-742.0","0","0","22136","","null","","","null","82","","NaN","","","","","","","","","","","","","",""
"","response","","html-keyboard-response","520","573446","0.0-1.0-743.0","0","0","22136","","484","","","75","82","","","2","82","training","adjacent","BA","2","1","L.jpg","Q.jpg","0","0","1","",""
"","feedback","","html-keyboard-response","521","574450","0.0-1.0-744.0-0.0","0","0","22136","","null","","","null","82","","","","","","","","","","","","","","","",""
"","ITI","","html-keyboard-response","522","575456","0.0-1.0-747.0","0","0","22136","","null","","","null","82","","","","","","","","","","","","","","","NaN",""
"","S1","","html-keyboard-response","523","575711","0.0-1.0-749.0","0","0","22136","","null","","","null","83","","","","","","","","","","","","","","","",""
"","ISI","","html-keyboard-response","524","577716","0.0-1.0-750.0","0","0","22136","","null","","","null","83","NaN","","","","","","","","","","","","","","",""
"","S2","","html-keyboard-response","525","577978","0.0-1.0-751.0","0","0","22136","","null","","","null","83","","NaN","","","","","","","","","","","","","",""
"","response","","html-keyboard-response","526","578681","0.0-1.0-752.0","0","0","22136","","700","","","68","83","","","2","83","training","adjacent","DE","4","5","O.jpg","P.jpg","1","1","1","",""
"","feedback","","html-keyboard-response","527","579686","0.0-1.0-753.0-0.0","0","0","22136","","null","","","null","83","","","","","","","","","","","","","","","",""
"","ITI","","html-keyboard-response","528","580721","0.0-1.0-756.0","0","0","22136","","null","","","null","83","","","","","","","","","","","","","","","NaN",""
"","S1","","html-keyboard-response","529","580980","0.0-1.0-758.0","0","0","22136","","null","","","null","84","","","","","","","","","","","","","","","",""
"","ISI","","html-keyboard-response","530","582984","0.0-1.0-759.0","0","0","22136","","null","","","null","84","NaN","","","","","","","","","","","","","","",""
"","S2","","html-keyboard-response","531","583240","0.0-1.0-760.0","0","0","22136","","null","","","null","84","","NaN","","","","","","","","","","","","","",""
"","response","","html-keyboard-response","532","583812","0.0-1.0-761.0","0","0","22136","","569","","","75","84","","","2","84","training","adjacent","ED","5","4","P.jpg","O.jpg","0","0","1","",""
"","feedback","","html-keyboard-response","533","584817","0.0-1.0-762.0-0.0","0","0","22136","","null","","","null","84","","","","","","","","","","","","","","","",""
"","ITI","","html-keyboard-response","534","585821","0.0-1.0-765.0","0","0","22136","","null","","","null","84","","","","","","","","","","","","","","","NaN",""
"","S1","","html-keyboard-response","535","586075","0.0-1.0-767.0","0","0","22136","","null","","","null","85","","","","","","","","","","","","","","","",""
"","ISI","","html-keyboard-response","536","588079","0.0-1.0-768.0","0","0","22136","","null","","","null","85","NaN","","","","","","","","","","","","","","",""
"","S2","","html-keyboard-response","537","588332","0.0-1.0-769.0","0","0","22136","","null","","","null","85","","NaN","","","","","","","","","","","","","",""
"","response","","html-keyboard-response","538","589002","0.0-1.0-770.0","0","0","22136","","669","","","75","85","","","2","85","training","adjacent","EF","5","6","P.jpg","M.jpg","0","1","0","",""
"","feedback","","html-keyboard-response","539","590006","0.0-1.0-771.0-0.0","0","0","22136","","null","","","null","85","","","","","","","","","","","","","","","",""
"","time_out","","html-keyboard-response","540","592010","0.0-1.0-773.0-0.0","0","0","22136","","null","","","null","85","","","","","","","","","","","","","","","",""
"","ITI","","html-keyboard-response","541","593012","0.0-1.0-774.0","0","0","22136","","null","","","null","85","","","","","","","","","","","","","","","NaN",""
"","S1","","html-keyboard-response","542","593266","0.0-1.0-776.0","0","0","22136","","null","","","null","86","","","","","","","","","","","","","","","",""
"","ISI","","html-keyboard-response","543","595269","0.0-1.0-777.0","0","0","22136","","null","","","null","86","NaN","","","","","","","","","","","","","","",""
"","S2","","html-keyboard-response","544","595524","0.0-1.0-778.0","0","0","22136","","null","","","null","86","","NaN","","","","","","","","","","","","","",""
"","response","","html-keyboard-response","545","595870","0.0-1.0-779.0","0","0","22136","","345","","","68","86","","","2","86","training","adjacent","AB","1","2","Q.jpg","L.jpg","1","1","1","",""
"","feedback","","html-keyboard-response","546","596874","0.0-1.0-780.0-0.0","0","0","22136","","null","","","null","86","","","","","","","","","","","","","","","",""
"","ITI","","html-keyboard-response","547","597878","0.0-1.0-783.0","0","0","22136","","null","","","null","86","","","","","","","","","","","","","","","NaN",""
"","S1","","html-keyboard-response","548","598132","0.0-1.0-785.0","0","0","22136","","null","","","null","87","","","","","","","","","","","","","","","",""
"","ISI","","html-keyboard-response","549","600135","0.0-1.0-786.0","0","0","22136","","null","","","null","87","NaN","","","","","","","","","","","","","","",""
"","S2","","html-keyboard-response","550","600389","0.0-1.0-787.0","0","0","22136","","null","","","null","87","","NaN","","","","","","","","","","","","","",""
"","response","","html-keyboard-response","551","600857","0.0-1.0-788.0","0","0","22136","","465","","","75","87","","","2","87","training","adjacent","DC","4","3","O.jpg","N.jpg","0","0","1","",""
"","feedback","","html-keyboard-response","552","601861","0.0-1.0-789.0-0.0","0","0","22136","","null","","","null","87","","","","","","","","","","","","","","","",""
"","ITI","","html-keyboard-response","553","602866","0.0-1.0-792.0","0","0","22136","","null","","","null","87","","","","","","","","","","","","","","","NaN",""
"","S1","","html-keyboard-response","554","603121","0.0-1.0-794.0","0","0","22136","","null","","","null","88","","","","","","","","","","","","","","","",""
"","ISI","","html-keyboard-response","555","605125","0.0-1.0-795.0","0","0","22136","","null","","","null","88","NaN","","","","","","","","","","","","","","",""
"","S2","","html-keyboard-response","556","605379","0.0-1.0-796.0","0","0","22136","","null","","","null","88","","NaN","","","","","","","","","","","","","",""
"","response","","html-keyboard-response","557","605950","0.0-1.0-797.0","0","0","22136","","569","","","68","88","","","2","88","training","adjacent","DE","4","5","O.jpg","P.jpg","1","1","1","",""
"","feedback","","html-keyboard-response","558","606954","0.0-1.0-798.0-0.0","0","0","22136","","null","","","null","88","","","","","","","","","","","","","","","",""
"","ITI","","html-keyboard-response","559","607959","0.0-1.0-801.0","0","0","22136","","null","","","null","88","","","","","","","","","","","","","","","NaN",""
"","S1","","html-keyboard-response","560","608213","0.0-1.0-803.0","0","0","22136","","null","","","null","89","","","","","","","","","","","","","","","",""
"","ISI","","html-keyboard-response","561","610217","0.0-1.0-804.0","0","0","22136","","null","","","null","89","NaN","","","","","","","","","","","","","","",""
"","S2","","html-keyboard-response","562","610470","0.0-1.0-805.0","0","0","22136","","null","","","null","89","","NaN","","","","","","","","","","","","","",""
"","response","","html-keyboard-response","563","611151","0.0-1.0-806.0","0","0","22136","","678","","","75","89","","","2","89","training","adjacent","FE","6","5","M.jpg","P.jpg","0","0","1","",""
"","feedback","","html-keyboard-response","564","612191","0.0-1.0-807.0-0.0","0","0","22136","","null","","","null","89","","","","","","","","","","","","","","","",""
"","ITI","","html-keyboard-response","565","613204","0.0-1.0-810.0","0","0","22136","","null","","","null","89","","","","","","","","","","","","","","","NaN",""
"","S1","","html-keyboard-response","566","613458","0.0-1.0-812.0","0","0","22136","","null","","","null","90","","","","","","","","","","","","","","","",""
"","ISI","","html-keyboard-response","567","615462","0.0-1.0-813.0","0","0","22136","","null","","","null","90","NaN","","","","","","","","","","","","","","",""
"","S2","","html-keyboard-response","568","615715","0.0-1.0-814.0","0","0","22136","","null","","","null","90","","NaN","","","","","","","","","","","","","",""
"","response","","html-keyboard-response","569","616371","0.0-1.0-815.0","0","0","22136","","653","","","75","90","","","2","90","training","adjacent","GF","7","6","R.jpg","M.jpg","0","0","1","",""
"","feedback","","html-keyboard-response","570","617388","0.0-1.0-816.0-0.0","0","0","22136","","null","","","null","90","","","","","","","","","","","","","","","",""
"","ITI","","html-keyboard-response","571","618391","0.0-1.0-819.0","0","0","22136","","null","","","null","90","","","","","","","","","","","","","","","NaN",""
"","S1","","html-keyboard-response","572","618644","0.0-1.0-821.0","0","0","22136","","null","","","null","91","","","","","","","","","","","","","","","",""
"","ISI","","html-keyboard-response","573","620647","0.0-1.0-822.0","0","0","22136","","null","","","null","91","NaN","","","","","","","","","","","","","","",""
"","S2","","html-keyboard-response","574","620901","0.0-1.0-823.0","0","0","22136","","null","","","null","91","","NaN","","","","","","","","","","","","","",""
"","response","","html-keyboard-response","575","621334","0.0-1.0-824.0","0","0","22136","","430","","","75","91","","","2","91","training","adjacent","GF","7","6","R.jpg","M.jpg","0","0","1","",""
"","feedback","","html-keyboard-response","576","622337","0.0-1.0-825.0-0.0","0","0","22136","","null","","","null","91","","","","","","","","","","","","","","","",""
"","ITI","","html-keyboard-response","577","623344","0.0-1.0-828.0","0","0","22136","","null","","","null","91","","","","","","","","","","","","","","","NaN",""
"","S1","","html-keyboard-response","578","623598","0.0-1.0-830.0","0","0","22136","","null","","","null","92","","","","","","","","","","","","","","","",""
"","ISI","","html-keyboard-response","579","625603","0.0-1.0-831.0","0","0","22136","","null","","","null","92","NaN","","","","","","","","","","","","","","",""
"","S2","","html-keyboard-response","580","625856","0.0-1.0-832.0","0","0","22136","","null","","","null","92","","NaN","","","","","","","","","","","","","",""
"","response","","html-keyboard-response","581","626270","0.0-1.0-833.0","0","0","22136","","411","","","68","92","","","2","92","training","adjacent","DE","4","5","O.jpg","P.jpg","1","1","1","",""
"","feedback","","html-keyboard-response","582","627277","0.0-1.0-834.0-0.0","0","0","22136","","null","","","null","92","","","","","","","","","","","","","","","",""
