"success","ttype","start_time","trial_type","trial_index","time_elapsed","internal_node_id","warning","missed_checkup","PID","view_history","rt","responses","repeat_instructions","key_press","index","keypress_isi","keypress_S2","block","trial_num","phase","group_type","pair_type","S1_stim","S2_stim","S1_img","S2_img","S1_chosen","S1_higher","accuracy","keypress_iti","total_bonus_tally"
"true","full_screen","d04132023hr1637","fullscreen","0","78882","0.0-0.0","0","0","33002","","","","","","","","","","","","","","","","","","","","","",""
"","instructions","","instructions","1","98500","0.0-1.0-0.0-0.0","0","0","33002","[{""page_index"":0,""viewing_time"":2580},{""page_index"":1,""viewing_time"":11728},{""page_index"":2,""viewing_time"":4080},{""page_index"":3,""viewing_time"":1227}]","19616","","","","","","","","","","","","","","","","","","","",""
"","comprehension_check","","survey-multi-choice","2","146489","0.0-1.0-0.0-1.0","0","0","33002","","47986","{""Q0"":""True"",""Q1"":""D"",""Q2"":""Once the second image appears and while the screen 'MAKE A CHOICE' is shown"",""Q3"":""Green mark"",""Q4"":""either D or K""}","0","","","","","","","","","","","","","","","","","",""
"","start_exp","","html-keyboard-response","3","148800","0.0-1.0-1.0","0","0","33002","","2309","","","32","","","","","","","","","","","","","","","","",""
"","S1","","html-keyboard-response","4","149054","0.0-1.0-2.0","0","0","33002","","null","","","null","0","","","","","","","","","","","","","","","",""
"","ISI","","html-keyboard-response","5","150058","0.0-1.0-3.0","0","0","33002","","null","","","null","0","NaN","","","","","","","","","","","","","","",""
"","S2","","html-keyboard-response","6","150311","0.0-1.0-4.0","0","0","33002","","null","","","null","0","","NaN","","","","","","","","","","","","","",""
"","response","","html-keyboard-response","7","151171","0.0-1.0-5.0-0.0","0","0","33002","","859","","","75","0","","","1","0","training","adjacent","FE","6","5","R.jpg","N.jpg","0","0","1","",""
"","feedback","","html-keyboard-response","8","152174","0.0-1.0-6.0-0.0","0","0","33002","","null","","","null","0","","","","","","","","","","","","","","","",""
"","ITI","","html-keyboard-response","9","153179","0.0-1.0-9.0","0","0","33002","","null","","","null","0","","","","","","","","","","","","","","","NaN",""
"","S1","","html-keyboard-response","10","153434","0.0-1.0-11.0","0","0","33002","","null","","","null","1","","","","","","","","","","","","","","","",""
"","ISI","","html-keyboard-response","11","154439","0.0-1.0-12.0","0","0","33002","","null","","","null","1","NaN","","","","","","","","","","","","","","",""
"","S2","","html-keyboard-response","12","154694","0.0-1.0-13.0","0","0","33002","","null","","","null","1","","NaN","","","","","","","","","","","","","",""
"","response","","html-keyboard-response","13","155579","0.0-1.0-14.0-0.0","0","0","33002","","883","","","75","1","","","1","1","training","adjacent","FG","6","7","R.jpg","Q.jpg","0","1","0","",""
"","feedback","","html-keyboard-response","14","156582","0.0-1.0-15.0-0.0","0","0","33002","","null","","","null","1","","","","","","","","","","","","","","","",""
"","time_out","","html-keyboard-response","15","158586","0.0-1.0-17.0-0.0","0","0","33002","","null","","","null","1","","","","","","","","","","","","","","","",""
"","ITI","","html-keyboard-response","16","159590","0.0-1.0-18.0","0","0","33002","","null","","","null","1","","","","","","","","","","","","","","","NaN",""
"","S1","","html-keyboard-response","17","159843","0.0-1.0-20.0","0","0","33002","","null","","","null","2","","","","","","","","","","","","","","","",""
"","ISI","","html-keyboard-response","18","160846","0.0-1.0-21.0","0","0","33002","","null","","","null","2","NaN","","","","","","","","","","","","","","",""
"","S2","","html-keyboard-response","19","161099","0.0-1.0-22.0","0","0","33002","","null","","","null","2","","NaN","","","","","","","","","","","","","",""
"","response","","html-keyboard-response","20","162067","0.0-1.0-23.0-0.0","0","0","33002","","967","","","75","2","","","1","2","training","adjacent","DE","4","5","P.jpg","N.jpg","0","1","0","",""
"","feedback","","html-keyboard-response","21","163070","0.0-1.0-24.0-0.0","0","0","33002","","null","","","null","2","","","","","","","","","","","","","","","",""
"","time_out","","html-keyboard-response","22","165074","0.0-1.0-26.0-0.0","0","0","33002","","null","","","null","2","","","","","","","","","","","","","","","",""
"","ITI","","html-keyboard-response","23","166079","0.0-1.0-27.0","0","0","33002","","null","","","null","2","","","","","","","","","","","","","","","NaN",""
"","S1","","html-keyboard-response","24","166331","0.0-1.0-29.0","0","0","33002","","null","","","null","3","","","","","","","","","","","","","","","",""
"","ISI","","html-keyboard-response","25","167334","0.0-1.0-30.0","0","0","33002","","null","","","null","3","NaN","","","","","","","","","","","","","","",""
"","S2","","html-keyboard-response","26","167587","0.0-1.0-31.0","0","0","33002","","null","","","null","3","","NaN","","","","","","","","","","","","","",""
"","response","","html-keyboard-response","27","168102","0.0-1.0-32.0-0.0","0","0","33002","","514","","","75","3","","","1","3","training","adjacent","GF","7","6","Q.jpg","R.jpg","0","0","1","",""
"","feedback","","html-keyboard-response","28","169106","0.0-1.0-33.0-0.0","0","0","33002","","null","","","null","3","","","","","","","","","","","","","","","",""
"","ITI","","html-keyboard-response","29","170110","0.0-1.0-36.0","0","0","33002","","null","","","null","3","","","","","","","","","","","","","","","NaN",""
"","S1","","html-keyboard-response","30","170362","0.0-1.0-38.0","0","0","33002","","null","","","null","4","","","","","","","","","","","","","","","",""
"","ISI","","html-keyboard-response","31","171367","0.0-1.0-39.0","0","0","33002","","null","","","null","4","NaN","","","","","","","","","","","","","","",""
"","S2","","html-keyboard-response","32","171623","0.0-1.0-40.0","0","0","33002","","null","","","null","4","","NaN","","","","","","","","","","","","","",""
"","response","","html-keyboard-response","33","172326","0.0-1.0-41.0-0.0","0","0","33002","","702","","","68","4","","","1","4","training","adjacent","EF","5","6","N.jpg","R.jpg","1","1","1","",""
"","feedback","","html-keyboard-response","34","173330","0.0-1.0-42.0-0.0","0","0","33002","","null","","","null","4","","","","","","","","","","","","","","","",""
"","ITI","","html-keyboard-response","35","174334","0.0-1.0-45.0","0","0","33002","","null","","","null","4","","","","","","","","","","","","","","","NaN",""
"","S1","","html-keyboard-response","36","174586","0.0-1.0-47.0","0","0","33002","","null","","","null","5","","","","","","","","","","","","","","","",""
"","ISI","","html-keyboard-response","37","175590","0.0-1.0-48.0","0","0","33002","","null","","","null","5","NaN","","","","","","","","","","","","","","",""
"","S2","","html-keyboard-response","38","175843","0.0-1.0-49.0","0","0","33002","","null","","","null","5","","NaN","","","","","","","","","","","","","",""
"","response","","html-keyboard-response","39","176219","0.0-1.0-50.0-0.0","0","0","33002","","375","","","68","5","","","1","5","training","adjacent","ED","5","4","N.jpg","P.jpg","1","0","0","",""
"","feedback","","html-keyboard-response","40","177223","0.0-1.0-51.0-0.0","0","0","33002","","null","","","null","5","","","","","","","","","","","","","","","",""
"","time_out","","html-keyboard-response","41","179227","0.0-1.0-53.0-0.0","0","0","33002","","null","","","null","5","","","","","","","","","","","","","","","",""
"","ITI","","html-keyboard-response","42","180230","0.0-1.0-54.0","0","0","33002","","null","","","null","5","","","","","","","","","","","","","","","NaN",""
"","S1","","html-keyboard-response","43","180483","0.0-1.0-56.0","0","0","33002","","null","","","null","6","","","","","","","","","","","","","","","",""
"","ISI","","html-keyboard-response","44","181485","0.0-1.0-57.0","0","0","33002","","null","","","null","6","NaN","","","","","","","","","","","","","","",""
"","S2","","html-keyboard-response","45","181739","0.0-1.0-58.0","0","0","33002","","null","","","null","6","","NaN","","","","","","","","","","","","","",""
"","response","","html-keyboard-response","46","182286","0.0-1.0-59.0-0.0","0","0","33002","","546","","","68","6","","","1","6","training","adjacent","FE","6","5","R.jpg","N.jpg","1","0","0","",""
"","feedback","","html-keyboard-response","47","183290","0.0-1.0-60.0-0.0","0","0","33002","","null","","","null","6","","","","","","","","","","","","","","","",""
"","time_out","","html-keyboard-response","48","185294","0.0-1.0-62.0-0.0","0","0","33002","","null","","","null","6","","","","","","","","","","","","","","","",""
"","ITI","","html-keyboard-response","49","186298","0.0-1.0-63.0","0","0","33002","","null","","","null","6","","","","","","","","","","","","","","","NaN",""
"","S1","","html-keyboard-response","50","186550","0.0-1.0-65.0","0","0","33002","","null","","","null","7","","","","","","","","","","","","","","","",""
"","ISI","","html-keyboard-response","51","187555","0.0-1.0-66.0","0","0","33002","","null","","","null","7","NaN","","","","","","","","","","","","","","",""
"","S2","","html-keyboard-response","52","187810","0.0-1.0-67.0","0","0","33002","","null","","","null","7","","NaN","","","","","","","","","","","","","",""
"","response","","html-keyboard-response","53","188089","0.0-1.0-68.0-0.0","0","0","33002","","278","","","68","7","","","1","7","training","adjacent","BC","2","3","L.jpg","O.jpg","1","1","1","",""
"","feedback","","html-keyboard-response","54","189094","0.0-1.0-69.0-0.0","0","0","33002","","null","","","null","7","","","","","","","","","","","","","","","",""
"","ITI","","html-keyboard-response","55","190099","0.0-1.0-72.0","0","0","33002","","null","","","null","7","","","","","","","","","","","","","","","NaN",""
"","S1","","html-keyboard-response","56","190354","0.0-1.0-74.0","0","0","33002","","null","","","null","8","","","","","","","","","","","","","","","",""
"","ISI","","html-keyboard-response","57","191358","0.0-1.0-75.0","0","0","33002","","null","","","null","8","NaN","","","","","","","","","","","","","","",""
"","S2","","html-keyboard-response","58","191611","0.0-1.0-76.0","0","0","33002","","null","","","null","8","","NaN","","","","","","","","","","","","","",""
"","response","","html-keyboard-response","59","191874","0.0-1.0-77.0-0.0","0","0","33002","","262","","","68","8","","","1","8","training","adjacent","BC","2","3","L.jpg","O.jpg","1","1","1","",""
"","feedback","","html-keyboard-response","60","192879","0.0-1.0-78.0-0.0","0","0","33002","","null","","","null","8","","","","","","","","","","","","","","","",""
"","ITI","","html-keyboard-response","61","193883","0.0-1.0-81.0","0","0","33002","","null","","","null","8","","","","","","","","","","","","","","","NaN",""
"","S1","","html-keyboard-response","62","194135","0.0-1.0-83.0","0","0","33002","","null","","","null","9","","","","","","","","","","","","","","","",""
"","ISI","","html-keyboard-response","63","195138","0.0-1.0-84.0","0","0","33002","","null","","","null","9","NaN","","","","","","","","","","","","","","",""
"","S2","","html-keyboard-response","64","195391","0.0-1.0-85.0","0","0","33002","","null","","","null","9","","NaN","","","","","","","","","","","","","",""
"","response","","html-keyboard-response","65","195632","0.0-1.0-86.0-0.0","0","0","33002","","240","","","75","9","","","1","9","training","adjacent","AB","1","2","M.jpg","L.jpg","0","1","0","",""
"","feedback","","html-keyboard-response","66","196634","0.0-1.0-87.0-0.0","0","0","33002","","null","","","null","9","","","","","","","","","","","","","","","",""
"","time_out","","html-keyboard-response","67","198638","0.0-1.0-89.0-0.0","0","0","33002","","null","","","null","9","","","","","","","","","","","","","","","",""
"","ITI","","html-keyboard-response","68","199642","0.0-1.0-90.0","0","0","33002","","null","","","null","9","","","","","","","","","","","","","","","NaN",""
"","S1","","html-keyboard-response","69","199895","0.0-1.0-92.0","0","0","33002","","null","","","null","10","","","","","","","","","","","","","","","",""
"","ISI","","html-keyboard-response","70","200899","0.0-1.0-93.0","0","0","33002","","null","","","null","10","NaN","","","","","","","","","","","","","","",""
"","S2","","html-keyboard-response","71","201151","0.0-1.0-94.0","0","0","33002","","null","","","null","10","","NaN","","","","","","","","","","","","","",""
"","response","","html-keyboard-response","72","201228","0.0-1.0-95.0-0.0","0","0","33002","","76","","","68","10","","","1","10","training","adjacent","BA","2","1","L.jpg","M.jpg","1","0","0","",""
"","feedback","","html-keyboard-response","73","202230","0.0-1.0-96.0-0.0","0","0","33002","","null","","","null","10","","","","","","","","","","","","","","","",""
"","time_out","","html-keyboard-response","74","204235","0.0-1.0-98.0-0.0","0","0","33002","","null","","","null","10","","","","","","","","","","","","","","","",""
"","ITI","","html-keyboard-response","75","205238","0.0-1.0-99.0","0","0","33002","","null","","","null","10","","","","","","","","","","","","","","","NaN",""
"","S1","","html-keyboard-response","76","205490","0.0-1.0-101.0","0","0","33002","","null","","","null","11","","","","","","","","","","","","","","","",""
"","ISI","","html-keyboard-response","77","206495","0.0-1.0-102.0","0","0","33002","","null","","","null","11","NaN","","","","","","","","","","","","","","",""
"","S2","","html-keyboard-response","78","206750","0.0-1.0-103.0","0","0","33002","","null","","","null","11","","NaN","","","","","","","","","","","","","",""
"","response","","html-keyboard-response","79","208046","0.0-1.0-104.0-0.0","0","0","33002","","1295","","","68","11","","","1","11","training","adjacent","DC","4","3","P.jpg","O.jpg","1","0","0","",""
"","feedback","","html-keyboard-response","80","209050","0.0-1.0-105.0-0.0","0","0","33002","","null","","","null","11","","","","","","","","","","","","","","","",""
"","time_out","","html-keyboard-response","81","211054","0.0-1.0-107.0-0.0","0","0","33002","","null","","","null","11","","","","","","","","","","","","","","","",""
"","ITI","","html-keyboard-response","82","212058","0.0-1.0-108.0","0","0","33002","","null","","","null","11","","","","","","","","","","","","","","","NaN",""
"","S1","","html-keyboard-response","83","212310","0.0-1.0-110.0","0","0","33002","","null","","","null","12","","","","","","","","","","","","","","","",""
"","ISI","","html-keyboard-response","84","213315","0.0-1.0-111.0","0","0","33002","","null","","","null","12","NaN","","","","","","","","","","","","","","",""
"","S2","","html-keyboard-response","85","213567","0.0-1.0-112.0","0","0","33002","","null","","","null","12","","NaN","","","","","","","","","","","","","",""
"","response","","html-keyboard-response","86","214351","0.0-1.0-113.0-0.0","0","0","33002","","782","","","68","12","","","1","12","training","adjacent","ED","5","4","N.jpg","P.jpg","1","0","0","",""
"","feedback","","html-keyboard-response","87","215355","0.0-1.0-114.0-0.0","0","0","33002","","null","","","null","12","","","","","","","","","","","","","","","",""
"","time_out","","html-keyboard-response","88","217359","0.0-1.0-116.0-0.0","0","0","33002","","null","","","null","12","","","","","","","","","","","","","","","",""
"","ITI","","html-keyboard-response","89","218363","0.0-1.0-117.0","0","0","33002","","null","","","null","12","","","","","","","","","","","","","","","NaN",""
"","S1","","html-keyboard-response","90","218619","0.0-1.0-119.0","0","0","33002","","null","","","null","13","","","","","","","","","","","","","","","",""
"","ISI","","html-keyboard-response","91","219623","0.0-1.0-120.0","0","0","33002","","null","","","null","13","NaN","","","","","","","","","","","","","","",""
"","S2","","html-keyboard-response","92","219875","0.0-1.0-121.0","0","0","33002","","null","","","null","13","","NaN","","","","","","","","","","","","","",""
"","response","","html-keyboard-response","93","220412","0.0-1.0-122.0-0.0","0","0","33002","","536","","","75","13","","","1","13","training","adjacent","DE","4","5","P.jpg","N.jpg","0","1","0","",""
"","feedback","","html-keyboard-response","94","221414","0.0-1.0-123.0-0.0","0","0","33002","","null","","","null","13","","","","","","","","","","","","","","","",""
"","time_out","","html-keyboard-response","95","223419","0.0-1.0-125.0-0.0","0","0","33002","","null","","","null","13","","","","","","","","","","","","","","","",""
"","ITI","","html-keyboard-response","96","224423","0.0-1.0-126.0","0","0","33002","","null","","","null","13","","","","","","","","","","","","","","","NaN",""
"","S1","","html-keyboard-response","97","224675","0.0-1.0-128.0","0","0","33002","","null","","","null","14","","","","","","","","","","","","","","","",""
"","ISI","","html-keyboard-response","98","225678","0.0-1.0-129.0","0","0","33002","","null","","","null","14","NaN","","","","","","","","","","","","","","",""
"","S2","","html-keyboard-response","99","225931","0.0-1.0-130.0","0","0","33002","","null","","","null","14","","NaN","","","","","","","","","","","","","",""
"","response","","html-keyboard-response","100","226354","0.0-1.0-131.0-0.0","0","0","33002","","422","","","75","14","","","1","14","training","adjacent","BA","2","1","L.jpg","M.jpg","0","0","1","",""
"","feedback","","html-keyboard-response","101","227359","0.0-1.0-132.0-0.0","0","0","33002","","null","","","null","14","","","","","","","","","","","","","","","",""
"","ITI","","html-keyboard-response","102","228363","0.0-1.0-135.0","0","0","33002","","null","","","null","14","","","","","","","","","","","","","","","NaN",""
"","S1","","html-keyboard-response","103","228615","0.0-1.0-137.0","0","0","33002","","null","","","null","15","","","","","","","","","","","","","","","",""
"","ISI","","html-keyboard-response","104","229618","0.0-1.0-138.0","0","0","33002","","null","","","null","15","NaN","","","","","","","","","","","","","","",""
"","S2","","html-keyboard-response","105","229870","0.0-1.0-139.0","0","0","33002","","null","","","null","15","","NaN","","","","","","","","","","","","","",""
"","response","","html-keyboard-response","106","230353","0.0-1.0-140.0-0.0","0","0","33002","","482","","","68","15","","","1","15","training","adjacent","BC","2","3","L.jpg","O.jpg","1","1","1","",""
"","feedback","","html-keyboard-response","107","231355","0.0-1.0-141.0-0.0","0","0","33002","","null","","","null","15","","","","","","","","","","","","","","","",""
"","ITI","","html-keyboard-response","108","232359","0.0-1.0-144.0","0","0","33002","","null","","","null","15","","","","","","","","","","","","","","","NaN",""
"","S1","","html-keyboard-response","109","232611","0.0-1.0-146.0","0","0","33002","","null","","","null","16","","","","","","","","","","","","","","","",""
"","ISI","","html-keyboard-response","110","233615","0.0-1.0-147.0","0","0","33002","","null","","","null","16","NaN","","","","","","","","","","","","","","",""
"","S2","","html-keyboard-response","111","233867","0.0-1.0-148.0","0","0","33002","","null","","","null","16","","NaN","","","","","","","","","","","","","",""
"","response","","html-keyboard-response","112","235001","0.0-1.0-149.0-0.0","0","0","33002","","1132","","","68","16","","","1","16","training","adjacent","DC","4","3","P.jpg","O.jpg","1","0","0","",""
"","feedback","","html-keyboard-response","113","236003","0.0-1.0-150.0-0.0","0","0","33002","","null","","","null","16","","","","","","","","","","","","","","","",""
"","time_out","","html-keyboard-response","114","238006","0.0-1.0-152.0-0.0","0","0","33002","","null","","","null","16","","","","","","","","","","","","","","","",""
"","ITI","","html-keyboard-response","115","239010","0.0-1.0-153.0","0","0","33002","","null","","","null","16","","","","","","","","","","","","","","","NaN",""
"","S1","","html-keyboard-response","116","239263","0.0-1.0-155.0","0","0","33002","","null","","","null","17","","","","","","","","","","","","","","","",""
"","ISI","","html-keyboard-response","117","240266","0.0-1.0-156.0","0","0","33002","","null","","","null","17","NaN","","","","","","","","","","","","","","",""
"","S2","","html-keyboard-response","118","240518","0.0-1.0-157.0","0","0","33002","","null","","","null","17","","NaN","","","","","","","","","","","","","",""
"","response","","html-keyboard-response","119","240965","0.0-1.0-158.0-0.0","0","0","33002","","446","","","75","17","","","1","17","training","adjacent","FE","6","5","R.jpg","N.jpg","0","0","1","",""
"","feedback","","html-keyboard-response","120","241967","0.0-1.0-159.0-0.0","0","0","33002","","null","","","null","17","","","","","","","","","","","","","","","",""
"","ITI","","html-keyboard-response","121","242971","0.0-1.0-162.0","0","0","33002","","null","","","null","17","","","","","","","","","","","","","","","NaN",""
"","S1","","html-keyboard-response","122","243223","0.0-1.0-164.0","0","0","33002","","null","","","null","18","","","","","","","","","","","","","","","",""
"","ISI","","html-keyboard-response","123","244226","0.0-1.0-165.0","0","0","33002","","null","","","null","18","NaN","","","","","","","","","","","","","","",""
"","S2","","html-keyboard-response","124","244478","0.0-1.0-166.0","0","0","33002","","null","","","null","18","","NaN","","","","","","","","","","","","","",""
"","response","","html-keyboard-response","125","244721","0.0-1.0-167.0-0.0","0","0","33002","","242","","","68","18","","","1","18","training","adjacent","DC","4","3","P.jpg","O.jpg","1","0","0","",""
"","feedback","","html-keyboard-response","126","245723","0.0-1.0-168.0-0.0","0","0","33002","","null","","","null","18","","","","","","","","","","","","","","","",""
"","time_out","","html-keyboard-response","127","247727","0.0-1.0-170.0-0.0","0","0","33002","","null","","","null","18","","","","","","","","","","","","","","","",""
"","ITI","","html-keyboard-response","128","248731","0.0-1.0-171.0","0","0","33002","","null","","","null","18","","","","","","","","","","","","","","","NaN",""
"","S1","","html-keyboard-response","129","248983","0.0-1.0-173.0","0","0","33002","","null","","","null","19","","","","","","","","","","","","","","","",""
"","ISI","","html-keyboard-response","130","249987","0.0-1.0-174.0","0","0","33002","","null","","","null","19","NaN","","","","","","","","","","","","","","",""
"","S2","","html-keyboard-response","131","250239","0.0-1.0-175.0","0","0","33002","","null","","","null","19","","NaN","","","","","","","","","","","","","",""
"","response","","html-keyboard-response","132","250999","0.0-1.0-176.0-0.0","0","0","33002","","759","","","68","19","","","1","19","training","adjacent","FG","6","7","R.jpg","Q.jpg","1","1","1","",""
"","feedback","","html-keyboard-response","133","252003","0.0-1.0-177.0-0.0","0","0","33002","","null","","","null","19","","","","","","","","","","","","","","","",""
"","ITI","","html-keyboard-response","134","253007","0.0-1.0-180.0","0","0","33002","","null","","","null","19","","","","","","","","","","","","","","","NaN",""
"","S1","","html-keyboard-response","135","253259","0.0-1.0-182.0","0","0","33002","","null","","","null","20","","","","","","","","","","","","","","","",""
"","ISI","","html-keyboard-response","136","254263","0.0-1.0-183.0","0","0","33002","","null","","","null","20","NaN","","","","","","","","","","","","","","",""
"","S2","","html-keyboard-response","137","254518","0.0-1.0-184.0","0","0","33002","","null","","","null","20","","NaN","","","","","","","","","","","","","",""
"","response","","html-keyboard-response","138","254751","0.0-1.0-185.0-0.0","0","0","33002","","232","","","68","20","","","1","20","training","adjacent","AB","1","2","M.jpg","L.jpg","1","1","1","",""
"","feedback","","html-keyboard-response","139","255754","0.0-1.0-186.0-0.0","0","0","33002","","null","","","null","20","","","","","","","","","","","","","","","",""
"","ITI","","html-keyboard-response","140","256755","0.0-1.0-189.0","0","0","33002","","null","","","null","20","","","","","","","","","","","","","","","NaN",""
"","S1","","html-keyboard-response","141","257007","0.0-1.0-191.0","0","0","33002","","null","","","null","21","","","","","","","","","","","","","","","",""
"","ISI","","html-keyboard-response","142","258010","0.0-1.0-192.0","0","0","33002","","null","","","null","21","NaN","","","","","","","","","","","","","","",""
"","S2","","html-keyboard-response","143","258263","0.0-1.0-193.0","0","0","33002","","null","","","null","21","","NaN","","","","","","","","","","","","","",""
"","response","","html-keyboard-response","144","259384","0.0-1.0-194.0-0.0","0","0","33002","","1120","","","75","21","","","1","21","training","adjacent","CB","3","2","O.jpg","L.jpg","0","0","1","",""
"","feedback","","html-keyboard-response","145","260387","0.0-1.0-195.0-0.0","0","0","33002","","null","","","null","21","","","","","","","","","","","","","","","",""
"","ITI","","html-keyboard-response","146","261390","0.0-1.0-198.0","0","0","33002","","null","","","null","21","","","","","","","","","","","","","","","NaN",""
"","S1","","html-keyboard-response","147","261643","0.0-1.0-200.0","0","0","33002","","null","","","null","22","","","","","","","","","","","","","","","",""
"","ISI","","html-keyboard-response","148","262646","0.0-1.0-201.0","0","0","33002","","null","","","null","22","NaN","","","","","","","","","","","","","","",""
"","S2","","html-keyboard-response","149","262899","0.0-1.0-202.0","0","0","33002","","null","","","null","22","","NaN","","","","","","","","","","","","","",""
"","response","","html-keyboard-response","150","263644","0.0-1.0-203.0-0.0","0","0","33002","","744","","","75","22","","","1","22","training","adjacent","ED","5","4","N.jpg","P.jpg","0","0","1","",""
"","feedback","","html-keyboard-response","151","264647","0.0-1.0-204.0-0.0","0","0","33002","","null","","","null","22","","","","","","","","","","","","","","","",""
"","ITI","","html-keyboard-response","152","265650","0.0-1.0-207.0","0","0","33002","","null","","","null","22","","","","","","","","","","","","","","","NaN",""
"","S1","","html-keyboard-response","153","265903","0.0-1.0-209.0","0","0","33002","","null","","","null","23","","","","","","","","","","","","","","","",""
"","ISI","","html-keyboard-response","154","266906","0.0-1.0-210.0","0","0","33002","","null","","","null","23","NaN","","","","","","","","","","","","","","",""
"","S2","","html-keyboard-response","155","267158","0.0-1.0-211.0","0","0","33002","","null","","","null","23","","NaN","","","","","","","","","","","","","",""
"","response","","html-keyboard-response","156","267779","0.0-1.0-212.0-0.0","0","0","33002","","620","","","68","23","","","1","23","training","adjacent","CB","3","2","O.jpg","L.jpg","1","0","0","",""
"","feedback","","html-keyboard-response","157","268783","0.0-1.0-213.0-0.0","0","0","33002","","null","","","null","23","","","","","","","","","","","","","","","",""
"","time_out","","html-keyboard-response","158","270786","0.0-1.0-215.0-0.0","0","0","33002","","null","","","null","23","","","","","","","","","","","","","","","",""
"","ITI","","html-keyboard-response","159","271790","0.0-1.0-216.0","0","0","33002","","null","","","null","23","","","","","","","","","","","","","","","NaN",""
"","S1","","html-keyboard-response","160","272043","0.0-1.0-218.0","0","0","33002","","null","","","null","24","","","","","","","","","","","","","","","",""
"","ISI","","html-keyboard-response","161","273046","0.0-1.0-219.0","0","0","33002","","null","","","null","24","NaN","","","","","","","","","","","","","","",""
"","S2","","html-keyboard-response","162","273298","0.0-1.0-220.0","0","0","33002","","null","","","null","24","","NaN","","","","","","","","","","","","","",""
"","response","","html-keyboard-response","163","274178","0.0-1.0-221.0-0.0","0","0","33002","","879","","","75","24","","","1","24","training","adjacent","GF","7","6","Q.jpg","R.jpg","0","0","1","",""
"","feedback","","html-keyboard-response","164","275179","0.0-1.0-222.0-0.0","0","0","33002","","null","","","null","24","","","","","","","","","","","","","","","",""
"","ITI","","html-keyboard-response","165","276182","0.0-1.0-225.0","0","0","33002","","null","","","null","24","","","","","","","","","","","","","","","NaN",""
"","S1","","html-keyboard-response","166","276435","0.0-1.0-227.0","0","0","33002","","null","","","null","25","","","","","","","","","","","","","","","",""
"","ISI","","html-keyboard-response","167","277439","0.0-1.0-228.0","0","0","33002","","null","","","null","25","NaN","","","","","","","","","","","","","","",""
"","S2","","html-keyboard-response","168","277695","0.0-1.0-229.0","0","0","33002","","null","","","null","25","","NaN","","","","","","","","","","","","","",""
"","response","","html-keyboard-response","169","278508","0.0-1.0-230.0-0.0","0","0","33002","","812","","","68","25","","","1","25","training","adjacent","BC","2","3","L.jpg","O.jpg","1","1","1","",""
"","feedback","","html-keyboard-response","170","279511","0.0-1.0-231.0-0.0","0","0","33002","","null","","","null","25","","","","","","","","","","","","","","","",""
"","ITI","","html-keyboard-response","171","280515","0.0-1.0-234.0","0","0","33002","","null","","","null","25","","","","","","","","","","","","","","","NaN",""
"","S1","","html-keyboard-response","172","280767","0.0-1.0-236.0","0","0","33002","","null","","","null","26","","","","","","","","","","","","","","","",""
"","ISI","","html-keyboard-response","173","281770","0.0-1.0-237.0","0","0","33002","","null","","","null","26","NaN","","","","","","","","","","","","","","",""
"","S2","","html-keyboard-response","174","282023","0.0-1.0-238.0","0","0","33002","","null","","","null","26","","NaN","","","","","","","","","","","","","",""
"","response","","html-keyboard-response","175","283194","0.0-1.0-239.0-0.0","0","0","33002","","1170","","","75","26","","","1","26","training","adjacent","ED","5","4","N.jpg","P.jpg","0","0","1","",""
"","feedback","","html-keyboard-response","176","284199","0.0-1.0-240.0-0.0","0","0","33002","","null","","","null","26","","","","","","","","","","","","","","","",""
"","ITI","","html-keyboard-response","177","285202","0.0-1.0-243.0","0","0","33002","","null","","","null","26","","","","","","","","","","","","","","","NaN",""
"","S1","","html-keyboard-response","178","285455","0.0-1.0-245.0","0","0","33002","","null","","","null","27","","","","","","","","","","","","","","","",""
"","ISI","","html-keyboard-response","179","286458","0.0-1.0-246.0","0","0","33002","","null","","","null","27","NaN","","","","","","","","","","","","","","",""
"","S2","","html-keyboard-response","180","286710","0.0-1.0-247.0","0","0","33002","","null","","","null","27","","NaN","","","","","","","","","","","","","",""
"","response","","html-keyboard-response","181","287822","0.0-1.0-248.0-0.0","0","0","33002","","1111","","","75","27","","","1","27","training","adjacent","DE","4","5","P.jpg","N.jpg","0","1","0","",""
"","feedback","","html-keyboard-response","182","288826","0.0-1.0-249.0-0.0","0","0","33002","","null","","","null","27","","","","","","","","","","","","","","","",""
"","time_out","","html-keyboard-response","183","290831","0.0-1.0-251.0-0.0","0","0","33002","","null","","","null","27","","","","","","","","","","","","","","","",""
"","ITI","","html-keyboard-response","184","291835","0.0-1.0-252.0","0","0","33002","","null","","","null","27","","","","","","","","","","","","","","","NaN",""
"","S1","","html-keyboard-response","185","292090","0.0-1.0-254.0","0","0","33002","","null","","","null","28","","","","","","","","","","","","","","","",""
"","ISI","","html-keyboard-response","186","293095","0.0-1.0-255.0","0","0","33002","","null","","","null","28","NaN","","","","","","","","","","","","","","",""
"","S2","","html-keyboard-response","187","293347","0.0-1.0-256.0","0","0","33002","","null","","","null","28","","NaN","","","","","","","","","","","","","",""
"","response","","html-keyboard-response","188","293739","0.0-1.0-257.0-0.0","0","0","33002","","390","","","75","28","","","1","28","training","adjacent","GF","7","6","Q.jpg","R.jpg","0","0","1","",""
"","feedback","","html-keyboard-response","189","294743","0.0-1.0-258.0-0.0","0","0","33002","","null","","","null","28","","","","","","","","","","","","","","","",""
"","ITI","","html-keyboard-response","190","295746","0.0-1.0-261.0","0","0","33002","","null","","","null","28","","","","","","","","","","","","","","","NaN",""
"","S1","","html-keyboard-response","191","295998","0.0-1.0-263.0","0","0","33002","","null","","","null","29","","","","","","","","","","","","","","","",""
"","ISI","","html-keyboard-response","192","297003","0.0-1.0-264.0","0","0","33002","","null","","","null","29","NaN","","","","","","","","","","","","","","",""
"","S2","","html-keyboard-response","193","297255","0.0-1.0-265.0","0","0","33002","","null","","","null","29","","NaN","","","","","","","","","","","","","",""
"","response","","html-keyboard-response","194","297642","0.0-1.0-266.0-0.0","0","0","33002","","385","","","75","29","","","1","29","training","adjacent","BA","2","1","L.jpg","M.jpg","0","0","1","",""
"","feedback","","html-keyboard-response","195","298646","0.0-1.0-267.0-0.0","0","0","33002","","null","","","null","29","","","","","","","","","","","","","","","",""
"","ITI","","html-keyboard-response","196","299650","0.0-1.0-270.0","0","0","33002","","null","","","null","29","","","","","","","","","","","","","","","NaN",""
"","S1","","html-keyboard-response","197","299903","0.0-1.0-272.0","0","0","33002","","null","","","null","30","","","","","","","","","","","","","","","",""
"","ISI","","html-keyboard-response","198","300907","0.0-1.0-273.0","0","0","33002","","null","","","null","30","NaN","","","","","","","","","","","","","","",""
"","S2","","html-keyboard-response","199","301159","0.0-1.0-274.0","0","0","33002","","null","","","null","30","","NaN","","","","","","","","","","","","","",""
"","response","","html-keyboard-response","200","302171","0.0-1.0-275.0-0.0","0","0","33002","","1010","","","75","30","","","1","30","training","adjacent","CB","3","2","O.jpg","L.jpg","0","0","1","",""
"","feedback","","html-keyboard-response","201","303174","0.0-1.0-276.0-0.0","0","0","33002","","null","","","null","30","","","","","","","","","","","","","","","",""
"","ITI","","html-keyboard-response","202","304179","0.0-1.0-279.0","0","0","33002","","null","","","null","30","","","","","","","","","","","","","","","NaN",""
"","S1","","html-keyboard-response","203","304431","0.0-1.0-281.0","0","0","33002","","null","","","null","31","","","","","","","","","","","","","","","",""
"","ISI","","html-keyboard-response","204","305435","0.0-1.0-282.0","0","0","33002","","null","","","null","31","NaN","","","","","","","","","","","","","","",""
"","S2","","html-keyboard-response","205","305687","0.0-1.0-283.0","0","0","33002","","null","","","null","31","","NaN","","","","","","","","","","","","","",""
"","response","","html-keyboard-response","206","306404","0.0-1.0-284.0-0.0","0","0","33002","","716","","","75","31","","","1","31","training","adjacent","GF","7","6","Q.jpg","R.jpg","0","0","1","",""
"","feedback","","html-keyboard-response","207","307407","0.0-1.0-285.0-0.0","0","0","33002","","null","","","null","31","","","","","","","","","","","","","","","",""
"","ITI","","html-keyboard-response","208","308410","0.0-1.0-288.0","0","0","33002","","null","","","null","31","","","","","","","","","","","","","","","NaN",""
"","S1","","html-keyboard-response","209","308663","0.0-1.0-290.0","0","0","33002","","null","","","null","32","","","","","","","","","","","","","","","",""
"","ISI","","html-keyboard-response","210","309667","0.0-1.0-291.0","0","0","33002","","null","","","null","32","NaN","","","","","","","","","","","","","","",""
"","S2","","html-keyboard-response","211","309919","0.0-1.0-292.0","0","0","33002","","null","","","null","32","","NaN","","","","","","","","","","","","","",""
"","response","","html-keyboard-response","212","310408","0.0-1.0-293.0-0.0","0","0","33002","","488","","","68","32","","","1","32","training","adjacent","FG","6","7","R.jpg","Q.jpg","1","1","1","",""
"","feedback","","html-keyboard-response","213","311411","0.0-1.0-294.0-0.0","0","0","33002","","null","","","null","32","","","","","","","","","","","","","","","",""
"","ITI","","html-keyboard-response","214","312415","0.0-1.0-297.0","0","0","33002","","null","","","null","32","","","","","","","","","","","","","","","NaN",""
"","S1","","html-keyboard-response","215","312666","0.0-1.0-299.0","0","0","33002","","null","","","null","33","","","","","","","","","","","","","","","",""
"","ISI","","html-keyboard-response","216","313670","0.0-1.0-300.0","0","0","33002","","null","","","null","33","NaN","","","","","","","","","","","","","","",""
"","S2","","html-keyboard-response","217","313922","0.0-1.0-301.0","0","0","33002","","null","","","null","33","","NaN","","","","","","","","","","","","","",""
"","response","","html-keyboard-response","218","314261","0.0-1.0-302.0-0.0","0","0","33002","","338","","","75","33","","","1","33","training","adjacent","DE","4","5","P.jpg","N.jpg","0","1","0","",""
"","feedback","","html-keyboard-response","219","315263","0.0-1.0-303.0-0.0","0","0","33002","","null","","","null","33","","","","","","","","","","","","","","","",""
"","time_out","","html-keyboard-response","220","317267","0.0-1.0-305.0-0.0","0","0","33002","","null","","","null","33","","","","","","","","","","","","","","","",""
"","ITI","","html-keyboard-response","221","318270","0.0-1.0-306.0","0","0","33002","","null","","","null","33","","","","","","","","","","","","","","","NaN",""
"","S1","","html-keyboard-response","222","318523","0.0-1.0-308.0","0","0","33002","","null","","","null","34","","","","","","","","","","","","","","","",""
"","ISI","","html-keyboard-response","223","319527","0.0-1.0-309.0","0","0","33002","","null","","","null","34","NaN","","","","","","","","","","","","","","",""
"","S2","","html-keyboard-response","224","319779","0.0-1.0-310.0","0","0","33002","","null","","","null","34","","NaN","","","","","","","","","","","","","",""
"","response","","html-keyboard-response","225","320229","0.0-1.0-311.0-0.0","0","0","33002","","449","","","75","34","","","1","34","training","adjacent","CD","3","4","O.jpg","P.jpg","0","1","0","",""
"","feedback","","html-keyboard-response","226","321234","0.0-1.0-312.0-0.0","0","0","33002","","null","","","null","34","","","","","","","","","","","","","","","",""
"","time_out","","html-keyboard-response","227","323238","0.0-1.0-314.0-0.0","0","0","33002","","null","","","null","34","","","","","","","","","","","","","","","",""
"","ITI","","html-keyboard-response","228","324242","0.0-1.0-315.0","0","0","33002","","null","","","null","34","","","","","","","","","","","","","","","NaN",""
"","S1","","html-keyboard-response","229","324494","0.0-1.0-317.0","0","0","33002","","null","","","null","35","","","","","","","","","","","","","","","",""
"","ISI","","html-keyboard-response","230","325499","0.0-1.0-318.0","0","0","33002","","null","","","null","35","NaN","","","","","","","","","","","","","","",""
"","S2","","html-keyboard-response","231","325754","0.0-1.0-319.0","0","0","33002","","null","","","null","35","","NaN","","","","","","","","","","","","","",""
"","response","","html-keyboard-response","232","325991","0.0-1.0-320.0-0.0","0","0","33002","","236","","","68","35","","","1","35","training","adjacent","AB","1","2","M.jpg","L.jpg","1","1","1","",""
"","feedback","","html-keyboard-response","233","326994","0.0-1.0-321.0-0.0","0","0","33002","","null","","","null","35","","","","","","","","","","","","","","","",""
"","ITI","","html-keyboard-response","234","327997","0.0-1.0-324.0","0","0","33002","","null","","","null","35","","","","","","","","","","","","","","","NaN",""
"","S1","","html-keyboard-response","235","328249","0.0-1.0-326.0","0","0","33002","","null","","","null","36","","","","","","","","","","","","","","","",""
"","ISI","","html-keyboard-response","236","329254","0.0-1.0-327.0","0","0","33002","","null","","","null","36","NaN","","","","","","","","","","","","","","",""
"","S2","","html-keyboard-response","237","329506","0.0-1.0-328.0","0","0","33002","","null","","","null","36","","NaN","","","","","","","","","","","","","",""
"","response","","html-keyboard-response","238","330981","0.0-1.0-329.0-0.0","0","0","33002","","1475","","","75","36","","","1","36","training","adjacent","EF","5","6","N.jpg","R.jpg","0","1","0","",""
"","feedback","","html-keyboard-response","239","331985","0.0-1.0-330.0-0.0","0","0","33002","","null","","","null","36","","","","","","","","","","","","","","","",""
"","time_out","","html-keyboard-response","240","333990","0.0-1.0-332.0-0.0","0","0","33002","","null","","","null","36","","","","","","","","","","","","","","","",""
"","ITI","","html-keyboard-response","241","334993","0.0-1.0-333.0","0","0","33002","","null","","","null","36","","","","","","","","","","","","","","","NaN",""
"","S1","","html-keyboard-response","242","335246","0.0-1.0-335.0","0","0","33002","","null","","","null","37","","","","","","","","","","","","","","","",""
"","ISI","","html-keyboard-response","243","336250","0.0-1.0-336.0","0","0","33002","","null","","","null","37","NaN","","","","","","","","","","","","","","",""
"","S2","","html-keyboard-response","244","336502","0.0-1.0-337.0","0","0","33002","","null","","","null","37","","NaN","","","","","","","","","","","","","",""
"","response","","html-keyboard-response","245","337811","0.0-1.0-338.0-0.0","0","0","33002","","1307","","","68","37","","","1","37","training","adjacent","CD","3","4","O.jpg","P.jpg","1","1","1","",""
"","feedback","","html-keyboard-response","246","338814","0.0-1.0-339.0-0.0","0","0","33002","","null","","","null","37","","","","","","","","","","","","","","","",""
"","ITI","","html-keyboard-response","247","339819","0.0-1.0-342.0","0","0","33002","","null","","","null","37","","","","","","","","","","","","","","","NaN",""
"","S1","","html-keyboard-response","248","340073","0.0-1.0-344.0","0","0","33002","","null","","","null","38","","","","","","","","","","","","","","","",""
"","ISI","","html-keyboard-response","249","341077","0.0-1.0-345.0","0","0","33002","","null","","","null","38","NaN","","","","","","","","","","","","","","",""
"","S2","","html-keyboard-response","250","341308","0.0-1.0-346.0","0","0","33002","","230","","","68","38","","d","1","38","training","adjacent","AB","1","2","M.jpg","L.jpg","1","1","1","",""
"","feedback","","html-keyboard-response","251","342313","0.0-1.0-348.0-0.0","0","0","33002","","null","","","null","38","","","","","","","","","","","","","","","",""
"","ITI","","html-keyboard-response","252","343318","0.0-1.0-351.0","0","0","33002","","null","","","null","38","","","","","","","","","","","","","","","NaN",""
"","S1","","html-keyboard-response","253","343573","0.0-1.0-353.0","0","0","33002","","null","","","null","39","","","","","","","","","","","","","","","",""
"","ISI","","html-keyboard-response","254","344578","0.0-1.0-354.0","0","0","33002","","null","","","null","39","NaN","","","","","","","","","","","","","","",""
"","S2","","html-keyboard-response","255","344829","0.0-1.0-355.0","0","0","33002","","null","","","null","39","","NaN","","","","","","","","","","","","","",""
"","response","","html-keyboard-response","256","345489","0.0-1.0-356.0-0.0","0","0","33002","","659","","","75","39","","","1","39","training","adjacent","CB","3","2","O.jpg","L.jpg","0","0","1","",""
"","feedback","","html-keyboard-response","257","346495","0.0-1.0-357.0-0.0","0","0","33002","","null","","","null","39","","","","","","","","","","","","","","","",""
"","ITI","","html-keyboard-response","258","347498","0.0-1.0-360.0","0","0","33002","","null","","","null","39","","","","","","","","","","","","","","","NaN",""
"","S1","","html-keyboard-response","259","347753","0.0-1.0-362.0","0","0","33002","","null","","","null","40","","","","","","","","","","","","","","","",""
"","ISI","","html-keyboard-response","260","348758","0.0-1.0-363.0","0","0","33002","","null","","","null","40","NaN","","","","","","","","","","","","","","",""
"","S2","","html-keyboard-response","261","349010","0.0-1.0-364.0","0","0","33002","","null","","","null","40","","NaN","","","","","","","","","","","","","",""
"","response","","html-keyboard-response","262","350185","0.0-1.0-365.0-0.0","0","0","33002","","1174","","","68","40","","","1","40","training","adjacent","DC","4","3","P.jpg","O.jpg","1","0","0","",""
"","feedback","","html-keyboard-response","263","351189","0.0-1.0-366.0-0.0","0","0","33002","","null","","","null","40","","","","","","","","","","","","","","","",""
"","time_out","","html-keyboard-response","264","353194","0.0-1.0-368.0-0.0","0","0","33002","","null","","","null","40","","","","","","","","","","","","","","","",""
"","ITI","","html-keyboard-response","265","354197","0.0-1.0-369.0","0","0","33002","","null","","","null","40","","","","","","","","","","","","","","","NaN",""
"","S1","","html-keyboard-response","266","354451","0.0-1.0-371.0","0","0","33002","","null","","","null","41","","","","","","","","","","","","","","","",""
"","ISI","","html-keyboard-response","267","355453","0.0-1.0-372.0","0","0","33002","","null","","","null","41","NaN","","","","","","","","","","","","","","",""
"","S2","","html-keyboard-response","268","355706","0.0-1.0-373.0","0","0","33002","","null","","","null","41","","NaN","","","","","","","","","","","","","",""
"","response","","html-keyboard-response","269","355921","0.0-1.0-374.0-0.0","0","0","33002","","214","","","68","41","","","1","41","training","adjacent","EF","5","6","N.jpg","R.jpg","1","1","1","",""
"","feedback","","html-keyboard-response","270","356925","0.0-1.0-375.0-0.0","0","0","33002","","null","","","null","41","","","","","","","","","","","","","","","",""
"","ITI","","html-keyboard-response","271","357930","0.0-1.0-378.0","0","0","33002","","null","","","null","41","","","","","","","","","","","","","","","NaN",""
"","S1","","html-keyboard-response","272","358182","0.0-1.0-380.0","0","0","33002","","null","","","null","42","","","","","","","","","","","","","","","",""
"","ISI","","html-keyboard-response","273","359185","0.0-1.0-381.0","0","0","33002","","null","","","null","42","NaN","","","","","","","","","","","","","","",""
"","S2","","html-keyboard-response","274","359437","0.0-1.0-382.0","0","0","33002","","null","","","null","42","","NaN","","","","","","","","","","","","","",""
"","response","","html-keyboard-response","275","359855","0.0-1.0-383.0-0.0","0","0","33002","","417","","","68","42","","","1","42","training","adjacent","FG","6","7","R.jpg","Q.jpg","1","1","1","",""
"","feedback","","html-keyboard-response","276","360858","0.0-1.0-384.0-0.0","0","0","33002","","null","","","null","42","","","","","","","","","","","","","","","",""
"","ITI","","html-keyboard-response","277","361862","0.0-1.0-387.0","0","0","33002","","null","","","null","42","","","","","","","","","","","","","","","NaN",""
"","S1","","html-keyboard-response","278","362114","0.0-1.0-389.0","0","0","33002","","null","","","null","43","","","","","","","","","","","","","","","",""
"","ISI","","html-keyboard-response","279","363118","0.0-1.0-390.0","0","0","33002","","null","","","null","43","NaN","","","","","","","","","","","","","","",""
"","S2","","html-keyboard-response","280","363374","0.0-1.0-391.0","0","0","33002","","null","","","null","43","","NaN","","","","","","","","","","","","","",""
"","response","","html-keyboard-response","281","364377","0.0-1.0-392.0-0.0","0","0","33002","","1002","","","68","43","","","1","43","training","adjacent","EF","5","6","N.jpg","R.jpg","1","1","1","",""
"","feedback","","html-keyboard-response","282","365381","0.0-1.0-393.0-0.0","0","0","33002","","null","","","null","43","","","","","","","","","","","","","","","",""
"","ITI","","html-keyboard-response","283","366386","0.0-1.0-396.0","0","0","33002","","null","","","null","43","","","","","","","","","","","","","","","NaN",""
"","S1","","html-keyboard-response","284","366638","0.0-1.0-398.0","0","0","33002","","null","","","null","44","","","","","","","","","","","","","","","",""
"","ISI","","html-keyboard-response","285","367642","0.0-1.0-399.0","0","0","33002","","null","","","null","44","NaN","","","","","","","","","","","","","","",""
"","S2","","html-keyboard-response","286","367894","0.0-1.0-400.0","0","0","33002","","null","","","null","44","","NaN","","","","","","","","","","","","","",""
"","response","","html-keyboard-response","287","368211","0.0-1.0-401.0-0.0","0","0","33002","","316","","","75","44","","","1","44","training","adjacent","FE","6","5","R.jpg","N.jpg","0","0","1","",""
"","feedback","","html-keyboard-response","288","369213","0.0-1.0-402.0-0.0","0","0","33002","","null","","","null","44","","","","","","","","","","","","","","","",""
"","ITI","","html-keyboard-response","289","370217","0.0-1.0-405.0","0","0","33002","","null","","","null","44","","","","","","","","","","","","","","","NaN",""
"","S1","","html-keyboard-response","290","370469","0.0-1.0-407.0","0","0","33002","","null","","","null","45","","","","","","","","","","","","","","","",""
"","ISI","","html-keyboard-response","291","371475","0.0-1.0-408.0","0","0","33002","","null","","","null","45","NaN","","","","","","","","","","","","","","",""
"","S2","","html-keyboard-response","292","371730","0.0-1.0-409.0","0","0","33002","","null","","","null","45","","NaN","","","","","","","","","","","","","",""
"","response","","html-keyboard-response","293","372112","0.0-1.0-410.0-0.0","0","0","33002","","381","","","68","45","","","1","45","training","adjacent","BA","2","1","L.jpg","M.jpg","1","0","0","",""
"","feedback","","html-keyboard-response","294","373114","0.0-1.0-411.0-0.0","0","0","33002","","null","","","null","45","","","","","","","","","","","","","","","",""
"","time_out","","html-keyboard-response","295","375117","0.0-1.0-413.0-0.0","0","0","33002","","null","","","null","45","","","","","","","","","","","","","","","",""
"","ITI","","html-keyboard-response","296","376122","0.0-1.0-414.0","0","0","33002","","null","","","null","45","","","","","","","","","","","","","","","NaN",""
"","S1","","html-keyboard-response","297","376374","0.0-1.0-416.0","0","0","33002","","null","","","null","46","","","","","","","","","","","","","","","",""
"","ISI","","html-keyboard-response","298","377377","0.0-1.0-417.0","0","0","33002","","null","","","null","46","NaN","","","","","","","","","","","","","","",""
"","S2","","html-keyboard-response","299","377629","0.0-1.0-418.0","0","0","33002","","null","","","null","46","","NaN","","","","","","","","","","","","","",""
"","response","","html-keyboard-response","300","378517","0.0-1.0-419.0-0.0","0","0","33002","","887","","","75","46","","","1","46","training","adjacent","CD","3","4","O.jpg","P.jpg","0","1","0","",""
"","feedback","","html-keyboard-response","301","379522","0.0-1.0-420.0-0.0","0","0","33002","","null","","","null","46","","","","","","","","","","","","","","","",""
"","time_out","","html-keyboard-response","302","381527","0.0-1.0-422.0-0.0","0","0","33002","","null","","","null","46","","","","","","","","","","","","","","","",""
"","ITI","","html-keyboard-response","303","382531","0.0-1.0-423.0","0","0","33002","","null","","","null","46","","","","","","","","","","","","","","","NaN",""
"","S1","","html-keyboard-response","304","382787","0.0-1.0-425.0","0","0","33002","","null","","","null","47","","","","","","","","","","","","","","","",""
"","ISI","","html-keyboard-response","305","383790","0.0-1.0-426.0","0","0","33002","","null","","","null","47","NaN","","","","","","","","","","","","","","",""
"","S2","","html-keyboard-response","306","384043","0.0-1.0-427.0","0","0","33002","","null","","","null","47","","NaN","","","","","","","","","","","","","",""
"","response","","html-keyboard-response","307","385030","0.0-1.0-428.0-0.0","0","0","33002","","985","","","68","47","","","1","47","training","adjacent","CD","3","4","O.jpg","P.jpg","1","1","1","",""
"","feedback","","html-keyboard-response","308","386034","0.0-1.0-429.0-0.0","0","0","33002","","null","","","null","47","","","","","","","","","","","","","","","",""
"","ITI","","html-keyboard-response","309","387038","0.0-1.0-432.0","0","0","33002","","null","","","null","47","","","","","","","","","","","","","","","NaN",""
"","block_over","","html-keyboard-response","310","388341","0.0-1.0-433.0-0.0","0","0","33002","","1301","","","32","47","","","","","","","","","","","","","","","",""
"","S1","","html-keyboard-response","311","388594","0.0-1.0-434.0","0","0","33002","","null","","","null","48","","","","","","","","","","","","","","","",""
"","ISI","","html-keyboard-response","312","389598","0.0-1.0-435.0","0","0","33002","","null","","","null","48","NaN","","","","","","","","","","","","","","",""
"","S2","","html-keyboard-response","313","389851","0.0-1.0-436.0","0","0","33002","","null","","","null","48","","NaN","","","","","","","","","","","","","",""
"","response","","html-keyboard-response","314","390063","0.0-1.0-437.0-0.0","0","0","33002","","211","","","68","48","","","2","48","training","adjacent","EF","5","6","N.jpg","R.jpg","1","1","1","",""
"","feedback","","html-keyboard-response","315","391067","0.0-1.0-438.0-0.0","0","0","33002","","null","","","null","48","","","","","","","","","","","","","","","",""
"","ITI","","html-keyboard-response","316","392071","0.0-1.0-441.0","0","0","33002","","null","","","null","48","","","","","","","","","","","","","","","NaN",""
"","S1","","html-keyboard-response","317","392327","0.0-1.0-443.0","0","0","33002","","null","","","null","49","","","","","","","","","","","","","","","",""
"","ISI","","html-keyboard-response","318","393332","0.0-1.0-444.0","0","0","33002","","null","","","null","49","NaN","","","","","","","","","","","","","","",""
"","S2","","html-keyboard-response","319","393586","0.0-1.0-445.0","0","0","33002","","null","","","null","49","","NaN","","","","","","","","","","","","","",""
"","response","","html-keyboard-response","320","394131","0.0-1.0-446.0-0.0","0","0","33002","","544","","","75","49","","","2","49","training","adjacent","DC","4","3","P.jpg","O.jpg","0","0","1","",""
"","feedback","","html-keyboard-response","321","395135","0.0-1.0-447.0-0.0","0","0","33002","","null","","","null","49","","","","","","","","","","","","","","","",""
"","ITI","","html-keyboard-response","322","396139","0.0-1.0-450.0","0","0","33002","","null","","","null","49","","","","","","","","","","","","","","","NaN",""
"","S1","","html-keyboard-response","323","396395","0.0-1.0-452.0","0","0","33002","","null","","","null","50","","","","","","","","","","","","","","","",""
"","ISI","","html-keyboard-response","324","397399","0.0-1.0-453.0","0","0","33002","","null","","","null","50","NaN","","","","","","","","","","","","","","",""
"","S2","","html-keyboard-response","325","397651","0.0-1.0-454.0","0","0","33002","","null","","","null","50","","NaN","","","","","","","","","","","","","",""
"","response","","html-keyboard-response","326","398220","0.0-1.0-455.0-0.0","0","0","33002","","568","","","75","50","","","2","50","training","adjacent","CB","3","2","O.jpg","L.jpg","0","0","1","",""
"","feedback","","html-keyboard-response","327","399223","0.0-1.0-456.0-0.0","0","0","33002","","null","","","null","50","","","","","","","","","","","","","","","",""
"","ITI","","html-keyboard-response","328","400226","0.0-1.0-459.0","0","0","33002","","null","","","null","50","","","","","","","","","","","","","","","NaN",""
"","S1","","html-keyboard-response","329","400478","0.0-1.0-461.0","0","0","33002","","null","","","null","51","","","","","","","","","","","","","","","",""
"","ISI","","html-keyboard-response","330","401483","0.0-1.0-462.0","0","0","33002","","null","","","null","51","NaN","","","","","","","","","","","","","","",""
"","S2","","html-keyboard-response","331","401735","0.0-1.0-463.0","0","0","33002","","null","","","null","51","","NaN","","","","","","","","","","","","","",""
"","response","","html-keyboard-response","332","402024","0.0-1.0-464.0-0.0","0","0","33002","","288","","","75","51","","","2","51","training","adjacent","FE","6","5","R.jpg","N.jpg","0","0","1","",""
"","feedback","","html-keyboard-response","333","403026","0.0-1.0-465.0-0.0","0","0","33002","","null","","","null","51","","","","","","","","","","","","","","","",""
"","ITI","","html-keyboard-response","334","404027","0.0-1.0-468.0","0","0","33002","","null","","","null","51","","","","","","","","","","","","","","","NaN",""
"","S1","","html-keyboard-response","335","404279","0.0-1.0-470.0","0","0","33002","","null","","","null","52","","","","","","","","","","","","","","","",""
"","ISI","","html-keyboard-response","336","405282","0.0-1.0-471.0","0","0","33002","","null","","","null","52","NaN","","","","","","","","","","","","","","",""
"","S2","","html-keyboard-response","337","405534","0.0-1.0-472.0","0","0","33002","","null","","","null","52","","NaN","","","","","","","","","","","","","",""
"","response","","html-keyboard-response","338","405826","0.0-1.0-473.0-0.0","0","0","33002","","291","","","75","52","","","2","52","training","adjacent","FE","6","5","R.jpg","N.jpg","0","0","1","",""
"","feedback","","html-keyboard-response","339","406830","0.0-1.0-474.0-0.0","0","0","33002","","null","","","null","52","","","","","","","","","","","","","","","",""
"","ITI","","html-keyboard-response","340","407835","0.0-1.0-477.0","0","0","33002","","null","","","null","52","","","","","","","","","","","","","","","NaN",""
"","S1","","html-keyboard-response","341","408090","0.0-1.0-479.0","0","0","33002","","null","","","null","53","","","","","","","","","","","","","","","",""
"","ISI","","html-keyboard-response","342","409094","0.0-1.0-480.0","0","0","33002","","null","","","null","53","NaN","","","","","","","","","","","","","","",""
"","S2","","html-keyboard-response","343","409346","0.0-1.0-481.0","0","0","33002","","null","","","null","53","","NaN","","","","","","","","","","","","","",""
"","response","","html-keyboard-response","344","409579","0.0-1.0-482.0-0.0","0","0","33002","","232","","","75","53","","","2","53","training","adjacent","DE","4","5","P.jpg","N.jpg","0","1","0","",""
"","feedback","","html-keyboard-response","345","410583","0.0-1.0-483.0-0.0","0","0","33002","","null","","","null","53","","","","","","","","","","","","","","","",""
"","time_out","","html-keyboard-response","346","412586","0.0-1.0-485.0-0.0","0","0","33002","","null","","","null","53","","","","","","","","","","","","","","","",""
"","ITI","","html-keyboard-response","347","413590","0.0-1.0-486.0","0","0","33002","","null","","","null","53","","","","","","","","","","","","","","","NaN",""
"","S1","","html-keyboard-response","348","413842","0.0-1.0-488.0","0","0","33002","","null","","","null","54","","","","","","","","","","","","","","","",""
"","ISI","","html-keyboard-response","349","414846","0.0-1.0-489.0","0","0","33002","","null","","","null","54","NaN","","","","","","","","","","","","","","",""
"","S2","","html-keyboard-response","350","415099","0.0-1.0-490.0","0","0","33002","","null","","","null","54","","NaN","","","","","","","","","","","","","",""
"","response","","html-keyboard-response","351","415495","0.0-1.0-491.0-0.0","0","0","33002","","395","","","68","54","","","2","54","training","adjacent","CD","3","4","O.jpg","P.jpg","1","1","1","",""
"","feedback","","html-keyboard-response","352","416499","0.0-1.0-492.0-0.0","0","0","33002","","null","","","null","54","","","","","","","","","","","","","","","",""
"","ITI","","html-keyboard-response","353","417503","0.0-1.0-495.0","0","0","33002","","null","","","null","54","","","","","","","","","","","","","","","NaN",""
"","S1","","html-keyboard-response","354","417754","0.0-1.0-497.0","0","0","33002","","null","","","null","55","","","","","","","","","","","","","","","",""
"","ISI","","html-keyboard-response","355","418758","0.0-1.0-498.0","0","0","33002","","null","","","null","55","NaN","","","","","","","","","","","","","","",""
"","S2","","html-keyboard-response","356","419011","0.0-1.0-499.0","0","0","33002","","null","","","null","55","","NaN","","","","","","","","","","","","","",""
"","response","","html-keyboard-response","357","419295","0.0-1.0-500.0-0.0","0","0","33002","","283","","","68","55","","","2","55","training","adjacent","CD","3","4","O.jpg","P.jpg","1","1","1","",""
"","feedback","","html-keyboard-response","358","420298","0.0-1.0-501.0-0.0","0","0","33002","","null","","","null","55","","","","","","","","","","","","","","","",""
"","ITI","","html-keyboard-response","359","421302","0.0-1.0-504.0","0","0","33002","","null","","","null","55","","","","","","","","","","","","","","","NaN",""
"","S1","","html-keyboard-response","360","421554","0.0-1.0-506.0","0","0","33002","","null","","","null","56","","","","","","","","","","","","","","","",""
"","ISI","","html-keyboard-response","361","422558","0.0-1.0-507.0","0","0","33002","","null","","","null","56","NaN","","","","","","","","","","","","","","",""
"","S2","","html-keyboard-response","362","422810","0.0-1.0-508.0","0","0","33002","","null","","","null","56","","NaN","","","","","","","","","","","","","",""
"","response","","html-keyboard-response","363","423486","0.0-1.0-509.0-0.0","0","0","33002","","675","","","75","56","","","2","56","training","adjacent","GF","7","6","Q.jpg","R.jpg","0","0","1","",""
"","feedback","","html-keyboard-response","364","424490","0.0-1.0-510.0-0.0","0","0","33002","","null","","","null","56","","","","","","","","","","","","","","","",""
"","ITI","","html-keyboard-response","365","425495","0.0-1.0-513.0","0","0","33002","","null","","","null","56","","","","","","","","","","","","","","","NaN",""
"","S1","","html-keyboard-response","366","425746","0.0-1.0-515.0","0","0","33002","","null","","","null","57","","","","","","","","","","","","","","","",""
"","ISI","","html-keyboard-response","367","426750","0.0-1.0-516.0","0","0","33002","","null","","","null","57","NaN","","","","","","","","","","","","","","",""
"","S2","","html-keyboard-response","368","427003","0.0-1.0-517.0","0","0","33002","","null","","","null","57","","NaN","","","","","","","","","","","","","",""
"","response","","html-keyboard-response","369","427497","0.0-1.0-518.0-0.0","0","0","33002","","493","","","68","57","","","2","57","training","adjacent","ED","5","4","N.jpg","P.jpg","1","0","0","",""
"","feedback","","html-keyboard-response","370","428499","0.0-1.0-519.0-0.0","0","0","33002","","null","","","null","57","","","","","","","","","","","","","","","",""
"","time_out","","html-keyboard-response","371","430503","0.0-1.0-521.0-0.0","0","0","33002","","null","","","null","57","","","","","","","","","","","","","","","",""
"","ITI","","html-keyboard-response","372","431506","0.0-1.0-522.0","0","0","33002","","null","","","null","57","","","","","","","","","","","","","","","NaN",""
"","S1","","html-keyboard-response","373","431760","0.0-1.0-524.0","0","0","33002","","null","","","null","58","","","","","","","","","","","","","","","",""
"","ISI","","html-keyboard-response","374","432763","0.0-1.0-525.0","0","0","33002","","null","","","null","58","NaN","","","","","","","","","","","","","","",""
"","S2","","html-keyboard-response","375","433018","0.0-1.0-526.0","0","0","33002","","null","","","null","58","","NaN","","","","","","","","","","","","","",""
"","response","","html-keyboard-response","376","433383","0.0-1.0-527.0-0.0","0","0","33002","","363","","","68","58","","","2","58","training","adjacent","FG","6","7","R.jpg","Q.jpg","1","1","1","",""
"","feedback","","html-keyboard-response","377","434387","0.0-1.0-528.0-0.0","0","0","33002","","null","","","null","58","","","","","","","","","","","","","","","",""
"","ITI","","html-keyboard-response","378","435390","0.0-1.0-531.0","0","0","33002","","null","","","null","58","","","","","","","","","","","","","","","NaN",""
"","S1","","html-keyboard-response","379","435643","0.0-1.0-533.0","0","0","33002","","null","","","null","59","","","","","","","","","","","","","","","",""
"","ISI","","html-keyboard-response","380","436647","0.0-1.0-534.0","0","0","33002","","null","","","null","59","NaN","","","","","","","","","","","","","","",""
"","S2","","html-keyboard-response","381","436899","0.0-1.0-535.0","0","0","33002","","null","","","null","59","","NaN","","","","","","","","","","","","","",""
"","response","","html-keyboard-response","382","437320","0.0-1.0-536.0-0.0","0","0","33002","","419","","","75","59","","","2","59","training","adjacent","DC","4","3","P.jpg","O.jpg","0","0","1","",""
"","feedback","","html-keyboard-response","383","438323","0.0-1.0-537.0-0.0","0","0","33002","","null","","","null","59","","","","","","","","","","","","","","","",""
"","ITI","","html-keyboard-response","384","439326","0.0-1.0-540.0","0","0","33002","","null","","","null","59","","","","","","","","","","","","","","","NaN",""
"","S1","","html-keyboard-response","385","439579","0.0-1.0-542.0","0","0","33002","","null","","","null","60","","","","","","","","","","","","","","","",""
"","ISI","","html-keyboard-response","386","440583","0.0-1.0-543.0","0","0","33002","","null","","","null","60","NaN","","","","","","","","","","","","","","",""
"","S2","","html-keyboard-response","387","440838","0.0-1.0-544.0","0","0","33002","","null","","","null","60","","NaN","","","","","","","","","","","","","",""
"","response","","html-keyboard-response","388","441267","0.0-1.0-545.0-0.0","0","0","33002","","428","","","75","60","","","2","60","training","adjacent","BA","2","1","L.jpg","M.jpg","0","0","1","",""
"","feedback","","html-keyboard-response","389","442270","0.0-1.0-546.0-0.0","0","0","33002","","null","","","null","60","","","","","","","","","","","","","","","",""
"","ITI","","html-keyboard-response","390","443275","0.0-1.0-549.0","0","0","33002","","null","","","null","60","","","","","","","","","","","","","","","NaN",""
"","S1","","html-keyboard-response","391","443527","0.0-1.0-551.0","0","0","33002","","null","","","null","61","","","","","","","","","","","","","","","",""
"","ISI","","html-keyboard-response","392","444530","0.0-1.0-552.0","0","0","33002","","null","","","null","61","NaN","","","","","","","","","","","","","","",""
"","S2","","html-keyboard-response","393","444781","0.0-1.0-553.0","0","0","33002","","250","","","68","61","","d","2","61","training","adjacent","AB","1","2","M.jpg","L.jpg","1","1","1","",""
"","feedback","","html-keyboard-response","394","445783","0.0-1.0-555.0-0.0","0","0","33002","","null","","","null","61","","","","","","","","","","","","","","","",""
"","ITI","","html-keyboard-response","395","446786","0.0-1.0-558.0","0","0","33002","","null","","","null","61","","","","","","","","","","","","","","","NaN",""
"","S1","","html-keyboard-response","396","447039","0.0-1.0-560.0","0","0","33002","","null","","","null","62","","","","","","","","","","","","","","","",""
"","ISI","","html-keyboard-response","397","448043","0.0-1.0-561.0","0","0","33002","","null","","","null","62","NaN","","","","","","","","","","","","","","",""
"","S2","","html-keyboard-response","398","448295","0.0-1.0-562.0","0","0","33002","","null","","","null","62","","NaN","","","","","","","","","","","","","",""
"","response","","html-keyboard-response","399","449630","0.0-1.0-563.0-0.0","0","0","33002","","1334","","","75","62","","","2","62","training","adjacent","BC","2","3","L.jpg","O.jpg","0","1","0","",""
"","feedback","","html-keyboard-response","400","450635","0.0-1.0-564.0-0.0","0","0","33002","","null","","","null","62","","","","","","","","","","","","","","","",""
"","time_out","","html-keyboard-response","401","452638","0.0-1.0-566.0-0.0","0","0","33002","","null","","","null","62","","","","","","","","","","","","","","","",""
"","ITI","","html-keyboard-response","402","453642","0.0-1.0-567.0","0","0","33002","","null","","","null","62","","","","","","","","","","","","","","","NaN",""
"","S1","","html-keyboard-response","403","453894","0.0-1.0-569.0","0","0","33002","","null","","","null","63","","","","","","","","","","","","","","","",""
"","ISI","","html-keyboard-response","404","454899","0.0-1.0-570.0","0","0","33002","","null","","","null","63","NaN","","","","","","","","","","","","","","",""
"","S2","","html-keyboard-response","405","455150","0.0-1.0-571.0","0","0","33002","","null","","","null","63","","NaN","","","","","","","","","","","","","",""
"","response","","html-keyboard-response","406","455458","0.0-1.0-572.0-0.0","0","0","33002","","307","","","68","63","","","2","63","training","adjacent","EF","5","6","N.jpg","R.jpg","1","1","1","",""
"","feedback","","html-keyboard-response","407","456463","0.0-1.0-573.0-0.0","0","0","33002","","null","","","null","63","","","","","","","","","","","","","","","",""
"","ITI","","html-keyboard-response","408","457466","0.0-1.0-576.0","0","0","33002","","null","","","null","63","","","","","","","","","","","","","","","NaN",""
"","S1","","html-keyboard-response","409","457719","0.0-1.0-578.0","0","0","33002","","null","","","null","64","","","","","","","","","","","","","","","",""
"","ISI","","html-keyboard-response","410","458723","0.0-1.0-579.0","0","0","33002","","null","","","null","64","NaN","","","","","","","","","","","","","","",""
"","S2","","html-keyboard-response","411","458974","0.0-1.0-580.0","0","0","33002","","null","","","null","64","","NaN","","","","","","","","","","","","","",""
"","response","","html-keyboard-response","412","459923","0.0-1.0-581.0-0.0","0","0","33002","","948","","","75","64","","","2","64","training","adjacent","CB","3","2","O.jpg","L.jpg","0","0","1","",""
"","feedback","","html-keyboard-response","413","460926","0.0-1.0-582.0-0.0","0","0","33002","","null","","","null","64","","","","","","","","","","","","","","","",""
"","ITI","","html-keyboard-response","414","461931","0.0-1.0-585.0","0","0","33002","","null","","","null","64","","","","","","","","","","","","","","","NaN",""
"","S1","","html-keyboard-response","415","462183","0.0-1.0-587.0","0","0","33002","","null","","","null","65","","","","","","","","","","","","","","","",""
"","ISI","","html-keyboard-response","416","463186","0.0-1.0-588.0","0","0","33002","","null","","","null","65","NaN","","","","","","","","","","","","","","",""
"","S2","","html-keyboard-response","417","463439","0.0-1.0-589.0","0","0","33002","","null","","","null","65","","NaN","","","","","","","","","","","","","",""
"","response","","html-keyboard-response","418","463717","0.0-1.0-590.0-0.0","0","0","33002","","277","","","75","65","","","2","65","training","adjacent","FE","6","5","R.jpg","N.jpg","0","0","1","",""
"","feedback","","html-keyboard-response","419","464719","0.0-1.0-591.0-0.0","0","0","33002","","null","","","null","65","","","","","","","","","","","","","","","",""
"","ITI","","html-keyboard-response","420","465722","0.0-1.0-594.0","0","0","33002","","null","","","null","65","","","","","","","","","","","","","","","NaN",""
"","S1","","html-keyboard-response","421","465974","0.0-1.0-596.0","0","0","33002","","null","","","null","66","","","","","","","","","","","","","","","",""
"","ISI","","html-keyboard-response","422","466979","0.0-1.0-597.0","0","0","33002","","null","","","null","66","NaN","","","","","","","","","","","","","","",""
"","S2","","html-keyboard-response","423","467231","0.0-1.0-598.0","0","0","33002","","null","","","null","66","","NaN","","","","","","","","","","","","","",""
"","response","","html-keyboard-response","424","467431","0.0-1.0-599.0-0.0","0","0","33002","","198","","","68","66","","","2","66","training","adjacent","EF","5","6","N.jpg","R.jpg","1","1","1","",""
"","feedback","","html-keyboard-response","425","468434","0.0-1.0-600.0-0.0","0","0","33002","","null","","","null","66","","","","","","","","","","","","","","","",""
"","ITI","","html-keyboard-response","426","469435","0.0-1.0-603.0","0","0","33002","","null","","","null","66","","","","","","","","","","","","","","","NaN",""
"","S1","","html-keyboard-response","427","469690","0.0-1.0-605.0","0","0","33002","","null","","","null","67","","","","","","","","","","","","","","","",""
"","ISI","","html-keyboard-response","428","470694","0.0-1.0-606.0","0","0","33002","","null","","","null","67","NaN","","","","","","","","","","","","","","",""
"","S2","","html-keyboard-response","429","470947","0.0-1.0-607.0","0","0","33002","","null","","","null","67","","NaN","","","","","","","","","","","","","",""
"","response","","html-keyboard-response","430","471936","0.0-1.0-608.0-0.0","0","0","33002","","988","","","68","67","","","2","67","training","adjacent","BC","2","3","L.jpg","O.jpg","1","1","1","",""
"","feedback","","html-keyboard-response","431","472938","0.0-1.0-609.0-0.0","0","0","33002","","null","","","null","67","","","","","","","","","","","","","","","",""
"","ITI","","html-keyboard-response","432","473942","0.0-1.0-612.0","0","0","33002","","null","","","null","67","","","","","","","","","","","","","","","NaN",""
"","S1","","html-keyboard-response","433","474194","0.0-1.0-614.0","0","0","33002","","null","","","null","68","","","","","","","","","","","","","","","",""
"","ISI","","html-keyboard-response","434","475199","0.0-1.0-615.0","0","0","33002","","null","","","null","68","NaN","","","","","","","","","","","","","","",""
"","S2","","html-keyboard-response","435","475455","0.0-1.0-616.0","0","0","33002","","null","","","null","68","","NaN","","","","","","","","","","","","","",""
"","response","","html-keyboard-response","436","475921","0.0-1.0-617.0-0.0","0","0","33002","","465","","","75","68","","","2","68","training","adjacent","DE","4","5","P.jpg","N.jpg","0","1","0","",""
"","feedback","","html-keyboard-response","437","476923","0.0-1.0-618.0-0.0","0","0","33002","","null","","","null","68","","","","","","","","","","","","","","","",""
"","time_out","","html-keyboard-response","438","478927","0.0-1.0-620.0-0.0","0","0","33002","","null","","","null","68","","","","","","","","","","","","","","","",""
"","ITI","","html-keyboard-response","439","479930","0.0-1.0-621.0","0","0","33002","","null","","","null","68","","","","","","","","","","","","","","","NaN",""
"","S1","","html-keyboard-response","440","480182","0.0-1.0-623.0","0","0","33002","","null","","","null","69","","","","","","","","","","","","","","","",""
"","ISI","","html-keyboard-response","441","481183","0.0-1.0-624.0","0","0","33002","","null","","","null","69","NaN","","","","","","","","","","","","","","",""
"","S2","","html-keyboard-response","442","481435","0.0-1.0-625.0","0","0","33002","","null","","","null","69","","NaN","","","","","","","","","","","","","",""
"","response","","html-keyboard-response","443","482243","0.0-1.0-626.0-0.0","0","0","33002","","807","","","68","69","","","2","69","training","adjacent","CD","3","4","O.jpg","P.jpg","1","1","1","",""
"","feedback","","html-keyboard-response","444","483246","0.0-1.0-627.0-0.0","0","0","33002","","null","","","null","69","","","","","","","","","","","","","","","",""
"","ITI","","html-keyboard-response","445","484251","0.0-1.0-630.0","0","0","33002","","null","","","null","69","","","","","","","","","","","","","","","NaN",""
"","S1","","html-keyboard-response","446","484503","0.0-1.0-632.0","0","0","33002","","null","","","null","70","","","","","","","","","","","","","","","",""
"","ISI","","html-keyboard-response","447","485506","0.0-1.0-633.0","0","0","33002","","null","","","null","70","NaN","","","","","","","","","","","","","","",""
"","S2","","html-keyboard-response","448","485759","0.0-1.0-634.0","0","0","33002","","null","","","null","70","","NaN","","","","","","","","","","","","","",""
"","response","","html-keyboard-response","449","486029","0.0-1.0-635.0-0.0","0","0","33002","","269","","","75","70","","","2","70","training","adjacent","BA","2","1","L.jpg","M.jpg","0","0","1","",""
"","feedback","","html-keyboard-response","450","487035","0.0-1.0-636.0-0.0","0","0","33002","","null","","","null","70","","","","","","","","","","","","","","","",""
"","ITI","","html-keyboard-response","451","488038","0.0-1.0-639.0","0","0","33002","","null","","","null","70","","","","","","","","","","","","","","","NaN",""
"","S1","","html-keyboard-response","452","488291","0.0-1.0-641.0","0","0","33002","","null","","","null","71","","","","","","","","","","","","","","","",""
"","ISI","","html-keyboard-response","453","489295","0.0-1.0-642.0","0","0","33002","","null","","","null","71","NaN","","","","","","","","","","","","","","",""
"","S2","","html-keyboard-response","454","489550","0.0-1.0-643.0","0","0","33002","","null","","","null","71","","NaN","","","","","","","","","","","","","",""
"","response","","html-keyboard-response","455","490019","0.0-1.0-644.0-0.0","0","0","33002","","468","","","75","71","","","2","71","training","adjacent","CB","3","2","O.jpg","L.jpg","0","0","1","",""
"","feedback","","html-keyboard-response","456","491023","0.0-1.0-645.0-0.0","0","0","33002","","null","","","null","71","","","","","","","","","","","","","","","",""
"","ITI","","html-keyboard-response","457","492027","0.0-1.0-648.0","0","0","33002","","null","","","null","71","","","","","","","","","","","","","","","NaN",""
"","S1","","html-keyboard-response","458","492283","0.0-1.0-650.0","0","0","33002","","null","","","null","72","","","","","","","","","","","","","","","",""
"","ISI","","html-keyboard-response","459","493286","0.0-1.0-651.0","0","0","33002","","null","","","null","72","NaN","","","","","","","","","","","","","","",""
"","S2","","html-keyboard-response","460","493538","0.0-1.0-652.0","0","0","33002","","null","","","null","72","","NaN","","","","","","","","","","","","","",""
"","response","","html-keyboard-response","461","493998","0.0-1.0-653.0-0.0","0","0","33002","","459","","","75","72","","","2","72","training","adjacent","GF","7","6","Q.jpg","R.jpg","0","0","1","",""
"","feedback","","html-keyboard-response","462","495003","0.0-1.0-654.0-0.0","0","0","33002","","null","","","null","72","","","","","","","","","","","","","","","",""
"","ITI","","html-keyboard-response","463","496007","0.0-1.0-657.0","0","0","33002","","null","","","null","72","","","","","","","","","","","","","","","NaN",""
"","S1","","html-keyboard-response","464","496263","0.0-1.0-659.0","0","0","33002","","null","","","null","73","","","","","","","","","","","","","","","",""
"","ISI","","html-keyboard-response","465","497266","0.0-1.0-660.0","0","0","33002","","null","","","null","73","NaN","","","","","","","","","","","","","","",""
"","S2","","html-keyboard-response","466","497518","0.0-1.0-661.0","0","0","33002","","null","","","null","73","","NaN","","","","","","","","","","","","","",""
"","response","","html-keyboard-response","467","497988","0.0-1.0-662.0-0.0","0","0","33002","","469","","","75","73","","","2","73","training","adjacent","CB","3","2","O.jpg","L.jpg","0","0","1","",""
"","feedback","","html-keyboard-response","468","498991","0.0-1.0-663.0-0.0","0","0","33002","","null","","","null","73","","","","","","","","","","","","","","","",""
"","ITI","","html-keyboard-response","469","499996","0.0-1.0-666.0","0","0","33002","","null","","","null","73","","","","","","","","","","","","","","","NaN",""
"","S1","","html-keyboard-response","470","500250","0.0-1.0-668.0","0","0","33002","","null","","","null","74","","","","","","","","","","","","","","","",""
"","ISI","","html-keyboard-response","471","501254","0.0-1.0-669.0","0","0","33002","","null","","","null","74","NaN","","","","","","","","","","","","","","",""
"","S2","","html-keyboard-response","472","501506","0.0-1.0-670.0","0","0","33002","","null","","","null","74","","NaN","","","","","","","","","","","","","",""
"","response","","html-keyboard-response","473","501787","0.0-1.0-671.0-0.0","0","0","33002","","280","","","75","74","","","2","74","training","adjacent","GF","7","6","Q.jpg","R.jpg","0","0","1","",""
"","feedback","","html-keyboard-response","474","502791","0.0-1.0-672.0-0.0","0","0","33002","","null","","","null","74","","","","","","","","","","","","","","","",""
"","ITI","","html-keyboard-response","475","503794","0.0-1.0-675.0","0","0","33002","","null","","","null","74","","","","","","","","","","","","","","","NaN",""
"","S1","","html-keyboard-response","476","504046","0.0-1.0-677.0","0","0","33002","","null","","","null","75","","","","","","","","","","","","","","","",""
"","ISI","","html-keyboard-response","477","505050","0.0-1.0-678.0","0","0","33002","","null","","","null","75","NaN","","","","","","","","","","","","","","",""
"","S2","","html-keyboard-response","478","505303","0.0-1.0-679.0","0","0","33002","","null","","","null","75","","NaN","","","","","","","","","","","","","",""
"","response","","html-keyboard-response","479","505575","0.0-1.0-680.0-0.0","0","0","33002","","271","","","68","75","","","2","75","training","adjacent","FG","6","7","R.jpg","Q.jpg","1","1","1","",""
"","feedback","","html-keyboard-response","480","506579","0.0-1.0-681.0-0.0","0","0","33002","","null","","","null","75","","","","","","","","","","","","","","","",""
"","ITI","","html-keyboard-response","481","507583","0.0-1.0-684.0","0","0","33002","","null","","","null","75","","","","","","","","","","","","","","","NaN",""
"","S1","","html-keyboard-response","482","507835","0.0-1.0-686.0","0","0","33002","","null","","","null","76","","","","","","","","","","","","","","","",""
"","ISI","","html-keyboard-response","483","508838","0.0-1.0-687.0","0","0","33002","","null","","","null","76","NaN","","","","","","","","","","","","","","",""
"","S2","","html-keyboard-response","484","509091","0.0-1.0-688.0","0","0","33002","","null","","","null","76","","NaN","","","","","","","","","","","","","",""
"","response","","html-keyboard-response","485","509937","0.0-1.0-689.0-0.0","0","0","33002","","844","","","75","76","","","2","76","training","adjacent","BC","2","3","L.jpg","O.jpg","0","1","0","",""
"","feedback","","html-keyboard-response","486","510943","0.0-1.0-690.0-0.0","0","0","33002","","null","","","null","76","","","","","","","","","","","","","","","",""
"","time_out","","html-keyboard-response","487","512946","0.0-1.0-692.0-0.0","0","0","33002","","null","","","null","76","","","","","","","","","","","","","","","",""
"","ITI","","html-keyboard-response","488","513951","0.0-1.0-693.0","0","0","33002","","null","","","null","76","","","","","","","","","","","","","","","NaN",""
"","S1","","html-keyboard-response","489","514203","0.0-1.0-695.0","0","0","33002","","null","","","null","77","","","","","","","","","","","","","","","",""
"","ISI","","html-keyboard-response","490","515206","0.0-1.0-696.0","0","0","33002","","null","","","null","77","NaN","","","","","","","","","","","","","","",""
"","S2","","html-keyboard-response","491","515459","0.0-1.0-697.0","0","0","33002","","null","","","null","77","","NaN","","","","","","","","","","","","","",""
"","response","","html-keyboard-response","492","515837","0.0-1.0-698.0-0.0","0","0","33002","","377","","","75","77","","","2","77","training","adjacent","BA","2","1","L.jpg","M.jpg","0","0","1","",""
"","feedback","","html-keyboard-response","493","516843","0.0-1.0-699.0-0.0","0","0","33002","","null","","","null","77","","","","","","","","","","","","","","","",""
"","ITI","","html-keyboard-response","494","517846","0.0-1.0-702.0","0","0","33002","","null","","","null","77","","","","","","","","","","","","","","","NaN",""
"","S1","","html-keyboard-response","495","518098","0.0-1.0-704.0","0","0","33002","","null","","","null","78","","","","","","","","","","","","","","","",""
"","ISI","","html-keyboard-response","496","519102","0.0-1.0-705.0","0","0","33002","","null","","","null","78","NaN","","","","","","","","","","","","","","",""
"","S2","","html-keyboard-response","497","519354","0.0-1.0-706.0","0","0","33002","","null","","","null","78","","NaN","","","","","","","","","","","","","",""
"","response","","html-keyboard-response","498","520362","0.0-1.0-707.0-0.0","0","0","33002","","1006","","","75","78","","","2","78","training","adjacent","ED","5","4","N.jpg","P.jpg","0","0","1","",""
"","feedback","","html-keyboard-response","499","521367","0.0-1.0-708.0-0.0","0","0","33002","","null","","","null","78","","","","","","","","","","","","","","","",""
"","ITI","","html-keyboard-response","500","522370","0.0-1.0-711.0","0","0","33002","","null","","","null","78","","","","","","","","","","","","","","","NaN",""
"","S1","","html-keyboard-response","501","522623","0.0-1.0-713.0","0","0","33002","","null","","","null","79","","","","","","","","","","","","","","","",""
"","ISI","","html-keyboard-response","502","523627","0.0-1.0-714.0","0","0","33002","","null","","","null","79","NaN","","","","","","","","","","","","","","",""
"","S2","","html-keyboard-response","503","523879","0.0-1.0-715.0","0","0","33002","","null","","","null","79","","NaN","","","","","","","","","","","","","",""
"","response","","html-keyboard-response","504","524127","0.0-1.0-716.0-0.0","0","0","33002","","246","","","68","79","","","2","79","training","adjacent","EF","5","6","N.jpg","R.jpg","1","1","1","",""
"","feedback","","html-keyboard-response","505","525131","0.0-1.0-717.0-0.0","0","0","33002","","null","","","null","79","","","","","","","","","","","","","","","",""
"","ITI","","html-keyboard-response","506","526135","0.0-1.0-720.0","0","0","33002","","null","","","null","79","","","","","","","","","","","","","","","NaN",""
"","S1","","html-keyboard-response","507","526387","0.0-1.0-722.0","0","0","33002","","null","","","null","80","","","","","","","","","","","","","","","",""
"","ISI","","html-keyboard-response","508","527390","0.0-1.0-723.0","0","0","33002","","null","","","null","80","NaN","","","","","","","","","","","","","","",""
"","S2","","html-keyboard-response","509","527643","0.0-1.0-724.0","0","0","33002","","null","","","null","80","","NaN","","","","","","","","","","","","","",""
"","response","","html-keyboard-response","510","527762","0.0-1.0-725.0-0.0","0","0","33002","","118","","","68","80","","","2","80","training","adjacent","FG","6","7","R.jpg","Q.jpg","1","1","1","",""
"","feedback","","html-keyboard-response","511","528767","0.0-1.0-726.0-0.0","0","0","33002","","null","","","null","80","","","","","","","","","","","","","","","",""
"","ITI","","html-keyboard-response","512","529770","0.0-1.0-729.0","0","0","33002","","null","","","null","80","","","","","","","","","","","","","","","NaN",""
"","S1","","html-keyboard-response","513","530023","0.0-1.0-731.0","0","0","33002","","null","","","null","81","","","","","","","","","","","","","","","",""
"","ISI","","html-keyboard-response","514","531027","0.0-1.0-732.0","0","0","33002","","null","","","null","81","NaN","","","","","","","","","","","","","","",""
"","S2","","html-keyboard-response","515","531204","0.0-1.0-733.0","0","0","33002","","176","","","68","81","","d","2","81","training","adjacent","AB","1","2","M.jpg","L.jpg","1","1","1","",""
"","feedback","","html-keyboard-response","516","532206","0.0-1.0-735.0-0.0","0","0","33002","","null","","","null","81","","","","","","","","","","","","","","","",""
"","ITI","","html-keyboard-response","517","533207","0.0-1.0-738.0","0","0","33002","","null","","","null","81","","","","","","","","","","","","","","","NaN",""
"","S1","","html-keyboard-response","518","533463","0.0-1.0-740.0","0","0","33002","","null","","","null","82","","","","","","","","","","","","","","","",""
"","ISI","","html-keyboard-response","519","534467","0.0-1.0-741.0","0","0","33002","","null","","","null","82","NaN","","","","","","","","","","","","","","",""
"","S2","","html-keyboard-response","520","534723","0.0-1.0-742.0","0","0","33002","","null","","","null","82","","NaN","","","","","","","","","","","","","",""
"","response","","html-keyboard-response","521","535196","0.0-1.0-743.0-0.0","0","0","33002","","472","","","75","82","","","2","82","training","adjacent","BA","2","1","L.jpg","M.jpg","0","0","1","",""
"","feedback","","html-keyboard-response","522","536198","0.0-1.0-744.0-0.0","0","0","33002","","null","","","null","82","","","","","","","","","","","","","","","",""
"","ITI","","html-keyboard-response","523","537203","0.0-1.0-747.0","0","0","33002","","null","","","null","82","","","","","","","","","","","","","","","NaN",""
"","S1","","html-keyboard-response","524","537455","0.0-1.0-749.0","0","0","33002","","null","","","null","83","","","","","","","","","","","","","","","",""
"","ISI","","html-keyboard-response","525","538458","0.0-1.0-750.0","0","0","33002","","null","","","null","83","NaN","","","","","","","","","","","","","","",""
"","S2","","html-keyboard-response","526","538712","0.0-1.0-751.0","0","0","33002","","null","","","null","83","","NaN","","","","","","","","","","","","","",""
"","response","","html-keyboard-response","527","539879","0.0-1.0-752.0-0.0","0","0","33002","","1166","","","68","83","","","2","83","training","adjacent","DC","4","3","P.jpg","O.jpg","1","0","0","",""
"","feedback","","html-keyboard-response","528","540883","0.0-1.0-753.0-0.0","0","0","33002","","null","","","null","83","","","","","","","","","","","","","","","",""
"","time_out","","html-keyboard-response","529","542886","0.0-1.0-755.0-0.0","0","0","33002","","null","","","null","83","","","","","","","","","","","","","","","",""
"","ITI","","html-keyboard-response","530","543891","0.0-1.0-756.0","0","0","33002","","null","","","null","83","","","","","","","","","","","","","","","NaN",""
"","S1","","html-keyboard-response","531","544143","0.0-1.0-758.0","0","0","33002","","null","","","null","84","","","","","","","","","","","","","","","",""
"","ISI","","html-keyboard-response","532","545146","0.0-1.0-759.0","0","0","33002","","null","","","null","84","NaN","","","","","","","","","","","","","","",""
"","S2","","html-keyboard-response","533","545398","0.0-1.0-760.0","0","0","33002","","null","","","null","84","","NaN","","","","","","","","","","","","","",""
"","response","","html-keyboard-response","534","546192","0.0-1.0-761.0-0.0","0","0","33002","","793","","","68","84","","","2","84","training","adjacent","ED","5","4","N.jpg","P.jpg","1","0","0","",""
"","feedback","","html-keyboard-response","535","547195","0.0-1.0-762.0-0.0","0","0","33002","","null","","","null","84","","","","","","","","","","","","","","","",""
"","time_out","","html-keyboard-response","536","549198","0.0-1.0-764.0-0.0","0","0","33002","","null","","","null","84","","","","","","","","","","","","","","","",""
"","ITI","","html-keyboard-response","537","550203","0.0-1.0-765.0","0","0","33002","","null","","","null","84","","","","","","","","","","","","","","","NaN",""
"","S1","","html-keyboard-response","538","550455","0.0-1.0-767.0","0","0","33002","","null","","","null","85","","","","","","","","","","","","","","","",""
"","ISI","","html-keyboard-response","539","551458","0.0-1.0-768.0","0","0","33002","","null","","","null","85","NaN","","","","","","","","","","","","","","",""
"","S2","","html-keyboard-response","540","551710","0.0-1.0-769.0","0","0","33002","","null","","","null","85","","NaN","","","","","","","","","","","","","",""
"","response","","html-keyboard-response","541","551967","0.0-1.0-770.0-0.0","0","0","33002","","256","","","75","85","","","2","85","training","adjacent","GF","7","6","Q.jpg","R.jpg","0","0","1","",""
"","feedback","","html-keyboard-response","542","552971","0.0-1.0-771.0-0.0","0","0","33002","","null","","","null","85","","","","","","","","","","","","","","","",""
"","ITI","","html-keyboard-response","543","553975","0.0-1.0-774.0","0","0","33002","","null","","","null","85","","","","","","","","","","","","","","","NaN",""
"","S1","","html-keyboard-response","544","554231","0.0-1.0-776.0","0","0","33002","","null","","","null","86","","","","","","","","","","","","","","","",""
"","ISI","","html-keyboard-response","545","555234","0.0-1.0-777.0","0","0","33002","","979","","","68","86","d","","","","","","","","","","","","","","",""
"","S2","","html-keyboard-response","546","555444","0.0-1.0-778.0","0","0","33002","","208","","","68","86","","d","2","86","training","adjacent","AB","1","2","M.jpg","L.jpg","1","1","1","",""
"","feedback","","html-keyboard-response","547","556447","0.0-1.0-780.0-0.0","0","0","33002","","null","","","null","86","","","","","","","","","","","","","","","",""
"","ITI","","html-keyboard-response","548","557450","0.0-1.0-783.0","0","0","33002","","null","","","null","86","","","","","","","","","","","","","","","NaN",""
"","S1","","html-keyboard-response","549","557703","0.0-1.0-785.0","0","0","33002","","null","","","null","87","","","","","","","","","","","","","","","",""
"","ISI","","html-keyboard-response","550","558706","0.0-1.0-786.0","0","0","33002","","null","","","null","87","NaN","","","","","","","","","","","","","","",""
"","S2","","html-keyboard-response","551","558958","0.0-1.0-787.0","0","0","33002","","null","","","null","87","","NaN","","","","","","","","","","","","","",""
"","response","","html-keyboard-response","552","559657","0.0-1.0-788.0-0.0","0","0","33002","","698","","","75","87","","","2","87","training","adjacent","DC","4","3","P.jpg","O.jpg","0","0","1","",""
"","feedback","","html-keyboard-response","553","560663","0.0-1.0-789.0-0.0","0","0","33002","","null","","","null","87","","","","","","","","","","","","","","","",""
"","ITI","","html-keyboard-response","554","561666","0.0-1.0-792.0","0","0","33002","","null","","","null","87","","","","","","","","","","","","","","","NaN",""
"","S1","","html-keyboard-response","555","561918","0.0-1.0-794.0","0","0","33002","","null","","","null","88","","","","","","","","","","","","","","","",""
"","ISI","","html-keyboard-response","556","562922","0.0-1.0-795.0","0","0","33002","","null","","","null","88","NaN","","","","","","","","","","","","","","",""
"","S2","","html-keyboard-response","557","563175","0.0-1.0-796.0","0","0","33002","","null","","","null","88","","NaN","","","","","","","","","","","","","",""
"","response","","html-keyboard-response","558","563678","0.0-1.0-797.0-0.0","0","0","33002","","502","","","68","88","","","2","88","training","adjacent","DE","4","5","P.jpg","N.jpg","1","1","1","",""
"","feedback","","html-keyboard-response","559","564682","0.0-1.0-798.0-0.0","0","0","33002","","null","","","null","88","","","","","","","","","","","","","","","",""
"","ITI","","html-keyboard-response","560","565686","0.0-1.0-801.0","0","0","33002","","null","","","null","88","","","","","","","","","","","","","","","NaN",""
"","S1","","html-keyboard-response","561","565937","0.0-1.0-803.0","0","0","33002","","null","","","null","89","","","","","","","","","","","","","","","",""
"","ISI","","html-keyboard-response","562","566942","0.0-1.0-804.0","0","0","33002","","null","","","null","89","NaN","","","","","","","","","","","","","","",""
"","S2","","html-keyboard-response","563","567197","0.0-1.0-805.0","0","0","33002","","null","","","null","89","","NaN","","","","","","","","","","","","","",""
"","response","","html-keyboard-response","564","567678","0.0-1.0-806.0-0.0","0","0","33002","","480","","","68","89","","","2","89","training","adjacent","DE","4","5","P.jpg","N.jpg","1","1","1","",""
"","feedback","","html-keyboard-response","565","568682","0.0-1.0-807.0-0.0","0","0","33002","","null","","","null","89","","","","","","","","","","","","","","","",""
"","ITI","","html-keyboard-response","566","569685","0.0-1.0-810.0","0","0","33002","","null","","","null","89","","","","","","","","","","","","","","","NaN",""
"","S1","","html-keyboard-response","567","569938","0.0-1.0-812.0","0","0","33002","","null","","","null","90","","","","","","","","","","","","","","","",""
"","ISI","","html-keyboard-response","568","570942","0.0-1.0-813.0","0","0","33002","","924","","","68","90","d","","","","","","","","","","","","","","",""
"","S2","","html-keyboard-response","569","571097","0.0-1.0-814.0","0","0","33002","","154","","","68","90","","d","2","90","training","adjacent","AB","1","2","M.jpg","L.jpg","1","1","1","",""
"","feedback","","html-keyboard-response","570","572103","0.0-1.0-816.0-0.0","0","0","33002","","null","","","null","90","","","","","","","","","","","","","","","",""
"","ITI","","html-keyboard-response","571","573106","0.0-1.0-819.0","0","0","33002","","null","","","null","90","","","","","","","","","","","","","","","NaN",""
"","S1","","html-keyboard-response","572","573362","0.0-1.0-821.0","0","0","33002","","null","","","null","91","","","","","","","","","","","","","","","",""
"","ISI","","html-keyboard-response","573","574366","0.0-1.0-822.0","0","0","33002","","null","","","null","91","NaN","","","","","","","","","","","","","","",""
"","S2","","html-keyboard-response","574","574622","0.0-1.0-823.0","0","0","33002","","null","","","null","91","","NaN","","","","","","","","","","","","","",""
"","response","","html-keyboard-response","575","576034","0.0-1.0-824.0-0.0","0","0","33002","","1411","","","68","91","","","2","91","training","adjacent","CD","3","4","O.jpg","P.jpg","1","1","1","",""
"","feedback","","html-keyboard-response","576","577037","0.0-1.0-825.0-0.0","0","0","33002","","null","","","null","91","","","","","","","","","","","","","","","",""
"","ITI","","html-keyboard-response","577","578039","0.0-1.0-828.0","0","0","33002","","null","","","null","91","","","","","","","","","","","","","","","NaN",""
"","S1","","html-keyboard-response","578","578294","0.0-1.0-830.0","0","0","33002","","null","","","null","92","","","","","","","","","","","","","","","",""
"","ISI","","html-keyboard-response","579","579299","0.0-1.0-831.0","0","0","33002","","null","","","null","92","NaN","","","","","","","","","","","","","","",""
"","S2","","html-keyboard-response","580","579554","0.0-1.0-832.0","0","0","33002","","null","","","null","92","","NaN","","","","","","","","","","","","","",""
"","response","","html-keyboard-response","581","579696","0.0-1.0-833.0-0.0","0","0","33002","","141","","","68","92","","","2","92","training","adjacent","FG","6","7","R.jpg","Q.jpg","1","1","1","",""
"","feedback","","html-keyboard-response","582","580702","0.0-1.0-834.0-0.0","0","0","33002","","null","","","null","92","","","","","","","","","","","","","","","",""
