"success","ttype","start_time","trial_type","trial_index","time_elapsed","internal_node_id","warning","missed_checkup","PID","view_history","rt","responses","repeat_instructions","key_press","index","keypress_isi","keypress_S2","block","trial_num","phase","group_type","pair_type","S1_stim","S2_stim","S1_img","S2_img","S1_chosen","S1_higher","accuracy","keypress_iti","total_bonus_tally"
"true","full_screen","d03072023hr1840","fullscreen","0","14887","0.0-0.0","0","0","86113","","","","","","","","","","","","","","","","","","","","","",""
"","instructions","","instructions","1","106062","0.0-1.0-0.0-0.0","0","0","86113","[{""page_index"":0,""viewing_time"":15154},{""page_index"":1,""viewing_time"":54184},{""page_index"":2,""viewing_time"":19092},{""page_index"":3,""viewing_time"":2741}]","91172","","","","","","","","","","","","","","","","","","","",""
"","comprehension_check","","survey-multi-choice","2","135253","0.0-1.0-0.0-1.0","0","0","86113","","29185","{""Q0"":""True"",""Q1"":""K"",""Q2"":""Only when the screen 'MAKE A CHOICE' is shown"",""Q3"":""Green mark"",""Q4"":""either D or K""}","1","","","","","","","","","","","","","","","","","",""
"","missed_instruction_checkup","","html-keyboard-response","3","137834","0.0-1.0-0.0-2.0-0.0","0","1","86113","","2576","","","32","","","","","","","","","","","","","","","","",""
"","instructions","","instructions","4","155870","0.0-1.0-0.1-0.1","0","0","86113","[{""page_index"":0,""viewing_time"":5576},{""page_index"":1,""viewing_time"":10754},{""page_index"":2,""viewing_time"":834},{""page_index"":3,""viewing_time"":871}]","18035","","","","","","","","","","","","","","","","","","","",""
"","comprehension_check","","survey-multi-choice","5","170584","0.0-1.0-0.1-1.1","0","0","86113","","14708","{""Q0"":""True"",""Q1"":""K"",""Q2"":""Once the second image appears and while the screen 'MAKE A CHOICE' is shown"",""Q3"":""Green mark"",""Q4"":""either D or K""}","0","","","","","","","","","","","","","","","","","",""
"","start_exp","","html-keyboard-response","6","189781","0.0-1.0-1.0","0","0","86113","","19193","","","32","","","","","","","","","","","","","","","","",""
"","S1","","html-keyboard-response","7","190046","0.0-1.0-2.0","0","0","86113","","null","","","null","0","","","","","","","","","","","","","","","",""
"","ISI","","html-keyboard-response","8","191049","0.0-1.0-3.0","0","0","86113","","null","","","null","0","NaN","","","","","","","","","","","","","","",""
"","S2","","html-keyboard-response","9","191313","0.0-1.0-4.0","0","0","86113","","null","","","null","0","","NaN","","","","","","","","","","","","","",""
"","response","","html-keyboard-response","10","193071","0.0-1.0-5.0-0.0","0","0","86113","","null","","","null","0","","","1","0","training","adjacent","DC","4","3","M.jpg","L.jpg","NaN","0","0","",""
"","too_slow_prompt","","html-keyboard-response","11","194089","0.0-1.0-7.0-0.0","1","0","86113","","null","","","null","","","","","","","","","","","","","","","","",""
"","time_out","","html-keyboard-response","12","196094","0.0-1.0-8.0-0.0","0","0","86113","","null","","","null","0","","","","","","","","","","","","","","","",""
"","ITI","","html-keyboard-response","13","197096","0.0-1.0-9.0","0","0","86113","","null","","","null","0","","","","","","","","","","","","","","","NaN",""
"","S1","","html-keyboard-response","14","197351","0.0-1.0-11.0","0","0","86113","","null","","","null","1","","","","","","","","","","","","","","","",""
"","ISI","","html-keyboard-response","15","198353","0.0-1.0-12.0","0","0","86113","","null","","","null","1","NaN","","","","","","","","","","","","","","",""
"","S2","","html-keyboard-response","16","198616","0.0-1.0-13.0","0","0","86113","","null","","","null","1","","NaN","","","","","","","","","","","","","",""
"","response","","html-keyboard-response","17","199689","0.0-1.0-14.0-0.0","0","0","86113","","1071","","","75","1","","","1","1","training","adjacent","CB","3","2","L.jpg","P.jpg","1","0","0","",""
"","feedback","","html-keyboard-response","18","200706","0.0-1.0-15.0-0.0","0","0","86113","","null","","","null","1","","","","","","","","","","","","","","","",""
"","time_out","","html-keyboard-response","19","202712","0.0-1.0-17.0-0.0","0","0","86113","","null","","","null","1","","","","","","","","","","","","","","","",""
"","ITI","","html-keyboard-response","20","203715","0.0-1.0-18.0","0","0","86113","","null","","","null","1","","","","","","","","","","","","","","","NaN",""
"","S1","","html-keyboard-response","21","203970","0.0-1.0-20.0","0","0","86113","","null","","","null","2","","","","","","","","","","","","","","","",""
"","ISI","","html-keyboard-response","22","204972","0.0-1.0-21.0","0","0","86113","","null","","","null","2","NaN","","","","","","","","","","","","","","",""
"","S2","","html-keyboard-response","23","205235","0.0-1.0-22.0","0","0","86113","","null","","","null","2","","NaN","","","","","","","","","","","","","",""
"","response","","html-keyboard-response","24","206038","0.0-1.0-23.0-0.0","0","0","86113","","801","","","68","2","","","1","2","training","adjacent","GF","7","6","R.jpg","O.jpg","0","0","1","",""
"","feedback","","html-keyboard-response","25","207055","0.0-1.0-24.0-0.0","0","0","86113","","null","","","null","2","","","","","","","","","","","","","","","",""
"","ITI","","html-keyboard-response","26","208058","0.0-1.0-27.0","0","0","86113","","null","","","null","2","","","","","","","","","","","","","","","NaN",""
"","S1","","html-keyboard-response","27","208313","0.0-1.0-29.0","0","0","86113","","null","","","null","3","","","","","","","","","","","","","","","",""
"","ISI","","html-keyboard-response","28","209315","0.0-1.0-30.0","0","0","86113","","null","","","null","3","NaN","","","","","","","","","","","","","","",""
"","S2","","html-keyboard-response","29","209585","0.0-1.0-31.0","0","0","86113","","null","","","null","3","","NaN","","","","","","","","","","","","","",""
"","response","","html-keyboard-response","30","210064","0.0-1.0-32.0-0.0","0","0","86113","","477","","","75","3","","","1","3","training","adjacent","CB","3","2","L.jpg","P.jpg","1","0","0","",""
"","feedback","","html-keyboard-response","31","211067","0.0-1.0-33.0-0.0","0","0","86113","","null","","","null","3","","","","","","","","","","","","","","","",""
"","time_out","","html-keyboard-response","32","213072","0.0-1.0-35.0-0.0","0","0","86113","","null","","","null","3","","","","","","","","","","","","","","","",""
"","ITI","","html-keyboard-response","33","214075","0.0-1.0-36.0","0","0","86113","","null","","","null","3","","","","","","","","","","","","","","","NaN",""
"","S1","","html-keyboard-response","34","214329","0.0-1.0-38.0","0","0","86113","","null","","","null","4","","","","","","","","","","","","","","","",""
"","ISI","","html-keyboard-response","35","215332","0.0-1.0-39.0","0","0","86113","","null","","","null","4","NaN","","","","","","","","","","","","","","",""
"","S2","","html-keyboard-response","36","215601","0.0-1.0-40.0","0","0","86113","","null","","","null","4","","NaN","","","","","","","","","","","","","",""
"","response","","html-keyboard-response","37","216190","0.0-1.0-41.0-0.0","0","0","86113","","586","","","75","4","","","1","4","training","adjacent","CB","3","2","L.jpg","P.jpg","1","0","0","",""
"","feedback","","html-keyboard-response","38","217206","0.0-1.0-42.0-0.0","0","0","86113","","null","","","null","4","","","","","","","","","","","","","","","",""
"","time_out","","html-keyboard-response","39","219211","0.0-1.0-44.0-0.0","0","0","86113","","null","","","null","4","","","","","","","","","","","","","","","",""
"","ITI","","html-keyboard-response","40","220228","0.0-1.0-45.0","0","0","86113","","null","","","null","4","","","","","","","","","","","","","","","NaN",""
"","S1","","html-keyboard-response","41","220492","0.0-1.0-47.0","0","0","86113","","null","","","null","5","","","","","","","","","","","","","","","",""
"","ISI","","html-keyboard-response","42","221494","0.0-1.0-48.0","0","0","86113","","null","","","null","5","NaN","","","","","","","","","","","","","","",""
"","S2","","html-keyboard-response","43","221748","0.0-1.0-49.0","0","0","86113","","null","","","null","5","","NaN","","","","","","","","","","","","","",""
"","response","","html-keyboard-response","44","222549","0.0-1.0-50.0-0.0","0","0","86113","","799","","","75","5","","","1","5","training","adjacent","BA","2","1","P.jpg","Q.jpg","1","0","0","",""
"","feedback","","html-keyboard-response","45","223553","0.0-1.0-51.0-0.0","0","0","86113","","null","","","null","5","","","","","","","","","","","","","","","",""
"","time_out","","html-keyboard-response","46","225559","0.0-1.0-53.0-0.0","0","0","86113","","null","","","null","5","","","","","","","","","","","","","","","",""
"","ITI","","html-keyboard-response","47","226563","0.0-1.0-54.0","0","0","86113","","null","","","null","5","","","","","","","","","","","","","","","NaN",""
"","S1","","html-keyboard-response","48","226831","0.0-1.0-56.0","0","0","86113","","null","","","null","6","","","","","","","","","","","","","","","",""
"","ISI","","html-keyboard-response","49","227854","0.0-1.0-57.0","0","0","86113","","null","","","null","6","NaN","","","","","","","","","","","","","","",""
"","S2","","html-keyboard-response","50","228117","0.0-1.0-58.0","0","0","86113","","null","","","null","6","","NaN","","","","","","","","","","","","","",""
"","response","","html-keyboard-response","51","228488","0.0-1.0-59.0-0.0","0","0","86113","","368","","","68","6","","","1","6","training","adjacent","CB","3","2","L.jpg","P.jpg","0","0","1","",""
"","feedback","","html-keyboard-response","52","229505","0.0-1.0-60.0-0.0","0","0","86113","","null","","","null","6","","","","","","","","","","","","","","","",""
"","ITI","","html-keyboard-response","53","230508","0.0-1.0-63.0","0","0","86113","","null","","","null","6","","","","","","","","","","","","","","","NaN",""
"","S1","","html-keyboard-response","54","230762","0.0-1.0-65.0","0","0","86113","","null","","","null","7","","","","","","","","","","","","","","","",""
"","ISI","","html-keyboard-response","55","231764","0.0-1.0-66.0","0","0","86113","","null","","","null","7","NaN","","","","","","","","","","","","","","",""
"","S2","","html-keyboard-response","56","232028","0.0-1.0-67.0","0","0","86113","","null","","","null","7","","NaN","","","","","","","","","","","","","",""
"","response","","html-keyboard-response","57","232240","0.0-1.0-68.0-0.0","0","0","86113","","211","","","68","7","","","1","7","training","adjacent","CD","3","4","L.jpg","M.jpg","0","1","0","",""
"","feedback","","html-keyboard-response","58","233247","0.0-1.0-69.0-0.0","0","0","86113","","null","","","null","7","","","","","","","","","","","","","","","",""
"","time_out","","html-keyboard-response","59","235251","0.0-1.0-71.0-0.0","0","0","86113","","null","","","null","7","","","","","","","","","","","","","","","",""
"","ITI","","html-keyboard-response","60","236253","0.0-1.0-72.0","0","0","86113","","null","","","null","7","","","","","","","","","","","","","","","NaN",""
"","S1","","html-keyboard-response","61","236506","0.0-1.0-74.0","0","0","86113","","null","","","null","8","","","","","","","","","","","","","","","",""
"","ISI","","html-keyboard-response","62","237509","0.0-1.0-75.0","0","0","86113","","null","","","null","8","NaN","","","","","","","","","","","","","","",""
"","S2","","html-keyboard-response","63","237780","0.0-1.0-76.0","0","0","86113","","null","","","null","8","","NaN","","","","","","","","","","","","","",""
"","response","","html-keyboard-response","64","238262","0.0-1.0-77.0-0.0","0","0","86113","","481","","","75","8","","","1","8","training","adjacent","EF","5","6","N.jpg","O.jpg","1","1","1","",""
"","feedback","","html-keyboard-response","65","239270","0.0-1.0-78.0-0.0","0","0","86113","","null","","","null","8","","","","","","","","","","","","","","","",""
"","ITI","","html-keyboard-response","66","240272","0.0-1.0-81.0","0","0","86113","","null","","","null","8","","","","","","","","","","","","","","","NaN",""
"","S1","","html-keyboard-response","67","240526","0.0-1.0-83.0","0","0","86113","","null","","","null","9","","","","","","","","","","","","","","","",""
"","ISI","","html-keyboard-response","68","241529","0.0-1.0-84.0","0","0","86113","","null","","","null","9","NaN","","","","","","","","","","","","","","",""
"","S2","","html-keyboard-response","69","241791","0.0-1.0-85.0","0","0","86113","","null","","","null","9","","NaN","","","","","","","","","","","","","",""
"","response","","html-keyboard-response","70","242329","0.0-1.0-86.0-0.0","0","0","86113","","535","","","68","9","","","1","9","training","adjacent","GF","7","6","R.jpg","O.jpg","0","0","1","",""
"","feedback","","html-keyboard-response","71","243334","0.0-1.0-87.0-0.0","0","0","86113","","null","","","null","9","","","","","","","","","","","","","","","",""
"","ITI","","html-keyboard-response","72","244336","0.0-1.0-90.0","0","0","86113","","null","","","null","9","","","","","","","","","","","","","","","NaN",""
"","S1","","html-keyboard-response","73","244599","0.0-1.0-92.0","0","0","86113","","null","","","null","10","","","","","","","","","","","","","","","",""
"","ISI","","html-keyboard-response","74","245602","0.0-1.0-93.0","0","0","86113","","null","","","null","10","NaN","","","","","","","","","","","","","","",""
"","S2","","html-keyboard-response","75","245856","0.0-1.0-94.0","0","0","86113","","null","","","null","10","","NaN","","","","","","","","","","","","","",""
"","response","","html-keyboard-response","76","246168","0.0-1.0-95.0-0.0","0","0","86113","","310","","","75","10","","","1","10","training","adjacent","BC","2","3","P.jpg","L.jpg","1","1","1","",""
"","feedback","","html-keyboard-response","77","247180","0.0-1.0-96.0-0.0","0","0","86113","","null","","","null","10","","","","","","","","","","","","","","","",""
"","ITI","","html-keyboard-response","78","248187","0.0-1.0-99.0","0","0","86113","","null","","","null","10","","","","","","","","","","","","","","","NaN",""
"","S1","","html-keyboard-response","79","248450","0.0-1.0-101.0","0","0","86113","","null","","","null","11","","","","","","","","","","","","","","","",""
"","ISI","","html-keyboard-response","80","249452","0.0-1.0-102.0","0","0","86113","","null","","","null","11","NaN","","","","","","","","","","","","","","",""
"","S2","","html-keyboard-response","81","249706","0.0-1.0-103.0","0","0","86113","","null","","","null","11","","NaN","","","","","","","","","","","","","",""
"","response","","html-keyboard-response","82","250096","0.0-1.0-104.0-0.0","0","0","86113","","388","","","68","11","","","1","11","training","adjacent","EF","5","6","N.jpg","O.jpg","0","1","0","",""
"","feedback","","html-keyboard-response","83","251110","0.0-1.0-105.0-0.0","0","0","86113","","null","","","null","11","","","","","","","","","","","","","","","",""
"","time_out","","html-keyboard-response","84","253116","0.0-1.0-107.0-0.0","0","0","86113","","null","","","null","11","","","","","","","","","","","","","","","",""
"","ITI","","html-keyboard-response","85","254119","0.0-1.0-108.0","0","0","86113","","null","","","null","11","","","","","","","","","","","","","","","NaN",""
"","S1","","html-keyboard-response","86","254382","0.0-1.0-110.0","0","0","86113","","null","","","null","12","","","","","","","","","","","","","","","",""
"","ISI","","html-keyboard-response","87","255385","0.0-1.0-111.0","0","0","86113","","null","","","null","12","NaN","","","","","","","","","","","","","","",""
"","S2","","html-keyboard-response","88","255638","0.0-1.0-112.0","0","0","86113","","null","","","null","12","","NaN","","","","","","","","","","","","","",""
"","response","","html-keyboard-response","89","256006","0.0-1.0-113.0-0.0","0","0","86113","","366","","","75","12","","","1","12","training","adjacent","DE","4","5","M.jpg","N.jpg","1","1","1","",""
"","feedback","","html-keyboard-response","90","257012","0.0-1.0-114.0-0.0","0","0","86113","","null","","","null","12","","","","","","","","","","","","","","","",""
"","ITI","","html-keyboard-response","91","258030","0.0-1.0-117.0","0","0","86113","","null","","","null","12","","","","","","","","","","","","","","","NaN",""
"","S1","","html-keyboard-response","92","258293","0.0-1.0-119.0","0","0","86113","","null","","","null","13","","","","","","","","","","","","","","","",""
"","ISI","","html-keyboard-response","93","259296","0.0-1.0-120.0","0","0","86113","","null","","","null","13","NaN","","","","","","","","","","","","","","",""
"","S2","","html-keyboard-response","94","259551","0.0-1.0-121.0","0","0","86113","","null","","","null","13","","NaN","","","","","","","","","","","","","",""
"","response","","html-keyboard-response","95","259931","0.0-1.0-122.0-0.0","0","0","86113","","378","","","75","13","","","1","13","training","adjacent","GF","7","6","R.jpg","O.jpg","1","0","0","",""
"","feedback","","html-keyboard-response","96","260938","0.0-1.0-123.0-0.0","0","0","86113","","null","","","null","13","","","","","","","","","","","","","","","",""
"","time_out","","html-keyboard-response","97","262943","0.0-1.0-125.0-0.0","0","0","86113","","null","","","null","13","","","","","","","","","","","","","","","",""
"","ITI","","html-keyboard-response","98","263947","0.0-1.0-126.0","0","0","86113","","null","","","null","13","","","","","","","","","","","","","","","NaN",""
"","S1","","html-keyboard-response","99","264210","0.0-1.0-128.0","0","0","86113","","null","","","null","14","","","","","","","","","","","","","","","",""
"","ISI","","html-keyboard-response","100","265212","0.0-1.0-129.0","0","0","86113","","null","","","null","14","NaN","","","","","","","","","","","","","","",""
"","S2","","html-keyboard-response","101","265466","0.0-1.0-130.0","0","0","86113","","null","","","null","14","","NaN","","","","","","","","","","","","","",""
"","response","","html-keyboard-response","102","265900","0.0-1.0-131.0-0.0","0","0","86113","","432","","","75","14","","","1","14","training","adjacent","FE","6","5","O.jpg","N.jpg","1","0","0","",""
"","feedback","","html-keyboard-response","103","266916","0.0-1.0-132.0-0.0","0","0","86113","","null","","","null","14","","","","","","","","","","","","","","","",""
"","time_out","","html-keyboard-response","104","268922","0.0-1.0-134.0-0.0","0","0","86113","","null","","","null","14","","","","","","","","","","","","","","","",""
"","ITI","","html-keyboard-response","105","269925","0.0-1.0-135.0","0","0","86113","","null","","","null","14","","","","","","","","","","","","","","","NaN",""
"","S1","","html-keyboard-response","106","270179","0.0-1.0-137.0","0","0","86113","","null","","","null","15","","","","","","","","","","","","","","","",""
"","ISI","","html-keyboard-response","107","271183","0.0-1.0-138.0","0","0","86113","","null","","","null","15","NaN","","","","","","","","","","","","","","",""
"","S2","","html-keyboard-response","108","271452","0.0-1.0-139.0","0","0","86113","","null","","","null","15","","NaN","","","","","","","","","","","","","",""
"","response","","html-keyboard-response","109","271839","0.0-1.0-140.0-0.0","0","0","86113","","385","","","68","15","","","1","15","training","adjacent","DC","4","3","M.jpg","L.jpg","0","0","1","",""
"","feedback","","html-keyboard-response","110","272856","0.0-1.0-141.0-0.0","0","0","86113","","null","","","null","15","","","","","","","","","","","","","","","",""
"","ITI","","html-keyboard-response","111","273859","0.0-1.0-144.0","0","0","86113","","null","","","null","15","","","","","","","","","","","","","","","NaN",""
"","S1","","html-keyboard-response","112","274122","0.0-1.0-146.0","0","0","86113","","null","","","null","16","","","","","","","","","","","","","","","",""
"","ISI","","html-keyboard-response","113","275140","0.0-1.0-147.0","0","0","86113","","null","","","null","16","NaN","","","","","","","","","","","","","","",""
"","S2","","html-keyboard-response","114","275394","0.0-1.0-148.0","0","0","86113","","null","","","null","16","","NaN","","","","","","","","","","","","","",""
"","response","","html-keyboard-response","115","275580","0.0-1.0-149.0-0.0","0","0","86113","","183","","","75","16","","","1","16","training","adjacent","DE","4","5","M.jpg","N.jpg","1","1","1","",""
"","feedback","","html-keyboard-response","116","276597","0.0-1.0-150.0-0.0","0","0","86113","","null","","","null","16","","","","","","","","","","","","","","","",""
"","ITI","","html-keyboard-response","117","277600","0.0-1.0-153.0","0","0","86113","","null","","","null","16","","","","","","","","","","","","","","","NaN",""
"","S1","","html-keyboard-response","118","277870","0.0-1.0-155.0","0","0","86113","","null","","","null","17","","","","","","","","","","","","","","","",""
"","ISI","","html-keyboard-response","119","278873","0.0-1.0-156.0","0","0","86113","","null","","","null","17","NaN","","","","","","","","","","","","","","",""
"","S2","","html-keyboard-response","120","279133","0.0-1.0-157.0","0","0","86113","","null","","","null","17","","NaN","","","","","","","","","","","","","",""
"","response","","html-keyboard-response","121","279437","0.0-1.0-158.0-0.0","0","0","86113","","303","","","68","17","","","1","17","training","adjacent","AB","1","2","Q.jpg","P.jpg","0","1","0","",""
"","feedback","","html-keyboard-response","122","280440","0.0-1.0-159.0-0.0","0","0","86113","","null","","","null","17","","","","","","","","","","","","","","","",""
"","time_out","","html-keyboard-response","123","282445","0.0-1.0-161.0-0.0","0","0","86113","","null","","","null","17","","","","","","","","","","","","","","","",""
"","ITI","","html-keyboard-response","124","283448","0.0-1.0-162.0","0","0","86113","","null","","","null","17","","","","","","","","","","","","","","","NaN",""
"","S1","","html-keyboard-response","125","283701","0.0-1.0-164.0","0","0","86113","","null","","","null","18","","","","","","","","","","","","","","","",""
"","ISI","","html-keyboard-response","126","284704","0.0-1.0-165.0","0","0","86113","","null","","","null","18","NaN","","","","","","","","","","","","","","",""
"","S2","","html-keyboard-response","127","284974","0.0-1.0-166.0","0","0","86113","","null","","","null","18","","NaN","","","","","","","","","","","","","",""
"","response","","html-keyboard-response","128","285463","0.0-1.0-167.0-0.0","0","0","86113","","487","","","68","18","","","1","18","training","adjacent","FG","6","7","O.jpg","R.jpg","0","1","0","",""
"","feedback","","html-keyboard-response","129","286477","0.0-1.0-168.0-0.0","0","0","86113","","null","","","null","18","","","","","","","","","","","","","","","",""
"","time_out","","html-keyboard-response","130","288482","0.0-1.0-170.0-0.0","0","0","86113","","null","","","null","18","","","","","","","","","","","","","","","",""
"","ITI","","html-keyboard-response","131","289485","0.0-1.0-171.0","0","0","86113","","null","","","null","18","","","","","","","","","","","","","","","NaN",""
"","S1","","html-keyboard-response","132","289748","0.0-1.0-173.0","0","0","86113","","null","","","null","19","","","","","","","","","","","","","","","",""
"","ISI","","html-keyboard-response","133","290751","0.0-1.0-174.0","0","0","86113","","null","","","null","19","NaN","","","","","","","","","","","","","","",""
"","S2","","html-keyboard-response","134","291005","0.0-1.0-175.0","0","0","86113","","null","","","null","19","","NaN","","","","","","","","","","","","","",""
"","response","","html-keyboard-response","135","291096","0.0-1.0-176.0-0.0","0","0","86113","","90","","","75","19","","","1","19","training","adjacent","ED","5","4","N.jpg","M.jpg","1","0","0","",""
"","feedback","","html-keyboard-response","136","292108","0.0-1.0-177.0-0.0","0","0","86113","","null","","","null","19","","","","","","","","","","","","","","","",""
"","time_out","","html-keyboard-response","137","294113","0.0-1.0-179.0-0.0","0","0","86113","","null","","","null","19","","","","","","","","","","","","","","","",""
"","ITI","","html-keyboard-response","138","295115","0.0-1.0-180.0","0","0","86113","","null","","","null","19","","","","","","","","","","","","","","","NaN",""
"","S1","","html-keyboard-response","139","295378","0.0-1.0-182.0","0","0","86113","","null","","","null","20","","","","","","","","","","","","","","","",""
"","ISI","","html-keyboard-response","140","296390","0.0-1.0-183.0","0","0","86113","","null","","","null","20","NaN","","","","","","","","","","","","","","",""
"","S2","","html-keyboard-response","141","296660","0.0-1.0-184.0","0","0","86113","","null","","","null","20","","NaN","","","","","","","","","","","","","",""
"","response","","html-keyboard-response","142","296696","0.0-1.0-185.0-0.0","0","0","86113","","34","","","68","20","","","1","20","training","adjacent","BA","2","1","P.jpg","Q.jpg","0","0","1","",""
"","feedback","","html-keyboard-response","143","297709","0.0-1.0-186.0-0.0","0","0","86113","","null","","","null","20","","","","","","","","","","","","","","","",""
"","ITI","","html-keyboard-response","144","298711","0.0-1.0-189.0","0","0","86113","","null","","","null","20","","","","","","","","","","","","","","","NaN",""
"","S1","","html-keyboard-response","145","298966","0.0-1.0-191.0","0","0","86113","","null","","","null","21","","","","","","","","","","","","","","","",""
"","ISI","","html-keyboard-response","146","299968","0.0-1.0-192.0","0","0","86113","","null","","","null","21","NaN","","","","","","","","","","","","","","",""
"","S2","","html-keyboard-response","147","300232","0.0-1.0-193.0","0","0","86113","","null","","","null","21","","NaN","","","","","","","","","","","","","",""
"","response","","html-keyboard-response","148","300334","0.0-1.0-194.0-0.0","0","0","86113","","101","","","75","21","","","1","21","training","adjacent","AB","1","2","Q.jpg","P.jpg","1","1","1","",""
"","feedback","","html-keyboard-response","149","301350","0.0-1.0-195.0-0.0","0","0","86113","","null","","","null","21","","","","","","","","","","","","","","","",""
"","ITI","","html-keyboard-response","150","302352","0.0-1.0-198.0","0","0","86113","","null","","","null","21","","","","","","","","","","","","","","","NaN",""
"","S1","","html-keyboard-response","151","302606","0.0-1.0-200.0","0","0","86113","","null","","","null","22","","","","","","","","","","","","","","","",""
"","ISI","","html-keyboard-response","152","303610","0.0-1.0-201.0","0","0","86113","","null","","","null","22","NaN","","","","","","","","","","","","","","",""
"","S2","","html-keyboard-response","153","303879","0.0-1.0-202.0","0","0","86113","","null","","","null","22","","NaN","","","","","","","","","","","","","",""
"","response","","html-keyboard-response","154","304129","0.0-1.0-203.0-0.0","0","0","86113","","247","","","68","22","","","1","22","training","adjacent","ED","5","4","N.jpg","M.jpg","0","0","1","",""
"","feedback","","html-keyboard-response","155","305144","0.0-1.0-204.0-0.0","0","0","86113","","null","","","null","22","","","","","","","","","","","","","","","",""
"","ITI","","html-keyboard-response","156","306147","0.0-1.0-207.0","0","0","86113","","null","","","null","22","","","","","","","","","","","","","","","NaN",""
"","S1","","html-keyboard-response","157","306401","0.0-1.0-209.0","0","0","86113","","null","","","null","23","","","","","","","","","","","","","","","",""
"","ISI","","html-keyboard-response","158","307403","0.0-1.0-210.0","0","0","86113","","null","","","null","23","NaN","","","","","","","","","","","","","","",""
"","S2","","html-keyboard-response","159","307666","0.0-1.0-211.0","0","0","86113","","null","","","null","23","","NaN","","","","","","","","","","","","","",""
"","response","","html-keyboard-response","160","307769","0.0-1.0-212.0-0.0","0","0","86113","","101","","","68","23","","","1","23","training","adjacent","FE","6","5","O.jpg","N.jpg","0","0","1","",""
"","feedback","","html-keyboard-response","161","308791","0.0-1.0-213.0-0.0","0","0","86113","","null","","","null","23","","","","","","","","","","","","","","","",""
"","ITI","","html-keyboard-response","162","309793","0.0-1.0-216.0","0","0","86113","","null","","","null","23","","","","","","","","","","","","","","","NaN",""
"","S1","","html-keyboard-response","163","310055","0.0-1.0-218.0","0","0","86113","","null","","","null","24","","","","","","","","","","","","","","","",""
"","ISI","","html-keyboard-response","164","311059","0.0-1.0-219.0","0","0","86113","","null","","","null","24","NaN","","","","","","","","","","","","","","",""
"","S2","","html-keyboard-response","165","311307","0.0-1.0-220.0","0","0","86113","","246","","","68","24","","d","1","24","training","adjacent","FG","6","7","O.jpg","R.jpg","0","1","0","",""
"","feedback","","html-keyboard-response","166","312321","0.0-1.0-222.0-0.0","0","0","86113","","null","","","null","24","","","","","","","","","","","","","","","",""
"","time_out","","html-keyboard-response","167","314338","0.0-1.0-224.0-0.0","0","0","86113","","null","","","null","24","","","","","","","","","","","","","","","",""
"","ITI","","html-keyboard-response","168","315340","0.0-1.0-225.0","0","0","86113","","null","","","null","24","","","","","","","","","","","","","","","NaN",""
"","S1","","html-keyboard-response","169","315595","0.0-1.0-227.0","0","0","86113","","null","","","null","25","","","","","","","","","","","","","","","",""
"","ISI","","html-keyboard-response","170","316612","0.0-1.0-228.0","0","0","86113","","null","","","null","25","NaN","","","","","","","","","","","","","","",""
"","S2","","html-keyboard-response","171","316875","0.0-1.0-229.0","0","0","86113","","null","","","null","25","","NaN","","","","","","","","","","","","","",""
"","response","","html-keyboard-response","172","316922","0.0-1.0-230.0-0.0","0","0","86113","","44","","","68","25","","","1","25","training","adjacent","DE","4","5","M.jpg","N.jpg","0","1","0","",""
"","feedback","","html-keyboard-response","173","317930","0.0-1.0-231.0-0.0","0","0","86113","","null","","","null","25","","","","","","","","","","","","","","","",""
"","time_out","","html-keyboard-response","174","319935","0.0-1.0-233.0-0.0","0","0","86113","","null","","","null","25","","","","","","","","","","","","","","","",""
"","ITI","","html-keyboard-response","175","320939","0.0-1.0-234.0","0","0","86113","","null","","","null","25","","","","","","","","","","","","","","","NaN",""
"","S1","","html-keyboard-response","176","321209","0.0-1.0-236.0","0","0","86113","","null","","","null","26","","","","","","","","","","","","","","","",""
"","ISI","","html-keyboard-response","177","322211","0.0-1.0-237.0","0","0","86113","","null","","","null","26","NaN","","","","","","","","","","","","","","",""
"","S2","","html-keyboard-response","178","322474","0.0-1.0-238.0","0","0","86113","","null","","","null","26","","NaN","","","","","","","","","","","","","",""
"","response","","html-keyboard-response","179","322554","0.0-1.0-239.0-0.0","0","0","86113","","79","","","68","26","","","1","26","training","adjacent","CD","3","4","L.jpg","M.jpg","0","1","0","",""
"","feedback","","html-keyboard-response","180","323562","0.0-1.0-240.0-0.0","0","0","86113","","null","","","null","26","","","","","","","","","","","","","","","",""
"","time_out","","html-keyboard-response","181","325570","0.0-1.0-242.0-0.0","0","0","86113","","null","","","null","26","","","","","","","","","","","","","","","",""
"","ITI","","html-keyboard-response","182","326573","0.0-1.0-243.0","0","0","86113","","null","","","null","26","","","","","","","","","","","","","","","NaN",""
"","S1","","html-keyboard-response","183","326827","0.0-1.0-245.0","0","0","86113","","null","","","null","27","","","","","","","","","","","","","","","",""
"","ISI","","html-keyboard-response","184","327830","0.0-1.0-246.0","0","0","86113","","null","","","null","27","NaN","","","","","","","","","","","","","","",""
"","S2","","html-keyboard-response","185","328093","0.0-1.0-247.0","0","0","86113","","null","","","null","27","","NaN","","","","","","","","","","","","","",""
"","response","","html-keyboard-response","186","328630","0.0-1.0-248.0-0.0","0","0","86113","","534","","","75","27","","","1","27","training","adjacent","DC","4","3","M.jpg","L.jpg","1","0","0","",""
"","feedback","","html-keyboard-response","187","329634","0.0-1.0-249.0-0.0","0","0","86113","","null","","","null","27","","","","","","","","","","","","","","","",""
"","time_out","","html-keyboard-response","188","331640","0.0-1.0-251.0-0.0","0","0","86113","","null","","","null","27","","","","","","","","","","","","","","","",""
"","ITI","","html-keyboard-response","189","332642","0.0-1.0-252.0","0","0","86113","","null","","","null","27","","","","","","","","","","","","","","","NaN",""
"","S1","","html-keyboard-response","190","332905","0.0-1.0-254.0","0","0","86113","","null","","","null","28","","","","","","","","","","","","","","","",""
"","ISI","","html-keyboard-response","191","333907","0.0-1.0-255.0","0","0","86113","","null","","","null","28","NaN","","","","","","","","","","","","","","",""
"","S2","","html-keyboard-response","192","334161","0.0-1.0-256.0","0","0","86113","","null","","","null","28","","NaN","","","","","","","","","","","","","",""
"","response","","html-keyboard-response","193","334242","0.0-1.0-257.0-0.0","0","0","86113","","79","","","68","28","","","1","28","training","adjacent","ED","5","4","N.jpg","M.jpg","0","0","1","",""
"","feedback","","html-keyboard-response","194","335248","0.0-1.0-258.0-0.0","0","0","86113","","null","","","null","28","","","","","","","","","","","","","","","",""
"","ITI","","html-keyboard-response","195","336251","0.0-1.0-261.0","0","0","86113","","null","","","null","28","","","","","","","","","","","","","","","NaN",""
"","S1","","html-keyboard-response","196","336514","0.0-1.0-263.0","0","0","86113","","null","","","null","29","","","","","","","","","","","","","","","",""
"","ISI","","html-keyboard-response","197","337517","0.0-1.0-264.0","0","0","86113","","null","","","null","29","NaN","","","","","","","","","","","","","","",""
"","S2","","html-keyboard-response","198","337770","0.0-1.0-265.0","0","0","86113","","null","","","null","29","","NaN","","","","","","","","","","","","","",""
"","response","","html-keyboard-response","199","337976","0.0-1.0-266.0-0.0","0","0","86113","","204","","","68","29","","","1","29","training","adjacent","EF","5","6","N.jpg","O.jpg","0","1","0","",""
"","feedback","","html-keyboard-response","200","338989","0.0-1.0-267.0-0.0","0","0","86113","","null","","","null","29","","","","","","","","","","","","","","","",""
"","time_out","","html-keyboard-response","201","340994","0.0-1.0-269.0-0.0","0","0","86113","","null","","","null","29","","","","","","","","","","","","","","","",""
"","ITI","","html-keyboard-response","202","341997","0.0-1.0-270.0","0","0","86113","","null","","","null","29","","","","","","","","","","","","","","","NaN",""
"","S1","","html-keyboard-response","203","342251","0.0-1.0-272.0","0","0","86113","","null","","","null","30","","","","","","","","","","","","","","","",""
"","ISI","","html-keyboard-response","204","343254","0.0-1.0-273.0","0","0","86113","","null","","","null","30","NaN","","","","","","","","","","","","","","",""
"","S2","","html-keyboard-response","205","343518","0.0-1.0-274.0","0","0","86113","","null","","","null","30","","NaN","","","","","","","","","","","","","",""
"","response","","html-keyboard-response","206","343632","0.0-1.0-275.0-0.0","0","0","86113","","111","","","75","30","","","1","30","training","adjacent","FG","6","7","O.jpg","R.jpg","1","1","1","",""
"","feedback","","html-keyboard-response","207","344636","0.0-1.0-276.0-0.0","0","0","86113","","null","","","null","30","","","","","","","","","","","","","","","",""
"","ITI","","html-keyboard-response","208","345643","0.0-1.0-279.0","0","0","86113","","null","","","null","30","","","","","","","","","","","","","","","NaN",""
"","S1","","html-keyboard-response","209","345903","0.0-1.0-281.0","0","0","86113","","null","","","null","31","","","","","","","","","","","","","","","",""
"","ISI","","html-keyboard-response","210","346913","0.0-1.0-282.0","0","0","86113","","null","","","null","31","NaN","","","","","","","","","","","","","","",""
"","S2","","html-keyboard-response","211","347166","0.0-1.0-283.0","0","0","86113","","null","","","null","31","","NaN","","","","","","","","","","","","","",""
"","response","","html-keyboard-response","212","347461","0.0-1.0-284.0-0.0","0","0","86113","","293","","","75","31","","","1","31","training","adjacent","ED","5","4","N.jpg","M.jpg","1","0","0","",""
"","feedback","","html-keyboard-response","213","348469","0.0-1.0-285.0-0.0","0","0","86113","","null","","","null","31","","","","","","","","","","","","","","","",""
"","time_out","","html-keyboard-response","214","350475","0.0-1.0-287.0-0.0","0","0","86113","","null","","","null","31","","","","","","","","","","","","","","","",""
"","ITI","","html-keyboard-response","215","351478","0.0-1.0-288.0","0","0","86113","","null","","","null","31","","","","","","","","","","","","","","","NaN",""
"","S1","","html-keyboard-response","216","351740","0.0-1.0-290.0","0","0","86113","","null","","","null","32","","","","","","","","","","","","","","","",""
"","ISI","","html-keyboard-response","217","352742","0.0-1.0-291.0","0","0","86113","","null","","","null","32","NaN","","","","","","","","","","","","","","",""
"","S2","","html-keyboard-response","218","352996","0.0-1.0-292.0","0","0","86113","","null","","","null","32","","NaN","","","","","","","","","","","","","",""
"","response","","html-keyboard-response","219","353050","0.0-1.0-293.0-0.0","0","0","86113","","52","","","68","32","","","1","32","training","adjacent","FE","6","5","O.jpg","N.jpg","0","0","1","",""
"","feedback","","html-keyboard-response","220","354067","0.0-1.0-294.0-0.0","0","0","86113","","null","","","null","32","","","","","","","","","","","","","","","",""
"","ITI","","html-keyboard-response","221","355070","0.0-1.0-297.0","0","0","86113","","null","","","null","32","","","","","","","","","","","","","","","NaN",""
"","S1","","html-keyboard-response","222","355332","0.0-1.0-299.0","0","0","86113","","null","","","null","33","","","","","","","","","","","","","","","",""
"","ISI","","html-keyboard-response","223","356334","0.0-1.0-300.0","0","0","86113","","null","","","null","33","NaN","","","","","","","","","","","","","","",""
"","S2","","html-keyboard-response","224","356589","0.0-1.0-301.0","0","0","86113","","null","","","null","33","","NaN","","","","","","","","","","","","","",""
"","response","","html-keyboard-response","225","356648","0.0-1.0-302.0-0.0","0","0","86113","","57","","","68","33","","","1","33","training","adjacent","CD","3","4","L.jpg","M.jpg","0","1","0","",""
"","feedback","","html-keyboard-response","226","357654","0.0-1.0-303.0-0.0","0","0","86113","","null","","","null","33","","","","","","","","","","","","","","","",""
"","time_out","","html-keyboard-response","227","359660","0.0-1.0-305.0-0.0","0","0","86113","","null","","","null","33","","","","","","","","","","","","","","","",""
"","ITI","","html-keyboard-response","228","360662","0.0-1.0-306.0","0","0","86113","","null","","","null","33","","","","","","","","","","","","","","","NaN",""
"","S1","","html-keyboard-response","229","360915","0.0-1.0-308.0","0","0","86113","","null","","","null","34","","","","","","","","","","","","","","","",""
"","ISI","","html-keyboard-response","230","361920","0.0-1.0-309.0","0","0","86113","","null","","","null","34","NaN","","","","","","","","","","","","","","",""
"","S2","","html-keyboard-response","231","362171","0.0-1.0-310.0","0","0","86113","","248","","","75","34","","k","1","34","training","adjacent","BC","2","3","P.jpg","L.jpg","1","1","1","",""
"","feedback","","html-keyboard-response","232","363190","0.0-1.0-312.0-0.0","0","0","86113","","null","","","null","34","","","","","","","","","","","","","","","",""
"","ITI","","html-keyboard-response","233","364208","0.0-1.0-315.0","0","0","86113","","null","","","null","34","","","","","","","","","","","","","","","NaN",""
"","S1","","html-keyboard-response","234","364471","0.0-1.0-317.0","0","0","86113","","null","","","null","35","","","","","","","","","","","","","","","",""
"","ISI","","html-keyboard-response","235","365474","0.0-1.0-318.0","0","0","86113","","null","","","null","35","NaN","","","","","","","","","","","","","","",""
"","S2","","html-keyboard-response","236","365728","0.0-1.0-319.0","0","0","86113","","null","","","null","35","","NaN","","","","","","","","","","","","","",""
"","response","","html-keyboard-response","237","365821","0.0-1.0-320.0-0.0","0","0","86113","","91","","","75","35","","","1","35","training","adjacent","AB","1","2","Q.jpg","P.jpg","1","1","1","",""
"","feedback","","html-keyboard-response","238","366830","0.0-1.0-321.0-0.0","0","0","86113","","null","","","null","35","","","","","","","","","","","","","","","",""
"","ITI","","html-keyboard-response","239","367833","0.0-1.0-324.0","0","0","86113","","null","","","null","35","","","","","","","","","","","","","","","NaN",""
"","S1","","html-keyboard-response","240","368102","0.0-1.0-326.0","0","0","86113","","null","","","null","36","","","","","","","","","","","","","","","",""
"","ISI","","html-keyboard-response","241","369105","0.0-1.0-327.0","0","0","86113","","null","","","null","36","NaN","","","","","","","","","","","","","","",""
"","S2","","html-keyboard-response","242","369369","0.0-1.0-328.0","0","0","86113","","null","","","null","36","","NaN","","","","","","","","","","","","","",""
"","response","","html-keyboard-response","243","369463","0.0-1.0-329.0-0.0","0","0","86113","","93","","","68","36","","","1","36","training","adjacent","FE","6","5","O.jpg","N.jpg","0","0","1","",""
"","feedback","","html-keyboard-response","244","370472","0.0-1.0-330.0-0.0","0","0","86113","","null","","","null","36","","","","","","","","","","","","","","","",""
"","ITI","","html-keyboard-response","245","371475","0.0-1.0-333.0","0","0","86113","","null","","","null","36","","","","","","","","","","","","","","","NaN",""
"","S1","","html-keyboard-response","246","371729","0.0-1.0-335.0","0","0","86113","","null","","","null","37","","","","","","","","","","","","","","","",""
"","ISI","","html-keyboard-response","247","372731","0.0-1.0-336.0","0","0","86113","","null","","","null","37","NaN","","","","","","","","","","","","","","",""
"","S2","","html-keyboard-response","248","372994","0.0-1.0-337.0","0","0","86113","","null","","","null","37","","NaN","","","","","","","","","","","","","",""
"","response","","html-keyboard-response","249","373054","0.0-1.0-338.0-0.0","0","0","86113","","58","","","68","37","","","1","37","training","adjacent","CD","3","4","L.jpg","M.jpg","0","1","0","",""
"","feedback","","html-keyboard-response","250","374065","0.0-1.0-339.0-0.0","0","0","86113","","null","","","null","37","","","","","","","","","","","","","","","",""
"","time_out","","html-keyboard-response","251","376072","0.0-1.0-341.0-0.0","0","0","86113","","null","","","null","37","","","","","","","","","","","","","","","",""
"","ITI","","html-keyboard-response","252","377074","0.0-1.0-342.0","0","0","86113","","null","","","null","37","","","","","","","","","","","","","","","NaN",""
"","S1","","html-keyboard-response","253","377327","0.0-1.0-344.0","0","0","86113","","null","","","null","38","","","","","","","","","","","","","","","",""
"","ISI","","html-keyboard-response","254","378331","0.0-1.0-345.0","0","0","86113","","null","","","null","38","NaN","","","","","","","","","","","","","","",""
"","S2","","html-keyboard-response","255","378593","0.0-1.0-346.0","0","0","86113","","null","","","null","38","","NaN","","","","","","","","","","","","","",""
"","response","","html-keyboard-response","256","378852","0.0-1.0-347.0-0.0","0","0","86113","","257","","","75","38","","","1","38","training","adjacent","DE","4","5","M.jpg","N.jpg","1","1","1","",""
"","feedback","","html-keyboard-response","257","379866","0.0-1.0-348.0-0.0","0","0","86113","","null","","","null","38","","","","","","","","","","","","","","","",""
"","ITI","","html-keyboard-response","258","380869","0.0-1.0-351.0","0","0","86113","","null","","","null","38","","","","","","","","","","","","","","","NaN",""
"","S1","","html-keyboard-response","259","381138","0.0-1.0-353.0","0","0","86113","","null","","","null","39","","","","","","","","","","","","","","","",""
"","ISI","","html-keyboard-response","260","382140","0.0-1.0-354.0","0","0","86113","","null","","","null","39","NaN","","","","","","","","","","","","","","",""
"","S2","","html-keyboard-response","261","382403","0.0-1.0-355.0","0","0","86113","","null","","","null","39","","NaN","","","","","","","","","","","","","",""
"","response","","html-keyboard-response","262","382586","0.0-1.0-356.0-0.0","0","0","86113","","181","","","75","39","","","1","39","training","adjacent","GF","7","6","R.jpg","O.jpg","1","0","0","",""
"","feedback","","html-keyboard-response","263","383591","0.0-1.0-357.0-0.0","0","0","86113","","null","","","null","39","","","","","","","","","","","","","","","",""
"","time_out","","html-keyboard-response","264","385596","0.0-1.0-359.0-0.0","0","0","86113","","null","","","null","39","","","","","","","","","","","","","","","",""
"","ITI","","html-keyboard-response","265","386613","0.0-1.0-360.0","0","0","86113","","null","","","null","39","","","","","","","","","","","","","","","NaN",""
"","S1","","html-keyboard-response","266","386867","0.0-1.0-362.0","0","0","86113","","null","","","null","40","","","","","","","","","","","","","","","",""
"","ISI","","html-keyboard-response","267","387870","0.0-1.0-363.0","0","0","86113","","null","","","null","40","NaN","","","","","","","","","","","","","","",""
"","S2","","html-keyboard-response","268","388133","0.0-1.0-364.0","0","0","86113","","null","","","null","40","","NaN","","","","","","","","","","","","","",""
"","response","","html-keyboard-response","269","388175","0.0-1.0-365.0-0.0","0","0","86113","","40","","","75","40","","","1","40","training","adjacent","AB","1","2","Q.jpg","P.jpg","1","1","1","",""
"","feedback","","html-keyboard-response","270","389189","0.0-1.0-366.0-0.0","0","0","86113","","null","","","null","40","","","","","","","","","","","","","","","",""
"","ITI","","html-keyboard-response","271","390191","0.0-1.0-369.0","0","0","86113","","null","","","null","40","","","","","","","","","","","","","","","NaN",""
"","S1","","html-keyboard-response","272","390461","0.0-1.0-371.0","0","0","86113","","null","","","null","41","","","","","","","","","","","","","","","",""
"","ISI","","html-keyboard-response","273","391463","0.0-1.0-372.0","0","0","86113","","null","","","null","41","NaN","","","","","","","","","","","","","","",""
"","S2","","html-keyboard-response","274","391726","0.0-1.0-373.0","0","0","86113","","null","","","null","41","","NaN","","","","","","","","","","","","","",""
"","response","","html-keyboard-response","275","392071","0.0-1.0-374.0-0.0","0","0","86113","","343","","","68","41","","","1","41","training","adjacent","FG","6","7","O.jpg","R.jpg","0","1","0","",""
"","feedback","","html-keyboard-response","276","393084","0.0-1.0-375.0-0.0","0","0","86113","","null","","","null","41","","","","","","","","","","","","","","","",""
"","time_out","","html-keyboard-response","277","395088","0.0-1.0-377.0-0.0","0","0","86113","","null","","","null","41","","","","","","","","","","","","","","","",""
"","ITI","","html-keyboard-response","278","396091","0.0-1.0-378.0","0","0","86113","","null","","","null","41","","","","","","","","","","","","","","","NaN",""
"","S1","","html-keyboard-response","279","396353","0.0-1.0-380.0","0","0","86113","","null","","","null","42","","","","","","","","","","","","","","","",""
"","ISI","","html-keyboard-response","280","397356","0.0-1.0-381.0","0","0","86113","","null","","","null","42","NaN","","","","","","","","","","","","","","",""
"","S2","","html-keyboard-response","281","397611","0.0-1.0-382.0","0","0","86113","","null","","","null","42","","NaN","","","","","","","","","","","","","",""
"","response","","html-keyboard-response","282","397876","0.0-1.0-383.0-0.0","0","0","86113","","264","","","75","42","","","1","42","training","adjacent","DC","4","3","M.jpg","L.jpg","1","0","0","",""
"","feedback","","html-keyboard-response","283","398883","0.0-1.0-384.0-0.0","0","0","86113","","null","","","null","42","","","","","","","","","","","","","","","",""
"","time_out","","html-keyboard-response","284","400887","0.0-1.0-386.0-0.0","0","0","86113","","null","","","null","42","","","","","","","","","","","","","","","",""
"","ITI","","html-keyboard-response","285","401889","0.0-1.0-387.0","0","0","86113","","null","","","null","42","","","","","","","","","","","","","","","NaN",""
"","S1","","html-keyboard-response","286","402152","0.0-1.0-389.0","0","0","86113","","null","","","null","43","","","","","","","","","","","","","","","",""
"","ISI","","html-keyboard-response","287","403155","0.0-1.0-390.0","0","0","86113","","null","","","null","43","NaN","","","","","","","","","","","","","","",""
"","S2","","html-keyboard-response","288","403409","0.0-1.0-391.0","0","0","86113","","null","","","null","43","","NaN","","","","","","","","","","","","","",""
"","response","","html-keyboard-response","289","403561","0.0-1.0-392.0-0.0","0","0","86113","","150","","","75","43","","","1","43","training","adjacent","BC","2","3","P.jpg","L.jpg","1","1","1","",""
"","feedback","","html-keyboard-response","290","404574","0.0-1.0-393.0-0.0","0","0","86113","","null","","","null","43","","","","","","","","","","","","","","","",""
"","ITI","","html-keyboard-response","291","405577","0.0-1.0-396.0","0","0","86113","","null","","","null","43","","","","","","","","","","","","","","","NaN",""
"","S1","","html-keyboard-response","292","405831","0.0-1.0-398.0","0","0","86113","","null","","","null","44","","","","","","","","","","","","","","","",""
"","ISI","","html-keyboard-response","293","406832","0.0-1.0-399.0","0","0","86113","","null","","","null","44","NaN","","","","","","","","","","","","","","",""
"","S2","","html-keyboard-response","294","407102","0.0-1.0-400.0","0","0","86113","","null","","","null","44","","NaN","","","","","","","","","","","","","",""
"","response","","html-keyboard-response","295","407155","0.0-1.0-401.0-0.0","0","0","86113","","50","","","68","44","","","1","44","training","adjacent","EF","5","6","N.jpg","O.jpg","0","1","0","",""
"","feedback","","html-keyboard-response","296","408167","0.0-1.0-402.0-0.0","0","0","86113","","null","","","null","44","","","","","","","","","","","","","","","",""
"","time_out","","html-keyboard-response","297","410172","0.0-1.0-404.0-0.0","0","0","86113","","null","","","null","44","","","","","","","","","","","","","","","",""
"","ITI","","html-keyboard-response","298","411175","0.0-1.0-405.0","0","0","86113","","null","","","null","44","","","","","","","","","","","","","","","NaN",""
"","S1","","html-keyboard-response","299","411428","0.0-1.0-407.0","0","0","86113","","null","","","null","45","","","","","","","","","","","","","","","",""
"","ISI","","html-keyboard-response","300","412431","0.0-1.0-408.0","0","0","86113","","null","","","null","45","NaN","","","","","","","","","","","","","","",""
"","S2","","html-keyboard-response","301","412694","0.0-1.0-409.0","0","0","86113","","null","","","null","45","","NaN","","","","","","","","","","","","","",""
"","response","","html-keyboard-response","302","412735","0.0-1.0-410.0-0.0","0","0","86113","","40","","","75","45","","","1","45","training","adjacent","BC","2","3","P.jpg","L.jpg","1","1","1","",""
"","feedback","","html-keyboard-response","303","413750","0.0-1.0-411.0-0.0","0","0","86113","","null","","","null","45","","","","","","","","","","","","","","","",""
"","ITI","","html-keyboard-response","304","414752","0.0-1.0-414.0","0","0","86113","","null","","","null","45","","","","","","","","","","","","","","","NaN",""
"","S1","","html-keyboard-response","305","415024","0.0-1.0-416.0","0","0","86113","","null","","","null","46","","","","","","","","","","","","","","","",""
"","ISI","","html-keyboard-response","306","416041","0.0-1.0-417.0","0","0","86113","","null","","","null","46","NaN","","","","","","","","","","","","","","",""
"","S2","","html-keyboard-response","307","416304","0.0-1.0-418.0","0","0","86113","","null","","","null","46","","NaN","","","","","","","","","","","","","",""
"","response","","html-keyboard-response","308","416663","0.0-1.0-419.0-0.0","0","0","86113","","356","","","68","46","","","1","46","training","adjacent","BA","2","1","P.jpg","Q.jpg","0","0","1","",""
"","feedback","","html-keyboard-response","309","417676","0.0-1.0-420.0-0.0","0","0","86113","","null","","","null","46","","","","","","","","","","","","","","","",""
"","ITI","","html-keyboard-response","310","418679","0.0-1.0-423.0","0","0","86113","","null","","","null","46","","","","","","","","","","","","","","","NaN",""
"","S1","","html-keyboard-response","311","418933","0.0-1.0-425.0","0","0","86113","","null","","","null","47","","","","","","","","","","","","","","","",""
"","ISI","","html-keyboard-response","312","419950","0.0-1.0-426.0","0","0","86113","","null","","","null","47","NaN","","","","","","","","","","","","","","",""
"","S2","","html-keyboard-response","313","420213","0.0-1.0-427.0","0","0","86113","","null","","","null","47","","NaN","","","","","","","","","","","","","",""
"","response","","html-keyboard-response","314","420372","0.0-1.0-428.0-0.0","0","0","86113","","158","","","75","47","","","1","47","training","adjacent","BA","2","1","P.jpg","Q.jpg","1","0","0","",""
"","feedback","","html-keyboard-response","315","421384","0.0-1.0-429.0-0.0","0","0","86113","","null","","","null","47","","","","","","","","","","","","","","","",""
"","time_out","","html-keyboard-response","316","423398","0.0-1.0-431.0-0.0","0","0","86113","","null","","","null","47","","","","","","","","","","","","","","","",""
"","ITI","","html-keyboard-response","317","424400","0.0-1.0-432.0","0","0","86113","","null","","","null","47","","","","","","","","","","","","","","","NaN",""
"","block_over","","html-keyboard-response","318","440483","0.0-1.0-433.0-0.0","0","0","86113","","16079","","","32","47","","","","","","","","","","","","","","","",""
"","S1","","html-keyboard-response","319","440758","0.0-1.0-434.0","0","0","86113","","null","","","null","48","","","","","","","","","","","","","","","",""
"","ISI","","html-keyboard-response","320","441762","0.0-1.0-435.0","0","0","86113","","null","","","null","48","NaN","","","","","","","","","","","","","","",""
"","S2","","html-keyboard-response","321","442024","0.0-1.0-436.0","0","0","86113","","null","","","null","48","","NaN","","","","","","","","","","","","","",""
"","response","","html-keyboard-response","322","442453","0.0-1.0-437.0-0.0","0","0","86113","","425","","","68","48","","","2","48","training","adjacent","CB","3","2","L.jpg","P.jpg","0","0","1","",""
"","feedback","","html-keyboard-response","323","443466","0.0-1.0-438.0-0.0","0","0","86113","","null","","","null","48","","","","","","","","","","","","","","","",""
"","ITI","","html-keyboard-response","324","444468","0.0-1.0-441.0","0","0","86113","","null","","","null","48","","","","","","","","","","","","","","","NaN",""
"","S1","","html-keyboard-response","325","444731","0.0-1.0-443.0","0","0","86113","","null","","","null","49","","","","","","","","","","","","","","","",""
"","ISI","","html-keyboard-response","326","445734","0.0-1.0-444.0","0","0","86113","","null","","","null","49","NaN","","","","","","","","","","","","","","",""
"","S2","","html-keyboard-response","327","445988","0.0-1.0-445.0","0","0","86113","","null","","","null","49","","NaN","","","","","","","","","","","","","",""
"","response","","html-keyboard-response","328","446700","0.0-1.0-446.0-0.0","0","0","86113","","710","","","68","49","","","2","49","training","adjacent","DC","4","3","M.jpg","L.jpg","0","0","1","",""
"","feedback","","html-keyboard-response","329","447709","0.0-1.0-447.0-0.0","0","0","86113","","null","","","null","49","","","","","","","","","","","","","","","",""
"","ITI","","html-keyboard-response","330","448711","0.0-1.0-450.0","0","0","86113","","null","","","null","49","","","","","","","","","","","","","","","NaN",""
"","S1","","html-keyboard-response","331","448981","0.0-1.0-452.0","0","0","86113","","null","","","null","50","","","","","","","","","","","","","","","",""
"","ISI","","html-keyboard-response","332","449983","0.0-1.0-453.0","0","0","86113","","null","","","null","50","NaN","","","","","","","","","","","","","","",""
"","S2","","html-keyboard-response","333","450247","0.0-1.0-454.0","0","0","86113","","null","","","null","50","","NaN","","","","","","","","","","","","","",""
"","response","","html-keyboard-response","334","450447","0.0-1.0-455.0-0.0","0","0","86113","","197","","","68","50","","","2","50","training","adjacent","CD","3","4","L.jpg","M.jpg","0","1","0","",""
"","feedback","","html-keyboard-response","335","451450","0.0-1.0-456.0-0.0","0","0","86113","","null","","","null","50","","","","","","","","","","","","","","","",""
"","time_out","","html-keyboard-response","336","453455","0.0-1.0-458.0-0.0","0","0","86113","","null","","","null","50","","","","","","","","","","","","","","","",""
"","ITI","","html-keyboard-response","337","454456","0.0-1.0-459.0","0","0","86113","","null","","","null","50","","","","","","","","","","","","","","","NaN",""
"","S1","","html-keyboard-response","338","454711","0.0-1.0-461.0","0","0","86113","","null","","","null","51","","","","","","","","","","","","","","","",""
"","ISI","","html-keyboard-response","339","455714","0.0-1.0-462.0","0","0","86113","","null","","","null","51","NaN","","","","","","","","","","","","","","",""
"","S2","","html-keyboard-response","340","455977","0.0-1.0-463.0","0","0","86113","","null","","","null","51","","NaN","","","","","","","","","","","","","",""
"","response","","html-keyboard-response","341","456636","0.0-1.0-464.0-0.0","0","0","86113","","657","","","75","51","","","2","51","training","adjacent","DE","4","5","M.jpg","N.jpg","1","1","1","",""
"","feedback","","html-keyboard-response","342","457650","0.0-1.0-465.0-0.0","0","0","86113","","null","","","null","51","","","","","","","","","","","","","","","",""
"","ITI","","html-keyboard-response","343","458653","0.0-1.0-468.0","0","0","86113","","null","","","null","51","","","","","","","","","","","","","","","NaN",""
"","S1","","html-keyboard-response","344","458907","0.0-1.0-470.0","0","0","86113","","null","","","null","52","","","","","","","","","","","","","","","",""
"","ISI","","html-keyboard-response","345","459910","0.0-1.0-471.0","0","0","86113","","null","","","null","52","NaN","","","","","","","","","","","","","","",""
"","S2","","html-keyboard-response","346","460174","0.0-1.0-472.0","0","0","86113","","null","","","null","52","","NaN","","","","","","","","","","","","","",""
"","response","","html-keyboard-response","347","460697","0.0-1.0-473.0-0.0","0","0","86113","","522","","","68","52","","","2","52","training","adjacent","BA","2","1","P.jpg","Q.jpg","0","0","1","",""
"","feedback","","html-keyboard-response","348","461715","0.0-1.0-474.0-0.0","0","0","86113","","null","","","null","52","","","","","","","","","","","","","","","",""
"","ITI","","html-keyboard-response","349","462718","0.0-1.0-477.0","0","0","86113","","null","","","null","52","","","","","","","","","","","","","","","NaN",""
"","S1","","html-keyboard-response","350","462981","0.0-1.0-479.0","0","0","86113","","null","","","null","53","","","","","","","","","","","","","","","",""
"","ISI","","html-keyboard-response","351","463983","0.0-1.0-480.0","0","0","86113","","null","","","null","53","NaN","","","","","","","","","","","","","","",""
"","S2","","html-keyboard-response","352","464252","0.0-1.0-481.0","0","0","86113","","null","","","null","53","","NaN","","","","","","","","","","","","","",""
"","response","","html-keyboard-response","353","464875","0.0-1.0-482.0-0.0","0","0","86113","","623","","","75","53","","","2","53","training","adjacent","CD","3","4","L.jpg","M.jpg","1","1","1","",""
"","feedback","","html-keyboard-response","354","465887","0.0-1.0-483.0-0.0","0","0","86113","","null","","","null","53","","","","","","","","","","","","","","","",""
"","ITI","","html-keyboard-response","355","466889","0.0-1.0-486.0","0","0","86113","","null","","","null","53","","","","","","","","","","","","","","","NaN",""
"","S1","","html-keyboard-response","356","467159","0.0-1.0-488.0","0","0","86113","","null","","","null","54","","","","","","","","","","","","","","","",""
"","ISI","","html-keyboard-response","357","468161","0.0-1.0-489.0","0","0","86113","","null","","","null","54","NaN","","","","","","","","","","","","","","",""
"","S2","","html-keyboard-response","358","468424","0.0-1.0-490.0","0","0","86113","","null","","","null","54","","NaN","","","","","","","","","","","","","",""
"","response","","html-keyboard-response","359","469209","0.0-1.0-491.0-0.0","0","0","86113","","782","","","68","54","","","2","54","training","adjacent","DC","4","3","M.jpg","L.jpg","0","0","1","",""
"","feedback","","html-keyboard-response","360","470212","0.0-1.0-492.0-0.0","0","0","86113","","null","","","null","54","","","","","","","","","","","","","","","",""
"","ITI","","html-keyboard-response","361","471215","0.0-1.0-495.0","0","0","86113","","null","","","null","54","","","","","","","","","","","","","","","NaN",""
"","S1","","html-keyboard-response","362","471470","0.0-1.0-497.0","0","0","86113","","null","","","null","55","","","","","","","","","","","","","","","",""
"","ISI","","html-keyboard-response","363","472471","0.0-1.0-498.0","0","0","86113","","null","","","null","55","NaN","","","","","","","","","","","","","","",""
"","S2","","html-keyboard-response","364","472734","0.0-1.0-499.0","0","0","86113","","null","","","null","55","","NaN","","","","","","","","","","","","","",""
"","response","","html-keyboard-response","365","473530","0.0-1.0-500.0-0.0","0","0","86113","","794","","","75","55","","","2","55","training","adjacent","AB","1","2","Q.jpg","P.jpg","1","1","1","",""
"","feedback","","html-keyboard-response","366","474539","0.0-1.0-501.0-0.0","0","0","86113","","null","","","null","55","","","","","","","","","","","","","","","",""
"","ITI","","html-keyboard-response","367","475542","0.0-1.0-504.0","0","0","86113","","null","","","null","55","","","","","","","","","","","","","","","NaN",""
"","S1","","html-keyboard-response","368","475795","0.0-1.0-506.0","0","0","86113","","null","","","null","56","","","","","","","","","","","","","","","",""
"","ISI","","html-keyboard-response","369","476798","0.0-1.0-507.0","0","0","86113","","null","","","null","56","NaN","","","","","","","","","","","","","","",""
"","S2","","html-keyboard-response","370","477056","0.0-1.0-508.0","0","0","86113","","null","","","null","56","","NaN","","","","","","","","","","","","","",""
"","response","","html-keyboard-response","371","477766","0.0-1.0-509.0-0.0","0","0","86113","","707","","","68","56","","","2","56","training","adjacent","BA","2","1","P.jpg","Q.jpg","0","0","1","",""
"","feedback","","html-keyboard-response","372","478777","0.0-1.0-510.0-0.0","0","0","86113","","null","","","null","56","","","","","","","","","","","","","","","",""
"","ITI","","html-keyboard-response","373","479780","0.0-1.0-513.0","0","0","86113","","null","","","null","56","","","","","","","","","","","","","","","NaN",""
"","S1","","html-keyboard-response","374","480044","0.0-1.0-515.0","0","0","86113","","null","","","null","57","","","","","","","","","","","","","","","",""
"","ISI","","html-keyboard-response","375","481055","0.0-1.0-516.0","0","0","86113","","null","","","null","57","NaN","","","","","","","","","","","","","","",""
"","S2","","html-keyboard-response","376","481309","0.0-1.0-517.0","0","0","86113","","null","","","null","57","","NaN","","","","","","","","","","","","","",""
"","response","","html-keyboard-response","377","482127","0.0-1.0-518.0-0.0","0","0","86113","","816","","","68","57","","","2","57","training","adjacent","BC","2","3","P.jpg","L.jpg","0","1","0","",""
"","feedback","","html-keyboard-response","378","483144","0.0-1.0-519.0-0.0","0","0","86113","","null","","","null","57","","","","","","","","","","","","","","","",""
"","time_out","","html-keyboard-response","379","485150","0.0-1.0-521.0-0.0","0","0","86113","","null","","","null","57","","","","","","","","","","","","","","","",""
"","ITI","","html-keyboard-response","380","486152","0.0-1.0-522.0","0","0","86113","","null","","","null","57","","","","","","","","","","","","","","","NaN",""
"","S1","","html-keyboard-response","381","486406","0.0-1.0-524.0","0","0","86113","","null","","","null","58","","","","","","","","","","","","","","","",""
"","ISI","","html-keyboard-response","382","487410","0.0-1.0-525.0","0","0","86113","","null","","","null","58","NaN","","","","","","","","","","","","","","",""
"","S2","","html-keyboard-response","383","487672","0.0-1.0-526.0","0","0","86113","","null","","","null","58","","NaN","","","","","","","","","","","","","",""
"","response","","html-keyboard-response","384","488672","0.0-1.0-527.0-0.0","0","0","86113","","998","","","75","58","","","2","58","training","adjacent","FG","6","7","O.jpg","R.jpg","1","1","1","",""
"","feedback","","html-keyboard-response","385","489677","0.0-1.0-528.0-0.0","0","0","86113","","null","","","null","58","","","","","","","","","","","","","","","",""
"","ITI","","html-keyboard-response","386","490679","0.0-1.0-531.0","0","0","86113","","null","","","null","58","","","","","","","","","","","","","","","NaN",""
"","S1","","html-keyboard-response","387","490934","0.0-1.0-533.0","0","0","86113","","null","","","null","59","","","","","","","","","","","","","","","",""
"","ISI","","html-keyboard-response","388","491936","0.0-1.0-534.0","0","0","86113","","null","","","null","59","NaN","","","","","","","","","","","","","","",""
"","S2","","html-keyboard-response","389","492199","0.0-1.0-535.0","0","0","86113","","null","","","null","59","","NaN","","","","","","","","","","","","","",""
"","response","","html-keyboard-response","390","492827","0.0-1.0-536.0-0.0","0","0","86113","","624","","","75","59","","","2","59","training","adjacent","ED","5","4","N.jpg","M.jpg","1","0","0","",""
"","feedback","","html-keyboard-response","391","493840","0.0-1.0-537.0-0.0","0","0","86113","","null","","","null","59","","","","","","","","","","","","","","","",""
"","time_out","","html-keyboard-response","392","495846","0.0-1.0-539.0-0.0","0","0","86113","","null","","","null","59","","","","","","","","","","","","","","","",""
"","ITI","","html-keyboard-response","393","496848","0.0-1.0-540.0","0","0","86113","","null","","","null","59","","","","","","","","","","","","","","","NaN",""
"","S1","","html-keyboard-response","394","497110","0.0-1.0-542.0","0","0","86113","","null","","","null","60","","","","","","","","","","","","","","","",""
"","ISI","","html-keyboard-response","395","498123","0.0-1.0-543.0","0","0","86113","","null","","","null","60","NaN","","","","","","","","","","","","","","",""
"","S2","","html-keyboard-response","396","498387","0.0-1.0-544.0","0","0","86113","","null","","","null","60","","NaN","","","","","","","","","","","","","",""
"","response","","html-keyboard-response","397","499215","0.0-1.0-545.0-0.0","0","0","86113","","825","","","68","60","","","2","60","training","adjacent","FE","6","5","O.jpg","N.jpg","0","0","1","",""
"","feedback","","html-keyboard-response","398","500229","0.0-1.0-546.0-0.0","0","0","86113","","null","","","null","60","","","","","","","","","","","","","","","",""
"","ITI","","html-keyboard-response","399","501232","0.0-1.0-549.0","0","0","86113","","null","","","null","60","","","","","","","","","","","","","","","NaN",""
"","S1","","html-keyboard-response","400","501494","0.0-1.0-551.0","0","0","86113","","null","","","null","61","","","","","","","","","","","","","","","",""
"","ISI","","html-keyboard-response","401","502497","0.0-1.0-552.0","0","0","86113","","null","","","null","61","NaN","","","","","","","","","","","","","","",""
"","S2","","html-keyboard-response","402","502750","0.0-1.0-553.0","0","0","86113","","null","","","null","61","","NaN","","","","","","","","","","","","","",""
"","response","","html-keyboard-response","403","503696","0.0-1.0-554.0-0.0","0","0","86113","","944","","","68","61","","","2","61","training","adjacent","DC","4","3","M.jpg","L.jpg","0","0","1","",""
"","feedback","","html-keyboard-response","404","504702","0.0-1.0-555.0-0.0","0","0","86113","","null","","","null","61","","","","","","","","","","","","","","","",""
"","ITI","","html-keyboard-response","405","505705","0.0-1.0-558.0","0","0","86113","","null","","","null","61","","","","","","","","","","","","","","","NaN",""
"","S1","","html-keyboard-response","406","505959","0.0-1.0-560.0","0","0","86113","","null","","","null","62","","","","","","","","","","","","","","","",""
"","ISI","","html-keyboard-response","407","506960","0.0-1.0-561.0","0","0","86113","","null","","","null","62","NaN","","","","","","","","","","","","","","",""
"","S2","","html-keyboard-response","408","507230","0.0-1.0-562.0","0","0","86113","","null","","","null","62","","NaN","","","","","","","","","","","","","",""
"","response","","html-keyboard-response","409","507968","0.0-1.0-563.0-0.0","0","0","86113","","736","","","68","62","","","2","62","training","adjacent","CB","3","2","L.jpg","P.jpg","0","0","1","",""
"","feedback","","html-keyboard-response","410","508970","0.0-1.0-564.0-0.0","0","0","86113","","null","","","null","62","","","","","","","","","","","","","","","",""
"","ITI","","html-keyboard-response","411","509973","0.0-1.0-567.0","0","0","86113","","null","","","null","62","","","","","","","","","","","","","","","NaN",""
"","S1","","html-keyboard-response","412","510236","0.0-1.0-569.0","0","0","86113","","null","","","null","63","","","","","","","","","","","","","","","",""
"","ISI","","html-keyboard-response","413","511238","0.0-1.0-570.0","0","0","86113","","null","","","null","63","NaN","","","","","","","","","","","","","","",""
"","S2","","html-keyboard-response","414","511491","0.0-1.0-571.0","0","0","86113","","null","","","null","63","","NaN","","","","","","","","","","","","","",""
"","response","","html-keyboard-response","415","512003","0.0-1.0-572.0-0.0","0","0","86113","","508","","","75","63","","","2","63","training","adjacent","AB","1","2","Q.jpg","P.jpg","1","1","1","",""
"","feedback","","html-keyboard-response","416","513012","0.0-1.0-573.0-0.0","0","0","86113","","null","","","null","63","","","","","","","","","","","","","","","",""
"","ITI","","html-keyboard-response","417","514014","0.0-1.0-576.0","0","0","86113","","null","","","null","63","","","","","","","","","","","","","","","NaN",""
"","S1","","html-keyboard-response","418","514269","0.0-1.0-578.0","0","0","86113","","null","","","null","64","","","","","","","","","","","","","","","",""
"","ISI","","html-keyboard-response","419","515272","0.0-1.0-579.0","0","0","86113","","null","","","null","64","NaN","","","","","","","","","","","","","","",""
"","S2","","html-keyboard-response","420","515534","0.0-1.0-580.0","0","0","86113","","null","","","null","64","","NaN","","","","","","","","","","","","","",""
"","response","","html-keyboard-response","421","516345","0.0-1.0-581.0-0.0","0","0","86113","","809","","","68","64","","","2","64","training","adjacent","FE","6","5","O.jpg","N.jpg","0","0","1","",""
"","feedback","","html-keyboard-response","422","517363","0.0-1.0-582.0-0.0","0","0","86113","","null","","","null","64","","","","","","","","","","","","","","","",""
"","ITI","","html-keyboard-response","423","518366","0.0-1.0-585.0","0","0","86113","","null","","","null","64","","","","","","","","","","","","","","","NaN",""
"","S1","","html-keyboard-response","424","518628","0.0-1.0-587.0","0","0","86113","","null","","","null","65","","","","","","","","","","","","","","","",""
"","ISI","","html-keyboard-response","425","519631","0.0-1.0-588.0","0","0","86113","","null","","","null","65","NaN","","","","","","","","","","","","","","",""
"","S2","","html-keyboard-response","426","519884","0.0-1.0-589.0","0","0","86113","","null","","","null","65","","NaN","","","","","","","","","","","","","",""
"","response","","html-keyboard-response","427","520559","0.0-1.0-590.0-0.0","0","0","86113","","673","","","75","65","","","2","65","training","adjacent","EF","5","6","N.jpg","O.jpg","1","1","1","",""
"","feedback","","html-keyboard-response","428","521572","0.0-1.0-591.0-0.0","0","0","86113","","null","","","null","65","","","","","","","","","","","","","","","",""
"","ITI","","html-keyboard-response","429","522575","0.0-1.0-594.0","0","0","86113","","null","","","null","65","","","","","","","","","","","","","","","NaN",""
"","S1","","html-keyboard-response","430","522839","0.0-1.0-596.0","0","0","86113","","null","","","null","66","","","","","","","","","","","","","","","",""
"","ISI","","html-keyboard-response","431","523840","0.0-1.0-597.0","0","0","86113","","null","","","null","66","NaN","","","","","","","","","","","","","","",""
"","S2","","html-keyboard-response","432","524094","0.0-1.0-598.0","0","0","86113","","null","","","null","66","","NaN","","","","","","","","","","","","","",""
"","response","","html-keyboard-response","433","524952","0.0-1.0-599.0-0.0","0","0","86113","","857","","","68","66","","","2","66","training","adjacent","ED","5","4","N.jpg","M.jpg","0","0","1","",""
"","feedback","","html-keyboard-response","434","525961","0.0-1.0-600.0-0.0","0","0","86113","","null","","","null","66","","","","","","","","","","","","","","","",""
"","ITI","","html-keyboard-response","435","526964","0.0-1.0-603.0","0","0","86113","","null","","","null","66","","","","","","","","","","","","","","","NaN",""
"","S1","","html-keyboard-response","436","527218","0.0-1.0-605.0","0","0","86113","","null","","","null","67","","","","","","","","","","","","","","","",""
"","ISI","","html-keyboard-response","437","528220","0.0-1.0-606.0","0","0","86113","","null","","","null","67","NaN","","","","","","","","","","","","","","",""
"","S2","","html-keyboard-response","438","528490","0.0-1.0-607.0","0","0","86113","","null","","","null","67","","NaN","","","","","","","","","","","","","",""
"","response","","html-keyboard-response","439","529470","0.0-1.0-608.0-0.0","0","0","86113","","978","","","75","67","","","2","67","training","adjacent","EF","5","6","N.jpg","O.jpg","1","1","1","",""
"","feedback","","html-keyboard-response","440","530477","0.0-1.0-609.0-0.0","0","0","86113","","null","","","null","67","","","","","","","","","","","","","","","",""
"","ITI","","html-keyboard-response","441","531480","0.0-1.0-612.0","0","0","86113","","null","","","null","67","","","","","","","","","","","","","","","NaN",""
"","S1","","html-keyboard-response","442","531734","0.0-1.0-614.0","0","0","86113","","null","","","null","68","","","","","","","","","","","","","","","",""
"","ISI","","html-keyboard-response","443","532737","0.0-1.0-615.0","0","0","86113","","null","","","null","68","NaN","","","","","","","","","","","","","","",""
"","S2","","html-keyboard-response","444","533000","0.0-1.0-616.0","0","0","86113","","null","","","null","68","","NaN","","","","","","","","","","","","","",""
"","response","","html-keyboard-response","445","533217","0.0-1.0-617.0-0.0","0","0","86113","","214","","","75","68","","","2","68","training","adjacent","AB","1","2","Q.jpg","P.jpg","1","1","1","",""
"","feedback","","html-keyboard-response","446","534224","0.0-1.0-618.0-0.0","0","0","86113","","null","","","null","68","","","","","","","","","","","","","","","",""
"","ITI","","html-keyboard-response","447","535227","0.0-1.0-621.0","0","0","86113","","null","","","null","68","","","","","","","","","","","","","","","NaN",""
"","S1","","html-keyboard-response","448","535490","0.0-1.0-623.0","0","0","86113","","null","","","null","69","","","","","","","","","","","","","","","",""
"","ISI","","html-keyboard-response","449","536493","0.0-1.0-624.0","0","0","86113","","null","","","null","69","NaN","","","","","","","","","","","","","","",""
"","S2","","html-keyboard-response","450","536746","0.0-1.0-625.0","0","0","86113","","null","","","null","69","","NaN","","","","","","","","","","","","","",""
"","response","","html-keyboard-response","451","537445","0.0-1.0-626.0-0.0","0","0","86113","","698","","","68","69","","","2","69","training","adjacent","BA","2","1","P.jpg","Q.jpg","0","0","1","",""
"","feedback","","html-keyboard-response","452","538449","0.0-1.0-627.0-0.0","0","0","86113","","null","","","null","69","","","","","","","","","","","","","","","",""
"","ITI","","html-keyboard-response","453","539452","0.0-1.0-630.0","0","0","86113","","null","","","null","69","","","","","","","","","","","","","","","NaN",""
"","S1","","html-keyboard-response","454","539716","0.0-1.0-632.0","0","0","86113","","null","","","null","70","","","","","","","","","","","","","","","",""
"","ISI","","html-keyboard-response","455","540719","0.0-1.0-633.0","0","0","86113","","null","","","null","70","NaN","","","","","","","","","","","","","","",""
"","S2","","html-keyboard-response","456","540971","0.0-1.0-634.0","0","0","86113","","null","","","null","70","","NaN","","","","","","","","","","","","","",""
"","response","","html-keyboard-response","457","541854","0.0-1.0-635.0-0.0","0","0","86113","","880","","","75","70","","","2","70","training","adjacent","CD","3","4","L.jpg","M.jpg","1","1","1","",""
"","feedback","","html-keyboard-response","458","542861","0.0-1.0-636.0-0.0","0","0","86113","","null","","","null","70","","","","","","","","","","","","","","","",""
"","ITI","","html-keyboard-response","459","543879","0.0-1.0-639.0","0","0","86113","","null","","","null","70","","","","","","","","","","","","","","","NaN",""
"","S1","","html-keyboard-response","460","544149","0.0-1.0-641.0","0","0","86113","","null","","","null","71","","","","","","","","","","","","","","","",""
"","ISI","","html-keyboard-response","461","545152","0.0-1.0-642.0","0","0","86113","","null","","","null","71","NaN","","","","","","","","","","","","","","",""
"","S2","","html-keyboard-response","462","545414","0.0-1.0-643.0","0","0","86113","","null","","","null","71","","NaN","","","","","","","","","","","","","",""
"","response","","html-keyboard-response","463","545559","0.0-1.0-644.0-0.0","0","0","86113","","143","","","68","71","","","2","71","training","adjacent","GF","7","6","R.jpg","O.jpg","0","0","1","",""
"","feedback","","html-keyboard-response","464","546571","0.0-1.0-645.0-0.0","0","0","86113","","null","","","null","71","","","","","","","","","","","","","","","",""
"","ITI","","html-keyboard-response","465","547574","0.0-1.0-648.0","0","0","86113","","null","","","null","71","","","","","","","","","","","","","","","NaN",""
"","S1","","html-keyboard-response","466","547837","0.0-1.0-650.0","0","0","86113","","null","","","null","72","","","","","","","","","","","","","","","",""
"","ISI","","html-keyboard-response","467","548839","0.0-1.0-651.0","0","0","86113","","null","","","null","72","NaN","","","","","","","","","","","","","","",""
"","S2","","html-keyboard-response","468","549092","0.0-1.0-652.0","0","0","86113","","null","","","null","72","","NaN","","","","","","","","","","","","","",""
"","response","","html-keyboard-response","469","550188","0.0-1.0-653.0-0.0","0","0","86113","","1094","","","75","72","","","2","72","training","adjacent","BC","2","3","P.jpg","L.jpg","1","1","1","",""
"","feedback","","html-keyboard-response","470","551204","0.0-1.0-654.0-0.0","0","0","86113","","null","","","null","72","","","","","","","","","","","","","","","",""
"","ITI","","html-keyboard-response","471","552206","0.0-1.0-657.0","0","0","86113","","null","","","null","72","","","","","","","","","","","","","","","NaN",""
"","S1","","html-keyboard-response","472","552470","0.0-1.0-659.0","0","0","86113","","null","","","null","73","","","","","","","","","","","","","","","",""
"","ISI","","html-keyboard-response","473","553472","0.0-1.0-660.0","0","0","86113","","null","","","null","73","NaN","","","","","","","","","","","","","","",""
"","S2","","html-keyboard-response","474","553725","0.0-1.0-661.0","0","0","86113","","null","","","null","73","","NaN","","","","","","","","","","","","","",""
"","response","","html-keyboard-response","475","554349","0.0-1.0-662.0-0.0","0","0","86113","","621","","","75","73","","","2","73","training","adjacent","BC","2","3","P.jpg","L.jpg","1","1","1","",""
"","feedback","","html-keyboard-response","476","555361","0.0-1.0-663.0-0.0","0","0","86113","","null","","","null","73","","","","","","","","","","","","","","","",""
"","ITI","","html-keyboard-response","477","556364","0.0-1.0-666.0","0","0","86113","","null","","","null","73","","","","","","","","","","","","","","","NaN",""
"","S1","","html-keyboard-response","478","556617","0.0-1.0-668.0","0","0","86113","","null","","","null","74","","","","","","","","","","","","","","","",""
"","ISI","","html-keyboard-response","479","557619","0.0-1.0-669.0","0","0","86113","","null","","","null","74","NaN","","","","","","","","","","","","","","",""
"","S2","","html-keyboard-response","480","557883","0.0-1.0-670.0","0","0","86113","","null","","","null","74","","NaN","","","","","","","","","","","","","",""
"","response","","html-keyboard-response","481","558460","0.0-1.0-671.0-0.0","0","0","86113","","575","","","75","74","","","2","74","training","adjacent","CB","3","2","L.jpg","P.jpg","1","0","0","",""
"","feedback","","html-keyboard-response","482","559472","0.0-1.0-672.0-0.0","0","0","86113","","null","","","null","74","","","","","","","","","","","","","","","",""
"","time_out","","html-keyboard-response","483","561476","0.0-1.0-674.0-0.0","0","0","86113","","null","","","null","74","","","","","","","","","","","","","","","",""
"","ITI","","html-keyboard-response","484","562479","0.0-1.0-675.0","0","0","86113","","null","","","null","74","","","","","","","","","","","","","","","NaN",""
"","S1","","html-keyboard-response","485","562733","0.0-1.0-677.0","0","0","86113","","null","","","null","75","","","","","","","","","","","","","","","",""
"","ISI","","html-keyboard-response","486","563736","0.0-1.0-678.0","0","0","86113","","null","","","null","75","NaN","","","","","","","","","","","","","","",""
"","S2","","html-keyboard-response","487","564000","0.0-1.0-679.0","0","0","86113","","null","","","null","75","","NaN","","","","","","","","","","","","","",""
"","response","","html-keyboard-response","488","564695","0.0-1.0-680.0-0.0","0","0","86113","","693","","","68","75","","","2","75","training","adjacent","BA","2","1","P.jpg","Q.jpg","0","0","1","",""
"","feedback","","html-keyboard-response","489","565702","0.0-1.0-681.0-0.0","0","0","86113","","null","","","null","75","","","","","","","","","","","","","","","",""
"","ITI","","html-keyboard-response","490","566727","0.0-1.0-684.0","0","0","86113","","null","","","null","75","","","","","","","","","","","","","","","NaN",""
"","S1","","html-keyboard-response","491","566990","0.0-1.0-686.0","0","0","86113","","null","","","null","76","","","","","","","","","","","","","","","",""
"","ISI","","html-keyboard-response","492","567993","0.0-1.0-687.0","0","0","86113","","null","","","null","76","NaN","","","","","","","","","","","","","","",""
"","S2","","html-keyboard-response","493","568248","0.0-1.0-688.0","0","0","86113","","null","","","null","76","","NaN","","","","","","","","","","","","","",""
"","response","","html-keyboard-response","494","568916","0.0-1.0-689.0-0.0","0","0","86113","","666","","","75","76","","","2","76","training","adjacent","CD","3","4","L.jpg","M.jpg","1","1","1","",""
"","feedback","","html-keyboard-response","495","569924","0.0-1.0-690.0-0.0","0","0","86113","","null","","","null","76","","","","","","","","","","","","","","","",""
"","ITI","","html-keyboard-response","496","570926","0.0-1.0-693.0","0","0","86113","","null","","","null","76","","","","","","","","","","","","","","","NaN",""
"","S1","","html-keyboard-response","497","571181","0.0-1.0-695.0","0","0","86113","","null","","","null","77","","","","","","","","","","","","","","","",""
"","ISI","","html-keyboard-response","498","572183","0.0-1.0-696.0","0","0","86113","","null","","","null","77","NaN","","","","","","","","","","","","","","",""
"","S2","","html-keyboard-response","499","572446","0.0-1.0-697.0","0","0","86113","","null","","","null","77","","NaN","","","","","","","","","","","","","",""
"","response","","html-keyboard-response","500","573527","0.0-1.0-698.0-0.0","0","0","86113","","1080","","","75","77","","","2","77","training","adjacent","FG","6","7","O.jpg","R.jpg","1","1","1","",""
"","feedback","","html-keyboard-response","501","574541","0.0-1.0-699.0-0.0","0","0","86113","","null","","","null","77","","","","","","","","","","","","","","","",""
"","ITI","","html-keyboard-response","502","575545","0.0-1.0-702.0","0","0","86113","","null","","","null","77","","","","","","","","","","","","","","","NaN",""
"","S1","","html-keyboard-response","503","575815","0.0-1.0-704.0","0","0","86113","","null","","","null","78","","","","","","","","","","","","","","","",""
"","ISI","","html-keyboard-response","504","576832","0.0-1.0-705.0","0","0","86113","","null","","","null","78","NaN","","","","","","","","","","","","","","",""
"","S2","","html-keyboard-response","505","577095","0.0-1.0-706.0","0","0","86113","","null","","","null","78","","NaN","","","","","","","","","","","","","",""
"","response","","html-keyboard-response","506","578203","0.0-1.0-707.0-0.0","0","0","86113","","1107","","","68","78","","","2","78","training","adjacent","FE","6","5","O.jpg","N.jpg","0","0","1","",""
"","feedback","","html-keyboard-response","507","579223","0.0-1.0-708.0-0.0","0","0","86113","","null","","","null","78","","","","","","","","","","","","","","","",""
"","ITI","","html-keyboard-response","508","580226","0.0-1.0-711.0","0","0","86113","","null","","","null","78","","","","","","","","","","","","","","","NaN",""
"","S1","","html-keyboard-response","509","580490","0.0-1.0-713.0","0","0","86113","","null","","","null","79","","","","","","","","","","","","","","","",""
"","ISI","","html-keyboard-response","510","581492","0.0-1.0-714.0","0","0","86113","","null","","","null","79","NaN","","","","","","","","","","","","","","",""
"","S2","","html-keyboard-response","511","581745","0.0-1.0-715.0","0","0","86113","","null","","","null","79","","NaN","","","","","","","","","","","","","",""
"","response","","html-keyboard-response","512","582803","0.0-1.0-716.0-0.0","0","0","86113","","1056","","","68","79","","","2","79","training","adjacent","EF","5","6","N.jpg","O.jpg","0","1","0","",""
"","feedback","","html-keyboard-response","513","583813","0.0-1.0-717.0-0.0","0","0","86113","","null","","","null","79","","","","","","","","","","","","","","","",""
"","time_out","","html-keyboard-response","514","585819","0.0-1.0-719.0-0.0","0","0","86113","","null","","","null","79","","","","","","","","","","","","","","","",""
"","ITI","","html-keyboard-response","515","586821","0.0-1.0-720.0","0","0","86113","","null","","","null","79","","","","","","","","","","","","","","","NaN",""
"","S1","","html-keyboard-response","516","587074","0.0-1.0-722.0","0","0","86113","","null","","","null","80","","","","","","","","","","","","","","","",""
"","ISI","","html-keyboard-response","517","588077","0.0-1.0-723.0","0","0","86113","","null","","","null","80","NaN","","","","","","","","","","","","","","",""
"","S2","","html-keyboard-response","518","588346","0.0-1.0-724.0","0","0","86113","","null","","","null","80","","NaN","","","","","","","","","","","","","",""
"","response","","html-keyboard-response","519","589050","0.0-1.0-725.0-0.0","0","0","86113","","702","","","68","80","","","2","80","training","adjacent","GF","7","6","R.jpg","O.jpg","0","0","1","",""
"","feedback","","html-keyboard-response","520","590066","0.0-1.0-726.0-0.0","0","0","86113","","null","","","null","80","","","","","","","","","","","","","","","",""
"","ITI","","html-keyboard-response","521","591069","0.0-1.0-729.0","0","0","86113","","null","","","null","80","","","","","","","","","","","","","","","NaN",""
"","S1","","html-keyboard-response","522","591332","0.0-1.0-731.0","0","0","86113","","null","","","null","81","","","","","","","","","","","","","","","",""
"","ISI","","html-keyboard-response","523","592336","0.0-1.0-732.0","0","0","86113","","null","","","null","81","NaN","","","","","","","","","","","","","","",""
"","S2","","html-keyboard-response","524","592590","0.0-1.0-733.0","0","0","86113","","null","","","null","81","","NaN","","","","","","","","","","","","","",""
"","response","","html-keyboard-response","525","593679","0.0-1.0-734.0-0.0","0","0","86113","","1087","","","68","81","","","2","81","training","adjacent","DE","4","5","M.jpg","N.jpg","0","1","0","",""
"","feedback","","html-keyboard-response","526","594695","0.0-1.0-735.0-0.0","0","0","86113","","null","","","null","81","","","","","","","","","","","","","","","",""
"","time_out","","html-keyboard-response","527","596700","0.0-1.0-737.0-0.0","0","0","86113","","null","","","null","81","","","","","","","","","","","","","","","",""
"","ITI","","html-keyboard-response","528","597702","0.0-1.0-738.0","0","0","86113","","null","","","null","81","","","","","","","","","","","","","","","NaN",""
"","S1","","html-keyboard-response","529","597972","0.0-1.0-740.0","0","0","86113","","null","","","null","82","","","","","","","","","","","","","","","",""
"","ISI","","html-keyboard-response","530","598974","0.0-1.0-741.0","0","0","86113","","null","","","null","82","NaN","","","","","","","","","","","","","","",""
"","S2","","html-keyboard-response","531","599237","0.0-1.0-742.0","0","0","86113","","null","","","null","82","","NaN","","","","","","","","","","","","","",""
"","response","","html-keyboard-response","532","600307","0.0-1.0-743.0-0.0","0","0","86113","","1068","","","75","82","","","2","82","training","adjacent","GF","7","6","R.jpg","O.jpg","1","0","0","",""
"","feedback","","html-keyboard-response","533","601310","0.0-1.0-744.0-0.0","0","0","86113","","null","","","null","82","","","","","","","","","","","","","","","",""
"","time_out","","html-keyboard-response","534","603316","0.0-1.0-746.0-0.0","0","0","86113","","null","","","null","82","","","","","","","","","","","","","","","",""
"","ITI","","html-keyboard-response","535","604319","0.0-1.0-747.0","0","0","86113","","null","","","null","82","","","","","","","","","","","","","","","NaN",""
"","S1","","html-keyboard-response","536","604588","0.0-1.0-749.0","0","0","86113","","null","","","null","83","","","","","","","","","","","","","","","",""
"","ISI","","html-keyboard-response","537","605591","0.0-1.0-750.0","0","0","86113","","null","","","null","83","NaN","","","","","","","","","","","","","","",""
"","S2","","html-keyboard-response","538","605854","0.0-1.0-751.0","0","0","86113","","null","","","null","83","","NaN","","","","","","","","","","","","","",""
"","response","","html-keyboard-response","539","606504","0.0-1.0-752.0-0.0","0","0","86113","","649","","","68","83","","","2","83","training","adjacent","EF","5","6","N.jpg","O.jpg","0","1","0","",""
"","feedback","","html-keyboard-response","540","607510","0.0-1.0-753.0-0.0","0","0","86113","","null","","","null","83","","","","","","","","","","","","","","","",""
"","time_out","","html-keyboard-response","541","609516","0.0-1.0-755.0-0.0","0","0","86113","","null","","","null","83","","","","","","","","","","","","","","","",""
"","ITI","","html-keyboard-response","542","610519","0.0-1.0-756.0","0","0","86113","","null","","","null","83","","","","","","","","","","","","","","","NaN",""
"","S1","","html-keyboard-response","543","610782","0.0-1.0-758.0","0","0","86113","","null","","","null","84","","","","","","","","","","","","","","","",""
"","ISI","","html-keyboard-response","544","611784","0.0-1.0-759.0","0","0","86113","","null","","","null","84","NaN","","","","","","","","","","","","","","",""
"","S2","","html-keyboard-response","545","612039","0.0-1.0-760.0","0","0","86113","","null","","","null","84","","NaN","","","","","","","","","","","","","",""
"","response","","html-keyboard-response","546","613101","0.0-1.0-761.0-0.0","0","0","86113","","1060","","","75","84","","","2","84","training","adjacent","DE","4","5","M.jpg","N.jpg","1","1","1","",""
"","feedback","","html-keyboard-response","547","614113","0.0-1.0-762.0-0.0","0","0","86113","","null","","","null","84","","","","","","","","","","","","","","","",""
"","ITI","","html-keyboard-response","548","615116","0.0-1.0-765.0","0","0","86113","","null","","","null","84","","","","","","","","","","","","","","","NaN",""
"","S1","","html-keyboard-response","549","615379","0.0-1.0-767.0","0","0","86113","","null","","","null","85","","","","","","","","","","","","","","","",""
"","ISI","","html-keyboard-response","550","616381","0.0-1.0-768.0","0","0","86113","","null","","","null","85","NaN","","","","","","","","","","","","","","",""
"","S2","","html-keyboard-response","551","616635","0.0-1.0-769.0","0","0","86113","","null","","","null","85","","NaN","","","","","","","","","","","","","",""
"","response","","html-keyboard-response","552","617094","0.0-1.0-770.0-0.0","0","0","86113","","456","","","75","85","","","2","85","training","adjacent","AB","1","2","Q.jpg","P.jpg","1","1","1","",""
"","feedback","","html-keyboard-response","553","618100","0.0-1.0-771.0-0.0","0","0","86113","","null","","","null","85","","","","","","","","","","","","","","","",""
"","ITI","","html-keyboard-response","554","619102","0.0-1.0-774.0","0","0","86113","","null","","","null","85","","","","","","","","","","","","","","","NaN",""
"","S1","","html-keyboard-response","555","619356","0.0-1.0-776.0","0","0","86113","","null","","","null","86","","","","","","","","","","","","","","","",""
"","ISI","","html-keyboard-response","556","620358","0.0-1.0-777.0","0","0","86113","","null","","","null","86","NaN","","","","","","","","","","","","","","",""
"","S2","","html-keyboard-response","557","620627","0.0-1.0-778.0","0","0","86113","","null","","","null","86","","NaN","","","","","","","","","","","","","",""
"","response","","html-keyboard-response","558","621198","0.0-1.0-779.0-0.0","0","0","86113","","569","","","68","86","","","2","86","training","adjacent","FE","6","5","O.jpg","N.jpg","0","0","1","",""
"","feedback","","html-keyboard-response","559","622210","0.0-1.0-780.0-0.0","0","0","86113","","null","","","null","86","","","","","","","","","","","","","","","",""
"","ITI","","html-keyboard-response","560","623213","0.0-1.0-783.0","0","0","86113","","null","","","null","86","","","","","","","","","","","","","","","NaN",""
"","S1","","html-keyboard-response","561","623466","0.0-1.0-785.0","0","0","86113","","null","","","null","87","","","","","","","","","","","","","","","",""
"","ISI","","html-keyboard-response","562","624468","0.0-1.0-786.0","0","0","86113","","null","","","null","87","NaN","","","","","","","","","","","","","","",""
"","S2","","html-keyboard-response","563","624738","0.0-1.0-787.0","0","0","86113","","null","","","null","87","","NaN","","","","","","","","","","","","","",""
"","response","","html-keyboard-response","564","625823","0.0-1.0-788.0-0.0","0","0","86113","","1082","","","68","87","","","2","87","training","adjacent","DC","4","3","M.jpg","L.jpg","0","0","1","",""
"","feedback","","html-keyboard-response","565","626844","0.0-1.0-789.0-0.0","0","0","86113","","null","","","null","87","","","","","","","","","","","","","","","",""
"","ITI","","html-keyboard-response","566","627847","0.0-1.0-792.0","0","0","86113","","null","","","null","87","","","","","","","","","","","","","","","NaN",""
"","S1","","html-keyboard-response","567","628110","0.0-1.0-794.0","0","0","86113","","null","","","null","88","","","","","","","","","","","","","","","",""
"","ISI","","html-keyboard-response","568","629111","0.0-1.0-795.0","0","0","86113","","null","","","null","88","NaN","","","","","","","","","","","","","","",""
"","S2","","html-keyboard-response","569","629367","0.0-1.0-796.0","0","0","86113","","null","","","null","88","","NaN","","","","","","","","","","","","","",""
"","response","","html-keyboard-response","570","630636","0.0-1.0-797.0-0.0","0","0","86113","","1267","","","68","88","","","2","88","training","adjacent","DE","4","5","M.jpg","N.jpg","0","1","0","",""
"","feedback","","html-keyboard-response","571","631656","0.0-1.0-798.0-0.0","0","0","86113","","null","","","null","88","","","","","","","","","","","","","","","",""
"","time_out","","html-keyboard-response","572","633663","0.0-1.0-800.0-0.0","0","0","86113","","null","","","null","88","","","","","","","","","","","","","","","",""
"","ITI","","html-keyboard-response","573","634665","0.0-1.0-801.0","0","0","86113","","null","","","null","88","","","","","","","","","","","","","","","NaN",""
"","S1","","html-keyboard-response","574","634928","0.0-1.0-803.0","0","0","86113","","null","","","null","89","","","","","","","","","","","","","","","",""
"","ISI","","html-keyboard-response","575","635930","0.0-1.0-804.0","0","0","86113","","null","","","null","89","NaN","","","","","","","","","","","","","","",""
"","S2","","html-keyboard-response","576","636184","0.0-1.0-805.0","0","0","86113","","null","","","null","89","","NaN","","","","","","","","","","","","","",""
"","response","","html-keyboard-response","577","637126","0.0-1.0-806.0-0.0","0","0","86113","","940","","","68","89","","","2","89","training","adjacent","FG","6","7","O.jpg","R.jpg","0","1","0","",""
"","feedback","","html-keyboard-response","578","638137","0.0-1.0-807.0-0.0","0","0","86113","","null","","","null","89","","","","","","","","","","","","","","","",""
"","time_out","","html-keyboard-response","579","640143","0.0-1.0-809.0-0.0","0","0","86113","","null","","","null","89","","","","","","","","","","","","","","","",""
"","ITI","","html-keyboard-response","580","641146","0.0-1.0-810.0","0","0","86113","","null","","","null","89","","","","","","","","","","","","","","","NaN",""
