"success","ttype","start_time","trial_type","trial_index","time_elapsed","internal_node_id","warning","missed_checkup","PID","view_history","rt","responses","repeat_instructions","key_press","index","keypress_isi","keypress_S2","block","trial_num","phase","group_type","pair_type","S1_stim","S2_stim","S1_img","S2_img","S1_chosen","S1_higher","accuracy","keypress_iti","total_bonus_tally"
"true","full_screen","d04142023hr2050","fullscreen","0","3784","0.0-0.0","0","0","22969","","","","","","","","","","","","","","","","","","","","","",""
"","instructions","","instructions","1","37891","0.0-1.0-0.0-0.0","0","0","22969","[{""page_index"":0,""viewing_time"":4953},{""page_index"":1,""viewing_time"":17777},{""page_index"":2,""viewing_time"":3192},{""page_index"":3,""viewing_time"":8184}]","34106","","","","","","","","","","","","","","","","","","","",""
"","comprehension_check","","survey-multi-choice","2","60155","0.0-1.0-0.0-1.0","0","0","22969","","22261","{""Q0"":""False"",""Q1"":""K"",""Q2"":""Only when the screen 'MAKE A CHOICE' is shown"",""Q3"":""Green mark"",""Q4"":""either D or K""}","1","","","","","","","","","","","","","","","","","",""
"","missed_instruction_checkup","","html-keyboard-response","3","62395","0.0-1.0-0.0-2.0-0.0","0","1","22969","","2238","","","32","","","","","","","","","","","","","","","","",""
"","instructions","","instructions","4","77378","0.0-1.0-0.1-0.1","0","0","22969","[{""page_index"":0,""viewing_time"":5711},{""page_index"":1,""viewing_time"":7664},{""page_index"":2,""viewing_time"":648},{""page_index"":3,""viewing_time"":960}]","14983","","","","","","","","","","","","","","","","","","","",""
"","comprehension_check","","survey-multi-choice","5","89683","0.0-1.0-0.1-1.1","0","0","22969","","12302","{""Q0"":""False"",""Q1"":""K"",""Q2"":""Once the second image appears and while the screen 'MAKE A CHOICE' is shown"",""Q3"":""Green mark"",""Q4"":""either D or K""}","1","","","","","","","","","","","","","","","","","",""
"","missed_instruction_checkup","","html-keyboard-response","6","90902","0.0-1.0-0.1-2.1-0.1","0","1","22969","","1218","","","32","","","","","","","","","","","","","","","","",""
"","instructions","","instructions","7","111130","0.0-1.0-0.2-0.2","0","0","22969","[{""page_index"":0,""viewing_time"":13155},{""page_index"":1,""viewing_time"":3377},{""page_index"":2,""viewing_time"":2120},{""page_index"":3,""viewing_time"":1575}]","20228","","","","","","","","","","","","","","","","","","","",""
"","comprehension_check","","survey-multi-choice","8","271218","0.0-1.0-0.2-1.2","0","0","22969","","160086","{""Q0"":""False"",""Q1"":""K"",""Q2"":""Once the second image appears and while the screen 'MAKE A CHOICE' is shown"",""Q3"":""Green mark"",""Q4"":""either D or K""}","1","","","","","","","","","","","","","","","","","",""
"","missed_instruction_checkup","","html-keyboard-response","9","273384","0.0-1.0-0.2-2.2-0.2","0","1","22969","","2164","","","32","","","","","","","","","","","","","","","","",""
"","instructions","","instructions","10","276386","0.0-1.0-0.3-0.3","0","0","22969","[{""page_index"":0,""viewing_time"":1641},{""page_index"":1,""viewing_time"":401},{""page_index"":2,""viewing_time"":503},{""page_index"":3,""viewing_time"":456}]","3001","","","","","","","","","","","","","","","","","","","",""
"","comprehension_check","","survey-multi-choice","11","287306","0.0-1.0-0.3-1.3","0","0","22969","","10918","{""Q0"":""True"",""Q1"":""K"",""Q2"":""Once the second image appears and while the screen 'MAKE A CHOICE' is shown"",""Q3"":""Green mark"",""Q4"":""either D or K""}","0","","","","","","","","","","","","","","","","","",""
"","start_exp","","html-keyboard-response","12","288899","0.0-1.0-1.0","0","0","22969","","1591","","","32","","","","","","","","","","","","","","","","",""
"","S1","","html-keyboard-response","13","289150","0.0-1.0-2.0","0","0","22969","","null","","","null","0","","","","","","","","","","","","","","","",""
"","ISI","","html-keyboard-response","14","290152","0.0-1.0-3.0","0","0","22969","","null","","","null","0","NaN","","","","","","","","","","","","","","",""
"","S2","","html-keyboard-response","15","290404","0.0-1.0-4.0","0","0","22969","","null","","","null","0","","NaN","","","","","","","","","","","","","",""
"","response","","html-keyboard-response","16","291757","0.0-1.0-5.0-0.0","0","0","22969","","1352","","","68","0","","","1","0","training","adjacent","AB","1","2","L.jpg","P.jpg","0","1","0","",""
"","feedback","","html-keyboard-response","17","292759","0.0-1.0-6.0-0.0","0","0","22969","","null","","","null","0","","","","","","","","","","","","","","","",""
"","time_out","","html-keyboard-response","18","294760","0.0-1.0-8.0-0.0","0","0","22969","","null","","","null","0","","","","","","","","","","","","","","","",""
"","ITI","","html-keyboard-response","19","295764","0.0-1.0-9.0","0","0","22969","","196","","","32","0","","","","","","","","","","","","","","","space",""
"","S1","","html-keyboard-response","20","296017","0.0-1.0-11.0","0","0","22969","","null","","","null","1","","","","","","","","","","","","","","","",""
"","ISI","","html-keyboard-response","21","297019","0.0-1.0-12.0","0","0","22969","","null","","","null","1","NaN","","","","","","","","","","","","","","",""
"","S2","","html-keyboard-response","22","297271","0.0-1.0-13.0","0","0","22969","","null","","","null","1","","NaN","","","","","","","","","","","","","",""
"","response","","html-keyboard-response","23","297483","0.0-1.0-14.0-0.0","0","0","22969","","210","","","75","1","","","1","1","training","adjacent","CB","3","2","N.jpg","P.jpg","1","0","0","",""
"","feedback","","html-keyboard-response","24","298484","0.0-1.0-15.0-0.0","0","0","22969","","null","","","null","1","","","","","","","","","","","","","","","",""
"","time_out","","html-keyboard-response","25","300487","0.0-1.0-17.0-0.0","0","0","22969","","null","","","null","1","","","","","","","","","","","","","","","",""
"","ITI","","html-keyboard-response","26","301489","0.0-1.0-18.0","0","0","22969","","634","","","32","1","","","","","","","","","","","","","","","space",""
"","S1","","html-keyboard-response","27","301741","0.0-1.0-20.0","0","0","22969","","null","","","null","2","","","","","","","","","","","","","","","",""
"","ISI","","html-keyboard-response","28","302742","0.0-1.0-21.0","0","0","22969","","null","","","null","2","NaN","","","","","","","","","","","","","","",""
"","S2","","html-keyboard-response","29","302994","0.0-1.0-22.0","0","0","22969","","null","","","null","2","","NaN","","","","","","","","","","","","","",""
"","response","","html-keyboard-response","30","303538","0.0-1.0-23.0-0.0","0","0","22969","","543","","","75","2","","","1","2","training","adjacent","ED","5","4","Q.jpg","R.jpg","1","0","0","",""
"","feedback","","html-keyboard-response","31","304540","0.0-1.0-24.0-0.0","0","0","22969","","null","","","null","2","","","","","","","","","","","","","","","",""
"","time_out","","html-keyboard-response","32","306542","0.0-1.0-26.0-0.0","0","0","22969","","null","","","null","2","","","","","","","","","","","","","","","",""
"","ITI","","html-keyboard-response","33","307543","0.0-1.0-27.0","0","0","22969","","428","","","32","2","","","","","","","","","","","","","","","space",""
"","S1","","html-keyboard-response","34","307795","0.0-1.0-29.0","0","0","22969","","null","","","null","3","","","","","","","","","","","","","","","",""
"","ISI","","html-keyboard-response","35","308797","0.0-1.0-30.0","0","0","22969","","88","","","68","3","d","","","","","","","","","","","","","","",""
"","S2","","html-keyboard-response","36","309017","0.0-1.0-31.0","0","0","22969","","218","","","68","3","","d","1","3","training","adjacent","CD","3","4","N.jpg","R.jpg","0","1","0","",""
"","feedback","","html-keyboard-response","37","310019","0.0-1.0-33.0-0.0","0","0","22969","","null","","","null","3","","","","","","","","","","","","","","","",""
"","time_out","","html-keyboard-response","38","312020","0.0-1.0-35.0-0.0","0","0","22969","","null","","","null","3","","","","","","","","","","","","","","","",""
"","ITI","","html-keyboard-response","39","313032","0.0-1.0-36.0","0","0","22969","","179","","","32","3","","","","","","","","","","","","","","","space",""
"","S1","","html-keyboard-response","40","313284","0.0-1.0-38.0","0","0","22969","","null","","","null","4","","","","","","","","","","","","","","","",""
"","ISI","","html-keyboard-response","41","314286","0.0-1.0-39.0","0","0","22969","","137","","","75","4","k","","","","","","","","","","","","","","",""
"","S2","","html-keyboard-response","42","314538","0.0-1.0-40.0","0","0","22969","","null","","","null","4","","NaN","","","","","","","","","","","","","",""
"","response","","html-keyboard-response","43","314544","0.0-1.0-41.0-0.0","0","0","22969","","6","","","75","4","","","1","4","training","adjacent","CD","3","4","N.jpg","R.jpg","1","1","1","",""
"","feedback","","html-keyboard-response","44","315546","0.0-1.0-42.0-0.0","0","0","22969","","null","","","null","4","","","","","","","","","","","","","","","",""
"","ITI","","html-keyboard-response","45","316548","0.0-1.0-45.0","0","0","22969","","null","","","null","4","","","","","","","","","","","","","","","NaN",""
"","S1","","html-keyboard-response","46","316799","0.0-1.0-47.0","0","0","22969","","null","","","null","5","","","","","","","","","","","","","","","",""
"","ISI","","html-keyboard-response","47","317809","0.0-1.0-48.0","0","0","22969","","null","","","null","5","NaN","","","","","","","","","","","","","","",""
"","S2","","html-keyboard-response","48","318074","0.0-1.0-49.0","0","0","22969","","null","","","null","5","","NaN","","","","","","","","","","","","","",""
"","response","","html-keyboard-response","49","318216","0.0-1.0-50.0-0.0","0","0","22969","","141","","","75","5","","","1","5","training","adjacent","CD","3","4","N.jpg","R.jpg","1","1","1","",""
"","feedback","","html-keyboard-response","50","319225","0.0-1.0-51.0-0.0","0","0","22969","","null","","","null","5","","","","","","","","","","","","","","","",""
"","ITI","","html-keyboard-response","51","320228","0.0-1.0-54.0","0","0","22969","","null","","","null","5","","","","","","","","","","","","","","","NaN",""
"","S1","","html-keyboard-response","52","320480","0.0-1.0-56.0","0","0","22969","","null","","","null","6","","","","","","","","","","","","","","","",""
"","ISI","","html-keyboard-response","53","321481","0.0-1.0-57.0","0","0","22969","","null","","","null","6","NaN","","","","","","","","","","","","","","",""
"","S2","","html-keyboard-response","54","321713","0.0-1.0-58.0","0","0","22969","","230","","","68","6","","d","1","6","training","adjacent","FG","6","7","O.jpg","M.jpg","0","1","0","",""
"","feedback","","html-keyboard-response","55","322715","0.0-1.0-60.0-0.0","0","0","22969","","null","","","null","6","","","","","","","","","","","","","","","",""
"","time_out","","html-keyboard-response","56","324717","0.0-1.0-62.0-0.0","0","0","22969","","null","","","null","6","","","","","","","","","","","","","","","",""
"","ITI","","html-keyboard-response","57","325718","0.0-1.0-63.0","0","0","22969","","null","","","null","6","","","","","","","","","","","","","","","NaN",""
"","S1","","html-keyboard-response","58","325970","0.0-1.0-65.0","0","0","22969","","null","","","null","7","","","","","","","","","","","","","","","",""
"","ISI","","html-keyboard-response","59","326972","0.0-1.0-66.0","0","0","22969","","null","","","null","7","NaN","","","","","","","","","","","","","","",""
"","S2","","html-keyboard-response","60","327224","0.0-1.0-67.0","0","0","22969","","null","","","null","7","","NaN","","","","","","","","","","","","","",""
"","response","","html-keyboard-response","61","327378","0.0-1.0-68.0-0.0","0","0","22969","","153","","","68","7","","","1","7","training","adjacent","GF","7","6","M.jpg","O.jpg","0","0","1","",""
"","feedback","","html-keyboard-response","62","328380","0.0-1.0-69.0-0.0","0","0","22969","","null","","","null","7","","","","","","","","","","","","","","","",""
"","ITI","","html-keyboard-response","63","329382","0.0-1.0-72.0","0","0","22969","","null","","","null","7","","","","","","","","","","","","","","","NaN",""
"","S1","","html-keyboard-response","64","329634","0.0-1.0-74.0","0","0","22969","","null","","","null","8","","","","","","","","","","","","","","","",""
"","ISI","","html-keyboard-response","65","330636","0.0-1.0-75.0","0","0","22969","","null","","","null","8","NaN","","","","","","","","","","","","","","",""
"","S2","","html-keyboard-response","66","330888","0.0-1.0-76.0","0","0","22969","","null","","","null","8","","NaN","","","","","","","","","","","","","",""
"","response","","html-keyboard-response","67","331390","0.0-1.0-77.0-0.0","0","0","22969","","501","","","68","8","","","1","8","training","adjacent","DC","4","3","R.jpg","N.jpg","0","0","1","",""
"","feedback","","html-keyboard-response","68","332391","0.0-1.0-78.0-0.0","0","0","22969","","null","","","null","8","","","","","","","","","","","","","","","",""
"","ITI","","html-keyboard-response","69","333407","0.0-1.0-81.0","0","0","22969","","null","","","null","8","","","","","","","","","","","","","","","NaN",""
"","S1","","html-keyboard-response","70","333659","0.0-1.0-83.0","0","0","22969","","null","","","null","9","","","","","","","","","","","","","","","",""
"","ISI","","html-keyboard-response","71","334660","0.0-1.0-84.0","0","0","22969","","null","","","null","9","NaN","","","","","","","","","","","","","","",""
"","S2","","html-keyboard-response","72","334912","0.0-1.0-85.0","0","0","22969","","null","","","null","9","","NaN","","","","","","","","","","","","","",""
"","response","","html-keyboard-response","73","335028","0.0-1.0-86.0-0.0","0","0","22969","","115","","","75","9","","","1","9","training","adjacent","ED","5","4","Q.jpg","R.jpg","1","0","0","",""
"","feedback","","html-keyboard-response","74","336029","0.0-1.0-87.0-0.0","0","0","22969","","null","","","null","9","","","","","","","","","","","","","","","",""
"","time_out","","html-keyboard-response","75","338031","0.0-1.0-89.0-0.0","0","0","22969","","null","","","null","9","","","","","","","","","","","","","","","",""
"","ITI","","html-keyboard-response","76","339033","0.0-1.0-90.0","0","0","22969","","null","","","null","9","","","","","","","","","","","","","","","NaN",""
"","S1","","html-keyboard-response","77","339285","0.0-1.0-92.0","0","0","22969","","null","","","null","10","","","","","","","","","","","","","","","",""
"","ISI","","html-keyboard-response","78","340287","0.0-1.0-93.0","0","0","22969","","null","","","null","10","NaN","","","","","","","","","","","","","","",""
"","S2","","html-keyboard-response","79","340540","0.0-1.0-94.0","0","0","22969","","null","","","null","10","","NaN","","","","","","","","","","","","","",""
"","response","","html-keyboard-response","80","340564","0.0-1.0-95.0-0.0","0","0","22969","","23","","","75","10","","","1","10","training","adjacent","FG","6","7","O.jpg","M.jpg","1","1","1","",""
"","feedback","","html-keyboard-response","81","341565","0.0-1.0-96.0-0.0","0","0","22969","","null","","","null","10","","","","","","","","","","","","","","","",""
"","ITI","","html-keyboard-response","82","342568","0.0-1.0-99.0","0","0","22969","","null","","","null","10","","","","","","","","","","","","","","","NaN",""
"","S1","","html-keyboard-response","83","342820","0.0-1.0-101.0","0","0","22969","","null","","","null","11","","","","","","","","","","","","","","","",""
"","ISI","","html-keyboard-response","84","343822","0.0-1.0-102.0","0","0","22969","","null","","","null","11","NaN","","","","","","","","","","","","","","",""
"","S2","","html-keyboard-response","85","344041","0.0-1.0-103.0","0","0","22969","","218","","","75","11","","k","1","11","training","adjacent","GF","7","6","M.jpg","O.jpg","1","0","0","",""
"","feedback","","html-keyboard-response","86","345042","0.0-1.0-105.0-0.0","0","0","22969","","null","","","null","11","","","","","","","","","","","","","","","",""
"","time_out","","html-keyboard-response","87","347043","0.0-1.0-107.0-0.0","0","0","22969","","null","","","null","11","","","","","","","","","","","","","","","",""
"","ITI","","html-keyboard-response","88","348045","0.0-1.0-108.0","0","0","22969","","null","","","null","11","","","","","","","","","","","","","","","NaN",""
"","S1","","html-keyboard-response","89","348298","0.0-1.0-110.0","0","0","22969","","null","","","null","12","","","","","","","","","","","","","","","",""
"","ISI","","html-keyboard-response","90","349300","0.0-1.0-111.0","0","0","22969","","381","","","68","12","d","","","","","","","","","","","","","","",""
"","S2","","html-keyboard-response","91","349545","0.0-1.0-112.0","0","0","22969","","244","","","68","12","","d","1","12","training","adjacent","GF","7","6","M.jpg","O.jpg","0","0","1","",""
"","feedback","","html-keyboard-response","92","350547","0.0-1.0-114.0-0.0","0","0","22969","","null","","","null","12","","","","","","","","","","","","","","","",""
"","ITI","","html-keyboard-response","93","351548","0.0-1.0-117.0","0","0","22969","","null","","","null","12","","","","","","","","","","","","","","","NaN",""
"","S1","","html-keyboard-response","94","351801","0.0-1.0-119.0","0","0","22969","","null","","","null","13","","","","","","","","","","","","","","","",""
"","ISI","","html-keyboard-response","95","352802","0.0-1.0-120.0","0","0","22969","","null","","","null","13","NaN","","","","","","","","","","","","","","",""
"","S2","","html-keyboard-response","96","352994","0.0-1.0-121.0","0","0","22969","","190","","","75","13","","k","1","13","training","adjacent","EF","5","6","Q.jpg","O.jpg","1","1","1","",""
"","feedback","","html-keyboard-response","97","353996","0.0-1.0-123.0-0.0","0","0","22969","","null","","","null","13","","","","","","","","","","","","","","","",""
"","ITI","","html-keyboard-response","98","354998","0.0-1.0-126.0","0","0","22969","","null","","","null","13","","","","","","","","","","","","","","","NaN",""
"","S1","","html-keyboard-response","99","355250","0.0-1.0-128.0","0","0","22969","","null","","","null","14","","","","","","","","","","","","","","","",""
"","ISI","","html-keyboard-response","100","356252","0.0-1.0-129.0","0","0","22969","","null","","","null","14","NaN","","","","","","","","","","","","","","",""
"","S2","","html-keyboard-response","101","356504","0.0-1.0-130.0","0","0","22969","","null","","","null","14","","NaN","","","","","","","","","","","","","",""
"","response","","html-keyboard-response","102","356783","0.0-1.0-131.0-0.0","0","0","22969","","277","","","75","14","","","1","14","training","adjacent","BA","2","1","P.jpg","L.jpg","1","0","0","",""
"","feedback","","html-keyboard-response","103","357784","0.0-1.0-132.0-0.0","0","0","22969","","null","","","null","14","","","","","","","","","","","","","","","",""
"","time_out","","html-keyboard-response","104","359785","0.0-1.0-134.0-0.0","0","0","22969","","null","","","null","14","","","","","","","","","","","","","","","",""
"","ITI","","html-keyboard-response","105","360787","0.0-1.0-135.0","0","0","22969","","null","","","null","14","","","","","","","","","","","","","","","NaN",""
"","S1","","html-keyboard-response","106","361039","0.0-1.0-137.0","0","0","22969","","null","","","null","15","","","","","","","","","","","","","","","",""
"","ISI","","html-keyboard-response","107","362041","0.0-1.0-138.0","0","0","22969","","67","","","68","15","d","","","","","","","","","","","","","","",""
"","S2","","html-keyboard-response","108","362103","0.0-1.0-139.0","0","0","22969","","60","","","75","15","","k","1","15","training","adjacent","BC","2","3","P.jpg","N.jpg","1","1","1","",""
"","feedback","","html-keyboard-response","109","363105","0.0-1.0-141.0-0.0","0","0","22969","","null","","","null","15","","","","","","","","","","","","","","","",""
"","ITI","","html-keyboard-response","110","364107","0.0-1.0-144.0","0","0","22969","","null","","","null","15","","","","","","","","","","","","","","","NaN",""
"","S1","","html-keyboard-response","111","364359","0.0-1.0-146.0","0","0","22969","","null","","","null","16","","","","","","","","","","","","","","","",""
"","ISI","","html-keyboard-response","112","365361","0.0-1.0-147.0","0","0","22969","","null","","","null","16","NaN","","","","","","","","","","","","","","",""
"","S2","","html-keyboard-response","113","365586","0.0-1.0-148.0","0","0","22969","","224","","","75","16","","k","1","16","training","adjacent","BA","2","1","P.jpg","L.jpg","1","0","0","",""
"","feedback","","html-keyboard-response","114","366588","0.0-1.0-150.0-0.0","0","0","22969","","null","","","null","16","","","","","","","","","","","","","","","",""
"","time_out","","html-keyboard-response","115","368590","0.0-1.0-152.0-0.0","0","0","22969","","null","","","null","16","","","","","","","","","","","","","","","",""
"","ITI","","html-keyboard-response","116","369592","0.0-1.0-153.0","0","0","22969","","null","","","null","16","","","","","","","","","","","","","","","NaN",""
"","S1","","html-keyboard-response","117","369843","0.0-1.0-155.0","0","0","22969","","null","","","null","17","","","","","","","","","","","","","","","",""
"","ISI","","html-keyboard-response","118","370844","0.0-1.0-156.0","0","0","22969","","null","","","null","17","NaN","","","","","","","","","","","","","","",""
"","S2","","html-keyboard-response","119","370999","0.0-1.0-157.0","0","0","22969","","153","","","75","17","","k","1","17","training","adjacent","FE","6","5","O.jpg","Q.jpg","1","0","0","",""
"","feedback","","html-keyboard-response","120","372001","0.0-1.0-159.0-0.0","0","0","22969","","null","","","null","17","","","","","","","","","","","","","","","",""
"","time_out","","html-keyboard-response","121","374004","0.0-1.0-161.0-0.0","0","0","22969","","null","","","null","17","","","","","","","","","","","","","","","",""
"","ITI","","html-keyboard-response","122","375005","0.0-1.0-162.0","0","0","22969","","null","","","null","17","","","","","","","","","","","","","","","NaN",""
"","S1","","html-keyboard-response","123","375257","0.0-1.0-164.0","0","0","22969","","null","","","null","18","","","","","","","","","","","","","","","",""
"","ISI","","html-keyboard-response","124","376259","0.0-1.0-165.0","0","0","22969","","null","","","null","18","NaN","","","","","","","","","","","","","","",""
"","S2","","html-keyboard-response","125","376455","0.0-1.0-166.0","0","0","22969","","194","","","68","18","","d","1","18","training","adjacent","BA","2","1","P.jpg","L.jpg","0","0","1","",""
"","feedback","","html-keyboard-response","126","377457","0.0-1.0-168.0-0.0","0","0","22969","","null","","","null","18","","","","","","","","","","","","","","","",""
"","ITI","","html-keyboard-response","127","378459","0.0-1.0-171.0","0","0","22969","","null","","","null","18","","","","","","","","","","","","","","","NaN",""
"","S1","","html-keyboard-response","128","378711","0.0-1.0-173.0","0","0","22969","","null","","","null","19","","","","","","","","","","","","","","","",""
"","ISI","","html-keyboard-response","129","379713","0.0-1.0-174.0","0","0","22969","","null","","","null","19","NaN","","","","","","","","","","","","","","",""
"","S2","","html-keyboard-response","130","379929","0.0-1.0-175.0","0","0","22969","","215","","","75","19","","k","1","19","training","adjacent","FG","6","7","O.jpg","M.jpg","1","1","1","",""
"","feedback","","html-keyboard-response","131","380931","0.0-1.0-177.0-0.0","0","0","22969","","null","","","null","19","","","","","","","","","","","","","","","",""
"","ITI","","html-keyboard-response","132","381933","0.0-1.0-180.0","0","0","22969","","null","","","null","19","","","","","","","","","","","","","","","NaN",""
"","S1","","html-keyboard-response","133","382184","0.0-1.0-182.0","0","0","22969","","null","","","null","20","","","","","","","","","","","","","","","",""
"","ISI","","html-keyboard-response","134","383186","0.0-1.0-183.0","0","0","22969","","null","","","null","20","NaN","","","","","","","","","","","","","","",""
"","S2","","html-keyboard-response","135","383415","0.0-1.0-184.0","0","0","22969","","227","","","75","20","","k","1","20","training","adjacent","DE","4","5","R.jpg","Q.jpg","1","1","1","",""
"","feedback","","html-keyboard-response","136","384417","0.0-1.0-186.0-0.0","0","0","22969","","null","","","null","20","","","","","","","","","","","","","","","",""
"","ITI","","html-keyboard-response","137","385419","0.0-1.0-189.0","0","0","22969","","null","","","null","20","","","","","","","","","","","","","","","NaN",""
"","S1","","html-keyboard-response","138","385670","0.0-1.0-191.0","0","0","22969","","null","","","null","21","","","","","","","","","","","","","","","",""
"","ISI","","html-keyboard-response","139","386671","0.0-1.0-192.0","0","0","22969","","null","","","null","21","NaN","","","","","","","","","","","","","","",""
"","S2","","html-keyboard-response","140","386923","0.0-1.0-193.0","0","0","22969","","null","","","null","21","","NaN","","","","","","","","","","","","","",""
"","response","","html-keyboard-response","141","387032","0.0-1.0-194.0-0.0","0","0","22969","","108","","","68","21","","","1","21","training","adjacent","AB","1","2","L.jpg","P.jpg","0","1","0","",""
"","feedback","","html-keyboard-response","142","388033","0.0-1.0-195.0-0.0","0","0","22969","","null","","","null","21","","","","","","","","","","","","","","","",""
"","time_out","","html-keyboard-response","143","390035","0.0-1.0-197.0-0.0","0","0","22969","","null","","","null","21","","","","","","","","","","","","","","","",""
"","ITI","","html-keyboard-response","144","391037","0.0-1.0-198.0","0","0","22969","","null","","","null","21","","","","","","","","","","","","","","","NaN",""
"","S1","","html-keyboard-response","145","391289","0.0-1.0-200.0","0","0","22969","","null","","","null","22","","","","","","","","","","","","","","","",""
"","ISI","","html-keyboard-response","146","392291","0.0-1.0-201.0","0","0","22969","","29","","","68","22","d","","","","","","","","","","","","","","",""
"","S2","","html-keyboard-response","147","392543","0.0-1.0-202.0","0","0","22969","","null","","","null","22","","NaN","","","","","","","","","","","","","",""
"","response","","html-keyboard-response","148","392546","0.0-1.0-203.0-0.0","0","0","22969","","1","","","75","22","","","1","22","training","adjacent","CD","3","4","N.jpg","R.jpg","1","1","1","",""
"","feedback","","html-keyboard-response","149","393548","0.0-1.0-204.0-0.0","0","0","22969","","null","","","null","22","","","","","","","","","","","","","","","",""
"","ITI","","html-keyboard-response","150","394551","0.0-1.0-207.0","0","0","22969","","null","","","null","22","","","","","","","","","","","","","","","NaN",""
"","S1","","html-keyboard-response","151","394803","0.0-1.0-209.0","0","0","22969","","null","","","null","23","","","","","","","","","","","","","","","",""
"","ISI","","html-keyboard-response","152","395804","0.0-1.0-210.0","0","0","22969","","null","","","null","23","NaN","","","","","","","","","","","","","","",""
"","S2","","html-keyboard-response","153","396055","0.0-1.0-211.0","0","0","22969","","250","","","75","23","","k","1","23","training","adjacent","FE","6","5","O.jpg","Q.jpg","1","0","0","",""
"","feedback","","html-keyboard-response","154","397056","0.0-1.0-213.0-0.0","0","0","22969","","null","","","null","23","","","","","","","","","","","","","","","",""
"","time_out","","html-keyboard-response","155","399058","0.0-1.0-215.0-0.0","0","0","22969","","null","","","null","23","","","","","","","","","","","","","","","",""
"","ITI","","html-keyboard-response","156","400059","0.0-1.0-216.0","0","0","22969","","387","","","68","23","","","","","","","","","","","","","","","d",""
"","S1","","html-keyboard-response","157","400312","0.0-1.0-218.0","0","0","22969","","null","","","null","24","","","","","","","","","","","","","","","",""
"","ISI","","html-keyboard-response","158","401313","0.0-1.0-219.0","0","0","22969","","null","","","null","24","NaN","","","","","","","","","","","","","","",""
"","S2","","html-keyboard-response","159","401366","0.0-1.0-220.0","0","0","22969","","52","","","75","24","","k","1","24","training","adjacent","DE","4","5","R.jpg","Q.jpg","1","1","1","",""
"","feedback","","html-keyboard-response","160","402368","0.0-1.0-222.0-0.0","0","0","22969","","null","","","null","24","","","","","","","","","","","","","","","",""
"","ITI","","html-keyboard-response","161","403369","0.0-1.0-225.0","0","0","22969","","null","","","null","24","","","","","","","","","","","","","","","NaN",""
"","S1","","html-keyboard-response","162","403621","0.0-1.0-227.0","0","0","22969","","null","","","null","25","","","","","","","","","","","","","","","",""
"","ISI","","html-keyboard-response","163","404627","0.0-1.0-228.0","0","0","22969","","6","","","68","25","d","","","","","","","","","","","","","","",""
"","S2","","html-keyboard-response","164","404879","0.0-1.0-229.0","0","0","22969","","null","","","null","25","","NaN","","","","","","","","","","","","","",""
"","response","","html-keyboard-response","165","404936","0.0-1.0-230.0-0.0","0","0","22969","","56","","","75","25","","","1","25","training","adjacent","EF","5","6","Q.jpg","O.jpg","1","1","1","",""
"","feedback","","html-keyboard-response","166","405938","0.0-1.0-231.0-0.0","0","0","22969","","null","","","null","25","","","","","","","","","","","","","","","",""
"","ITI","","html-keyboard-response","167","406940","0.0-1.0-234.0","0","0","22969","","null","","","null","25","","","","","","","","","","","","","","","NaN",""
"","S1","","html-keyboard-response","168","407192","0.0-1.0-236.0","0","0","22969","","null","","","null","26","","","","","","","","","","","","","","","",""
"","ISI","","html-keyboard-response","169","408193","0.0-1.0-237.0","0","0","22969","","222","","","68","26","d","","","","","","","","","","","","","","",""
"","S2","","html-keyboard-response","170","408439","0.0-1.0-238.0","0","0","22969","","246","","","75","26","","k","1","26","training","adjacent","AB","1","2","L.jpg","P.jpg","1","1","1","",""
"","feedback","","html-keyboard-response","171","409442","0.0-1.0-240.0-0.0","0","0","22969","","null","","","null","26","","","","","","","","","","","","","","","",""
"","ITI","","html-keyboard-response","172","410443","0.0-1.0-243.0","0","0","22969","","null","","","null","26","","","","","","","","","","","","","","","NaN",""
"","S1","","html-keyboard-response","173","410696","0.0-1.0-245.0","0","0","22969","","null","","","null","27","","","","","","","","","","","","","","","",""
"","ISI","","html-keyboard-response","174","411698","0.0-1.0-246.0","0","0","22969","","15","","","68","27","d","","","","","","","","","","","","","","",""
"","S2","","html-keyboard-response","175","411949","0.0-1.0-247.0","0","0","22969","","null","","","null","27","","NaN","","","","","","","","","","","","","",""
"","response","","html-keyboard-response","176","412000","0.0-1.0-248.0-0.0","0","0","22969","","51","","","75","27","","","1","27","training","adjacent","BC","2","3","P.jpg","N.jpg","1","1","1","",""
"","feedback","","html-keyboard-response","177","413003","0.0-1.0-249.0-0.0","0","0","22969","","null","","","null","27","","","","","","","","","","","","","","","",""
"","ITI","","html-keyboard-response","178","414004","0.0-1.0-252.0","0","0","22969","","null","","","null","27","","","","","","","","","","","","","","","NaN",""
"","S1","","html-keyboard-response","179","414256","0.0-1.0-254.0","0","0","22969","","null","","","null","28","","","","","","","","","","","","","","","",""
"","ISI","","html-keyboard-response","180","415257","0.0-1.0-255.0","0","0","22969","","null","","","null","28","NaN","","","","","","","","","","","","","","",""
"","S2","","html-keyboard-response","181","415509","0.0-1.0-256.0","0","0","22969","","null","","","null","28","","NaN","","","","","","","","","","","","","",""
"","response","","html-keyboard-response","182","415526","0.0-1.0-257.0-0.0","0","0","22969","","16","","","75","28","","","1","28","training","adjacent","CB","3","2","N.jpg","P.jpg","1","0","0","",""
"","feedback","","html-keyboard-response","183","416528","0.0-1.0-258.0-0.0","0","0","22969","","null","","","null","28","","","","","","","","","","","","","","","",""
"","time_out","","html-keyboard-response","184","418529","0.0-1.0-260.0-0.0","0","0","22969","","null","","","null","28","","","","","","","","","","","","","","","",""
"","ITI","","html-keyboard-response","185","419530","0.0-1.0-261.0","0","0","22969","","null","","","null","28","","","","","","","","","","","","","","","NaN",""
"","S1","","html-keyboard-response","186","419782","0.0-1.0-263.0","0","0","22969","","null","","","null","29","","","","","","","","","","","","","","","",""
"","ISI","","html-keyboard-response","187","420784","0.0-1.0-264.0","0","0","22969","","132","","","68","29","d","","","","","","","","","","","","","","",""
"","S2","","html-keyboard-response","188","420949","0.0-1.0-265.0","0","0","22969","","164","","","68","29","","d","1","29","training","adjacent","EF","5","6","Q.jpg","O.jpg","0","1","0","",""
"","feedback","","html-keyboard-response","189","421950","0.0-1.0-267.0-0.0","0","0","22969","","null","","","null","29","","","","","","","","","","","","","","","",""
"","time_out","","html-keyboard-response","190","423951","0.0-1.0-269.0-0.0","0","0","22969","","null","","","null","29","","","","","","","","","","","","","","","",""
"","ITI","","html-keyboard-response","191","424953","0.0-1.0-270.0","0","0","22969","","null","","","null","29","","","","","","","","","","","","","","","NaN",""
"","S1","","html-keyboard-response","192","425204","0.0-1.0-272.0","0","0","22969","","null","","","null","30","","","","","","","","","","","","","","","",""
"","ISI","","html-keyboard-response","193","426206","0.0-1.0-273.0","0","0","22969","","72","","","75","30","k","","","","","","","","","","","","","","",""
"","S2","","html-keyboard-response","194","426407","0.0-1.0-274.0","0","0","22969","","201","","","75","30","","k","1","30","training","adjacent","DE","4","5","R.jpg","Q.jpg","1","1","1","",""
"","feedback","","html-keyboard-response","195","427410","0.0-1.0-276.0-0.0","0","0","22969","","null","","","null","30","","","","","","","","","","","","","","","",""
"","ITI","","html-keyboard-response","196","428412","0.0-1.0-279.0","0","0","22969","","null","","","null","30","","","","","","","","","","","","","","","NaN",""
"","S1","","html-keyboard-response","197","428664","0.0-1.0-281.0","0","0","22969","","null","","","null","31","","","","","","","","","","","","","","","",""
"","ISI","","html-keyboard-response","198","429666","0.0-1.0-282.0","0","0","22969","","483","","","75","31","k","","","","","","","","","","","","","","",""
"","S2","","html-keyboard-response","199","429681","0.0-1.0-283.0","0","0","22969","","14","","","75","31","","k","1","31","training","adjacent","BA","2","1","P.jpg","L.jpg","1","0","0","",""
"","feedback","","html-keyboard-response","200","430683","0.0-1.0-285.0-0.0","0","0","22969","","null","","","null","31","","","","","","","","","","","","","","","",""
"","time_out","","html-keyboard-response","201","432685","0.0-1.0-287.0-0.0","0","0","22969","","null","","","null","31","","","","","","","","","","","","","","","",""
"","ITI","","html-keyboard-response","202","433687","0.0-1.0-288.0","0","0","22969","","247","","","75","31","","","","","","","","","","","","","","","k",""
"","S1","","html-keyboard-response","203","433938","0.0-1.0-290.0","0","0","22969","","null","","","null","32","","","","","","","","","","","","","","","",""
"","ISI","","html-keyboard-response","204","434939","0.0-1.0-291.0","0","0","22969","","126","","","75","32","k","","","","","","","","","","","","","","",""
"","S2","","html-keyboard-response","205","435092","0.0-1.0-292.0","0","0","22969","","152","","","75","32","","k","1","32","training","adjacent","DC","4","3","R.jpg","N.jpg","1","0","0","",""
"","feedback","","html-keyboard-response","206","436094","0.0-1.0-294.0-0.0","0","0","22969","","null","","","null","32","","","","","","","","","","","","","","","",""
"","time_out","","html-keyboard-response","207","438096","0.0-1.0-296.0-0.0","0","0","22969","","null","","","null","32","","","","","","","","","","","","","","","",""
"","ITI","","html-keyboard-response","208","439099","0.0-1.0-297.0","0","0","22969","","null","","","null","32","","","","","","","","","","","","","","","NaN",""
"","S1","","html-keyboard-response","209","439352","0.0-1.0-299.0","0","0","22969","","null","","","null","33","","","","","","","","","","","","","","","",""
"","ISI","","html-keyboard-response","210","440353","0.0-1.0-300.0","0","0","22969","","570","","","68","33","d","","","","","","","","","","","","","","",""
"","S2","","html-keyboard-response","211","440485","0.0-1.0-301.0","0","0","22969","","131","","","68","33","","d","1","33","training","adjacent","DC","4","3","R.jpg","N.jpg","0","0","1","",""
"","feedback","","html-keyboard-response","212","441487","0.0-1.0-303.0-0.0","0","0","22969","","null","","","null","33","","","","","","","","","","","","","","","",""
"","ITI","","html-keyboard-response","213","442489","0.0-1.0-306.0","0","0","22969","","null","","","null","33","","","","","","","","","","","","","","","NaN",""
"","S1","","html-keyboard-response","214","442741","0.0-1.0-308.0","0","0","22969","","null","","","null","34","","","","","","","","","","","","","","","",""
"","ISI","","html-keyboard-response","215","443743","0.0-1.0-309.0","0","0","22969","","null","","","null","34","NaN","","","","","","","","","","","","","","",""
"","S2","","html-keyboard-response","216","443995","0.0-1.0-310.0","0","0","22969","","null","","","null","34","","NaN","","","","","","","","","","","","","",""
"","response","","html-keyboard-response","217","444106","0.0-1.0-311.0-0.0","0","0","22969","","110","","","75","34","","","1","34","training","adjacent","ED","5","4","Q.jpg","R.jpg","1","0","0","",""
"","feedback","","html-keyboard-response","218","445108","0.0-1.0-312.0-0.0","0","0","22969","","null","","","null","34","","","","","","","","","","","","","","","",""
"","time_out","","html-keyboard-response","219","447110","0.0-1.0-314.0-0.0","0","0","22969","","null","","","null","34","","","","","","","","","","","","","","","",""
"","ITI","","html-keyboard-response","220","448112","0.0-1.0-315.0","0","0","22969","","null","","","null","34","","","","","","","","","","","","","","","NaN",""
"","S1","","html-keyboard-response","221","448363","0.0-1.0-317.0","0","0","22969","","null","","","null","35","","","","","","","","","","","","","","","",""
"","ISI","","html-keyboard-response","222","449366","0.0-1.0-318.0","0","0","22969","","46","","","68","35","d","","","","","","","","","","","","","","",""
"","S2","","html-keyboard-response","223","449592","0.0-1.0-319.0","0","0","22969","","226","","","68","35","","d","1","35","training","adjacent","FE","6","5","O.jpg","Q.jpg","0","0","1","",""
"","feedback","","html-keyboard-response","224","450593","0.0-1.0-321.0-0.0","0","0","22969","","null","","","null","35","","","","","","","","","","","","","","","",""
"","ITI","","html-keyboard-response","225","451611","0.0-1.0-324.0","0","0","22969","","null","","","null","35","","","","","","","","","","","","","","","NaN",""
"","S1","","html-keyboard-response","226","451862","0.0-1.0-326.0","0","0","22969","","null","","","null","36","","","","","","","","","","","","","","","",""
"","ISI","","html-keyboard-response","227","452864","0.0-1.0-327.0","0","0","22969","","null","","","null","36","NaN","","","","","","","","","","","","","","",""
"","S2","","html-keyboard-response","228","453115","0.0-1.0-328.0","0","0","22969","","null","","","null","36","","NaN","","","","","","","","","","","","","",""
"","response","","html-keyboard-response","229","453173","0.0-1.0-329.0-0.0","0","0","22969","","57","","","75","36","","","1","36","training","adjacent","FE","6","5","O.jpg","Q.jpg","1","0","0","",""
"","feedback","","html-keyboard-response","230","454175","0.0-1.0-330.0-0.0","0","0","22969","","null","","","null","36","","","","","","","","","","","","","","","",""
"","time_out","","html-keyboard-response","231","456178","0.0-1.0-332.0-0.0","0","0","22969","","null","","","null","36","","","","","","","","","","","","","","","",""
"","ITI","","html-keyboard-response","232","457179","0.0-1.0-333.0","0","0","22969","","null","","","null","36","","","","","","","","","","","","","","","NaN",""
"","S1","","html-keyboard-response","233","457431","0.0-1.0-335.0","0","0","22969","","null","","","null","37","","","","","","","","","","","","","","","",""
"","ISI","","html-keyboard-response","234","458432","0.0-1.0-336.0","0","0","22969","","54","","","68","37","d","","","","","","","","","","","","","","",""
"","S2","","html-keyboard-response","235","458666","0.0-1.0-337.0","0","0","22969","","233","","","75","37","","k","1","37","training","adjacent","FG","6","7","O.jpg","M.jpg","1","1","1","",""
"","feedback","","html-keyboard-response","236","459669","0.0-1.0-339.0-0.0","0","0","22969","","null","","","null","37","","","","","","","","","","","","","","","",""
"","ITI","","html-keyboard-response","237","460670","0.0-1.0-342.0","0","0","22969","","null","","","null","37","","","","","","","","","","","","","","","NaN",""
"","S1","","html-keyboard-response","238","460922","0.0-1.0-344.0","0","0","22969","","null","","","null","38","","","","","","","","","","","","","","","",""
"","ISI","","html-keyboard-response","239","461923","0.0-1.0-345.0","0","0","22969","","null","","","null","38","NaN","","","","","","","","","","","","","","",""
"","S2","","html-keyboard-response","240","462175","0.0-1.0-346.0","0","0","22969","","null","","","null","38","","NaN","","","","","","","","","","","","","",""
"","response","","html-keyboard-response","241","462334","0.0-1.0-347.0-0.0","0","0","22969","","157","","","68","38","","","1","38","training","adjacent","DC","4","3","R.jpg","N.jpg","0","0","1","",""
"","feedback","","html-keyboard-response","242","463336","0.0-1.0-348.0-0.0","0","0","22969","","null","","","null","38","","","","","","","","","","","","","","","",""
"","ITI","","html-keyboard-response","243","464342","0.0-1.0-351.0","0","0","22969","","null","","","null","38","","","","","","","","","","","","","","","NaN",""
"","S1","","html-keyboard-response","244","464594","0.0-1.0-353.0","0","0","22969","","null","","","null","39","","","","","","","","","","","","","","","",""
"","ISI","","html-keyboard-response","245","465596","0.0-1.0-354.0","0","0","22969","","null","","","null","39","NaN","","","","","","","","","","","","","","",""
"","S2","","html-keyboard-response","246","465766","0.0-1.0-355.0","0","0","22969","","170","","","68","39","","d","1","39","training","adjacent","EF","5","6","Q.jpg","O.jpg","0","1","0","",""
"","feedback","","html-keyboard-response","247","466769","0.0-1.0-357.0-0.0","0","0","22969","","null","","","null","39","","","","","","","","","","","","","","","",""
"","time_out","","html-keyboard-response","248","468771","0.0-1.0-359.0-0.0","0","0","22969","","null","","","null","39","","","","","","","","","","","","","","","",""
"","ITI","","html-keyboard-response","249","469773","0.0-1.0-360.0","0","0","22969","","null","","","null","39","","","","","","","","","","","","","","","NaN",""
"","S1","","html-keyboard-response","250","470024","0.0-1.0-362.0","0","0","22969","","null","","","null","40","","","","","","","","","","","","","","","",""
"","ISI","","html-keyboard-response","251","471026","0.0-1.0-363.0","0","0","22969","","null","","","null","40","NaN","","","","","","","","","","","","","","",""
"","S2","","html-keyboard-response","252","471278","0.0-1.0-364.0","0","0","22969","","null","","","null","40","","NaN","","","","","","","","","","","","","",""
"","response","","html-keyboard-response","253","471288","0.0-1.0-365.0-0.0","0","0","22969","","9","","","75","40","","","1","40","training","adjacent","AB","1","2","L.jpg","P.jpg","1","1","1","",""
"","feedback","","html-keyboard-response","254","472289","0.0-1.0-366.0-0.0","0","0","22969","","null","","","null","40","","","","","","","","","","","","","","","",""
"","ITI","","html-keyboard-response","255","473291","0.0-1.0-369.0","0","0","22969","","null","","","null","40","","","","","","","","","","","","","","","NaN",""
"","S1","","html-keyboard-response","256","473542","0.0-1.0-371.0","0","0","22969","","null","","","null","41","","","","","","","","","","","","","","","",""
"","ISI","","html-keyboard-response","257","474544","0.0-1.0-372.0","0","0","22969","","null","","","null","41","NaN","","","","","","","","","","","","","","",""
"","S2","","html-keyboard-response","258","474618","0.0-1.0-373.0","0","0","22969","","73","","","75","41","","k","1","41","training","adjacent","ED","5","4","Q.jpg","R.jpg","1","0","0","",""
"","feedback","","html-keyboard-response","259","475620","0.0-1.0-375.0-0.0","0","0","22969","","null","","","null","41","","","","","","","","","","","","","","","",""
"","time_out","","html-keyboard-response","260","477622","0.0-1.0-377.0-0.0","0","0","22969","","null","","","null","41","","","","","","","","","","","","","","","",""
"","ITI","","html-keyboard-response","261","478623","0.0-1.0-378.0","0","0","22969","","null","","","null","41","","","","","","","","","","","","","","","NaN",""
"","S1","","html-keyboard-response","262","478874","0.0-1.0-380.0","0","0","22969","","null","","","null","42","","","","","","","","","","","","","","","",""
"","ISI","","html-keyboard-response","263","479876","0.0-1.0-381.0","0","0","22969","","null","","","null","42","NaN","","","","","","","","","","","","","","",""
"","S2","","html-keyboard-response","264","480062","0.0-1.0-382.0","0","0","22969","","185","","","68","42","","d","1","42","training","adjacent","CB","3","2","N.jpg","P.jpg","0","0","1","",""
"","feedback","","html-keyboard-response","265","481064","0.0-1.0-384.0-0.0","0","0","22969","","null","","","null","42","","","","","","","","","","","","","","","",""
"","ITI","","html-keyboard-response","266","482066","0.0-1.0-387.0","0","0","22969","","null","","","null","42","","","","","","","","","","","","","","","NaN",""
"","S1","","html-keyboard-response","267","482318","0.0-1.0-389.0","0","0","22969","","null","","","null","43","","","","","","","","","","","","","","","",""
"","ISI","","html-keyboard-response","268","483321","0.0-1.0-390.0","0","0","22969","","null","","","null","43","NaN","","","","","","","","","","","","","","",""
"","S2","","html-keyboard-response","269","483560","0.0-1.0-391.0","0","0","22969","","237","","","68","43","","d","1","43","training","adjacent","BC","2","3","P.jpg","N.jpg","0","1","0","",""
"","feedback","","html-keyboard-response","270","484562","0.0-1.0-393.0-0.0","0","0","22969","","null","","","null","43","","","","","","","","","","","","","","","",""
"","time_out","","html-keyboard-response","271","486564","0.0-1.0-395.0-0.0","0","0","22969","","null","","","null","43","","","","","","","","","","","","","","","",""
"","ITI","","html-keyboard-response","272","487565","0.0-1.0-396.0","0","0","22969","","null","","","null","43","","","","","","","","","","","","","","","NaN",""
"","S1","","html-keyboard-response","273","487816","0.0-1.0-398.0","0","0","22969","","null","","","null","44","","","","","","","","","","","","","","","",""
"","ISI","","html-keyboard-response","274","488818","0.0-1.0-399.0","0","0","22969","","152","","","68","44","d","","","","","","","","","","","","","","",""
"","S2","","html-keyboard-response","275","489070","0.0-1.0-400.0","0","0","22969","","250","","","68","44","","d","1","44","training","adjacent","DE","4","5","R.jpg","Q.jpg","0","1","0","",""
"","feedback","","html-keyboard-response","276","490072","0.0-1.0-402.0-0.0","0","0","22969","","null","","","null","44","","","","","","","","","","","","","","","",""
"","time_out","","html-keyboard-response","277","492074","0.0-1.0-404.0-0.0","0","0","22969","","null","","","null","44","","","","","","","","","","","","","","","",""
"","ITI","","html-keyboard-response","278","493075","0.0-1.0-405.0","0","0","22969","","null","","","null","44","","","","","","","","","","","","","","","NaN",""
"","S1","","html-keyboard-response","279","493328","0.0-1.0-407.0","0","0","22969","","null","","","null","45","","","","","","","","","","","","","","","",""
"","ISI","","html-keyboard-response","280","494330","0.0-1.0-408.0","0","0","22969","","109","","","75","45","k","","","","","","","","","","","","","","",""
"","S2","","html-keyboard-response","281","494565","0.0-1.0-409.0","0","0","22969","","234","","","68","45","","d","1","45","training","adjacent","CB","3","2","N.jpg","P.jpg","0","0","1","",""
"","feedback","","html-keyboard-response","282","495567","0.0-1.0-411.0-0.0","0","0","22969","","null","","","null","45","","","","","","","","","","","","","","","",""
"","ITI","","html-keyboard-response","283","496569","0.0-1.0-414.0","0","0","22969","","null","","","null","45","","","","","","","","","","","","","","","NaN",""
"","S1","","html-keyboard-response","284","496821","0.0-1.0-416.0","0","0","22969","","null","","","null","46","","","","","","","","","","","","","","","",""
"","ISI","","html-keyboard-response","285","497823","0.0-1.0-417.0","0","0","22969","","null","","","null","46","NaN","","","","","","","","","","","","","","",""
"","S2","","html-keyboard-response","286","498022","0.0-1.0-418.0","0","0","22969","","198","","","75","46","","k","1","46","training","adjacent","GF","7","6","M.jpg","O.jpg","1","0","0","",""
"","feedback","","html-keyboard-response","287","499028","0.0-1.0-420.0-0.0","0","0","22969","","null","","","null","46","","","","","","","","","","","","","","","",""
"","time_out","","html-keyboard-response","288","501031","0.0-1.0-422.0-0.0","0","0","22969","","null","","","null","46","","","","","","","","","","","","","","","",""
"","ITI","","html-keyboard-response","289","502032","0.0-1.0-423.0","0","0","22969","","null","","","null","46","","","","","","","","","","","","","","","NaN",""
"","S1","","html-keyboard-response","290","502284","0.0-1.0-425.0","0","0","22969","","null","","","null","47","","","","","","","","","","","","","","","",""
"","ISI","","html-keyboard-response","291","503286","0.0-1.0-426.0","0","0","22969","","134","","","68","47","d","","","","","","","","","","","","","","",""
"","S2","","html-keyboard-response","292","503382","0.0-1.0-427.0","0","0","22969","","95","","","68","47","","d","1","47","training","adjacent","BC","2","3","P.jpg","N.jpg","0","1","0","",""
"","feedback","","html-keyboard-response","293","504384","0.0-1.0-429.0-0.0","0","0","22969","","null","","","null","47","","","","","","","","","","","","","","","",""
"","time_out","","html-keyboard-response","294","506386","0.0-1.0-431.0-0.0","0","0","22969","","null","","","null","47","","","","","","","","","","","","","","","",""
"","ITI","","html-keyboard-response","295","507389","0.0-1.0-432.0","0","0","22969","","null","","","null","47","","","","","","","","","","","","","","","NaN",""
"","block_over","","html-keyboard-response","296","515744","0.0-1.0-433.0-0.0","0","0","22969","","8354","","","32","47","","","","","","","","","","","","","","","",""
"","S1","","html-keyboard-response","297","515996","0.0-1.0-434.0","0","0","22969","","null","","","null","48","","","","","","","","","","","","","","","",""
"","ISI","","html-keyboard-response","298","516997","0.0-1.0-435.0","0","0","22969","","null","","","null","48","NaN","","","","","","","","","","","","","","",""
"","S2","","html-keyboard-response","299","517245","0.0-1.0-436.0","0","0","22969","","247","","","75","48","","k","2","48","training","adjacent","FG","6","7","O.jpg","M.jpg","1","1","1","",""
"","feedback","","html-keyboard-response","300","518247","0.0-1.0-438.0-0.0","0","0","22969","","null","","","null","48","","","","","","","","","","","","","","","",""
"","ITI","","html-keyboard-response","301","519249","0.0-1.0-441.0","0","0","22969","","null","","","null","48","","","","","","","","","","","","","","","NaN",""
"","S1","","html-keyboard-response","302","519501","0.0-1.0-443.0","0","0","22969","","null","","","null","49","","","","","","","","","","","","","","","",""
"","ISI","","html-keyboard-response","303","520503","0.0-1.0-444.0","0","0","22969","","17","","","68","49","d","","","","","","","","","","","","","","",""
"","S2","","html-keyboard-response","304","520596","0.0-1.0-445.0","0","0","22969","","91","","","68","49","","d","2","49","training","adjacent","GF","7","6","M.jpg","O.jpg","0","0","1","",""
"","feedback","","html-keyboard-response","305","521598","0.0-1.0-447.0-0.0","0","0","22969","","null","","","null","49","","","","","","","","","","","","","","","",""
"","ITI","","html-keyboard-response","306","522600","0.0-1.0-450.0","0","0","22969","","null","","","null","49","","","","","","","","","","","","","","","NaN",""
"","S1","","html-keyboard-response","307","522853","0.0-1.0-452.0","0","0","22969","","null","","","null","50","","","","","","","","","","","","","","","",""
"","ISI","","html-keyboard-response","308","523855","0.0-1.0-453.0","0","0","22969","","null","","","null","50","NaN","","","","","","","","","","","","","","",""
"","S2","","html-keyboard-response","309","524106","0.0-1.0-454.0","0","0","22969","","null","","","null","50","","NaN","","","","","","","","","","","","","",""
"","response","","html-keyboard-response","310","524128","0.0-1.0-455.0-0.0","0","0","22969","","20","","","75","50","","","2","50","training","adjacent","FG","6","7","O.jpg","M.jpg","1","1","1","",""
"","feedback","","html-keyboard-response","311","525129","0.0-1.0-456.0-0.0","0","0","22969","","null","","","null","50","","","","","","","","","","","","","","","",""
"","ITI","","html-keyboard-response","312","526130","0.0-1.0-459.0","0","0","22969","","null","","","null","50","","","","","","","","","","","","","","","NaN",""
"","S1","","html-keyboard-response","313","526382","0.0-1.0-461.0","0","0","22969","","null","","","null","51","","","","","","","","","","","","","","","",""
"","ISI","","html-keyboard-response","314","527383","0.0-1.0-462.0","0","0","22969","","null","","","null","51","NaN","","","","","","","","","","","","","","",""
"","S2","","html-keyboard-response","315","527635","0.0-1.0-463.0","0","0","22969","","null","","","null","51","","NaN","","","","","","","","","","","","","",""
"","response","","html-keyboard-response","316","527645","0.0-1.0-464.0-0.0","0","0","22969","","9","","","68","51","","","2","51","training","adjacent","BA","2","1","P.jpg","L.jpg","0","0","1","",""
"","feedback","","html-keyboard-response","317","528648","0.0-1.0-465.0-0.0","0","0","22969","","null","","","null","51","","","","","","","","","","","","","","","",""
"","ITI","","html-keyboard-response","318","529650","0.0-1.0-468.0","0","0","22969","","null","","","null","51","","","","","","","","","","","","","","","NaN",""
"","S1","","html-keyboard-response","319","529901","0.0-1.0-470.0","0","0","22969","","null","","","null","52","","","","","","","","","","","","","","","",""
"","ISI","","html-keyboard-response","320","530903","0.0-1.0-471.0","0","0","22969","","946","","","75","52","k","","","","","","","","","","","","","","",""
"","S2","","html-keyboard-response","321","531154","0.0-1.0-472.0","0","0","22969","","null","","","null","52","","NaN","","","","","","","","","","","","","",""
"","response","","html-keyboard-response","322","531255","0.0-1.0-473.0-0.0","0","0","22969","","99","","","75","52","","","2","52","training","adjacent","ED","5","4","Q.jpg","R.jpg","1","0","0","",""
"","feedback","","html-keyboard-response","323","532257","0.0-1.0-474.0-0.0","0","0","22969","","null","","","null","52","","","","","","","","","","","","","","","",""
"","time_out","","html-keyboard-response","324","534258","0.0-1.0-476.0-0.0","0","0","22969","","null","","","null","52","","","","","","","","","","","","","","","",""
"","ITI","","html-keyboard-response","325","535260","0.0-1.0-477.0","0","0","22969","","null","","","null","52","","","","","","","","","","","","","","","NaN",""
"","S1","","html-keyboard-response","326","535513","0.0-1.0-479.0","0","0","22969","","null","","","null","53","","","","","","","","","","","","","","","",""
"","ISI","","html-keyboard-response","327","536514","0.0-1.0-480.0","0","0","22969","","null","","","null","53","NaN","","","","","","","","","","","","","","",""
"","S2","","html-keyboard-response","328","536766","0.0-1.0-481.0","0","0","22969","","null","","","null","53","","NaN","","","","","","","","","","","","","",""
"","response","","html-keyboard-response","329","537015","0.0-1.0-482.0-0.0","0","0","22969","","248","","","68","53","","","2","53","training","adjacent","EF","5","6","Q.jpg","O.jpg","0","1","0","",""
"","feedback","","html-keyboard-response","330","538017","0.0-1.0-483.0-0.0","0","0","22969","","null","","","null","53","","","","","","","","","","","","","","","",""
"","time_out","","html-keyboard-response","331","540018","0.0-1.0-485.0-0.0","0","0","22969","","null","","","null","53","","","","","","","","","","","","","","","",""
"","ITI","","html-keyboard-response","332","541020","0.0-1.0-486.0","0","0","22969","","702","","","75","53","","","","","","","","","","","","","","","k",""
"","S1","","html-keyboard-response","333","541272","0.0-1.0-488.0","0","0","22969","","null","","","null","54","","","","","","","","","","","","","","","",""
"","ISI","","html-keyboard-response","334","542273","0.0-1.0-489.0","0","0","22969","","112","","","75","54","k","","","","","","","","","","","","","","",""
"","S2","","html-keyboard-response","335","542526","0.0-1.0-490.0","0","0","22969","","null","","","null","54","","NaN","","","","","","","","","","","","","",""
"","response","","html-keyboard-response","336","542932","0.0-1.0-491.0-0.0","0","0","22969","","405","","","75","54","","","2","54","training","adjacent","FG","6","7","O.jpg","M.jpg","1","1","1","",""
"","feedback","","html-keyboard-response","337","543935","0.0-1.0-492.0-0.0","0","0","22969","","null","","","null","54","","","","","","","","","","","","","","","",""
"","ITI","","html-keyboard-response","338","544937","0.0-1.0-495.0","0","0","22969","","null","","","null","54","","","","","","","","","","","","","","","NaN",""
"","S1","","html-keyboard-response","339","545189","0.0-1.0-497.0","0","0","22969","","null","","","null","55","","","","","","","","","","","","","","","",""
"","ISI","","html-keyboard-response","340","546191","0.0-1.0-498.0","0","0","22969","","592","","","68","55","d","","","","","","","","","","","","","","",""
"","S2","","html-keyboard-response","341","546302","0.0-1.0-499.0","0","0","22969","","110","","","68","55","","d","2","55","training","adjacent","CD","3","4","N.jpg","R.jpg","0","1","0","",""
"","feedback","","html-keyboard-response","342","547304","0.0-1.0-501.0-0.0","0","0","22969","","null","","","null","55","","","","","","","","","","","","","","","",""
"","time_out","","html-keyboard-response","343","549305","0.0-1.0-503.0-0.0","0","0","22969","","null","","","null","55","","","","","","","","","","","","","","","",""
"","ITI","","html-keyboard-response","344","550307","0.0-1.0-504.0","0","0","22969","","null","","","null","55","","","","","","","","","","","","","","","NaN",""
"","S1","","html-keyboard-response","345","550559","0.0-1.0-506.0","0","0","22969","","null","","","null","56","","","","","","","","","","","","","","","",""
"","ISI","","html-keyboard-response","346","551560","0.0-1.0-507.0","0","0","22969","","31","","","68","56","d","","","","","","","","","","","","","","",""
"","S2","","html-keyboard-response","347","551735","0.0-1.0-508.0","0","0","22969","","173","","","75","56","","k","2","56","training","adjacent","DC","4","3","R.jpg","N.jpg","1","0","0","",""
"","feedback","","html-keyboard-response","348","552737","0.0-1.0-510.0-0.0","0","0","22969","","null","","","null","56","","","","","","","","","","","","","","","",""
"","time_out","","html-keyboard-response","349","554738","0.0-1.0-512.0-0.0","0","0","22969","","null","","","null","56","","","","","","","","","","","","","","","",""
"","ITI","","html-keyboard-response","350","555739","0.0-1.0-513.0","0","0","22969","","55","","","68","56","","","","","","","","","","","","","","","d",""
"","S1","","html-keyboard-response","351","555992","0.0-1.0-515.0","0","0","22969","","null","","","null","57","","","","","","","","","","","","","","","",""
"","ISI","","html-keyboard-response","352","556994","0.0-1.0-516.0","0","0","22969","","107","","","75","57","k","","","","","","","","","","","","","","",""
"","S2","","html-keyboard-response","353","557112","0.0-1.0-517.0","0","0","22969","","117","","","75","57","","k","2","57","training","adjacent","BC","2","3","P.jpg","N.jpg","1","1","1","",""
"","feedback","","html-keyboard-response","354","558113","0.0-1.0-519.0-0.0","0","0","22969","","null","","","null","57","","","","","","","","","","","","","","","",""
"","ITI","","html-keyboard-response","355","559115","0.0-1.0-522.0","0","0","22969","","null","","","null","57","","","","","","","","","","","","","","","NaN",""
"","S1","","html-keyboard-response","356","559367","0.0-1.0-524.0","0","0","22969","","null","","","null","58","","","","","","","","","","","","","","","",""
"","ISI","","html-keyboard-response","357","560369","0.0-1.0-525.0","0","0","22969","","873","","","68","58","d","","","","","","","","","","","","","","",""
"","S2","","html-keyboard-response","358","560510","0.0-1.0-526.0","0","0","22969","","141","","","75","58","","k","2","58","training","adjacent","DE","4","5","R.jpg","Q.jpg","1","1","1","",""
"","feedback","","html-keyboard-response","359","561512","0.0-1.0-528.0-0.0","0","0","22969","","null","","","null","58","","","","","","","","","","","","","","","",""
"","ITI","","html-keyboard-response","360","562513","0.0-1.0-531.0","0","0","22969","","114","","","75","58","","","","","","","","","","","","","","","k",""
"","S1","","html-keyboard-response","361","562765","0.0-1.0-533.0","0","0","22969","","null","","","null","59","","","","","","","","","","","","","","","",""
"","ISI","","html-keyboard-response","362","563767","0.0-1.0-534.0","0","0","22969","","210","","","75","59","k","","","","","","","","","","","","","","",""
"","S2","","html-keyboard-response","363","563847","0.0-1.0-535.0","0","0","22969","","79","","","75","59","","k","2","59","training","adjacent","CB","3","2","N.jpg","P.jpg","1","0","0","",""
"","feedback","","html-keyboard-response","364","564848","0.0-1.0-537.0-0.0","0","0","22969","","null","","","null","59","","","","","","","","","","","","","","","",""
"","time_out","","html-keyboard-response","365","566850","0.0-1.0-539.0-0.0","0","0","22969","","null","","","null","59","","","","","","","","","","","","","","","",""
"","ITI","","html-keyboard-response","366","567852","0.0-1.0-540.0","0","0","22969","","195","","","75","59","","","","","","","","","","","","","","","k",""
"","S1","","html-keyboard-response","367","568104","0.0-1.0-542.0","0","0","22969","","null","","","null","60","","","","","","","","","","","","","","","",""
"","ISI","","html-keyboard-response","368","569106","0.0-1.0-543.0","0","0","22969","","253","","","68","60","d","","","","","","","","","","","","","","",""
"","S2","","html-keyboard-response","369","569358","0.0-1.0-544.0","0","0","22969","","null","","","null","60","","NaN","","","","","","","","","","","","","",""
"","response","","html-keyboard-response","370","569397","0.0-1.0-545.0-0.0","0","0","22969","","39","","","68","60","","","2","60","training","adjacent","BA","2","1","P.jpg","L.jpg","0","0","1","",""
"","feedback","","html-keyboard-response","371","570400","0.0-1.0-546.0-0.0","0","0","22969","","null","","","null","60","","","","","","","","","","","","","","","",""
"","ITI","","html-keyboard-response","372","571401","0.0-1.0-549.0","0","0","22969","","200","","","68","60","","","","","","","","","","","","","","","d",""
"","S1","","html-keyboard-response","373","571653","0.0-1.0-551.0","0","0","22969","","null","","","null","61","","","","","","","","","","","","","","","",""
"","ISI","","html-keyboard-response","374","572654","0.0-1.0-552.0","0","0","22969","","16","","","68","61","d","","","","","","","","","","","","","","",""
"","S2","","html-keyboard-response","375","572828","0.0-1.0-553.0","0","0","22969","","173","","","75","61","","k","2","61","training","adjacent","BC","2","3","P.jpg","N.jpg","1","1","1","",""
"","feedback","","html-keyboard-response","376","573830","0.0-1.0-555.0-0.0","0","0","22969","","null","","","null","61","","","","","","","","","","","","","","","",""
"","ITI","","html-keyboard-response","377","574831","0.0-1.0-558.0","0","0","22969","","130","","","75","61","","","","","","","","","","","","","","","k",""
"","S1","","html-keyboard-response","378","575084","0.0-1.0-560.0","0","0","22969","","null","","","null","62","","","","","","","","","","","","","","","",""
"","ISI","","html-keyboard-response","379","576086","0.0-1.0-561.0","0","0","22969","","37","","","68","62","d","","","","","","","","","","","","","","",""
"","S2","","html-keyboard-response","380","576198","0.0-1.0-562.0","0","0","22969","","111","","","68","62","","d","2","62","training","adjacent","AB","1","2","L.jpg","P.jpg","0","1","0","",""
"","feedback","","html-keyboard-response","381","577199","0.0-1.0-564.0-0.0","0","0","22969","","null","","","null","62","","","","","","","","","","","","","","","",""
"","time_out","","html-keyboard-response","382","579201","0.0-1.0-566.0-0.0","0","0","22969","","null","","","null","62","","","","","","","","","","","","","","","",""
"","ITI","","html-keyboard-response","383","580203","0.0-1.0-567.0","0","0","22969","","149","","","68","62","","","","","","","","","","","","","","","d",""
"","S1","","html-keyboard-response","384","580454","0.0-1.0-569.0","0","0","22969","","null","","","null","63","","","","","","","","","","","","","","","",""
"","ISI","","html-keyboard-response","385","581456","0.0-1.0-570.0","0","0","22969","","239","","","75","63","k","","","","","","","","","","","","","","",""
"","S2","","html-keyboard-response","386","581581","0.0-1.0-571.0","0","0","22969","","123","","","68","63","","d","2","63","training","adjacent","FE","6","5","O.jpg","Q.jpg","0","0","1","",""
"","feedback","","html-keyboard-response","387","582583","0.0-1.0-573.0-0.0","0","0","22969","","null","","","null","63","","","","","","","","","","","","","","","",""
"","ITI","","html-keyboard-response","388","583585","0.0-1.0-576.0","0","0","22969","","5","","","68","63","","","","","","","","","","","","","","","d",""
"","S1","","html-keyboard-response","389","583836","0.0-1.0-578.0","0","0","22969","","null","","","null","64","","","","","","","","","","","","","","","",""
"","ISI","","html-keyboard-response","390","584839","0.0-1.0-579.0","0","0","22969","","260","","","68","64","d","","","","","","","","","","","","","","",""
"","S2","","html-keyboard-response","391","584842","0.0-1.0-580.0","0","0","22969","","3","","","75","64","","k","2","64","training","adjacent","ED","5","4","Q.jpg","R.jpg","1","0","0","",""
"","feedback","","html-keyboard-response","392","585844","0.0-1.0-582.0-0.0","0","0","22969","","null","","","null","64","","","","","","","","","","","","","","","",""
"","time_out","","html-keyboard-response","393","587846","0.0-1.0-584.0-0.0","0","0","22969","","null","","","null","64","","","","","","","","","","","","","","","",""
"","ITI","","html-keyboard-response","394","588848","0.0-1.0-585.0","0","0","22969","","196","","","75","64","","","","","","","","","","","","","","","k",""
"","S1","","html-keyboard-response","395","589100","0.0-1.0-587.0","0","0","22969","","null","","","null","65","","","","","","","","","","","","","","","",""
"","ISI","","html-keyboard-response","396","590101","0.0-1.0-588.0","0","0","22969","","101","","","75","65","k","","","","","","","","","","","","","","",""
"","S2","","html-keyboard-response","397","590184","0.0-1.0-589.0","0","0","22969","","82","","","68","65","","d","2","65","training","adjacent","CB","3","2","N.jpg","P.jpg","0","0","1","",""
"","feedback","","html-keyboard-response","398","591186","0.0-1.0-591.0-0.0","0","0","22969","","null","","","null","65","","","","","","","","","","","","","","","",""
"","ITI","","html-keyboard-response","399","592188","0.0-1.0-594.0","0","0","22969","","226","","","68","65","","","","","","","","","","","","","","","d",""
"","S1","","html-keyboard-response","400","592439","0.0-1.0-596.0","0","0","22969","","null","","","null","66","","","","","","","","","","","","","","","",""
"","ISI","","html-keyboard-response","401","593442","0.0-1.0-597.0","0","0","22969","","90","","","68","66","d","","","","","","","","","","","","","","",""
"","S2","","html-keyboard-response","402","593600","0.0-1.0-598.0","0","0","22969","","158","","","68","66","","d","2","66","training","adjacent","GF","7","6","M.jpg","O.jpg","0","0","1","",""
"","feedback","","html-keyboard-response","403","594603","0.0-1.0-600.0-0.0","0","0","22969","","null","","","null","66","","","","","","","","","","","","","","","",""
"","ITI","","html-keyboard-response","404","595604","0.0-1.0-603.0","0","0","22969","","118","","","68","66","","","","","","","","","","","","","","","d",""
"","S1","","html-keyboard-response","405","595855","0.0-1.0-605.0","0","0","22969","","null","","","null","67","","","","","","","","","","","","","","","",""
"","ISI","","html-keyboard-response","406","596857","0.0-1.0-606.0","0","0","22969","","236","","","75","67","k","","","","","","","","","","","","","","",""
"","S2","","html-keyboard-response","407","596942","0.0-1.0-607.0","0","0","22969","","85","","","68","67","","d","2","67","training","adjacent","DC","4","3","R.jpg","N.jpg","0","0","1","",""
"","feedback","","html-keyboard-response","408","597944","0.0-1.0-609.0-0.0","0","0","22969","","null","","","null","67","","","","","","","","","","","","","","","",""
"","ITI","","html-keyboard-response","409","598946","0.0-1.0-612.0","0","0","22969","","240","","","68","67","","","","","","","","","","","","","","","d",""
"","S1","","html-keyboard-response","410","599199","0.0-1.0-614.0","0","0","22969","","null","","","null","68","","","","","","","","","","","","","","","",""
"","ISI","","html-keyboard-response","411","600200","0.0-1.0-615.0","0","0","22969","","63","","","68","68","d","","","","","","","","","","","","","","",""
"","S2","","html-keyboard-response","412","600248","0.0-1.0-616.0","0","0","22969","","46","","","75","68","","k","2","68","training","adjacent","GF","7","6","M.jpg","O.jpg","1","0","0","",""
"","feedback","","html-keyboard-response","413","601249","0.0-1.0-618.0-0.0","0","0","22969","","null","","","null","68","","","","","","","","","","","","","","","",""
"","time_out","","html-keyboard-response","414","603252","0.0-1.0-620.0-0.0","0","0","22969","","null","","","null","68","","","","","","","","","","","","","","","",""
"","ITI","","html-keyboard-response","415","604253","0.0-1.0-621.0","0","0","22969","","106","","","75","68","","","","","","","","","","","","","","","k",""
"","S1","","html-keyboard-response","416","604505","0.0-1.0-623.0","0","0","22969","","null","","","null","69","","","","","","","","","","","","","","","",""
"","ISI","","html-keyboard-response","417","605506","0.0-1.0-624.0","0","0","22969","","181","","","75","69","k","","","","","","","","","","","","","","",""
"","S2","","html-keyboard-response","418","605659","0.0-1.0-625.0","0","0","22969","","152","","","75","69","","k","2","69","training","adjacent","DE","4","5","R.jpg","Q.jpg","1","1","1","",""
"","feedback","","html-keyboard-response","419","606662","0.0-1.0-627.0-0.0","0","0","22969","","null","","","null","69","","","","","","","","","","","","","","","",""
"","ITI","","html-keyboard-response","420","607663","0.0-1.0-630.0","0","0","22969","","158","","","75","69","","","","","","","","","","","","","","","k",""
"","S1","","html-keyboard-response","421","607914","0.0-1.0-632.0","0","0","22969","","null","","","null","70","","","","","","","","","","","","","","","",""
"","ISI","","html-keyboard-response","422","608916","0.0-1.0-633.0","0","0","22969","","null","","","null","70","NaN","","","","","","","","","","","","","","",""
"","S2","","html-keyboard-response","423","609168","0.0-1.0-634.0","0","0","22969","","null","","","null","70","","NaN","","","","","","","","","","","","","",""
"","response","","html-keyboard-response","424","609345","0.0-1.0-635.0-0.0","0","0","22969","","175","","","75","70","","","2","70","training","adjacent","DE","4","5","R.jpg","Q.jpg","1","1","1","",""
"","feedback","","html-keyboard-response","425","610347","0.0-1.0-636.0-0.0","0","0","22969","","null","","","null","70","","","","","","","","","","","","","","","",""
"","ITI","","html-keyboard-response","426","611349","0.0-1.0-639.0","0","0","22969","","705","","","75","70","","","","","","","","","","","","","","","k",""
"","S1","","html-keyboard-response","427","611602","0.0-1.0-641.0","0","0","22969","","null","","","null","71","","","","","","","","","","","","","","","",""
"","ISI","","html-keyboard-response","428","612603","0.0-1.0-642.0","0","0","22969","","139","","","75","71","k","","","","","","","","","","","","","","",""
"","S2","","html-keyboard-response","429","612855","0.0-1.0-643.0","0","0","22969","","null","","","null","71","","NaN","","","","","","","","","","","","","",""
"","response","","html-keyboard-response","430","612993","0.0-1.0-644.0-0.0","0","0","22969","","137","","","75","71","","","2","71","training","adjacent","BA","2","1","P.jpg","L.jpg","1","0","0","",""
"","feedback","","html-keyboard-response","431","613996","0.0-1.0-645.0-0.0","0","0","22969","","null","","","null","71","","","","","","","","","","","","","","","",""
"","time_out","","html-keyboard-response","432","615997","0.0-1.0-647.0-0.0","0","0","22969","","null","","","null","71","","","","","","","","","","","","","","","",""
"","ITI","","html-keyboard-response","433","616998","0.0-1.0-648.0","0","0","22969","","605","","","68","71","","","","","","","","","","","","","","","d",""
"","S1","","html-keyboard-response","434","617249","0.0-1.0-650.0","0","0","22969","","null","","","null","72","","","","","","","","","","","","","","","",""
"","ISI","","html-keyboard-response","435","618250","0.0-1.0-651.0","0","0","22969","","111","","","75","72","k","","","","","","","","","","","","","","",""
"","S2","","html-keyboard-response","436","618502","0.0-1.0-652.0","0","0","22969","","null","","","null","72","","NaN","","","","","","","","","","","","","",""
"","response","","html-keyboard-response","437","618788","0.0-1.0-653.0-0.0","0","0","22969","","285","","","68","72","","","2","72","training","adjacent","BC","2","3","P.jpg","N.jpg","0","1","0","",""
"","feedback","","html-keyboard-response","438","619789","0.0-1.0-654.0-0.0","0","0","22969","","null","","","null","72","","","","","","","","","","","","","","","",""
"","time_out","","html-keyboard-response","439","621791","0.0-1.0-656.0-0.0","0","0","22969","","null","","","null","72","","","","","","","","","","","","","","","",""
"","ITI","","html-keyboard-response","440","622793","0.0-1.0-657.0","0","0","22969","","null","","","null","72","","","","","","","","","","","","","","","NaN",""
"","S1","","html-keyboard-response","441","623044","0.0-1.0-659.0","0","0","22969","","null","","","null","73","","","","","","","","","","","","","","","",""
"","ISI","","html-keyboard-response","442","624045","0.0-1.0-660.0","0","0","22969","","202","","","75","73","k","","","","","","","","","","","","","","",""
"","S2","","html-keyboard-response","443","624298","0.0-1.0-661.0","0","0","22969","","null","","","null","73","","NaN","","","","","","","","","","","","","",""
"","response","","html-keyboard-response","444","624460","0.0-1.0-662.0-0.0","0","0","22969","","161","","","75","73","","","2","73","training","adjacent","EF","5","6","Q.jpg","O.jpg","1","1","1","",""
"","feedback","","html-keyboard-response","445","625462","0.0-1.0-663.0-0.0","0","0","22969","","null","","","null","73","","","","","","","","","","","","","","","",""
"","ITI","","html-keyboard-response","446","626464","0.0-1.0-666.0","0","0","22969","","null","","","null","73","","","","","","","","","","","","","","","NaN",""
"","S1","","html-keyboard-response","447","626716","0.0-1.0-668.0","0","0","22969","","null","","","null","74","","","","","","","","","","","","","","","",""
"","ISI","","html-keyboard-response","448","627717","0.0-1.0-669.0","0","0","22969","","158","","","68","74","d","","","","","","","","","","","","","","",""
"","S2","","html-keyboard-response","449","627969","0.0-1.0-670.0","0","0","22969","","null","","","null","74","","NaN","","","","","","","","","","","","","",""
"","response","","html-keyboard-response","450","627986","0.0-1.0-671.0-0.0","0","0","22969","","15","","","75","74","","","2","74","training","adjacent","FG","6","7","O.jpg","M.jpg","1","1","1","",""
"","feedback","","html-keyboard-response","451","628988","0.0-1.0-672.0-0.0","0","0","22969","","null","","","null","74","","","","","","","","","","","","","","","",""
"","ITI","","html-keyboard-response","452","629990","0.0-1.0-675.0","0","0","22969","","null","","","null","74","","","","","","","","","","","","","","","NaN",""
"","S1","","html-keyboard-response","453","630241","0.0-1.0-677.0","0","0","22969","","null","","","null","75","","","","","","","","","","","","","","","",""
"","ISI","","html-keyboard-response","454","631243","0.0-1.0-678.0","0","0","22969","","null","","","null","75","NaN","","","","","","","","","","","","","","",""
"","S2","","html-keyboard-response","455","631471","0.0-1.0-679.0","0","0","22969","","227","","","75","75","","k","2","75","training","adjacent","ED","5","4","Q.jpg","R.jpg","1","0","0","",""
"","feedback","","html-keyboard-response","456","632473","0.0-1.0-681.0-0.0","0","0","22969","","null","","","null","75","","","","","","","","","","","","","","","",""
"","time_out","","html-keyboard-response","457","634475","0.0-1.0-683.0-0.0","0","0","22969","","null","","","null","75","","","","","","","","","","","","","","","",""
"","ITI","","html-keyboard-response","458","635478","0.0-1.0-684.0","0","0","22969","","null","","","null","75","","","","","","","","","","","","","","","NaN",""
"","S1","","html-keyboard-response","459","635729","0.0-1.0-686.0","0","0","22969","","null","","","null","76","","","","","","","","","","","","","","","",""
"","ISI","","html-keyboard-response","460","636731","0.0-1.0-687.0","0","0","22969","","null","","","null","76","NaN","","","","","","","","","","","","","","",""
"","S2","","html-keyboard-response","461","636983","0.0-1.0-688.0","0","0","22969","","null","","","null","76","","NaN","","","","","","","","","","","","","",""
"","response","","html-keyboard-response","462","638489","0.0-1.0-689.0-0.0","0","0","22969","","1504","","","68","76","","","2","76","training","adjacent","AB","1","2","L.jpg","P.jpg","0","1","0","",""
"","feedback","","html-keyboard-response","463","639491","0.0-1.0-690.0-0.0","0","0","22969","","null","","","null","76","","","","","","","","","","","","","","","",""
"","time_out","","html-keyboard-response","464","641493","0.0-1.0-692.0-0.0","0","0","22969","","null","","","null","76","","","","","","","","","","","","","","","",""
"","ITI","","html-keyboard-response","465","642495","0.0-1.0-693.0","0","0","22969","","null","","","null","76","","","","","","","","","","","","","","","NaN",""
"","S1","","html-keyboard-response","466","642747","0.0-1.0-695.0","0","0","22969","","null","","","null","77","","","","","","","","","","","","","","","",""
"","ISI","","html-keyboard-response","467","643749","0.0-1.0-696.0","0","0","22969","","36","","","68","77","d","","","","","","","","","","","","","","",""
"","S2","","html-keyboard-response","468","644001","0.0-1.0-697.0","0","0","22969","","null","","","null","77","","NaN","","","","","","","","","","","","","",""
"","response","","html-keyboard-response","469","644197","0.0-1.0-698.0-0.0","0","0","22969","","195","","","75","77","","","2","77","training","adjacent","CD","3","4","N.jpg","R.jpg","1","1","1","",""
"","feedback","","html-keyboard-response","470","645198","0.0-1.0-699.0-0.0","0","0","22969","","null","","","null","77","","","","","","","","","","","","","","","",""
"","ITI","","html-keyboard-response","471","646201","0.0-1.0-702.0","0","0","22969","","null","","","null","77","","","","","","","","","","","","","","","NaN",""
"","S1","","html-keyboard-response","472","646452","0.0-1.0-704.0","0","0","22969","","null","","","null","78","","","","","","","","","","","","","","","",""
"","ISI","","html-keyboard-response","473","647453","0.0-1.0-705.0","0","0","22969","","526","","","68","78","d","","","","","","","","","","","","","","",""
"","S2","","html-keyboard-response","474","647468","0.0-1.0-706.0","0","0","22969","","14","","","68","78","","d","2","78","training","adjacent","BA","2","1","P.jpg","L.jpg","0","0","1","",""
"","feedback","","html-keyboard-response","475","648470","0.0-1.0-708.0-0.0","0","0","22969","","null","","","null","78","","","","","","","","","","","","","","","",""
"","ITI","","html-keyboard-response","476","649471","0.0-1.0-711.0","0","0","22969","","null","","","null","78","","","","","","","","","","","","","","","NaN",""
"","S1","","html-keyboard-response","477","649723","0.0-1.0-713.0","0","0","22969","","null","","","null","79","","","","","","","","","","","","","","","",""
"","ISI","","html-keyboard-response","478","650726","0.0-1.0-714.0","0","0","22969","","159","","","68","79","d","","","","","","","","","","","","","","",""
"","S2","","html-keyboard-response","479","650757","0.0-1.0-715.0","0","0","22969","","30","","","68","79","","d","2","79","training","adjacent","DC","4","3","R.jpg","N.jpg","0","0","1","",""
"","feedback","","html-keyboard-response","480","651759","0.0-1.0-717.0-0.0","0","0","22969","","null","","","null","79","","","","","","","","","","","","","","","",""
"","ITI","","html-keyboard-response","481","652760","0.0-1.0-720.0","0","0","22969","","null","","","null","79","","","","","","","","","","","","","","","NaN",""
"","S1","","html-keyboard-response","482","653012","0.0-1.0-722.0","0","0","22969","","null","","","null","80","","","","","","","","","","","","","","","",""
"","ISI","","html-keyboard-response","483","654014","0.0-1.0-723.0","0","0","22969","","null","","","null","80","NaN","","","","","","","","","","","","","","",""
"","S2","","html-keyboard-response","484","654267","0.0-1.0-724.0","0","0","22969","","null","","","null","80","","NaN","","","","","","","","","","","","","",""
"","response","","html-keyboard-response","485","655633","0.0-1.0-725.0-0.0","0","0","22969","","1366","","","75","80","","","2","80","training","adjacent","AB","1","2","L.jpg","P.jpg","1","1","1","",""
"","feedback","","html-keyboard-response","486","656635","0.0-1.0-726.0-0.0","0","0","22969","","null","","","null","80","","","","","","","","","","","","","","","",""
"","ITI","","html-keyboard-response","487","657638","0.0-1.0-729.0","0","0","22969","","172","","","75","80","","","","","","","","","","","","","","","k",""
"","S1","","html-keyboard-response","488","657890","0.0-1.0-731.0","0","0","22969","","null","","","null","81","","","","","","","","","","","","","","","",""
"","ISI","","html-keyboard-response","489","658892","0.0-1.0-732.0","0","0","22969","","284","","","75","81","k","","","","","","","","","","","","","","",""
"","S2","","html-keyboard-response","490","658895","0.0-1.0-733.0","0","0","22969","","3","","","75","81","","k","2","81","training","adjacent","EF","5","6","Q.jpg","O.jpg","1","1","1","",""
"","feedback","","html-keyboard-response","491","659897","0.0-1.0-735.0-0.0","0","0","22969","","null","","","null","81","","","","","","","","","","","","","","","",""
"","ITI","","html-keyboard-response","492","660898","0.0-1.0-738.0","0","0","22969","","null","","","null","81","","","","","","","","","","","","","","","NaN",""
"","S1","","html-keyboard-response","493","661150","0.0-1.0-740.0","0","0","22969","","null","","","null","82","","","","","","","","","","","","","","","",""
"","ISI","","html-keyboard-response","494","662152","0.0-1.0-741.0","0","0","22969","","82","","","75","82","k","","","","","","","","","","","","","","",""
"","S2","","html-keyboard-response","495","662223","0.0-1.0-742.0","0","0","22969","","71","","","75","82","","k","2","82","training","adjacent","BC","2","3","P.jpg","N.jpg","1","1","1","",""
"","feedback","","html-keyboard-response","496","663226","0.0-1.0-744.0-0.0","0","0","22969","","null","","","null","82","","","","","","","","","","","","","","","",""
"","ITI","","html-keyboard-response","497","664228","0.0-1.0-747.0","0","0","22969","","null","","","null","82","","","","","","","","","","","","","","","NaN",""
"","S1","","html-keyboard-response","498","664480","0.0-1.0-749.0","0","0","22969","","null","","","null","83","","","","","","","","","","","","","","","",""
"","ISI","","html-keyboard-response","499","665482","0.0-1.0-750.0","0","0","22969","","698","","","75","83","k","","","","","","","","","","","","","","",""
"","S2","","html-keyboard-response","500","665639","0.0-1.0-751.0","0","0","22969","","156","","","75","83","","k","2","83","training","adjacent","CD","3","4","N.jpg","R.jpg","1","1","1","",""
"","feedback","","html-keyboard-response","501","666642","0.0-1.0-753.0-0.0","0","0","22969","","null","","","null","83","","","","","","","","","","","","","","","",""
"","ITI","","html-keyboard-response","502","667644","0.0-1.0-756.0","0","0","22969","","null","","","null","83","","","","","","","","","","","","","","","NaN",""
"","S1","","html-keyboard-response","503","667896","0.0-1.0-758.0","0","0","22969","","null","","","null","84","","","","","","","","","","","","","","","",""
"","ISI","","html-keyboard-response","504","668898","0.0-1.0-759.0","0","0","22969","","23","","","75","84","k","","","","","","","","","","","","","","",""
"","S2","","html-keyboard-response","505","668984","0.0-1.0-760.0","0","0","22969","","86","","","75","84","","k","2","84","training","adjacent","CD","3","4","N.jpg","R.jpg","1","1","1","",""
"","feedback","","html-keyboard-response","506","669987","0.0-1.0-762.0-0.0","0","0","22969","","null","","","null","84","","","","","","","","","","","","","","","",""
"","ITI","","html-keyboard-response","507","670989","0.0-1.0-765.0","0","0","22969","","null","","","null","84","","","","","","","","","","","","","","","NaN",""
"","S1","","html-keyboard-response","508","671241","0.0-1.0-767.0","0","0","22969","","null","","","null","85","","","","","","","","","","","","","","","",""
"","ISI","","html-keyboard-response","509","672243","0.0-1.0-768.0","0","0","22969","","436","","","75","85","k","","","","","","","","","","","","","","",""
"","S2","","html-keyboard-response","510","672322","0.0-1.0-769.0","0","0","22969","","78","","","68","85","","d","2","85","training","adjacent","FE","6","5","O.jpg","Q.jpg","0","0","1","",""
"","feedback","","html-keyboard-response","511","673324","0.0-1.0-771.0-0.0","0","0","22969","","null","","","null","85","","","","","","","","","","","","","","","",""
"","ITI","","html-keyboard-response","512","674326","0.0-1.0-774.0","0","0","22969","","264","","","68","85","","","","","","","","","","","","","","","d",""
"","S1","","html-keyboard-response","513","674577","0.0-1.0-776.0","0","0","22969","","null","","","null","86","","","","","","","","","","","","","","","",""
"","ISI","","html-keyboard-response","514","675580","0.0-1.0-777.0","0","0","22969","","49","","","68","86","d","","","","","","","","","","","","","","",""
"","S2","","html-keyboard-response","515","675635","0.0-1.0-778.0","0","0","22969","","55","","","68","86","","d","2","86","training","adjacent","ED","5","4","Q.jpg","R.jpg","0","0","1","",""
"","feedback","","html-keyboard-response","516","676637","0.0-1.0-780.0-0.0","0","0","22969","","null","","","null","86","","","","","","","","","","","","","","","",""
"","ITI","","html-keyboard-response","517","677640","0.0-1.0-783.0","0","0","22969","","null","","","null","86","","","","","","","","","","","","","","","NaN",""
"","S1","","html-keyboard-response","518","677892","0.0-1.0-785.0","0","0","22969","","null","","","null","87","","","","","","","","","","","","","","","",""
"","ISI","","html-keyboard-response","519","678894","0.0-1.0-786.0","0","0","22969","","289","","","75","87","k","","","","","","","","","","","","","","",""
"","S2","","html-keyboard-response","520","679146","0.0-1.0-787.0","0","0","22969","","null","","","null","87","","NaN","","","","","","","","","","","","","",""
"","response","","html-keyboard-response","521","679636","0.0-1.0-788.0-0.0","0","0","22969","","489","","","68","87","","","2","87","training","adjacent","CB","3","2","N.jpg","P.jpg","0","0","1","",""
"","feedback","","html-keyboard-response","522","680638","0.0-1.0-789.0-0.0","0","0","22969","","null","","","null","87","","","","","","","","","","","","","","","",""
"","ITI","","html-keyboard-response","523","681640","0.0-1.0-792.0","0","0","22969","","null","","","null","87","","","","","","","","","","","","","","","NaN",""
"","S1","","html-keyboard-response","524","681893","0.0-1.0-794.0","0","0","22969","","null","","","null","88","","","","","","","","","","","","","","","",""
"","ISI","","html-keyboard-response","525","682894","0.0-1.0-795.0","0","0","22969","","212","","","68","88","d","","","","","","","","","","","","","","",""
"","S2","","html-keyboard-response","526","683092","0.0-1.0-796.0","0","0","22969","","197","","","75","88","","k","2","88","training","adjacent","EF","5","6","Q.jpg","O.jpg","1","1","1","",""
"","feedback","","html-keyboard-response","527","684094","0.0-1.0-798.0-0.0","0","0","22969","","null","","","null","88","","","","","","","","","","","","","","","",""
"","ITI","","html-keyboard-response","528","685096","0.0-1.0-801.0","0","0","22969","","null","","","null","88","","","","","","","","","","","","","","","NaN",""
"","S1","","html-keyboard-response","529","685347","0.0-1.0-803.0","0","0","22969","","null","","","null","89","","","","","","","","","","","","","","","",""
"","ISI","","html-keyboard-response","530","686349","0.0-1.0-804.0","0","0","22969","","545","","","75","89","k","","","","","","","","","","","","","","",""
"","S2","","html-keyboard-response","531","686601","0.0-1.0-805.0","0","0","22969","","null","","","null","89","","NaN","","","","","","","","","","","","","",""
"","response","","html-keyboard-response","532","687135","0.0-1.0-806.0-0.0","0","0","22969","","533","","","68","89","","","2","89","training","adjacent","AB","1","2","L.jpg","P.jpg","0","1","0","",""
"","feedback","","html-keyboard-response","533","688137","0.0-1.0-807.0-0.0","0","0","22969","","null","","","null","89","","","","","","","","","","","","","","","",""
"","time_out","","html-keyboard-response","534","690138","0.0-1.0-809.0-0.0","0","0","22969","","null","","","null","89","","","","","","","","","","","","","","","",""
"","ITI","","html-keyboard-response","535","691140","0.0-1.0-810.0","0","0","22969","","null","","","null","89","","","","","","","","","","","","","","","NaN",""
"","S1","","html-keyboard-response","536","691391","0.0-1.0-812.0","0","0","22969","","null","","","null","90","","","","","","","","","","","","","","","",""
"","ISI","","html-keyboard-response","537","692392","0.0-1.0-813.0","0","0","22969","","97","","","68","90","d","","","","","","","","","","","","","","",""
"","S2","","html-keyboard-response","538","692478","0.0-1.0-814.0","0","0","22969","","85","","","75","90","","k","2","90","training","adjacent","GF","7","6","M.jpg","O.jpg","1","0","0","",""
"","feedback","","html-keyboard-response","539","693480","0.0-1.0-816.0-0.0","0","0","22969","","null","","","null","90","","","","","","","","","","","","","","","",""
"","time_out","","html-keyboard-response","540","695483","0.0-1.0-818.0-0.0","0","0","22969","","null","","","null","90","","","","","","","","","","","","","","","",""
"","ITI","","html-keyboard-response","541","696486","0.0-1.0-819.0","0","0","22969","","null","","","null","90","","","","","","","","","","","","","","","NaN",""
"","S1","","html-keyboard-response","542","696738","0.0-1.0-821.0","0","0","22969","","null","","","null","91","","","","","","","","","","","","","","","",""
"","ISI","","html-keyboard-response","543","697739","0.0-1.0-822.0","0","0","22969","","1","","","68","91","d","","","","","","","","","","","","","","",""
"","S2","","html-keyboard-response","544","697991","0.0-1.0-823.0","0","0","22969","","null","","","null","91","","NaN","","","","","","","","","","","","","",""
"","response","","html-keyboard-response","545","698001","0.0-1.0-824.0-0.0","0","0","22969","","9","","","68","91","","","2","91","training","adjacent","DC","4","3","R.jpg","N.jpg","0","0","1","",""
"","feedback","","html-keyboard-response","546","699003","0.0-1.0-825.0-0.0","0","0","22969","","null","","","null","91","","","","","","","","","","","","","","","",""
"","ITI","","html-keyboard-response","547","700005","0.0-1.0-828.0","0","0","22969","","null","","","null","91","","","","","","","","","","","","","","","NaN",""
"","S1","","html-keyboard-response","548","700256","0.0-1.0-830.0","0","0","22969","","null","","","null","92","","","","","","","","","","","","","","","",""
"","ISI","","html-keyboard-response","549","701258","0.0-1.0-831.0","0","0","22969","","32","","","75","92","k","","","","","","","","","","","","","","",""
"","S2","","html-keyboard-response","550","701274","0.0-1.0-832.0","0","0","22969","","15","","","75","92","","k","2","92","training","adjacent","CB","3","2","N.jpg","P.jpg","1","0","0","",""
"","feedback","","html-keyboard-response","551","702276","0.0-1.0-834.0-0.0","0","0","22969","","null","","","null","92","","","","","","","","","","","","","","","",""
"","time_out","","html-keyboard-response","552","704278","0.0-1.0-836.0-0.0","0","0","22969","","null","","","null","92","","","","","","","","","","","","","","","",""
"","ITI","","html-keyboard-response","553","705280","0.0-1.0-837.0","0","0","22969","","null","","","null","92","","","","","","","","","","","","","","","NaN",""
"","S1","","html-keyboard-response","554","705532","0.0-1.0-839.0","0","0","22969","","null","","","null","93","","","","","","","","","","","","","","","",""
"","ISI","","html-keyboard-response","555","706535","0.0-1.0-840.0","0","0","22969","","161","","","68","93","d","","","","","","","","","","","","","","",""
"","S2","","html-keyboard-response","556","706727","0.0-1.0-841.0","0","0","22969","","192","","","75","93","","k","2","93","training","adjacent","FE","6","5","O.jpg","Q.jpg","1","0","0","",""
"","feedback","","html-keyboard-response","557","707729","0.0-1.0-843.0-0.0","0","0","22969","","null","","","null","93","","","","","","","","","","","","","","","",""
"","time_out","","html-keyboard-response","558","709731","0.0-1.0-845.0-0.0","0","0","22969","","null","","","null","93","","","","","","","","","","","","","","","",""
"","ITI","","html-keyboard-response","559","710732","0.0-1.0-846.0","0","0","22969","","95","","","75","93","","","","","","","","","","","","","","","k",""
"","S1","","html-keyboard-response","560","710984","0.0-1.0-848.0","0","0","22969","","null","","","null","94","","","","","","","","","","","","","","","",""
"","ISI","","html-keyboard-response","561","711985","0.0-1.0-849.0","0","0","22969","","87","","","75","94","k","","","","","","","","","","","","","","",""
"","S2","","html-keyboard-response","562","712201","0.0-1.0-850.0","0","0","22969","","215","","","75","94","","k","2","94","training","adjacent","FE","6","5","O.jpg","Q.jpg","1","0","0","",""
"","feedback","","html-keyboard-response","563","713203","0.0-1.0-852.0-0.0","0","0","22969","","null","","","null","94","","","","","","","","","","","","","","","",""
"","time_out","","html-keyboard-response","564","715205","0.0-1.0-854.0-0.0","0","0","22969","","null","","","null","94","","","","","","","","","","","","","","","",""
"","ITI","","html-keyboard-response","565","716207","0.0-1.0-855.0","0","0","22969","","215","","","68","94","","","","","","","","","","","","","","","d",""
"","S1","","html-keyboard-response","566","716459","0.0-1.0-857.0","0","0","22969","","null","","","null","95","","","","","","","","","","","","","","","",""
"","ISI","","html-keyboard-response","567","717460","0.0-1.0-858.0","0","0","22969","","552","","","75","95","k","","","","","","","","","","","","","","",""
"","S2","","html-keyboard-response","568","717712","0.0-1.0-859.0","0","0","22969","","null","","","null","95","","NaN","","","","","","","","","","","","","",""
"","response","","html-keyboard-response","569","717794","0.0-1.0-860.0-0.0","0","0","22969","","81","","","68","95","","","2","95","training","adjacent","DE","4","5","R.jpg","Q.jpg","0","1","0","",""
"","feedback","","html-keyboard-response","570","718796","0.0-1.0-861.0-0.0","0","0","22969","","null","","","null","95","","","","","","","","","","","","","","","",""
"","time_out","","html-keyboard-response","571","720798","0.0-1.0-863.0-0.0","0","0","22969","","null","","","null","95","","","","","","","","","","","","","","","",""
"","ITI","","html-keyboard-response","572","721800","0.0-1.0-864.0","0","0","22969","","235","","","68","95","","","","","","","","","","","","","","","d",""
"","block_over","","html-keyboard-response","573","725284","0.0-1.0-865.0-0.0","0","0","22969","","3483","","","32","95","","","","","","","","","","","","","","","",""
"","S1","","html-keyboard-response","574","725536","0.0-1.0-866.0","0","0","22969","","null","","","null","96","","","","","","","","","","","","","","","",""
"","ISI","","html-keyboard-response","575","726540","0.0-1.0-867.0","0","0","22969","","null","","","null","96","NaN","","","","","","","","","","","","","","",""
"","S2","","html-keyboard-response","576","726792","0.0-1.0-868.0","0","0","22969","","null","","","null","96","","NaN","","","","","","","","","","","","","",""
"","response","","html-keyboard-response","577","726896","0.0-1.0-869.0-0.0","0","0","22969","","103","","","68","96","","","3","96","training","adjacent","FE","6","5","O.jpg","Q.jpg","0","0","1","",""
"","feedback","","html-keyboard-response","578","727898","0.0-1.0-870.0-0.0","0","0","22969","","null","","","null","96","","","","","","","","","","","","","","","",""
"","ITI","","html-keyboard-response","579","728900","0.0-1.0-873.0","0","0","22969","","67","","","75","96","","","","","","","","","","","","","","","k",""
"","S1","","html-keyboard-response","580","729152","0.0-1.0-875.0","0","0","22969","","null","","","null","97","","","","","","","","","","","","","","","",""
