"success","ttype","start_time","trial_type","trial_index","time_elapsed","internal_node_id","warning","missed_checkup","PID","view_history","rt","responses","repeat_instructions","key_press","index","keypress_isi","keypress_S2","block","trial_num","phase","group_type","pair_type","S1_stim","S2_stim","S1_img","S2_img","S1_chosen","S1_higher","accuracy","keypress_iti","total_bonus_tally"
"true","full_screen","d04062023hr1818","fullscreen","0","31518","0.0-0.0","0","0","14726","","","","","","","","","","","","","","","","","","","","","",""
"","instructions","","instructions","1","233049","0.0-1.0-0.0-0.0","0","0","14726","[{""page_index"":0,""viewing_time"":15651},{""page_index"":1,""viewing_time"":76634},{""page_index"":2,""viewing_time"":105976},{""page_index"":3,""viewing_time"":3260}]","201524","","","","","","","","","","","","","","","","","","","",""
"","comprehension_check","","survey-multi-choice","2","326884","0.0-1.0-0.0-1.0","0","0","14726","","93817","{""Q0"":""True"",""Q1"":""D"",""Q2"":""Only when the screen 'MAKE A CHOICE' is shown"",""Q3"":""Green mark"",""Q4"":""either D or K""}","1","","","","","","","","","","","","","","","","","",""
"","missed_instruction_checkup","","html-keyboard-response","3","329551","0.0-1.0-0.0-2.0-0.0","0","1","14726","","2652","","","32","","","","","","","","","","","","","","","","",""
"","instructions","","instructions","4","361131","0.0-1.0-0.1-0.1","0","0","14726","[{""page_index"":0,""viewing_time"":7920},{""page_index"":1,""viewing_time"":20225},{""page_index"":2,""viewing_time"":1369},{""page_index"":3,""viewing_time"":2057}]","31572","","","","","","","","","","","","","","","","","","","",""
"","comprehension_check","","survey-multi-choice","5","381645","0.0-1.0-0.1-1.1","0","0","14726","","20492","{""Q0"":""True"",""Q1"":""D"",""Q2"":""Once the second image appears and while the screen 'MAKE A CHOICE' is shown"",""Q3"":""Green mark"",""Q4"":""either D or K""}","0","","","","","","","","","","","","","","","","","",""
"","start_exp","","html-keyboard-response","6","384196","0.0-1.0-1.0","0","0","14726","","2538","","","32","","","","","","","","","","","","","","","","",""
"","S1","","html-keyboard-response","7","384357","0.0-1.0-2.0","0","0","14726","","null","","","null","0","","","","","","","","","","","","","","","",""
"","ISI","","html-keyboard-response","8","386371","0.0-1.0-3.0","0","0","14726","","null","","","null","0","NaN","","","","","","","","","","","","","","",""
"","S2","","html-keyboard-response","9","386534","0.0-1.0-4.0","0","0","14726","","null","","","null","0","","NaN","","","","","","","","","","","","","",""
"","response","","html-keyboard-response","10","387840","0.0-1.0-5.0-0.0","0","0","14726","","1296","","","68","0","","","1","0","training","adjacent","BA","2","1","R.jpg","P.jpg","1","0","0","",""
"","feedback","","html-keyboard-response","11","388854","0.0-1.0-6.0-0.0","0","0","14726","","null","","","null","0","","","","","","","","","","","","","","","",""
"","time_out","","html-keyboard-response","12","390868","0.0-1.0-8.0-0.0","0","0","14726","","null","","","null","0","","","","","","","","","","","","","","","",""
"","ITI","","html-keyboard-response","13","391881","0.0-1.0-9.0","0","0","14726","","null","","","null","0","","","","","","","","","","","","","","","NaN",""
"","S1","","html-keyboard-response","14","392042","0.0-1.0-11.0","0","0","14726","","null","","","null","1","","","","","","","","","","","","","","","",""
"","ISI","","html-keyboard-response","15","394053","0.0-1.0-12.0","0","0","14726","","null","","","null","1","NaN","","","","","","","","","","","","","","",""
"","S2","","html-keyboard-response","16","394214","0.0-1.0-13.0","0","0","14726","","null","","","null","1","","NaN","","","","","","","","","","","","","",""
"","response","","html-keyboard-response","17","394891","0.0-1.0-14.0-0.0","0","0","14726","","665","","","75","1","","","1","1","training","adjacent","CB","3","2","Q.jpg","R.jpg","0","0","1","",""
"","feedback","","html-keyboard-response","18","395905","0.0-1.0-15.0-0.0","0","0","14726","","null","","","null","1","","","","","","","","","","","","","","","",""
"","ITI","","html-keyboard-response","19","396916","0.0-1.0-18.0","0","0","14726","","null","","","null","1","","","","","","","","","","","","","","","NaN",""
"","S1","","html-keyboard-response","20","397077","0.0-1.0-20.0","0","0","14726","","null","","","null","2","","","","","","","","","","","","","","","",""
"","ISI","","html-keyboard-response","21","399085","0.0-1.0-21.0","0","0","14726","","null","","","null","2","NaN","","","","","","","","","","","","","","",""
"","S2","","html-keyboard-response","22","399248","0.0-1.0-22.0","0","0","14726","","null","","","null","2","","NaN","","","","","","","","","","","","","",""
"","response","","html-keyboard-response","23","400179","0.0-1.0-23.0-0.0","0","0","14726","","918","","","68","2","","","1","2","training","adjacent","AB","1","2","P.jpg","R.jpg","1","1","1","",""
"","feedback","","html-keyboard-response","24","401192","0.0-1.0-24.0-0.0","0","0","14726","","null","","","null","2","","","","","","","","","","","","","","","",""
"","ITI","","html-keyboard-response","25","402202","0.0-1.0-27.0","0","0","14726","","null","","","null","2","","","","","","","","","","","","","","","NaN",""
"","S1","","html-keyboard-response","26","402360","0.0-1.0-29.0","0","0","14726","","null","","","null","3","","","","","","","","","","","","","","","",""
"","ISI","","html-keyboard-response","27","404372","0.0-1.0-30.0","0","0","14726","","null","","","null","3","NaN","","","","","","","","","","","","","","",""
"","S2","","html-keyboard-response","28","404533","0.0-1.0-31.0","0","0","14726","","null","","","null","3","","NaN","","","","","","","","","","","","","",""
"","response","","html-keyboard-response","29","405321","0.0-1.0-32.0-0.0","0","0","14726","","774","","","75","3","","","1","3","training","adjacent","FE","6","5","O.jpg","L.jpg","0","0","1","",""
"","feedback","","html-keyboard-response","30","406332","0.0-1.0-33.0-0.0","0","0","14726","","null","","","null","3","","","","","","","","","","","","","","","",""
"","ITI","","html-keyboard-response","31","407346","0.0-1.0-36.0","0","0","14726","","null","","","null","3","","","","","","","","","","","","","","","NaN",""
"","S1","","html-keyboard-response","32","407509","0.0-1.0-38.0","0","0","14726","","null","","","null","4","","","","","","","","","","","","","","","",""
"","ISI","","html-keyboard-response","33","409520","0.0-1.0-39.0","0","0","14726","","null","","","null","4","NaN","","","","","","","","","","","","","","",""
"","S2","","html-keyboard-response","34","409683","0.0-1.0-40.0","0","0","14726","","null","","","null","4","","NaN","","","","","","","","","","","","","",""
"","response","","html-keyboard-response","35","410586","0.0-1.0-41.0-0.0","0","0","14726","","894","","","68","4","","","1","4","training","adjacent","AB","1","2","P.jpg","R.jpg","1","1","1","",""
"","feedback","","html-keyboard-response","36","411599","0.0-1.0-42.0-0.0","0","0","14726","","null","","","null","4","","","","","","","","","","","","","","","",""
"","ITI","","html-keyboard-response","37","412614","0.0-1.0-45.0","0","0","14726","","null","","","null","4","","","","","","","","","","","","","","","NaN",""
"","S1","","html-keyboard-response","38","412780","0.0-1.0-47.0","0","0","14726","","null","","","null","5","","","","","","","","","","","","","","","",""
"","ISI","","html-keyboard-response","39","414792","0.0-1.0-48.0","0","0","14726","","null","","","null","5","NaN","","","","","","","","","","","","","","",""
"","S2","","html-keyboard-response","40","414952","0.0-1.0-49.0","0","0","14726","","null","","","null","5","","NaN","","","","","","","","","","","","","",""
"","response","","html-keyboard-response","41","415874","0.0-1.0-50.0-0.0","0","0","14726","","913","","","75","5","","","1","5","training","adjacent","FE","6","5","O.jpg","L.jpg","0","0","1","",""
"","feedback","","html-keyboard-response","42","416890","0.0-1.0-51.0-0.0","0","0","14726","","null","","","null","5","","","","","","","","","","","","","","","",""
"","ITI","","html-keyboard-response","43","417907","0.0-1.0-54.0","0","0","14726","","null","","","null","5","","","","","","","","","","","","","","","NaN",""
"","S1","","html-keyboard-response","44","418068","0.0-1.0-56.0","0","0","14726","","null","","","null","6","","","","","","","","","","","","","","","",""
"","ISI","","html-keyboard-response","45","420081","0.0-1.0-57.0","0","0","14726","","null","","","null","6","NaN","","","","","","","","","","","","","","",""
"","S2","","html-keyboard-response","46","420243","0.0-1.0-58.0","0","0","14726","","null","","","null","6","","NaN","","","","","","","","","","","","","",""
"","response","","html-keyboard-response","47","421482","0.0-1.0-59.0-0.0","0","0","14726","","1228","","","68","6","","","1","6","training","adjacent","BA","2","1","R.jpg","P.jpg","1","0","0","",""
"","feedback","","html-keyboard-response","48","422495","0.0-1.0-60.0-0.0","0","0","14726","","null","","","null","6","","","","","","","","","","","","","","","",""
"","time_out","","html-keyboard-response","49","424508","0.0-1.0-62.0-0.0","0","0","14726","","null","","","null","6","","","","","","","","","","","","","","","",""
"","ITI","","html-keyboard-response","50","425521","0.0-1.0-63.0","0","0","14726","","null","","","null","6","","","","","","","","","","","","","","","NaN",""
"","S1","","html-keyboard-response","51","425683","0.0-1.0-65.0","0","0","14726","","null","","","null","7","","","","","","","","","","","","","","","",""
"","ISI","","html-keyboard-response","52","427698","0.0-1.0-66.0","0","0","14726","","null","","","null","7","NaN","","","","","","","","","","","","","","",""
"","S2","","html-keyboard-response","53","427861","0.0-1.0-67.0","0","0","14726","","null","","","null","7","","NaN","","","","","","","","","","","","","",""
"","response","","html-keyboard-response","54","428649","0.0-1.0-68.0-0.0","0","0","14726","","778","","","68","7","","","1","7","training","adjacent","FG","6","7","O.jpg","M.jpg","1","1","1","",""
"","feedback","","html-keyboard-response","55","429661","0.0-1.0-69.0-0.0","0","0","14726","","null","","","null","7","","","","","","","","","","","","","","","",""
"","ITI","","html-keyboard-response","56","430675","0.0-1.0-72.0","0","0","14726","","null","","","null","7","","","","","","","","","","","","","","","NaN",""
"","S1","","html-keyboard-response","57","430844","0.0-1.0-74.0","0","0","14726","","null","","","null","8","","","","","","","","","","","","","","","",""
"","ISI","","html-keyboard-response","58","432857","0.0-1.0-75.0","0","0","14726","","null","","","null","8","NaN","","","","","","","","","","","","","","",""
"","S2","","html-keyboard-response","59","433021","0.0-1.0-76.0","0","0","14726","","null","","","null","8","","NaN","","","","","","","","","","","","","",""
"","response","","html-keyboard-response","60","433702","0.0-1.0-77.0-0.0","0","0","14726","","671","","","68","8","","","1","8","training","adjacent","CB","3","2","Q.jpg","R.jpg","1","0","0","",""
"","feedback","","html-keyboard-response","61","434713","0.0-1.0-78.0-0.0","0","0","14726","","null","","","null","8","","","","","","","","","","","","","","","",""
"","time_out","","html-keyboard-response","62","436726","0.0-1.0-80.0-0.0","0","0","14726","","null","","","null","8","","","","","","","","","","","","","","","",""
"","ITI","","html-keyboard-response","63","437738","0.0-1.0-81.0","0","0","14726","","null","","","null","8","","","","","","","","","","","","","","","NaN",""
"","S1","","html-keyboard-response","64","437899","0.0-1.0-83.0","0","0","14726","","null","","","null","9","","","","","","","","","","","","","","","",""
"","ISI","","html-keyboard-response","65","439911","0.0-1.0-84.0","0","0","14726","","null","","","null","9","NaN","","","","","","","","","","","","","","",""
"","S2","","html-keyboard-response","66","440071","0.0-1.0-85.0","0","0","14726","","null","","","null","9","","NaN","","","","","","","","","","","","","",""
"","response","","html-keyboard-response","67","441151","0.0-1.0-86.0-0.0","0","0","14726","","1067","","","75","9","","","1","9","training","adjacent","CD","3","4","Q.jpg","N.jpg","0","1","0","",""
"","feedback","","html-keyboard-response","68","442161","0.0-1.0-87.0-0.0","0","0","14726","","null","","","null","9","","","","","","","","","","","","","","","",""
"","time_out","","html-keyboard-response","69","444174","0.0-1.0-89.0-0.0","0","0","14726","","null","","","null","9","","","","","","","","","","","","","","","",""
"","ITI","","html-keyboard-response","70","445185","0.0-1.0-90.0","0","0","14726","","null","","","null","9","","","","","","","","","","","","","","","NaN",""
"","S1","","html-keyboard-response","71","445347","0.0-1.0-92.0","0","0","14726","","null","","","null","10","","","","","","","","","","","","","","","",""
"","ISI","","html-keyboard-response","72","447359","0.0-1.0-93.0","0","0","14726","","null","","","null","10","NaN","","","","","","","","","","","","","","",""
"","S2","","html-keyboard-response","73","447525","0.0-1.0-94.0","0","0","14726","","null","","","null","10","","NaN","","","","","","","","","","","","","",""
"","response","","html-keyboard-response","74","448056","0.0-1.0-95.0-0.0","0","0","14726","","522","","","68","10","","","1","10","training","adjacent","EF","5","6","L.jpg","O.jpg","1","1","1","",""
"","feedback","","html-keyboard-response","75","449065","0.0-1.0-96.0-0.0","0","0","14726","","null","","","null","10","","","","","","","","","","","","","","","",""
"","ITI","","html-keyboard-response","76","450077","0.0-1.0-99.0","0","0","14726","","null","","","null","10","","","","","","","","","","","","","","","NaN",""
"","S1","","html-keyboard-response","77","450239","0.0-1.0-101.0","0","0","14726","","null","","","null","11","","","","","","","","","","","","","","","",""
"","ISI","","html-keyboard-response","78","452252","0.0-1.0-102.0","0","0","14726","","null","","","null","11","NaN","","","","","","","","","","","","","","",""
"","S2","","html-keyboard-response","79","452415","0.0-1.0-103.0","0","0","14726","","null","","","null","11","","NaN","","","","","","","","","","","","","",""
"","response","","html-keyboard-response","80","453108","0.0-1.0-104.0-0.0","0","0","14726","","683","","","75","11","","","1","11","training","adjacent","FE","6","5","O.jpg","L.jpg","0","0","1","",""
"","feedback","","html-keyboard-response","81","454117","0.0-1.0-105.0-0.0","0","0","14726","","null","","","null","11","","","","","","","","","","","","","","","",""
"","ITI","","html-keyboard-response","82","455132","0.0-1.0-108.0","0","0","14726","","null","","","null","11","","","","","","","","","","","","","","","NaN",""
"","S1","","html-keyboard-response","83","455294","0.0-1.0-110.0","0","0","14726","","null","","","null","12","","","","","","","","","","","","","","","",""
"","ISI","","html-keyboard-response","84","457306","0.0-1.0-111.0","0","0","14726","","null","","","null","12","NaN","","","","","","","","","","","","","","",""
"","S2","","html-keyboard-response","85","457469","0.0-1.0-112.0","0","0","14726","","null","","","null","12","","NaN","","","","","","","","","","","","","",""
"","response","","html-keyboard-response","86","458584","0.0-1.0-113.0-0.0","0","0","14726","","1106","","","75","12","","","1","12","training","adjacent","DE","4","5","N.jpg","L.jpg","0","1","0","",""
"","feedback","","html-keyboard-response","87","459600","0.0-1.0-114.0-0.0","0","0","14726","","null","","","null","12","","","","","","","","","","","","","","","",""
"","time_out","","html-keyboard-response","88","461611","0.0-1.0-116.0-0.0","0","0","14726","","null","","","null","12","","","","","","","","","","","","","","","",""
"","ITI","","html-keyboard-response","89","462623","0.0-1.0-117.0","0","0","14726","","null","","","null","12","","","","","","","","","","","","","","","NaN",""
"","S1","","html-keyboard-response","90","462785","0.0-1.0-119.0","0","0","14726","","null","","","null","13","","","","","","","","","","","","","","","",""
"","ISI","","html-keyboard-response","91","464797","0.0-1.0-120.0","0","0","14726","","null","","","null","13","NaN","","","","","","","","","","","","","","",""
"","S2","","html-keyboard-response","92","464959","0.0-1.0-121.0","0","0","14726","","null","","","null","13","","NaN","","","","","","","","","","","","","",""
"","response","","html-keyboard-response","93","465621","0.0-1.0-122.0-0.0","0","0","14726","","653","","","68","13","","","1","13","training","adjacent","AB","1","2","P.jpg","R.jpg","1","1","1","",""
"","feedback","","html-keyboard-response","94","466631","0.0-1.0-123.0-0.0","0","0","14726","","null","","","null","13","","","","","","","","","","","","","","","",""
"","ITI","","html-keyboard-response","95","467644","0.0-1.0-126.0","0","0","14726","","null","","","null","13","","","","","","","","","","","","","","","NaN",""
"","S1","","html-keyboard-response","96","467806","0.0-1.0-128.0","0","0","14726","","null","","","null","14","","","","","","","","","","","","","","","",""
"","ISI","","html-keyboard-response","97","469819","0.0-1.0-129.0","0","0","14726","","null","","","null","14","NaN","","","","","","","","","","","","","","",""
"","S2","","html-keyboard-response","98","469983","0.0-1.0-130.0","0","0","14726","","null","","","null","14","","NaN","","","","","","","","","","","","","",""
"","response","","html-keyboard-response","99","470693","0.0-1.0-131.0-0.0","0","0","14726","","698","","","68","14","","","1","14","training","adjacent","DE","4","5","N.jpg","L.jpg","1","1","1","",""
"","feedback","","html-keyboard-response","100","471707","0.0-1.0-132.0-0.0","0","0","14726","","null","","","null","14","","","","","","","","","","","","","","","",""
"","ITI","","html-keyboard-response","101","472721","0.0-1.0-135.0","0","0","14726","","null","","","null","14","","","","","","","","","","","","","","","NaN",""
"","S1","","html-keyboard-response","102","472884","0.0-1.0-137.0","0","0","14726","","null","","","null","15","","","","","","","","","","","","","","","",""
"","ISI","","html-keyboard-response","103","474891","0.0-1.0-138.0","0","0","14726","","null","","","null","15","NaN","","","","","","","","","","","","","","",""
"","S2","","html-keyboard-response","104","475056","0.0-1.0-139.0","0","0","14726","","null","","","null","15","","NaN","","","","","","","","","","","","","",""
"","response","","html-keyboard-response","105","475627","0.0-1.0-140.0-0.0","0","0","14726","","562","","","68","15","","","1","15","training","adjacent","GF","7","6","M.jpg","O.jpg","1","0","0","",""
"","feedback","","html-keyboard-response","106","476637","0.0-1.0-141.0-0.0","0","0","14726","","null","","","null","15","","","","","","","","","","","","","","","",""
"","time_out","","html-keyboard-response","107","478650","0.0-1.0-143.0-0.0","0","0","14726","","null","","","null","15","","","","","","","","","","","","","","","",""
"","ITI","","html-keyboard-response","108","479664","0.0-1.0-144.0","0","0","14726","","null","","","null","15","","","","","","","","","","","","","","","NaN",""
"","S1","","html-keyboard-response","109","479828","0.0-1.0-146.0","0","0","14726","","null","","","null","16","","","","","","","","","","","","","","","",""
"","ISI","","html-keyboard-response","110","481842","0.0-1.0-147.0","0","0","14726","","null","","","null","16","NaN","","","","","","","","","","","","","","",""
"","S2","","html-keyboard-response","111","482005","0.0-1.0-148.0","0","0","14726","","null","","","null","16","","NaN","","","","","","","","","","","","","",""
"","response","","html-keyboard-response","112","482845","0.0-1.0-149.0-0.0","0","0","14726","","832","","","68","16","","","1","16","training","adjacent","EF","5","6","L.jpg","O.jpg","1","1","1","",""
"","feedback","","html-keyboard-response","113","483860","0.0-1.0-150.0-0.0","0","0","14726","","null","","","null","16","","","","","","","","","","","","","","","",""
"","ITI","","html-keyboard-response","114","484873","0.0-1.0-153.0","0","0","14726","","null","","","null","16","","","","","","","","","","","","","","","NaN",""
"","S1","","html-keyboard-response","115","485035","0.0-1.0-155.0","0","0","14726","","null","","","null","17","","","","","","","","","","","","","","","",""
"","ISI","","html-keyboard-response","116","487047","0.0-1.0-156.0","0","0","14726","","null","","","null","17","NaN","","","","","","","","","","","","","","",""
"","S2","","html-keyboard-response","117","487208","0.0-1.0-157.0","0","0","14726","","null","","","null","17","","NaN","","","","","","","","","","","","","",""
"","response","","html-keyboard-response","118","487929","0.0-1.0-158.0-0.0","0","0","14726","","711","","","75","17","","","1","17","training","adjacent","DC","4","3","N.jpg","Q.jpg","0","0","1","",""
"","feedback","","html-keyboard-response","119","488942","0.0-1.0-159.0-0.0","0","0","14726","","null","","","null","17","","","","","","","","","","","","","","","",""
"","ITI","","html-keyboard-response","120","489952","0.0-1.0-162.0","0","0","14726","","null","","","null","17","","","","","","","","","","","","","","","NaN",""
"","S1","","html-keyboard-response","121","490119","0.0-1.0-164.0","0","0","14726","","null","","","null","18","","","","","","","","","","","","","","","",""
"","ISI","","html-keyboard-response","122","492130","0.0-1.0-165.0","0","0","14726","","null","","","null","18","NaN","","","","","","","","","","","","","","",""
"","S2","","html-keyboard-response","123","492294","0.0-1.0-166.0","0","0","14726","","null","","","null","18","","NaN","","","","","","","","","","","","","",""
"","response","","html-keyboard-response","124","493056","0.0-1.0-167.0-0.0","0","0","14726","","752","","","68","18","","","1","18","training","adjacent","CD","3","4","Q.jpg","N.jpg","1","1","1","",""
"","feedback","","html-keyboard-response","125","494069","0.0-1.0-168.0-0.0","0","0","14726","","null","","","null","18","","","","","","","","","","","","","","","",""
"","ITI","","html-keyboard-response","126","495079","0.0-1.0-171.0","0","0","14726","","null","","","null","18","","","","","","","","","","","","","","","NaN",""
"","S1","","html-keyboard-response","127","495242","0.0-1.0-173.0","0","0","14726","","null","","","null","19","","","","","","","","","","","","","","","",""
"","ISI","","html-keyboard-response","128","497253","0.0-1.0-174.0","0","0","14726","","null","","","null","19","NaN","","","","","","","","","","","","","","",""
"","S2","","html-keyboard-response","129","497415","0.0-1.0-175.0","0","0","14726","","null","","","null","19","","NaN","","","","","","","","","","","","","",""
"","response","","html-keyboard-response","130","498089","0.0-1.0-176.0-0.0","0","0","14726","","666","","","75","19","","","1","19","training","adjacent","DC","4","3","N.jpg","Q.jpg","0","0","1","",""
"","feedback","","html-keyboard-response","131","499100","0.0-1.0-177.0-0.0","0","0","14726","","null","","","null","19","","","","","","","","","","","","","","","",""
"","ITI","","html-keyboard-response","132","500113","0.0-1.0-180.0","0","0","14726","","null","","","null","19","","","","","","","","","","","","","","","NaN",""
"","S1","","html-keyboard-response","133","500273","0.0-1.0-182.0","0","0","14726","","null","","","null","20","","","","","","","","","","","","","","","",""
"","ISI","","html-keyboard-response","134","502282","0.0-1.0-183.0","0","0","14726","","null","","","null","20","NaN","","","","","","","","","","","","","","",""
"","S2","","html-keyboard-response","135","502444","0.0-1.0-184.0","0","0","14726","","null","","","null","20","","NaN","","","","","","","","","","","","","",""
"","response","","html-keyboard-response","136","503024","0.0-1.0-185.0-0.0","0","0","14726","","569","","","68","20","","","1","20","training","adjacent","DE","4","5","N.jpg","L.jpg","1","1","1","",""
"","feedback","","html-keyboard-response","137","504038","0.0-1.0-186.0-0.0","0","0","14726","","null","","","null","20","","","","","","","","","","","","","","","",""
"","ITI","","html-keyboard-response","138","505052","0.0-1.0-189.0","0","0","14726","","null","","","null","20","","","","","","","","","","","","","","","NaN",""
"","S1","","html-keyboard-response","139","505214","0.0-1.0-191.0","0","0","14726","","null","","","null","21","","","","","","","","","","","","","","","",""
"","ISI","","html-keyboard-response","140","507224","0.0-1.0-192.0","0","0","14726","","null","","","null","21","NaN","","","","","","","","","","","","","","",""
"","S2","","html-keyboard-response","141","507388","0.0-1.0-193.0","0","0","14726","","null","","","null","21","","NaN","","","","","","","","","","","","","",""
"","response","","html-keyboard-response","142","508051","0.0-1.0-194.0-0.0","0","0","14726","","653","","","68","21","","","1","21","training","adjacent","GF","7","6","M.jpg","O.jpg","1","0","0","",""
"","feedback","","html-keyboard-response","143","509066","0.0-1.0-195.0-0.0","0","0","14726","","null","","","null","21","","","","","","","","","","","","","","","",""
"","time_out","","html-keyboard-response","144","511079","0.0-1.0-197.0-0.0","0","0","14726","","null","","","null","21","","","","","","","","","","","","","","","",""
"","ITI","","html-keyboard-response","145","512091","0.0-1.0-198.0","0","0","14726","","null","","","null","21","","","","","","","","","","","","","","","NaN",""
"","S1","","html-keyboard-response","146","512253","0.0-1.0-200.0","0","0","14726","","null","","","null","22","","","","","","","","","","","","","","","",""
"","ISI","","html-keyboard-response","147","514263","0.0-1.0-201.0","0","0","14726","","null","","","null","22","NaN","","","","","","","","","","","","","","",""
"","S2","","html-keyboard-response","148","514427","0.0-1.0-202.0","0","0","14726","","null","","","null","22","","NaN","","","","","","","","","","","","","",""
"","response","","html-keyboard-response","149","515118","0.0-1.0-203.0-0.0","0","0","14726","","682","","","68","22","","","1","22","training","adjacent","DC","4","3","N.jpg","Q.jpg","1","0","0","",""
"","feedback","","html-keyboard-response","150","516133","0.0-1.0-204.0-0.0","0","0","14726","","null","","","null","22","","","","","","","","","","","","","","","",""
"","time_out","","html-keyboard-response","151","518140","0.0-1.0-206.0-0.0","0","0","14726","","null","","","null","22","","","","","","","","","","","","","","","",""
"","ITI","","html-keyboard-response","152","519154","0.0-1.0-207.0","0","0","14726","","null","","","null","22","","","","","","","","","","","","","","","NaN",""
"","S1","","html-keyboard-response","153","519315","0.0-1.0-209.0","0","0","14726","","null","","","null","23","","","","","","","","","","","","","","","",""
"","ISI","","html-keyboard-response","154","521327","0.0-1.0-210.0","0","0","14726","","null","","","null","23","NaN","","","","","","","","","","","","","","",""
"","S2","","html-keyboard-response","155","521491","0.0-1.0-211.0","0","0","14726","","null","","","null","23","","NaN","","","","","","","","","","","","","",""
"","response","","html-keyboard-response","156","522073","0.0-1.0-212.0-0.0","0","0","14726","","572","","","75","23","","","1","23","training","adjacent","CB","3","2","Q.jpg","R.jpg","0","0","1","",""
"","feedback","","html-keyboard-response","157","523089","0.0-1.0-213.0-0.0","0","0","14726","","null","","","null","23","","","","","","","","","","","","","","","",""
"","ITI","","html-keyboard-response","158","524100","0.0-1.0-216.0","0","0","14726","","null","","","null","23","","","","","","","","","","","","","","","NaN",""
"","S1","","html-keyboard-response","159","524259","0.0-1.0-218.0","0","0","14726","","null","","","null","24","","","","","","","","","","","","","","","",""
"","ISI","","html-keyboard-response","160","526267","0.0-1.0-219.0","0","0","14726","","null","","","null","24","NaN","","","","","","","","","","","","","","",""
"","S2","","html-keyboard-response","161","526431","0.0-1.0-220.0","0","0","14726","","null","","","null","24","","NaN","","","","","","","","","","","","","",""
"","response","","html-keyboard-response","162","526923","0.0-1.0-221.0-0.0","0","0","14726","","482","","","68","24","","","1","24","training","adjacent","CD","3","4","Q.jpg","N.jpg","1","1","1","",""
"","feedback","","html-keyboard-response","163","527936","0.0-1.0-222.0-0.0","0","0","14726","","null","","","null","24","","","","","","","","","","","","","","","",""
"","ITI","","html-keyboard-response","164","528945","0.0-1.0-225.0","0","0","14726","","null","","","null","24","","","","","","","","","","","","","","","NaN",""
"","S1","","html-keyboard-response","165","529108","0.0-1.0-227.0","0","0","14726","","null","","","null","25","","","","","","","","","","","","","","","",""
"","ISI","","html-keyboard-response","166","531118","0.0-1.0-228.0","0","0","14726","","null","","","null","25","NaN","","","","","","","","","","","","","","",""
"","S2","","html-keyboard-response","167","531282","0.0-1.0-229.0","0","0","14726","","null","","","null","25","","NaN","","","","","","","","","","","","","",""
"","response","","html-keyboard-response","168","531706","0.0-1.0-230.0-0.0","0","0","14726","","414","","","68","25","","","1","25","training","adjacent","CB","3","2","Q.jpg","R.jpg","1","0","0","",""
"","feedback","","html-keyboard-response","169","532723","0.0-1.0-231.0-0.0","0","0","14726","","null","","","null","25","","","","","","","","","","","","","","","",""
"","time_out","","html-keyboard-response","170","534738","0.0-1.0-233.0-0.0","0","0","14726","","null","","","null","25","","","","","","","","","","","","","","","",""
"","ITI","","html-keyboard-response","171","535750","0.0-1.0-234.0","0","0","14726","","null","","","null","25","","","","","","","","","","","","","","","NaN",""
"","S1","","html-keyboard-response","172","535912","0.0-1.0-236.0","0","0","14726","","null","","","null","26","","","","","","","","","","","","","","","",""
"","ISI","","html-keyboard-response","173","537923","0.0-1.0-237.0","0","0","14726","","null","","","null","26","NaN","","","","","","","","","","","","","","",""
"","S2","","html-keyboard-response","174","538090","0.0-1.0-238.0","0","0","14726","","null","","","null","26","","NaN","","","","","","","","","","","","","",""
"","response","","html-keyboard-response","175","538855","0.0-1.0-239.0-0.0","0","0","14726","","751","","","75","26","","","1","26","training","adjacent","DC","4","3","N.jpg","Q.jpg","0","0","1","",""
"","feedback","","html-keyboard-response","176","539865","0.0-1.0-240.0-0.0","0","0","14726","","null","","","null","26","","","","","","","","","","","","","","","",""
"","ITI","","html-keyboard-response","177","540880","0.0-1.0-243.0","0","0","14726","","null","","","null","26","","","","","","","","","","","","","","","NaN",""
"","S1","","html-keyboard-response","178","541045","0.0-1.0-245.0","0","0","14726","","null","","","null","27","","","","","","","","","","","","","","","",""
"","ISI","","html-keyboard-response","179","543055","0.0-1.0-246.0","0","0","14726","","null","","","null","27","NaN","","","","","","","","","","","","","","",""
"","S2","","html-keyboard-response","180","543217","0.0-1.0-247.0","0","0","14726","","null","","","null","27","","NaN","","","","","","","","","","","","","",""
"","response","","html-keyboard-response","181","543818","0.0-1.0-248.0-0.0","0","0","14726","","591","","","75","27","","","1","27","training","adjacent","BC","2","3","R.jpg","Q.jpg","0","1","0","",""
"","feedback","","html-keyboard-response","182","544831","0.0-1.0-249.0-0.0","0","0","14726","","null","","","null","27","","","","","","","","","","","","","","","",""
"","time_out","","html-keyboard-response","183","546846","0.0-1.0-251.0-0.0","0","0","14726","","null","","","null","27","","","","","","","","","","","","","","","",""
"","ITI","","html-keyboard-response","184","547857","0.0-1.0-252.0","0","0","14726","","null","","","null","27","","","","","","","","","","","","","","","NaN",""
"","S1","","html-keyboard-response","185","548017","0.0-1.0-254.0","0","0","14726","","null","","","null","28","","","","","","","","","","","","","","","",""
"","ISI","","html-keyboard-response","186","550027","0.0-1.0-255.0","0","0","14726","","null","","","null","28","NaN","","","","","","","","","","","","","","",""
"","S2","","html-keyboard-response","187","550194","0.0-1.0-256.0","0","0","14726","","null","","","null","28","","NaN","","","","","","","","","","","","","",""
"","response","","html-keyboard-response","188","550451","0.0-1.0-257.0-0.0","0","0","14726","","246","","","75","28","","","1","28","training","adjacent","DE","4","5","N.jpg","L.jpg","0","1","0","",""
"","feedback","","html-keyboard-response","189","551463","0.0-1.0-258.0-0.0","0","0","14726","","null","","","null","28","","","","","","","","","","","","","","","",""
"","time_out","","html-keyboard-response","190","553476","0.0-1.0-260.0-0.0","0","0","14726","","null","","","null","28","","","","","","","","","","","","","","","",""
"","ITI","","html-keyboard-response","191","554486","0.0-1.0-261.0","0","0","14726","","null","","","null","28","","","","","","","","","","","","","","","NaN",""
"","S1","","html-keyboard-response","192","554647","0.0-1.0-263.0","0","0","14726","","null","","","null","29","","","","","","","","","","","","","","","",""
"","ISI","","html-keyboard-response","193","556658","0.0-1.0-264.0","0","0","14726","","null","","","null","29","NaN","","","","","","","","","","","","","","",""
"","S2","","html-keyboard-response","194","556820","0.0-1.0-265.0","0","0","14726","","null","","","null","29","","NaN","","","","","","","","","","","","","",""
"","response","","html-keyboard-response","195","557227","0.0-1.0-266.0-0.0","0","0","14726","","398","","","68","29","","","1","29","training","adjacent","ED","5","4","L.jpg","N.jpg","1","0","0","",""
"","feedback","","html-keyboard-response","196","558241","0.0-1.0-267.0-0.0","0","0","14726","","null","","","null","29","","","","","","","","","","","","","","","",""
"","time_out","","html-keyboard-response","197","560252","0.0-1.0-269.0-0.0","0","0","14726","","null","","","null","29","","","","","","","","","","","","","","","",""
"","ITI","","html-keyboard-response","198","561265","0.0-1.0-270.0","0","0","14726","","null","","","null","29","","","","","","","","","","","","","","","NaN",""
"","S1","","html-keyboard-response","199","561423","0.0-1.0-272.0","0","0","14726","","null","","","null","30","","","","","","","","","","","","","","","",""
"","ISI","","html-keyboard-response","200","563435","0.0-1.0-273.0","0","0","14726","","null","","","null","30","NaN","","","","","","","","","","","","","","",""
"","S2","","html-keyboard-response","201","563602","0.0-1.0-274.0","0","0","14726","","null","","","null","30","","NaN","","","","","","","","","","","","","",""
"","response","","html-keyboard-response","202","564036","0.0-1.0-275.0-0.0","0","0","14726","","423","","","68","30","","","1","30","training","adjacent","FG","6","7","O.jpg","M.jpg","1","1","1","",""
"","feedback","","html-keyboard-response","203","565049","0.0-1.0-276.0-0.0","0","0","14726","","null","","","null","30","","","","","","","","","","","","","","","",""
"","ITI","","html-keyboard-response","204","566061","0.0-1.0-279.0","0","0","14726","","null","","","null","30","","","","","","","","","","","","","","","NaN",""
"","S1","","html-keyboard-response","205","566225","0.0-1.0-281.0","0","0","14726","","null","","","null","31","","","","","","","","","","","","","","","",""
"","ISI","","html-keyboard-response","206","568238","0.0-1.0-282.0","0","0","14726","","null","","","null","31","NaN","","","","","","","","","","","","","","",""
"","S2","","html-keyboard-response","207","568402","0.0-1.0-283.0","0","0","14726","","null","","","null","31","","NaN","","","","","","","","","","","","","",""
"","response","","html-keyboard-response","208","569033","0.0-1.0-284.0-0.0","0","0","14726","","621","","","75","31","","","1","31","training","adjacent","EF","5","6","L.jpg","O.jpg","0","1","0","",""
"","feedback","","html-keyboard-response","209","570045","0.0-1.0-285.0-0.0","0","0","14726","","null","","","null","31","","","","","","","","","","","","","","","",""
"","time_out","","html-keyboard-response","210","572055","0.0-1.0-287.0-0.0","0","0","14726","","null","","","null","31","","","","","","","","","","","","","","","",""
"","ITI","","html-keyboard-response","211","573070","0.0-1.0-288.0","0","0","14726","","null","","","null","31","","","","","","","","","","","","","","","NaN",""
"","S1","","html-keyboard-response","212","573233","0.0-1.0-290.0","0","0","14726","","null","","","null","32","","","","","","","","","","","","","","","",""
"","ISI","","html-keyboard-response","213","575244","0.0-1.0-291.0","0","0","14726","","null","","","null","32","NaN","","","","","","","","","","","","","","",""
"","S2","","html-keyboard-response","214","575408","0.0-1.0-292.0","0","0","14726","","null","","","null","32","","NaN","","","","","","","","","","","","","",""
"","response","","html-keyboard-response","215","575920","0.0-1.0-293.0-0.0","0","0","14726","","504","","","68","32","","","1","32","training","adjacent","GF","7","6","M.jpg","O.jpg","1","0","0","",""
"","feedback","","html-keyboard-response","216","576935","0.0-1.0-294.0-0.0","0","0","14726","","null","","","null","32","","","","","","","","","","","","","","","",""
"","time_out","","html-keyboard-response","217","578948","0.0-1.0-296.0-0.0","0","0","14726","","null","","","null","32","","","","","","","","","","","","","","","",""
"","ITI","","html-keyboard-response","218","579963","0.0-1.0-297.0","0","0","14726","","null","","","null","32","","","","","","","","","","","","","","","NaN",""
"","S1","","html-keyboard-response","219","580126","0.0-1.0-299.0","0","0","14726","","null","","","null","33","","","","","","","","","","","","","","","",""
"","ISI","","html-keyboard-response","220","582135","0.0-1.0-300.0","0","0","14726","","null","","","null","33","NaN","","","","","","","","","","","","","","",""
"","S2","","html-keyboard-response","221","582300","0.0-1.0-301.0","0","0","14726","","null","","","null","33","","NaN","","","","","","","","","","","","","",""
"","response","","html-keyboard-response","222","582822","0.0-1.0-302.0-0.0","0","0","14726","","514","","","75","33","","","1","33","training","adjacent","FE","6","5","O.jpg","L.jpg","0","0","1","",""
"","feedback","","html-keyboard-response","223","583832","0.0-1.0-303.0-0.0","0","0","14726","","null","","","null","33","","","","","","","","","","","","","","","",""
"","ITI","","html-keyboard-response","224","584840","0.0-1.0-306.0","0","0","14726","","null","","","null","33","","","","","","","","","","","","","","","NaN",""
"","S1","","html-keyboard-response","225","585001","0.0-1.0-308.0","0","0","14726","","null","","","null","34","","","","","","","","","","","","","","","",""
"","ISI","","html-keyboard-response","226","587011","0.0-1.0-309.0","0","0","14726","","null","","","null","34","NaN","","","","","","","","","","","","","","",""
"","S2","","html-keyboard-response","227","587175","0.0-1.0-310.0","0","0","14726","","null","","","null","34","","NaN","","","","","","","","","","","","","",""
"","response","","html-keyboard-response","228","587810","0.0-1.0-311.0-0.0","0","0","14726","","628","","","75","34","","","1","34","training","adjacent","AB","1","2","P.jpg","R.jpg","0","1","0","",""
"","feedback","","html-keyboard-response","229","588821","0.0-1.0-312.0-0.0","0","0","14726","","null","","","null","34","","","","","","","","","","","","","","","",""
"","time_out","","html-keyboard-response","230","590834","0.0-1.0-314.0-0.0","0","0","14726","","null","","","null","34","","","","","","","","","","","","","","","",""
"","ITI","","html-keyboard-response","231","591842","0.0-1.0-315.0","0","0","14726","","null","","","null","34","","","","","","","","","","","","","","","NaN",""
"","S1","","html-keyboard-response","232","592006","0.0-1.0-317.0","0","0","14726","","null","","","null","35","","","","","","","","","","","","","","","",""
"","ISI","","html-keyboard-response","233","594014","0.0-1.0-318.0","0","0","14726","","null","","","null","35","NaN","","","","","","","","","","","","","","",""
"","S2","","html-keyboard-response","234","594179","0.0-1.0-319.0","0","0","14726","","null","","","null","35","","NaN","","","","","","","","","","","","","",""
"","response","","html-keyboard-response","235","594886","0.0-1.0-320.0-0.0","0","0","14726","","699","","","68","35","","","1","35","training","adjacent","BC","2","3","R.jpg","Q.jpg","1","1","1","",""
"","feedback","","html-keyboard-response","236","595895","0.0-1.0-321.0-0.0","0","0","14726","","null","","","null","35","","","","","","","","","","","","","","","",""
"","ITI","","html-keyboard-response","237","596908","0.0-1.0-324.0","0","0","14726","","null","","","null","35","","","","","","","","","","","","","","","NaN",""
"","S1","","html-keyboard-response","238","597066","0.0-1.0-326.0","0","0","14726","","null","","","null","36","","","","","","","","","","","","","","","",""
"","ISI","","html-keyboard-response","239","599079","0.0-1.0-327.0","0","0","14726","","null","","","null","36","NaN","","","","","","","","","","","","","","",""
"","S2","","html-keyboard-response","240","599241","0.0-1.0-328.0","0","0","14726","","null","","","null","36","","NaN","","","","","","","","","","","","","",""
"","response","","html-keyboard-response","241","599825","0.0-1.0-329.0-0.0","0","0","14726","","573","","","68","36","","","1","36","training","adjacent","CD","3","4","Q.jpg","N.jpg","1","1","1","",""
"","feedback","","html-keyboard-response","242","600836","0.0-1.0-330.0-0.0","0","0","14726","","null","","","null","36","","","","","","","","","","","","","","","",""
"","ITI","","html-keyboard-response","243","601849","0.0-1.0-333.0","0","0","14726","","null","","","null","36","","","","","","","","","","","","","","","NaN",""
"","S1","","html-keyboard-response","244","602012","0.0-1.0-335.0","0","0","14726","","null","","","null","37","","","","","","","","","","","","","","","",""
"","ISI","","html-keyboard-response","245","604022","0.0-1.0-336.0","0","0","14726","","null","","","null","37","NaN","","","","","","","","","","","","","","",""
"","S2","","html-keyboard-response","246","604187","0.0-1.0-337.0","0","0","14726","","null","","","null","37","","NaN","","","","","","","","","","","","","",""
"","response","","html-keyboard-response","247","604753","0.0-1.0-338.0-0.0","0","0","14726","","556","","","68","37","","","1","37","training","adjacent","ED","5","4","L.jpg","N.jpg","1","0","0","",""
"","feedback","","html-keyboard-response","248","605767","0.0-1.0-339.0-0.0","0","0","14726","","null","","","null","37","","","","","","","","","","","","","","","",""
"","time_out","","html-keyboard-response","249","607776","0.0-1.0-341.0-0.0","0","0","14726","","null","","","null","37","","","","","","","","","","","","","","","",""
"","ITI","","html-keyboard-response","250","608788","0.0-1.0-342.0","0","0","14726","","null","","","null","37","","","","","","","","","","","","","","","NaN",""
"","S1","","html-keyboard-response","251","608949","0.0-1.0-344.0","0","0","14726","","null","","","null","38","","","","","","","","","","","","","","","",""
"","ISI","","html-keyboard-response","252","610961","0.0-1.0-345.0","0","0","14726","","null","","","null","38","NaN","","","","","","","","","","","","","","",""
"","S2","","html-keyboard-response","253","611122","0.0-1.0-346.0","0","0","14726","","null","","","null","38","","NaN","","","","","","","","","","","","","",""
"","response","","html-keyboard-response","254","611805","0.0-1.0-347.0-0.0","0","0","14726","","671","","","68","38","","","1","38","training","adjacent","ED","5","4","L.jpg","N.jpg","1","0","0","",""
"","feedback","","html-keyboard-response","255","612817","0.0-1.0-348.0-0.0","0","0","14726","","null","","","null","38","","","","","","","","","","","","","","","",""
"","time_out","","html-keyboard-response","256","614828","0.0-1.0-350.0-0.0","0","0","14726","","null","","","null","38","","","","","","","","","","","","","","","",""
"","ITI","","html-keyboard-response","257","615836","0.0-1.0-351.0","0","0","14726","","null","","","null","38","","","","","","","","","","","","","","","NaN",""
"","S1","","html-keyboard-response","258","615998","0.0-1.0-353.0","0","0","14726","","null","","","null","39","","","","","","","","","","","","","","","",""
"","ISI","","html-keyboard-response","259","618008","0.0-1.0-354.0","0","0","14726","","null","","","null","39","NaN","","","","","","","","","","","","","","",""
"","S2","","html-keyboard-response","260","618172","0.0-1.0-355.0","0","0","14726","","null","","","null","39","","NaN","","","","","","","","","","","","","",""
"","response","","html-keyboard-response","261","618819","0.0-1.0-356.0-0.0","0","0","14726","","637","","","75","39","","","1","39","training","adjacent","BC","2","3","R.jpg","Q.jpg","0","1","0","",""
"","feedback","","html-keyboard-response","262","619828","0.0-1.0-357.0-0.0","0","0","14726","","null","","","null","39","","","","","","","","","","","","","","","",""
"","time_out","","html-keyboard-response","263","621837","0.0-1.0-359.0-0.0","0","0","14726","","null","","","null","39","","","","","","","","","","","","","","","",""
"","ITI","","html-keyboard-response","264","622849","0.0-1.0-360.0","0","0","14726","","null","","","null","39","","","","","","","","","","","","","","","NaN",""
"","S1","","html-keyboard-response","265","623014","0.0-1.0-362.0","0","0","14726","","null","","","null","40","","","","","","","","","","","","","","","",""
"","ISI","","html-keyboard-response","266","625023","0.0-1.0-363.0","0","0","14726","","null","","","null","40","NaN","","","","","","","","","","","","","","",""
"","S2","","html-keyboard-response","267","625184","0.0-1.0-364.0","0","0","14726","","null","","","null","40","","NaN","","","","","","","","","","","","","",""
"","response","","html-keyboard-response","268","625816","0.0-1.0-365.0-0.0","0","0","14726","","621","","","68","40","","","1","40","training","adjacent","BA","2","1","R.jpg","P.jpg","1","0","0","",""
"","feedback","","html-keyboard-response","269","626829","0.0-1.0-366.0-0.0","0","0","14726","","null","","","null","40","","","","","","","","","","","","","","","",""
"","time_out","","html-keyboard-response","270","628842","0.0-1.0-368.0-0.0","0","0","14726","","null","","","null","40","","","","","","","","","","","","","","","",""
"","ITI","","html-keyboard-response","271","629853","0.0-1.0-369.0","0","0","14726","","null","","","null","40","","","","","","","","","","","","","","","NaN",""
"","S1","","html-keyboard-response","272","630017","0.0-1.0-371.0","0","0","14726","","null","","","null","41","","","","","","","","","","","","","","","",""
"","ISI","","html-keyboard-response","273","632028","0.0-1.0-372.0","0","0","14726","","null","","","null","41","NaN","","","","","","","","","","","","","","",""
"","S2","","html-keyboard-response","274","632190","0.0-1.0-373.0","0","0","14726","","null","","","null","41","","NaN","","","","","","","","","","","","","",""
"","response","","html-keyboard-response","275","632706","0.0-1.0-374.0-0.0","0","0","14726","","507","","","75","41","","","1","41","training","adjacent","EF","5","6","L.jpg","O.jpg","0","1","0","",""
"","feedback","","html-keyboard-response","276","633716","0.0-1.0-375.0-0.0","0","0","14726","","null","","","null","41","","","","","","","","","","","","","","","",""
"","time_out","","html-keyboard-response","277","635727","0.0-1.0-377.0-0.0","0","0","14726","","null","","","null","41","","","","","","","","","","","","","","","",""
"","ITI","","html-keyboard-response","278","636738","0.0-1.0-378.0","0","0","14726","","null","","","null","41","","","","","","","","","","","","","","","NaN",""
"","S1","","html-keyboard-response","279","636903","0.0-1.0-380.0","0","0","14726","","null","","","null","42","","","","","","","","","","","","","","","",""
"","ISI","","html-keyboard-response","280","638916","0.0-1.0-381.0","0","0","14726","","null","","","null","42","NaN","","","","","","","","","","","","","","",""
"","S2","","html-keyboard-response","281","639078","0.0-1.0-382.0","0","0","14726","","null","","","null","42","","NaN","","","","","","","","","","","","","",""
"","response","","html-keyboard-response","282","639561","0.0-1.0-383.0-0.0","0","0","14726","","475","","","68","42","","","1","42","training","adjacent","FG","6","7","O.jpg","M.jpg","1","1","1","",""
"","feedback","","html-keyboard-response","283","640573","0.0-1.0-384.0-0.0","0","0","14726","","null","","","null","42","","","","","","","","","","","","","","","",""
"","ITI","","html-keyboard-response","284","641582","0.0-1.0-387.0","0","0","14726","","null","","","null","42","","","","","","","","","","","","","","","NaN",""
"","S1","","html-keyboard-response","285","641742","0.0-1.0-389.0","0","0","14726","","null","","","null","43","","","","","","","","","","","","","","","",""
"","ISI","","html-keyboard-response","286","643751","0.0-1.0-390.0","0","0","14726","","null","","","null","43","NaN","","","","","","","","","","","","","","",""
"","S2","","html-keyboard-response","287","643912","0.0-1.0-391.0","0","0","14726","","null","","","null","43","","NaN","","","","","","","","","","","","","",""
"","response","","html-keyboard-response","288","644398","0.0-1.0-392.0-0.0","0","0","14726","","475","","","68","43","","","1","43","training","adjacent","ED","5","4","L.jpg","N.jpg","1","0","0","",""
"","feedback","","html-keyboard-response","289","645414","0.0-1.0-393.0-0.0","0","0","14726","","null","","","null","43","","","","","","","","","","","","","","","",""
"","time_out","","html-keyboard-response","290","647426","0.0-1.0-395.0-0.0","0","0","14726","","null","","","null","43","","","","","","","","","","","","","","","",""
"","ITI","","html-keyboard-response","291","648436","0.0-1.0-396.0","0","0","14726","","null","","","null","43","","","","","","","","","","","","","","","NaN",""
"","S1","","html-keyboard-response","292","648597","0.0-1.0-398.0","0","0","14726","","null","","","null","44","","","","","","","","","","","","","","","",""
"","ISI","","html-keyboard-response","293","650609","0.0-1.0-399.0","0","0","14726","","null","","","null","44","NaN","","","","","","","","","","","","","","",""
"","S2","","html-keyboard-response","294","650772","0.0-1.0-400.0","0","0","14726","","null","","","null","44","","NaN","","","","","","","","","","","","","",""
"","response","","html-keyboard-response","295","651310","0.0-1.0-401.0-0.0","0","0","14726","","526","","","68","44","","","1","44","training","adjacent","GF","7","6","M.jpg","O.jpg","1","0","0","",""
"","feedback","","html-keyboard-response","296","652321","0.0-1.0-402.0-0.0","0","0","14726","","null","","","null","44","","","","","","","","","","","","","","","",""
"","time_out","","html-keyboard-response","297","654333","0.0-1.0-404.0-0.0","0","0","14726","","null","","","null","44","","","","","","","","","","","","","","","",""
"","ITI","","html-keyboard-response","298","655342","0.0-1.0-405.0","0","0","14726","","null","","","null","44","","","","","","","","","","","","","","","NaN",""
"","S1","","html-keyboard-response","299","655504","0.0-1.0-407.0","0","0","14726","","null","","","null","45","","","","","","","","","","","","","","","",""
"","ISI","","html-keyboard-response","300","657512","0.0-1.0-408.0","0","0","14726","","null","","","null","45","NaN","","","","","","","","","","","","","","",""
"","S2","","html-keyboard-response","301","657673","0.0-1.0-409.0","0","0","14726","","null","","","null","45","","NaN","","","","","","","","","","","","","",""
"","response","","html-keyboard-response","302","658343","0.0-1.0-410.0-0.0","0","0","14726","","659","","","68","45","","","1","45","training","adjacent","BA","2","1","R.jpg","P.jpg","1","0","0","",""
"","feedback","","html-keyboard-response","303","659355","0.0-1.0-411.0-0.0","0","0","14726","","null","","","null","45","","","","","","","","","","","","","","","",""
"","time_out","","html-keyboard-response","304","661366","0.0-1.0-413.0-0.0","0","0","14726","","null","","","null","45","","","","","","","","","","","","","","","",""
"","ITI","","html-keyboard-response","305","662376","0.0-1.0-414.0","0","0","14726","","null","","","null","45","","","","","","","","","","","","","","","NaN",""
"","S1","","html-keyboard-response","306","662535","0.0-1.0-416.0","0","0","14726","","null","","","null","46","","","","","","","","","","","","","","","",""
"","ISI","","html-keyboard-response","307","664544","0.0-1.0-417.0","0","0","14726","","null","","","null","46","NaN","","","","","","","","","","","","","","",""
"","S2","","html-keyboard-response","308","664709","0.0-1.0-418.0","0","0","14726","","null","","","null","46","","NaN","","","","","","","","","","","","","",""
"","response","","html-keyboard-response","309","665055","0.0-1.0-419.0-0.0","0","0","14726","","333","","","75","46","","","1","46","training","adjacent","FG","6","7","O.jpg","M.jpg","0","1","0","",""
"","feedback","","html-keyboard-response","310","666065","0.0-1.0-420.0-0.0","0","0","14726","","null","","","null","46","","","","","","","","","","","","","","","",""
"","time_out","","html-keyboard-response","311","668079","0.0-1.0-422.0-0.0","0","0","14726","","null","","","null","46","","","","","","","","","","","","","","","",""
"","ITI","","html-keyboard-response","312","669091","0.0-1.0-423.0","0","0","14726","","null","","","null","46","","","","","","","","","","","","","","","NaN",""
"","S1","","html-keyboard-response","313","669253","0.0-1.0-425.0","0","0","14726","","null","","","null","47","","","","","","","","","","","","","","","",""
"","ISI","","html-keyboard-response","314","671262","0.0-1.0-426.0","0","0","14726","","null","","","null","47","NaN","","","","","","","","","","","","","","",""
"","S2","","html-keyboard-response","315","671427","0.0-1.0-427.0","0","0","14726","","null","","","null","47","","NaN","","","","","","","","","","","","","",""
"","response","","html-keyboard-response","316","672150","0.0-1.0-428.0-0.0","0","0","14726","","713","","","75","47","","","1","47","training","adjacent","BC","2","3","R.jpg","Q.jpg","0","1","0","",""
"","feedback","","html-keyboard-response","317","673161","0.0-1.0-429.0-0.0","0","0","14726","","null","","","null","47","","","","","","","","","","","","","","","",""
"","time_out","","html-keyboard-response","318","675173","0.0-1.0-431.0-0.0","0","0","14726","","null","","","null","47","","","","","","","","","","","","","","","",""
"","ITI","","html-keyboard-response","319","676186","0.0-1.0-432.0","0","0","14726","","null","","","null","47","","","","","","","","","","","","","","","NaN",""
"","block_over","","html-keyboard-response","320","681728","0.0-1.0-433.0-0.0","0","0","14726","","5530","","","32","47","","","","","","","","","","","","","","","",""
"","S1","","html-keyboard-response","321","681891","0.0-1.0-434.0","0","0","14726","","null","","","null","48","","","","","","","","","","","","","","","",""
"","ISI","","html-keyboard-response","322","683901","0.0-1.0-435.0","0","0","14726","","null","","","null","48","NaN","","","","","","","","","","","","","","",""
"","S2","","html-keyboard-response","323","684062","0.0-1.0-436.0","0","0","14726","","null","","","null","48","","NaN","","","","","","","","","","","","","",""
"","response","","html-keyboard-response","324","684593","0.0-1.0-437.0-0.0","0","0","14726","","521","","","75","48","","","2","48","training","adjacent","BC","2","3","R.jpg","Q.jpg","0","1","0","",""
"","feedback","","html-keyboard-response","325","685607","0.0-1.0-438.0-0.0","0","0","14726","","null","","","null","48","","","","","","","","","","","","","","","",""
"","time_out","","html-keyboard-response","326","687622","0.0-1.0-440.0-0.0","0","0","14726","","null","","","null","48","","","","","","","","","","","","","","","",""
"","ITI","","html-keyboard-response","327","688630","0.0-1.0-441.0","0","0","14726","","null","","","null","48","","","","","","","","","","","","","","","NaN",""
"","S1","","html-keyboard-response","328","688791","0.0-1.0-443.0","0","0","14726","","null","","","null","49","","","","","","","","","","","","","","","",""
"","ISI","","html-keyboard-response","329","690803","0.0-1.0-444.0","0","0","14726","","null","","","null","49","NaN","","","","","","","","","","","","","","",""
"","S2","","html-keyboard-response","330","690964","0.0-1.0-445.0","0","0","14726","","null","","","null","49","","NaN","","","","","","","","","","","","","",""
"","response","","html-keyboard-response","331","691319","0.0-1.0-446.0-0.0","0","0","14726","","346","","","68","49","","","2","49","training","adjacent","DE","4","5","N.jpg","L.jpg","1","1","1","",""
"","feedback","","html-keyboard-response","332","692332","0.0-1.0-447.0-0.0","0","0","14726","","null","","","null","49","","","","","","","","","","","","","","","",""
"","ITI","","html-keyboard-response","333","693342","0.0-1.0-450.0","0","0","14726","","null","","","null","49","","","","","","","","","","","","","","","NaN",""
"","S1","","html-keyboard-response","334","693504","0.0-1.0-452.0","0","0","14726","","null","","","null","50","","","","","","","","","","","","","","","",""
"","ISI","","html-keyboard-response","335","695517","0.0-1.0-453.0","0","0","14726","","null","","","null","50","NaN","","","","","","","","","","","","","","",""
"","S2","","html-keyboard-response","336","695688","0.0-1.0-454.0","0","0","14726","","null","","","null","50","","NaN","","","","","","","","","","","","","",""
"","response","","html-keyboard-response","337","696246","0.0-1.0-455.0-0.0","0","0","14726","","550","","","75","50","","","2","50","training","adjacent","GF","7","6","M.jpg","O.jpg","0","0","1","",""
"","feedback","","html-keyboard-response","338","697260","0.0-1.0-456.0-0.0","0","0","14726","","null","","","null","50","","","","","","","","","","","","","","","",""
"","ITI","","html-keyboard-response","339","698273","0.0-1.0-459.0","0","0","14726","","null","","","null","50","","","","","","","","","","","","","","","NaN",""
"","S1","","html-keyboard-response","340","698437","0.0-1.0-461.0","0","0","14726","","null","","","null","51","","","","","","","","","","","","","","","",""
"","ISI","","html-keyboard-response","341","700449","0.0-1.0-462.0","0","0","14726","","null","","","null","51","NaN","","","","","","","","","","","","","","",""
"","S2","","html-keyboard-response","342","700609","0.0-1.0-463.0","0","0","14726","","null","","","null","51","","NaN","","","","","","","","","","","","","",""
"","response","","html-keyboard-response","343","701150","0.0-1.0-464.0-0.0","0","0","14726","","531","","","75","51","","","2","51","training","adjacent","CD","3","4","Q.jpg","N.jpg","0","1","0","",""
"","feedback","","html-keyboard-response","344","702162","0.0-1.0-465.0-0.0","0","0","14726","","null","","","null","51","","","","","","","","","","","","","","","",""
"","time_out","","html-keyboard-response","345","704175","0.0-1.0-467.0-0.0","0","0","14726","","null","","","null","51","","","","","","","","","","","","","","","",""
"","ITI","","html-keyboard-response","346","705187","0.0-1.0-468.0","0","0","14726","","null","","","null","51","","","","","","","","","","","","","","","NaN",""
"","S1","","html-keyboard-response","347","705350","0.0-1.0-470.0","0","0","14726","","null","","","null","52","","","","","","","","","","","","","","","",""
"","ISI","","html-keyboard-response","348","707360","0.0-1.0-471.0","0","0","14726","","null","","","null","52","NaN","","","","","","","","","","","","","","",""
"","S2","","html-keyboard-response","349","707525","0.0-1.0-472.0","0","0","14726","","null","","","null","52","","NaN","","","","","","","","","","","","","",""
"","response","","html-keyboard-response","350","707936","0.0-1.0-473.0-0.0","0","0","14726","","401","","","68","52","","","2","52","training","adjacent","DC","4","3","N.jpg","Q.jpg","1","0","0","",""
"","feedback","","html-keyboard-response","351","708949","0.0-1.0-474.0-0.0","0","0","14726","","null","","","null","52","","","","","","","","","","","","","","","",""
"","time_out","","html-keyboard-response","352","710962","0.0-1.0-476.0-0.0","0","0","14726","","null","","","null","52","","","","","","","","","","","","","","","",""
"","ITI","","html-keyboard-response","353","711973","0.0-1.0-477.0","0","0","14726","","null","","","null","52","","","","","","","","","","","","","","","NaN",""
"","S1","","html-keyboard-response","354","712133","0.0-1.0-479.0","0","0","14726","","null","","","null","53","","","","","","","","","","","","","","","",""
"","ISI","","html-keyboard-response","355","714144","0.0-1.0-480.0","0","0","14726","","null","","","null","53","NaN","","","","","","","","","","","","","","",""
"","S2","","html-keyboard-response","356","714307","0.0-1.0-481.0","0","0","14726","","null","","","null","53","","NaN","","","","","","","","","","","","","",""
"","response","","html-keyboard-response","357","714704","0.0-1.0-482.0-0.0","0","0","14726","","384","","","75","53","","","2","53","training","adjacent","DE","4","5","N.jpg","L.jpg","0","1","0","",""
"","feedback","","html-keyboard-response","358","715720","0.0-1.0-483.0-0.0","0","0","14726","","null","","","null","53","","","","","","","","","","","","","","","",""
"","time_out","","html-keyboard-response","359","717729","0.0-1.0-485.0-0.0","0","0","14726","","null","","","null","53","","","","","","","","","","","","","","","",""
"","ITI","","html-keyboard-response","360","718739","0.0-1.0-486.0","0","0","14726","","null","","","null","53","","","","","","","","","","","","","","","NaN",""
"","S1","","html-keyboard-response","361","718901","0.0-1.0-488.0","0","0","14726","","null","","","null","54","","","","","","","","","","","","","","","",""
"","ISI","","html-keyboard-response","362","720912","0.0-1.0-489.0","0","0","14726","","null","","","null","54","NaN","","","","","","","","","","","","","","",""
"","S2","","html-keyboard-response","363","721076","0.0-1.0-490.0","0","0","14726","","null","","","null","54","","NaN","","","","","","","","","","","","","",""
"","response","","html-keyboard-response","364","721526","0.0-1.0-491.0-0.0","0","0","14726","","441","","","75","54","","","2","54","training","adjacent","AB","1","2","P.jpg","R.jpg","0","1","0","",""
"","feedback","","html-keyboard-response","365","722536","0.0-1.0-492.0-0.0","0","0","14726","","null","","","null","54","","","","","","","","","","","","","","","",""
"","time_out","","html-keyboard-response","366","724549","0.0-1.0-494.0-0.0","0","0","14726","","null","","","null","54","","","","","","","","","","","","","","","",""
"","ITI","","html-keyboard-response","367","725565","0.0-1.0-495.0","0","0","14726","","null","","","null","54","","","","","","","","","","","","","","","NaN",""
"","S1","","html-keyboard-response","368","725728","0.0-1.0-497.0","0","0","14726","","null","","","null","55","","","","","","","","","","","","","","","",""
"","ISI","","html-keyboard-response","369","727737","0.0-1.0-498.0","0","0","14726","","null","","","null","55","NaN","","","","","","","","","","","","","","",""
"","S2","","html-keyboard-response","370","727901","0.0-1.0-499.0","0","0","14726","","null","","","null","55","","NaN","","","","","","","","","","","","","",""
"","response","","html-keyboard-response","371","728125","0.0-1.0-500.0-0.0","0","0","14726","","215","","","68","55","","","2","55","training","adjacent","ED","5","4","L.jpg","N.jpg","1","0","0","",""
"","feedback","","html-keyboard-response","372","729138","0.0-1.0-501.0-0.0","0","0","14726","","null","","","null","55","","","","","","","","","","","","","","","",""
"","time_out","","html-keyboard-response","373","731152","0.0-1.0-503.0-0.0","0","0","14726","","null","","","null","55","","","","","","","","","","","","","","","",""
"","ITI","","html-keyboard-response","374","732166","0.0-1.0-504.0","0","0","14726","","null","","","null","55","","","","","","","","","","","","","","","NaN",""
"","S1","","html-keyboard-response","375","732328","0.0-1.0-506.0","0","0","14726","","null","","","null","56","","","","","","","","","","","","","","","",""
"","ISI","","html-keyboard-response","376","734340","0.0-1.0-507.0","0","0","14726","","null","","","null","56","NaN","","","","","","","","","","","","","","",""
"","S2","","html-keyboard-response","377","734504","0.0-1.0-508.0","0","0","14726","","null","","","null","56","","NaN","","","","","","","","","","","","","",""
"","response","","html-keyboard-response","378","734988","0.0-1.0-509.0-0.0","0","0","14726","","472","","","68","56","","","2","56","training","adjacent","EF","5","6","L.jpg","O.jpg","1","1","1","",""
"","feedback","","html-keyboard-response","379","736003","0.0-1.0-510.0-0.0","0","0","14726","","null","","","null","56","","","","","","","","","","","","","","","",""
"","ITI","","html-keyboard-response","380","737016","0.0-1.0-513.0","0","0","14726","","null","","","null","56","","","","","","","","","","","","","","","NaN",""
"","S1","","html-keyboard-response","381","737178","0.0-1.0-515.0","0","0","14726","","null","","","null","57","","","","","","","","","","","","","","","",""
"","ISI","","html-keyboard-response","382","739191","0.0-1.0-516.0","0","0","14726","","null","","","null","57","NaN","","","","","","","","","","","","","","",""
"","S2","","html-keyboard-response","383","739352","0.0-1.0-517.0","0","0","14726","","null","","","null","57","","NaN","","","","","","","","","","","","","",""
"","response","","html-keyboard-response","384","739994","0.0-1.0-518.0-0.0","0","0","14726","","632","","","68","57","","","2","57","training","adjacent","EF","5","6","L.jpg","O.jpg","1","1","1","",""
"","feedback","","html-keyboard-response","385","741006","0.0-1.0-519.0-0.0","0","0","14726","","null","","","null","57","","","","","","","","","","","","","","","",""
"","ITI","","html-keyboard-response","386","742019","0.0-1.0-522.0","0","0","14726","","null","","","null","57","","","","","","","","","","","","","","","NaN",""
"","S1","","html-keyboard-response","387","742184","0.0-1.0-524.0","0","0","14726","","null","","","null","58","","","","","","","","","","","","","","","",""
"","ISI","","html-keyboard-response","388","744199","0.0-1.0-525.0","0","0","14726","","null","","","null","58","NaN","","","","","","","","","","","","","","",""
"","S2","","html-keyboard-response","389","744361","0.0-1.0-526.0","0","0","14726","","null","","","null","58","","NaN","","","","","","","","","","","","","",""
"","response","","html-keyboard-response","390","744878","0.0-1.0-527.0-0.0","0","0","14726","","508","","","75","58","","","2","58","training","adjacent","DC","4","3","N.jpg","Q.jpg","0","0","1","",""
"","feedback","","html-keyboard-response","391","745889","0.0-1.0-528.0-0.0","0","0","14726","","null","","","null","58","","","","","","","","","","","","","","","",""
"","ITI","","html-keyboard-response","392","746903","0.0-1.0-531.0","0","0","14726","","null","","","null","58","","","","","","","","","","","","","","","NaN",""
"","S1","","html-keyboard-response","393","747068","0.0-1.0-533.0","0","0","14726","","null","","","null","59","","","","","","","","","","","","","","","",""
"","ISI","","html-keyboard-response","394","749081","0.0-1.0-534.0","0","0","14726","","null","","","null","59","NaN","","","","","","","","","","","","","","",""
"","S2","","html-keyboard-response","395","749246","0.0-1.0-535.0","0","0","14726","","null","","","null","59","","NaN","","","","","","","","","","","","","",""
"","response","","html-keyboard-response","396","749830","0.0-1.0-536.0-0.0","0","0","14726","","574","","","68","59","","","2","59","training","adjacent","FG","6","7","O.jpg","M.jpg","1","1","1","",""
"","feedback","","html-keyboard-response","397","750845","0.0-1.0-537.0-0.0","0","0","14726","","null","","","null","59","","","","","","","","","","","","","","","",""
"","ITI","","html-keyboard-response","398","751859","0.0-1.0-540.0","0","0","14726","","null","","","null","59","","","","","","","","","","","","","","","NaN",""
"","S1","","html-keyboard-response","399","752021","0.0-1.0-542.0","0","0","14726","","null","","","null","60","","","","","","","","","","","","","","","",""
"","ISI","","html-keyboard-response","400","754031","0.0-1.0-543.0","0","0","14726","","null","","","null","60","NaN","","","","","","","","","","","","","","",""
"","S2","","html-keyboard-response","401","754195","0.0-1.0-544.0","0","0","14726","","null","","","null","60","","NaN","","","","","","","","","","","","","",""
"","response","","html-keyboard-response","402","754706","0.0-1.0-545.0-0.0","0","0","14726","","500","","","68","60","","","2","60","training","adjacent","CB","3","2","Q.jpg","R.jpg","1","0","0","",""
"","feedback","","html-keyboard-response","403","755719","0.0-1.0-546.0-0.0","0","0","14726","","null","","","null","60","","","","","","","","","","","","","","","",""
"","time_out","","html-keyboard-response","404","757731","0.0-1.0-548.0-0.0","0","0","14726","","null","","","null","60","","","","","","","","","","","","","","","",""
"","ITI","","html-keyboard-response","405","758740","0.0-1.0-549.0","0","0","14726","","null","","","null","60","","","","","","","","","","","","","","","NaN",""
"","S1","","html-keyboard-response","406","758902","0.0-1.0-551.0","0","0","14726","","null","","","null","61","","","","","","","","","","","","","","","",""
"","ISI","","html-keyboard-response","407","760915","0.0-1.0-552.0","0","0","14726","","null","","","null","61","NaN","","","","","","","","","","","","","","",""
"","S2","","html-keyboard-response","408","761079","0.0-1.0-553.0","0","0","14726","","null","","","null","61","","NaN","","","","","","","","","","","","","",""
"","response","","html-keyboard-response","409","761822","0.0-1.0-554.0-0.0","0","0","14726","","731","","","68","61","","","2","61","training","adjacent","DE","4","5","N.jpg","L.jpg","1","1","1","",""
"","feedback","","html-keyboard-response","410","762835","0.0-1.0-555.0-0.0","0","0","14726","","null","","","null","61","","","","","","","","","","","","","","","",""
"","ITI","","html-keyboard-response","411","763848","0.0-1.0-558.0","0","0","14726","","null","","","null","61","","","","","","","","","","","","","","","NaN",""
"","S1","","html-keyboard-response","412","764009","0.0-1.0-560.0","0","0","14726","","null","","","null","62","","","","","","","","","","","","","","","",""
"","ISI","","html-keyboard-response","413","766023","0.0-1.0-561.0","0","0","14726","","null","","","null","62","NaN","","","","","","","","","","","","","","",""
"","S2","","html-keyboard-response","414","766185","0.0-1.0-562.0","0","0","14726","","null","","","null","62","","NaN","","","","","","","","","","","","","",""
"","response","","html-keyboard-response","415","766777","0.0-1.0-563.0-0.0","0","0","14726","","583","","","68","62","","","2","62","training","adjacent","EF","5","6","L.jpg","O.jpg","1","1","1","",""
"","feedback","","html-keyboard-response","416","767791","0.0-1.0-564.0-0.0","0","0","14726","","null","","","null","62","","","","","","","","","","","","","","","",""
"","ITI","","html-keyboard-response","417","768803","0.0-1.0-567.0","0","0","14726","","null","","","null","62","","","","","","","","","","","","","","","NaN",""
"","S1","","html-keyboard-response","418","768965","0.0-1.0-569.0","0","0","14726","","null","","","null","63","","","","","","","","","","","","","","","",""
"","ISI","","html-keyboard-response","419","770974","0.0-1.0-570.0","0","0","14726","","null","","","null","63","NaN","","","","","","","","","","","","","","",""
"","S2","","html-keyboard-response","420","771137","0.0-1.0-571.0","0","0","14726","","null","","","null","63","","NaN","","","","","","","","","","","","","",""
"","response","","html-keyboard-response","421","771743","0.0-1.0-572.0-0.0","0","0","14726","","596","","","68","63","","","2","63","training","adjacent","CD","3","4","Q.jpg","N.jpg","1","1","1","",""
"","feedback","","html-keyboard-response","422","772756","0.0-1.0-573.0-0.0","0","0","14726","","null","","","null","63","","","","","","","","","","","","","","","",""
"","ITI","","html-keyboard-response","423","773770","0.0-1.0-576.0","0","0","14726","","null","","","null","63","","","","","","","","","","","","","","","NaN",""
"","S1","","html-keyboard-response","424","773931","0.0-1.0-578.0","0","0","14726","","null","","","null","64","","","","","","","","","","","","","","","",""
"","ISI","","html-keyboard-response","425","775942","0.0-1.0-579.0","0","0","14726","","null","","","null","64","NaN","","","","","","","","","","","","","","",""
"","S2","","html-keyboard-response","426","776103","0.0-1.0-580.0","0","0","14726","","null","","","null","64","","NaN","","","","","","","","","","","","","",""
"","response","","html-keyboard-response","427","776481","0.0-1.0-581.0-0.0","0","0","14726","","366","","","68","64","","","2","64","training","adjacent","FE","6","5","O.jpg","L.jpg","1","0","0","",""
"","feedback","","html-keyboard-response","428","777493","0.0-1.0-582.0-0.0","0","0","14726","","null","","","null","64","","","","","","","","","","","","","","","",""
"","time_out","","html-keyboard-response","429","779505","0.0-1.0-584.0-0.0","0","0","14726","","null","","","null","64","","","","","","","","","","","","","","","",""
"","ITI","","html-keyboard-response","430","780520","0.0-1.0-585.0","0","0","14726","","null","","","null","64","","","","","","","","","","","","","","","NaN",""
"","S1","","html-keyboard-response","431","780681","0.0-1.0-587.0","0","0","14726","","null","","","null","65","","","","","","","","","","","","","","","",""
"","ISI","","html-keyboard-response","432","782693","0.0-1.0-588.0","0","0","14726","","null","","","null","65","NaN","","","","","","","","","","","","","","",""
"","S2","","html-keyboard-response","433","782853","0.0-1.0-589.0","0","0","14726","","null","","","null","65","","NaN","","","","","","","","","","","","","",""
"","response","","html-keyboard-response","434","783124","0.0-1.0-590.0-0.0","0","0","14726","","259","","","75","65","","","2","65","training","adjacent","ED","5","4","L.jpg","N.jpg","0","0","1","",""
"","feedback","","html-keyboard-response","435","784132","0.0-1.0-591.0-0.0","0","0","14726","","null","","","null","65","","","","","","","","","","","","","","","",""
"","ITI","","html-keyboard-response","436","785145","0.0-1.0-594.0","0","0","14726","","null","","","null","65","","","","","","","","","","","","","","","NaN",""
"","S1","","html-keyboard-response","437","785314","0.0-1.0-596.0","0","0","14726","","null","","","null","66","","","","","","","","","","","","","","","",""
"","ISI","","html-keyboard-response","438","787327","0.0-1.0-597.0","0","0","14726","","null","","","null","66","NaN","","","","","","","","","","","","","","",""
"","S2","","html-keyboard-response","439","787496","0.0-1.0-598.0","0","0","14726","","null","","","null","66","","NaN","","","","","","","","","","","","","",""
"","response","","html-keyboard-response","440","787914","0.0-1.0-599.0-0.0","0","0","14726","","407","","","68","66","","","2","66","training","adjacent","FG","6","7","O.jpg","M.jpg","1","1","1","",""
"","feedback","","html-keyboard-response","441","788927","0.0-1.0-600.0-0.0","0","0","14726","","null","","","null","66","","","","","","","","","","","","","","","",""
"","ITI","","html-keyboard-response","442","789939","0.0-1.0-603.0","0","0","14726","","null","","","null","66","","","","","","","","","","","","","","","NaN",""
"","S1","","html-keyboard-response","443","790101","0.0-1.0-605.0","0","0","14726","","null","","","null","67","","","","","","","","","","","","","","","",""
"","ISI","","html-keyboard-response","444","792113","0.0-1.0-606.0","0","0","14726","","null","","","null","67","NaN","","","","","","","","","","","","","","",""
"","S2","","html-keyboard-response","445","792275","0.0-1.0-607.0","0","0","14726","","null","","","null","67","","NaN","","","","","","","","","","","","","",""
"","response","","html-keyboard-response","446","792540","0.0-1.0-608.0-0.0","0","0","14726","","256","","","75","67","","","2","67","training","adjacent","CD","3","4","Q.jpg","N.jpg","0","1","0","",""
"","feedback","","html-keyboard-response","447","793554","0.0-1.0-609.0-0.0","0","0","14726","","null","","","null","67","","","","","","","","","","","","","","","",""
"","time_out","","html-keyboard-response","448","795569","0.0-1.0-611.0-0.0","0","0","14726","","null","","","null","67","","","","","","","","","","","","","","","",""
"","ITI","","html-keyboard-response","449","796582","0.0-1.0-612.0","0","0","14726","","null","","","null","67","","","","","","","","","","","","","","","NaN",""
"","S1","","html-keyboard-response","450","796744","0.0-1.0-614.0","0","0","14726","","null","","","null","68","","","","","","","","","","","","","","","",""
"","ISI","","html-keyboard-response","451","798756","0.0-1.0-615.0","0","0","14726","","null","","","null","68","NaN","","","","","","","","","","","","","","",""
"","S2","","html-keyboard-response","452","798929","0.0-1.0-616.0","0","0","14726","","null","","","null","68","","NaN","","","","","","","","","","","","","",""
"","response","","html-keyboard-response","453","799175","0.0-1.0-617.0-0.0","0","0","14726","","236","","","68","68","","","2","68","training","adjacent","FG","6","7","O.jpg","M.jpg","1","1","1","",""
"","feedback","","html-keyboard-response","454","800188","0.0-1.0-618.0-0.0","0","0","14726","","null","","","null","68","","","","","","","","","","","","","","","",""
"","ITI","","html-keyboard-response","455","801200","0.0-1.0-621.0","0","0","14726","","null","","","null","68","","","","","","","","","","","","","","","NaN",""
"","S1","","html-keyboard-response","456","801361","0.0-1.0-623.0","0","0","14726","","null","","","null","69","","","","","","","","","","","","","","","",""
"","ISI","","html-keyboard-response","457","803377","0.0-1.0-624.0","0","0","14726","","null","","","null","69","NaN","","","","","","","","","","","","","","",""
"","S2","","html-keyboard-response","458","803542","0.0-1.0-625.0","0","0","14726","","null","","","null","69","","NaN","","","","","","","","","","","","","",""
"","response","","html-keyboard-response","459","803800","0.0-1.0-626.0-0.0","0","0","14726","","248","","","68","69","","","2","69","training","adjacent","BC","2","3","R.jpg","Q.jpg","1","1","1","",""
"","feedback","","html-keyboard-response","460","804814","0.0-1.0-627.0-0.0","0","0","14726","","null","","","null","69","","","","","","","","","","","","","","","",""
"","ITI","","html-keyboard-response","461","805827","0.0-1.0-630.0","0","0","14726","","null","","","null","69","","","","","","","","","","","","","","","NaN",""
"","S1","","html-keyboard-response","462","805992","0.0-1.0-632.0","0","0","14726","","null","","","null","70","","","","","","","","","","","","","","","",""
"","ISI","","html-keyboard-response","463","808003","0.0-1.0-633.0","0","0","14726","","null","","","null","70","NaN","","","","","","","","","","","","","","",""
"","S2","","html-keyboard-response","464","808164","0.0-1.0-634.0","0","0","14726","","null","","","null","70","","NaN","","","","","","","","","","","","","",""
"","response","","html-keyboard-response","465","808712","0.0-1.0-635.0-0.0","0","0","14726","","540","","","75","70","","","2","70","training","adjacent","CB","3","2","Q.jpg","R.jpg","0","0","1","",""
"","feedback","","html-keyboard-response","466","809726","0.0-1.0-636.0-0.0","0","0","14726","","null","","","null","70","","","","","","","","","","","","","","","",""
"","ITI","","html-keyboard-response","467","810738","0.0-1.0-639.0","0","0","14726","","null","","","null","70","","","","","","","","","","","","","","","NaN",""
"","S1","","html-keyboard-response","468","810900","0.0-1.0-641.0","0","0","14726","","null","","","null","71","","","","","","","","","","","","","","","",""
"","ISI","","html-keyboard-response","469","812912","0.0-1.0-642.0","0","0","14726","","null","","","null","71","NaN","","","","","","","","","","","","","","",""
"","S2","","html-keyboard-response","470","813074","0.0-1.0-643.0","0","0","14726","","null","","","null","71","","NaN","","","","","","","","","","","","","",""
"","response","","html-keyboard-response","471","813825","0.0-1.0-644.0-0.0","0","0","14726","","742","","","68","71","","","2","71","training","adjacent","BC","2","3","R.jpg","Q.jpg","1","1","1","",""
"","feedback","","html-keyboard-response","472","814845","0.0-1.0-645.0-0.0","0","0","14726","","null","","","null","71","","","","","","","","","","","","","","","",""
"","ITI","","html-keyboard-response","473","815858","0.0-1.0-648.0","0","0","14726","","null","","","null","71","","","","","","","","","","","","","","","NaN",""
"","S1","","html-keyboard-response","474","816019","0.0-1.0-650.0","0","0","14726","","null","","","null","72","","","","","","","","","","","","","","","",""
"","ISI","","html-keyboard-response","475","818031","0.0-1.0-651.0","0","0","14726","","null","","","null","72","NaN","","","","","","","","","","","","","","",""
"","S2","","html-keyboard-response","476","818193","0.0-1.0-652.0","0","0","14726","","null","","","null","72","","NaN","","","","","","","","","","","","","",""
"","response","","html-keyboard-response","477","818835","0.0-1.0-653.0-0.0","0","0","14726","","629","","","75","72","","","2","72","training","adjacent","BA","2","1","R.jpg","P.jpg","0","0","1","",""
"","feedback","","html-keyboard-response","478","819847","0.0-1.0-654.0-0.0","0","0","14726","","null","","","null","72","","","","","","","","","","","","","","","",""
"","ITI","","html-keyboard-response","479","820860","0.0-1.0-657.0","0","0","14726","","null","","","null","72","","","","","","","","","","","","","","","NaN",""
"","S1","","html-keyboard-response","480","821020","0.0-1.0-659.0","0","0","14726","","null","","","null","73","","","","","","","","","","","","","","","",""
"","ISI","","html-keyboard-response","481","823030","0.0-1.0-660.0","0","0","14726","","null","","","null","73","NaN","","","","","","","","","","","","","","",""
"","S2","","html-keyboard-response","482","823194","0.0-1.0-661.0","0","0","14726","","null","","","null","73","","NaN","","","","","","","","","","","","","",""
"","response","","html-keyboard-response","483","823703","0.0-1.0-662.0-0.0","0","0","14726","","499","","","68","73","","","2","73","training","adjacent","FE","6","5","O.jpg","L.jpg","1","0","0","",""
"","feedback","","html-keyboard-response","484","824721","0.0-1.0-663.0-0.0","0","0","14726","","null","","","null","73","","","","","","","","","","","","","","","",""
"","time_out","","html-keyboard-response","485","826733","0.0-1.0-665.0-0.0","0","0","14726","","null","","","null","73","","","","","","","","","","","","","","","",""
"","ITI","","html-keyboard-response","486","827745","0.0-1.0-666.0","0","0","14726","","null","","","null","73","","","","","","","","","","","","","","","NaN",""
"","S1","","html-keyboard-response","487","827908","0.0-1.0-668.0","0","0","14726","","null","","","null","74","","","","","","","","","","","","","","","",""
"","ISI","","html-keyboard-response","488","829920","0.0-1.0-669.0","0","0","14726","","null","","","null","74","NaN","","","","","","","","","","","","","","",""
"","S2","","html-keyboard-response","489","830083","0.0-1.0-670.0","0","0","14726","","null","","","null","74","","NaN","","","","","","","","","","","","","",""
"","response","","html-keyboard-response","490","830838","0.0-1.0-671.0-0.0","0","0","14726","","746","","","75","74","","","2","74","training","adjacent","BA","2","1","R.jpg","P.jpg","0","0","1","",""
"","feedback","","html-keyboard-response","491","831852","0.0-1.0-672.0-0.0","0","0","14726","","null","","","null","74","","","","","","","","","","","","","","","",""
"","ITI","","html-keyboard-response","492","832861","0.0-1.0-675.0","0","0","14726","","null","","","null","74","","","","","","","","","","","","","","","NaN",""
"","S1","","html-keyboard-response","493","833020","0.0-1.0-677.0","0","0","14726","","null","","","null","75","","","","","","","","","","","","","","","",""
"","ISI","","html-keyboard-response","494","835034","0.0-1.0-678.0","0","0","14726","","null","","","null","75","NaN","","","","","","","","","","","","","","",""
"","S2","","html-keyboard-response","495","835196","0.0-1.0-679.0","0","0","14726","","null","","","null","75","","NaN","","","","","","","","","","","","","",""
"","response","","html-keyboard-response","496","835803","0.0-1.0-680.0-0.0","0","0","14726","","596","","","75","75","","","2","75","training","adjacent","EF","5","6","L.jpg","O.jpg","0","1","0","",""
"","feedback","","html-keyboard-response","497","836818","0.0-1.0-681.0-0.0","0","0","14726","","null","","","null","75","","","","","","","","","","","","","","","",""
"","time_out","","html-keyboard-response","498","838829","0.0-1.0-683.0-0.0","0","0","14726","","null","","","null","75","","","","","","","","","","","","","","","",""
"","ITI","","html-keyboard-response","499","839839","0.0-1.0-684.0","0","0","14726","","null","","","null","75","","","","","","","","","","","","","","","NaN",""
"","S1","","html-keyboard-response","500","840002","0.0-1.0-686.0","0","0","14726","","null","","","null","76","","","","","","","","","","","","","","","",""
"","ISI","","html-keyboard-response","501","842013","0.0-1.0-687.0","0","0","14726","","985","","","68","76","d","","","","","","","","","","","","","","",""
"","S2","","html-keyboard-response","502","842176","0.0-1.0-688.0","0","0","14726","","null","","","null","76","","NaN","","","","","","","","","","","","","",""
"","response","","html-keyboard-response","503","842705","0.0-1.0-689.0-0.0","0","0","14726","","519","","","68","76","","","2","76","training","adjacent","GF","7","6","M.jpg","O.jpg","1","0","0","",""
"","feedback","","html-keyboard-response","504","843720","0.0-1.0-690.0-0.0","0","0","14726","","null","","","null","76","","","","","","","","","","","","","","","",""
"","time_out","","html-keyboard-response","505","845736","0.0-1.0-692.0-0.0","0","0","14726","","null","","","null","76","","","","","","","","","","","","","","","",""
"","ITI","","html-keyboard-response","506","846749","0.0-1.0-693.0","0","0","14726","","null","","","null","76","","","","","","","","","","","","","","","NaN",""
"","S1","","html-keyboard-response","507","846914","0.0-1.0-695.0","0","0","14726","","null","","","null","77","","","","","","","","","","","","","","","",""
"","ISI","","html-keyboard-response","508","848925","0.0-1.0-696.0","0","0","14726","","null","","","null","77","NaN","","","","","","","","","","","","","","",""
"","S2","","html-keyboard-response","509","849086","0.0-1.0-697.0","0","0","14726","","null","","","null","77","","NaN","","","","","","","","","","","","","",""
"","response","","html-keyboard-response","510","849898","0.0-1.0-698.0-0.0","0","0","14726","","803","","","68","77","","","2","77","training","adjacent","GF","7","6","M.jpg","O.jpg","1","0","0","",""
"","feedback","","html-keyboard-response","511","850913","0.0-1.0-699.0-0.0","0","0","14726","","null","","","null","77","","","","","","","","","","","","","","","",""
"","time_out","","html-keyboard-response","512","852925","0.0-1.0-701.0-0.0","0","0","14726","","null","","","null","77","","","","","","","","","","","","","","","",""
"","ITI","","html-keyboard-response","513","853939","0.0-1.0-702.0","0","0","14726","","null","","","null","77","","","","","","","","","","","","","","","NaN",""
"","S1","","html-keyboard-response","514","854101","0.0-1.0-704.0","0","0","14726","","null","","","null","78","","","","","","","","","","","","","","","",""
"","ISI","","html-keyboard-response","515","856117","0.0-1.0-705.0","0","0","14726","","null","","","null","78","NaN","","","","","","","","","","","","","","",""
"","S2","","html-keyboard-response","516","856282","0.0-1.0-706.0","0","0","14726","","null","","","null","78","","NaN","","","","","","","","","","","","","",""
"","response","","html-keyboard-response","517","856939","0.0-1.0-707.0-0.0","0","0","14726","","643","","","75","78","","","2","78","training","adjacent","CB","3","2","Q.jpg","R.jpg","0","0","1","",""
"","feedback","","html-keyboard-response","518","857951","0.0-1.0-708.0-0.0","0","0","14726","","null","","","null","78","","","","","","","","","","","","","","","",""
"","ITI","","html-keyboard-response","519","858966","0.0-1.0-711.0","0","0","14726","","null","","","null","78","","","","","","","","","","","","","","","NaN",""
"","S1","","html-keyboard-response","520","859127","0.0-1.0-713.0","0","0","14726","","null","","","null","79","","","","","","","","","","","","","","","",""
"","ISI","","html-keyboard-response","521","861140","0.0-1.0-714.0","0","0","14726","","null","","","null","79","NaN","","","","","","","","","","","","","","",""
"","S2","","html-keyboard-response","522","861302","0.0-1.0-715.0","0","0","14726","","null","","","null","79","","NaN","","","","","","","","","","","","","",""
"","response","","html-keyboard-response","523","861798","0.0-1.0-716.0-0.0","0","0","14726","","483","","","68","79","","","2","79","training","adjacent","AB","1","2","P.jpg","R.jpg","1","1","1","",""
"","feedback","","html-keyboard-response","524","862812","0.0-1.0-717.0-0.0","0","0","14726","","null","","","null","79","","","","","","","","","","","","","","","",""
"","ITI","","html-keyboard-response","525","863825","0.0-1.0-720.0","0","0","14726","","null","","","null","79","","","","","","","","","","","","","","","NaN",""
"","S1","","html-keyboard-response","526","863985","0.0-1.0-722.0","0","0","14726","","null","","","null","80","","","","","","","","","","","","","","","",""
"","ISI","","html-keyboard-response","527","865996","0.0-1.0-723.0","0","0","14726","","null","","","null","80","NaN","","","","","","","","","","","","","","",""
"","S2","","html-keyboard-response","528","866161","0.0-1.0-724.0","0","0","14726","","null","","","null","80","","NaN","","","","","","","","","","","","","",""
"","response","","html-keyboard-response","529","866699","0.0-1.0-725.0-0.0","0","0","14726","","528","","","75","80","","","2","80","training","adjacent","FE","6","5","O.jpg","L.jpg","0","0","1","",""
"","feedback","","html-keyboard-response","530","867713","0.0-1.0-726.0-0.0","0","0","14726","","null","","","null","80","","","","","","","","","","","","","","","",""
"","ITI","","html-keyboard-response","531","868727","0.0-1.0-729.0","0","0","14726","","null","","","null","80","","","","","","","","","","","","","","","NaN",""
"","S1","","html-keyboard-response","532","868888","0.0-1.0-731.0","0","0","14726","","null","","","null","81","","","","","","","","","","","","","","","",""
"","ISI","","html-keyboard-response","533","870899","0.0-1.0-732.0","0","0","14726","","null","","","null","81","NaN","","","","","","","","","","","","","","",""
"","S2","","html-keyboard-response","534","871064","0.0-1.0-733.0","0","0","14726","","null","","","null","81","","NaN","","","","","","","","","","","","","",""
"","response","","html-keyboard-response","535","871584","0.0-1.0-734.0-0.0","0","0","14726","","509","","","75","81","","","2","81","training","adjacent","GF","7","6","M.jpg","O.jpg","0","0","1","",""
"","feedback","","html-keyboard-response","536","872598","0.0-1.0-735.0-0.0","0","0","14726","","null","","","null","81","","","","","","","","","","","","","","","",""
"","ITI","","html-keyboard-response","537","873610","0.0-1.0-738.0","0","0","14726","","null","","","null","81","","","","","","","","","","","","","","","NaN",""
"","S1","","html-keyboard-response","538","873775","0.0-1.0-740.0","0","0","14726","","null","","","null","82","","","","","","","","","","","","","","","",""
"","ISI","","html-keyboard-response","539","875786","0.0-1.0-741.0","0","0","14726","","null","","","null","82","NaN","","","","","","","","","","","","","","",""
"","S2","","html-keyboard-response","540","875949","0.0-1.0-742.0","0","0","14726","","null","","","null","82","","NaN","","","","","","","","","","","","","",""
"","response","","html-keyboard-response","541","876546","0.0-1.0-743.0-0.0","0","0","14726","","588","","","68","82","","","2","82","training","adjacent","BC","2","3","R.jpg","Q.jpg","1","1","1","",""
"","feedback","","html-keyboard-response","542","877559","0.0-1.0-744.0-0.0","0","0","14726","","null","","","null","82","","","","","","","","","","","","","","","",""
"","ITI","","html-keyboard-response","543","878574","0.0-1.0-747.0","0","0","14726","","null","","","null","82","","","","","","","","","","","","","","","NaN",""
"","S1","","html-keyboard-response","544","878738","0.0-1.0-749.0","0","0","14726","","null","","","null","83","","","","","","","","","","","","","","","",""
"","ISI","","html-keyboard-response","545","880750","0.0-1.0-750.0","0","0","14726","","null","","","null","83","NaN","","","","","","","","","","","","","","",""
"","S2","","html-keyboard-response","546","880911","0.0-1.0-751.0","0","0","14726","","null","","","null","83","","NaN","","","","","","","","","","","","","",""
"","response","","html-keyboard-response","547","881409","0.0-1.0-752.0-0.0","0","0","14726","","487","","","68","83","","","2","83","training","adjacent","DE","4","5","N.jpg","L.jpg","1","1","1","",""
"","feedback","","html-keyboard-response","548","882421","0.0-1.0-753.0-0.0","0","0","14726","","null","","","null","83","","","","","","","","","","","","","","","",""
"","ITI","","html-keyboard-response","549","883434","0.0-1.0-756.0","0","0","14726","","null","","","null","83","","","","","","","","","","","","","","","NaN",""
"","S1","","html-keyboard-response","550","883600","0.0-1.0-758.0","0","0","14726","","null","","","null","84","","","","","","","","","","","","","","","",""
"","ISI","","html-keyboard-response","551","885609","0.0-1.0-759.0","0","0","14726","","null","","","null","84","NaN","","","","","","","","","","","","","","",""
"","S2","","html-keyboard-response","552","885774","0.0-1.0-760.0","0","0","14726","","null","","","null","84","","NaN","","","","","","","","","","","","","",""
"","response","","html-keyboard-response","553","886380","0.0-1.0-761.0-0.0","0","0","14726","","595","","","68","84","","","2","84","training","adjacent","CB","3","2","Q.jpg","R.jpg","1","0","0","",""
"","feedback","","html-keyboard-response","554","887392","0.0-1.0-762.0-0.0","0","0","14726","","null","","","null","84","","","","","","","","","","","","","","","",""
"","time_out","","html-keyboard-response","555","889403","0.0-1.0-764.0-0.0","0","0","14726","","null","","","null","84","","","","","","","","","","","","","","","",""
"","ITI","","html-keyboard-response","556","890412","0.0-1.0-765.0","0","0","14726","","null","","","null","84","","","","","","","","","","","","","","","NaN",""
"","S1","","html-keyboard-response","557","890576","0.0-1.0-767.0","0","0","14726","","null","","","null","85","","","","","","","","","","","","","","","",""
"","ISI","","html-keyboard-response","558","892586","0.0-1.0-768.0","0","0","14726","","null","","","null","85","NaN","","","","","","","","","","","","","","",""
"","S2","","html-keyboard-response","559","892753","0.0-1.0-769.0","0","0","14726","","null","","","null","85","","NaN","","","","","","","","","","","","","",""
"","response","","html-keyboard-response","560","893140","0.0-1.0-770.0-0.0","0","0","14726","","378","","","75","85","","","2","85","training","adjacent","DC","4","3","N.jpg","Q.jpg","0","0","1","",""
"","feedback","","html-keyboard-response","561","894152","0.0-1.0-771.0-0.0","0","0","14726","","null","","","null","85","","","","","","","","","","","","","","","",""
"","ITI","","html-keyboard-response","562","895166","0.0-1.0-774.0","0","0","14726","","null","","","null","85","","","","","","","","","","","","","","","NaN",""
"","S1","","html-keyboard-response","563","895330","0.0-1.0-776.0","0","0","14726","","null","","","null","86","","","","","","","","","","","","","","","",""
"","ISI","","html-keyboard-response","564","897343","0.0-1.0-777.0","0","0","14726","","null","","","null","86","NaN","","","","","","","","","","","","","","",""
"","S2","","html-keyboard-response","565","897504","0.0-1.0-778.0","0","0","14726","","null","","","null","86","","NaN","","","","","","","","","","","","","",""
"","response","","html-keyboard-response","566","898082","0.0-1.0-779.0-0.0","0","0","14726","","567","","","68","86","","","2","86","training","adjacent","ED","5","4","L.jpg","N.jpg","1","0","0","",""
"","feedback","","html-keyboard-response","567","899098","0.0-1.0-780.0-0.0","0","0","14726","","null","","","null","86","","","","","","","","","","","","","","","",""
"","time_out","","html-keyboard-response","568","901107","0.0-1.0-782.0-0.0","0","0","14726","","null","","","null","86","","","","","","","","","","","","","","","",""
"","ITI","","html-keyboard-response","569","902114","0.0-1.0-783.0","0","0","14726","","null","","","null","86","","","","","","","","","","","","","","","NaN",""
"","S1","","html-keyboard-response","570","902272","0.0-1.0-785.0","0","0","14726","","null","","","null","87","","","","","","","","","","","","","","","",""
"","ISI","","html-keyboard-response","571","904319","0.0-1.0-786.0","0","0","14726","","null","","","null","87","NaN","","","","","","","","","","","","","","",""
"","S2","","html-keyboard-response","572","904478","0.0-1.0-787.0","0","0","14726","","null","","","null","87","","NaN","","","","","","","","","","","","","",""
"","response","","html-keyboard-response","573","904994","0.0-1.0-788.0-0.0","0","0","14726","","505","","","75","87","","","2","87","training","adjacent","CD","3","4","Q.jpg","N.jpg","0","1","0","",""
"","feedback","","html-keyboard-response","574","906022","0.0-1.0-789.0-0.0","0","0","14726","","null","","","null","87","","","","","","","","","","","","","","","",""
"","time_out","","html-keyboard-response","575","908031","0.0-1.0-791.0-0.0","0","0","14726","","null","","","null","87","","","","","","","","","","","","","","","",""
"","ITI","","html-keyboard-response","576","909042","0.0-1.0-792.0","0","0","14726","","null","","","null","87","","","","","","","","","","","","","","","NaN",""
"","S1","","html-keyboard-response","577","909205","0.0-1.0-794.0","0","0","14726","","null","","","null","88","","","","","","","","","","","","","","","",""
"","ISI","","html-keyboard-response","578","911216","0.0-1.0-795.0","0","0","14726","","null","","","null","88","NaN","","","","","","","","","","","","","","",""
"","S2","","html-keyboard-response","579","911379","0.0-1.0-796.0","0","0","14726","","null","","","null","88","","NaN","","","","","","","","","","","","","",""
"","response","","html-keyboard-response","580","911867","0.0-1.0-797.0-0.0","0","0","14726","","479","","","68","88","","","2","88","training","adjacent","AB","1","2","P.jpg","R.jpg","1","1","1","",""
