"success","ttype","start_time","trial_type","trial_index","time_elapsed","internal_node_id","warning","missed_checkup","PID","view_history","rt","responses","repeat_instructions","key_press","index","keypress_isi","keypress_S2","block","trial_num","phase","group_type","pair_type","S1_stim","S2_stim","S1_img","S2_img","S1_chosen","S1_higher","accuracy","keypress_iti","total_bonus_tally"
"true","full_screen","d04132023hr1508","fullscreen","0","8024","0.0-0.0","0","0","32229","","","","","","","","","","","","","","","","","","","","","",""
"","instructions","","instructions","1","25487","0.0-1.0-0.0-0.0","0","0","32229","[{""page_index"":0,""viewing_time"":5852},{""page_index"":1,""viewing_time"":3500},{""page_index"":2,""viewing_time"":6401},{""page_index"":3,""viewing_time"":1709}]","17462","","","","","","","","","","","","","","","","","","","",""
"","comprehension_check","","survey-multi-choice","2","43493","0.0-1.0-0.0-1.0","0","0","32229","","18002","{""Q0"":""True"",""Q1"":""K"",""Q2"":""Once the second image appears and while the screen 'MAKE A CHOICE' is shown"",""Q3"":""Green mark"",""Q4"":""either D or K""}","0","","","","","","","","","","","","","","","","","",""
"","start_exp","","html-keyboard-response","3","45578","0.0-1.0-1.0","0","0","32229","","2082","","","32","","","","","","","","","","","","","","","","",""
"","S1","","html-keyboard-response","4","45832","0.0-1.0-2.0","0","0","32229","","null","","","null","0","","","","","","","","","","","","","","","",""
"","ISI","","html-keyboard-response","5","46835","0.0-1.0-3.0","0","0","32229","","null","","","null","0","NaN","","","","","","","","","","","","","","",""
"","S2","","html-keyboard-response","6","47088","0.0-1.0-4.0","0","0","32229","","null","","","null","0","","NaN","","","","","","","","","","","","","",""
"","response","","html-keyboard-response","7","47155","0.0-1.0-5.0-0.0","0","0","32229","","66","","","75","0","","","1","0","training","adjacent","FG","6","7","L.jpg","O.jpg","1","1","1","",""
"","feedback","","html-keyboard-response","8","48157","0.0-1.0-6.0-0.0","0","0","32229","","null","","","null","0","","","","","","","","","","","","","","","",""
"","ITI","","html-keyboard-response","9","49160","0.0-1.0-9.0","0","0","32229","","null","","","null","0","","","","","","","","","","","","","","","NaN",""
"","S1","","html-keyboard-response","10","49413","0.0-1.0-11.0","0","0","32229","","null","","","null","1","","","","","","","","","","","","","","","",""
"","ISI","","html-keyboard-response","11","50415","0.0-1.0-12.0","0","0","32229","","null","","","null","1","NaN","","","","","","","","","","","","","","",""
"","S2","","html-keyboard-response","12","50668","0.0-1.0-13.0","0","0","32229","","null","","","null","1","","NaN","","","","","","","","","","","","","",""
"","response","","html-keyboard-response","13","50819","0.0-1.0-14.0-0.0","0","0","32229","","150","","","68","1","","","1","1","training","adjacent","BC","2","3","N.jpg","M.jpg","0","1","0","",""
"","feedback","","html-keyboard-response","14","51821","0.0-1.0-15.0-0.0","0","0","32229","","null","","","null","1","","","","","","","","","","","","","","","",""
"","time_out","","html-keyboard-response","15","53822","0.0-1.0-17.0-0.0","0","0","32229","","null","","","null","1","","","","","","","","","","","","","","","",""
"","ITI","","html-keyboard-response","16","54824","0.0-1.0-18.0","0","0","32229","","null","","","null","1","","","","","","","","","","","","","","","NaN",""
"","S1","","html-keyboard-response","17","55077","0.0-1.0-20.0","0","0","32229","","null","","","null","2","","","","","","","","","","","","","","","",""
"","ISI","","html-keyboard-response","18","56079","0.0-1.0-21.0","0","0","32229","","null","","","null","2","NaN","","","","","","","","","","","","","","",""
"","S2","","html-keyboard-response","19","56334","0.0-1.0-22.0","0","0","32229","","null","","","null","2","","NaN","","","","","","","","","","","","","",""
"","response","","html-keyboard-response","20","56628","0.0-1.0-23.0-0.0","0","0","32229","","293","","","75","2","","","1","2","training","adjacent","DE","4","5","R.jpg","P.jpg","1","1","1","",""
"","feedback","","html-keyboard-response","21","57631","0.0-1.0-24.0-0.0","0","0","32229","","null","","","null","2","","","","","","","","","","","","","","","",""
"","ITI","","html-keyboard-response","22","58633","0.0-1.0-27.0","0","0","32229","","null","","","null","2","","","","","","","","","","","","","","","NaN",""
"","S1","","html-keyboard-response","23","58885","0.0-1.0-29.0","0","0","32229","","null","","","null","3","","","","","","","","","","","","","","","",""
"","ISI","","html-keyboard-response","24","59886","0.0-1.0-30.0","0","0","32229","","null","","","null","3","NaN","","","","","","","","","","","","","","",""
"","S2","","html-keyboard-response","25","60139","0.0-1.0-31.0","0","0","32229","","null","","","null","3","","NaN","","","","","","","","","","","","","",""
"","response","","html-keyboard-response","26","60290","0.0-1.0-32.0-0.0","0","0","32229","","149","","","75","3","","","1","3","training","adjacent","BC","2","3","N.jpg","M.jpg","1","1","1","",""
"","feedback","","html-keyboard-response","27","61305","0.0-1.0-33.0-0.0","0","0","32229","","null","","","null","3","","","","","","","","","","","","","","","",""
"","ITI","","html-keyboard-response","28","62317","0.0-1.0-36.0","0","0","32229","","null","","","null","3","","","","","","","","","","","","","","","NaN",""
"","S1","","html-keyboard-response","29","62569","0.0-1.0-38.0","0","0","32229","","null","","","null","4","","","","","","","","","","","","","","","",""
"","ISI","","html-keyboard-response","30","63572","0.0-1.0-39.0","0","0","32229","","null","","","null","4","NaN","","","","","","","","","","","","","","",""
"","S2","","html-keyboard-response","31","63824","0.0-1.0-40.0","0","0","32229","","null","","","null","4","","NaN","","","","","","","","","","","","","",""
"","response","","html-keyboard-response","32","64083","0.0-1.0-41.0-0.0","0","0","32229","","256","","","68","4","","","1","4","training","adjacent","ED","5","4","P.jpg","R.jpg","0","0","1","",""
"","feedback","","html-keyboard-response","33","65085","0.0-1.0-42.0-0.0","0","0","32229","","null","","","null","4","","","","","","","","","","","","","","","",""
"","ITI","","html-keyboard-response","34","66087","0.0-1.0-45.0","0","0","32229","","null","","","null","4","","","","","","","","","","","","","","","NaN",""
"","S1","","html-keyboard-response","35","66340","0.0-1.0-47.0","0","0","32229","","null","","","null","5","","","","","","","","","","","","","","","",""
"","ISI","","html-keyboard-response","36","67342","0.0-1.0-48.0","0","0","32229","","null","","","null","5","NaN","","","","","","","","","","","","","","",""
"","S2","","html-keyboard-response","37","67594","0.0-1.0-49.0","0","0","32229","","null","","","null","5","","NaN","","","","","","","","","","","","","",""
"","response","","html-keyboard-response","38","67806","0.0-1.0-50.0-0.0","0","0","32229","","211","","","75","5","","","1","5","training","adjacent","DC","4","3","R.jpg","M.jpg","1","0","0","",""
"","feedback","","html-keyboard-response","39","68809","0.0-1.0-51.0-0.0","0","0","32229","","null","","","null","5","","","","","","","","","","","","","","","",""
"","time_out","","html-keyboard-response","40","70811","0.0-1.0-53.0-0.0","0","0","32229","","null","","","null","5","","","","","","","","","","","","","","","",""
"","ITI","","html-keyboard-response","41","71813","0.0-1.0-54.0","0","0","32229","","null","","","null","5","","","","","","","","","","","","","","","NaN",""
"","S1","","html-keyboard-response","42","72066","0.0-1.0-56.0","0","0","32229","","null","","","null","6","","","","","","","","","","","","","","","",""
"","ISI","","html-keyboard-response","43","73069","0.0-1.0-57.0","0","0","32229","","87","","","75","6","k","","","","","","","","","","","","","","",""
"","S2","","html-keyboard-response","44","73321","0.0-1.0-58.0","0","0","32229","","null","","","null","6","","NaN","","","","","","","","","","","","","",""
"","response","","html-keyboard-response","45","73374","0.0-1.0-59.0-0.0","0","0","32229","","52","","","75","6","","","1","6","training","adjacent","DE","4","5","R.jpg","P.jpg","1","1","1","",""
"","feedback","","html-keyboard-response","46","74376","0.0-1.0-60.0-0.0","0","0","32229","","null","","","null","6","","","","","","","","","","","","","","","",""
"","ITI","","html-keyboard-response","47","75378","0.0-1.0-63.0","0","0","32229","","null","","","null","6","","","","","","","","","","","","","","","NaN",""
"","S1","","html-keyboard-response","48","75631","0.0-1.0-65.0","0","0","32229","","null","","","null","7","","","","","","","","","","","","","","","",""
"","ISI","","html-keyboard-response","49","76633","0.0-1.0-66.0","0","0","32229","","null","","","null","7","NaN","","","","","","","","","","","","","","",""
"","S2","","html-keyboard-response","50","76888","0.0-1.0-67.0","0","0","32229","","null","","","null","7","","NaN","","","","","","","","","","","","","",""
"","response","","html-keyboard-response","51","77157","0.0-1.0-68.0-0.0","0","0","32229","","268","","","75","7","","","1","7","training","adjacent","CD","3","4","M.jpg","R.jpg","1","1","1","",""
"","feedback","","html-keyboard-response","52","78160","0.0-1.0-69.0-0.0","0","0","32229","","null","","","null","7","","","","","","","","","","","","","","","",""
"","ITI","","html-keyboard-response","53","79162","0.0-1.0-72.0","0","0","32229","","null","","","null","7","","","","","","","","","","","","","","","NaN",""
"","S1","","html-keyboard-response","54","79415","0.0-1.0-74.0","0","0","32229","","null","","","null","8","","","","","","","","","","","","","","","",""
"","ISI","","html-keyboard-response","55","80418","0.0-1.0-75.0","0","0","32229","","null","","","null","8","NaN","","","","","","","","","","","","","","",""
"","S2","","html-keyboard-response","56","80671","0.0-1.0-76.0","0","0","32229","","null","","","null","8","","NaN","","","","","","","","","","","","","",""
"","response","","html-keyboard-response","57","80750","0.0-1.0-77.0-0.0","0","0","32229","","78","","","68","8","","","1","8","training","adjacent","ED","5","4","P.jpg","R.jpg","0","0","1","",""
"","feedback","","html-keyboard-response","58","81752","0.0-1.0-78.0-0.0","0","0","32229","","null","","","null","8","","","","","","","","","","","","","","","",""
"","ITI","","html-keyboard-response","59","82755","0.0-1.0-81.0","0","0","32229","","null","","","null","8","","","","","","","","","","","","","","","NaN",""
"","S1","","html-keyboard-response","60","83007","0.0-1.0-83.0","0","0","32229","","null","","","null","9","","","","","","","","","","","","","","","",""
"","ISI","","html-keyboard-response","61","84010","0.0-1.0-84.0","0","0","32229","","null","","","null","9","NaN","","","","","","","","","","","","","","",""
"","S2","","html-keyboard-response","62","84263","0.0-1.0-85.0","0","0","32229","","null","","","null","9","","NaN","","","","","","","","","","","","","",""
"","response","","html-keyboard-response","63","84492","0.0-1.0-86.0-0.0","0","0","32229","","227","","","68","9","","","1","9","training","adjacent","CB","3","2","M.jpg","N.jpg","0","0","1","",""
"","feedback","","html-keyboard-response","64","85494","0.0-1.0-87.0-0.0","0","0","32229","","null","","","null","9","","","","","","","","","","","","","","","",""
"","ITI","","html-keyboard-response","65","86498","0.0-1.0-90.0","0","0","32229","","null","","","null","9","","","","","","","","","","","","","","","NaN",""
"","S1","","html-keyboard-response","66","86750","0.0-1.0-92.0","0","0","32229","","null","","","null","10","","","","","","","","","","","","","","","",""
"","ISI","","html-keyboard-response","67","87752","0.0-1.0-93.0","0","0","32229","","null","","","null","10","NaN","","","","","","","","","","","","","","",""
"","S2","","html-keyboard-response","68","88004","0.0-1.0-94.0","0","0","32229","","null","","","null","10","","NaN","","","","","","","","","","","","","",""
"","response","","html-keyboard-response","69","88226","0.0-1.0-95.0-0.0","0","0","32229","","221","","","68","10","","","1","10","training","adjacent","CD","3","4","M.jpg","R.jpg","0","1","0","",""
"","feedback","","html-keyboard-response","70","89229","0.0-1.0-96.0-0.0","0","0","32229","","null","","","null","10","","","","","","","","","","","","","","","",""
"","time_out","","html-keyboard-response","71","91232","0.0-1.0-98.0-0.0","0","0","32229","","null","","","null","10","","","","","","","","","","","","","","","",""
"","ITI","","html-keyboard-response","72","92234","0.0-1.0-99.0","0","0","32229","","null","","","null","10","","","","","","","","","","","","","","","NaN",""
"","S1","","html-keyboard-response","73","92486","0.0-1.0-101.0","0","0","32229","","null","","","null","11","","","","","","","","","","","","","","","",""
"","ISI","","html-keyboard-response","74","93489","0.0-1.0-102.0","0","0","32229","","null","","","null","11","NaN","","","","","","","","","","","","","","",""
"","S2","","html-keyboard-response","75","93742","0.0-1.0-103.0","0","0","32229","","null","","","null","11","","NaN","","","","","","","","","","","","","",""
"","response","","html-keyboard-response","76","94012","0.0-1.0-104.0-0.0","0","0","32229","","268","","","75","11","","","1","11","training","adjacent","AB","1","2","Q.jpg","N.jpg","1","1","1","",""
"","feedback","","html-keyboard-response","77","95015","0.0-1.0-105.0-0.0","0","0","32229","","null","","","null","11","","","","","","","","","","","","","","","",""
"","ITI","","html-keyboard-response","78","96018","0.0-1.0-108.0","0","0","32229","","null","","","null","11","","","","","","","","","","","","","","","NaN",""
"","S1","","html-keyboard-response","79","96271","0.0-1.0-110.0","0","0","32229","","null","","","null","12","","","","","","","","","","","","","","","",""
"","ISI","","html-keyboard-response","80","97273","0.0-1.0-111.0","0","0","32229","","null","","","null","12","NaN","","","","","","","","","","","","","","",""
"","S2","","html-keyboard-response","81","97526","0.0-1.0-112.0","0","0","32229","","null","","","null","12","","NaN","","","","","","","","","","","","","",""
"","response","","html-keyboard-response","82","97777","0.0-1.0-113.0-0.0","0","0","32229","","250","","","68","12","","","1","12","training","adjacent","FE","6","5","L.jpg","P.jpg","0","0","1","",""
"","feedback","","html-keyboard-response","83","98780","0.0-1.0-114.0-0.0","0","0","32229","","null","","","null","12","","","","","","","","","","","","","","","",""
"","ITI","","html-keyboard-response","84","99782","0.0-1.0-117.0","0","0","32229","","null","","","null","12","","","","","","","","","","","","","","","NaN",""
"","S1","","html-keyboard-response","85","100034","0.0-1.0-119.0","0","0","32229","","null","","","null","13","","","","","","","","","","","","","","","",""
"","ISI","","html-keyboard-response","86","101037","0.0-1.0-120.0","0","0","32229","","null","","","null","13","NaN","","","","","","","","","","","","","","",""
"","S2","","html-keyboard-response","87","101289","0.0-1.0-121.0","0","0","32229","","null","","","null","13","","NaN","","","","","","","","","","","","","",""
"","response","","html-keyboard-response","88","101567","0.0-1.0-122.0-0.0","0","0","32229","","276","","","75","13","","","1","13","training","adjacent","GF","7","6","O.jpg","L.jpg","1","0","0","",""
"","feedback","","html-keyboard-response","89","102571","0.0-1.0-123.0-0.0","0","0","32229","","null","","","null","13","","","","","","","","","","","","","","","",""
"","time_out","","html-keyboard-response","90","104573","0.0-1.0-125.0-0.0","0","0","32229","","null","","","null","13","","","","","","","","","","","","","","","",""
"","ITI","","html-keyboard-response","91","105576","0.0-1.0-126.0","0","0","32229","","null","","","null","13","","","","","","","","","","","","","","","NaN",""
"","S1","","html-keyboard-response","92","105828","0.0-1.0-128.0","0","0","32229","","null","","","null","14","","","","","","","","","","","","","","","",""
"","ISI","","html-keyboard-response","93","106830","0.0-1.0-129.0","0","0","32229","","null","","","null","14","NaN","","","","","","","","","","","","","","",""
"","S2","","html-keyboard-response","94","107096","0.0-1.0-130.0","0","0","32229","","null","","","null","14","","NaN","","","","","","","","","","","","","",""
"","response","","html-keyboard-response","95","107350","0.0-1.0-131.0-0.0","0","0","32229","","253","","","68","14","","","1","14","training","adjacent","EF","5","6","P.jpg","L.jpg","0","1","0","",""
"","feedback","","html-keyboard-response","96","108354","0.0-1.0-132.0-0.0","0","0","32229","","null","","","null","14","","","","","","","","","","","","","","","",""
"","time_out","","html-keyboard-response","97","110356","0.0-1.0-134.0-0.0","0","0","32229","","null","","","null","14","","","","","","","","","","","","","","","",""
"","ITI","","html-keyboard-response","98","111358","0.0-1.0-135.0","0","0","32229","","null","","","null","14","","","","","","","","","","","","","","","NaN",""
"","S1","","html-keyboard-response","99","111611","0.0-1.0-137.0","0","0","32229","","null","","","null","15","","","","","","","","","","","","","","","",""
"","ISI","","html-keyboard-response","100","112614","0.0-1.0-138.0","0","0","32229","","null","","","null","15","NaN","","","","","","","","","","","","","","",""
"","S2","","html-keyboard-response","101","112866","0.0-1.0-139.0","0","0","32229","","null","","","null","15","","NaN","","","","","","","","","","","","","",""
"","response","","html-keyboard-response","102","113108","0.0-1.0-140.0-0.0","0","0","32229","","240","","","75","15","","","1","15","training","adjacent","AB","1","2","Q.jpg","N.jpg","1","1","1","",""
"","feedback","","html-keyboard-response","103","114111","0.0-1.0-141.0-0.0","0","0","32229","","null","","","null","15","","","","","","","","","","","","","","","",""
"","ITI","","html-keyboard-response","104","115114","0.0-1.0-144.0","0","0","32229","","null","","","null","15","","","","","","","","","","","","","","","NaN",""
"","S1","","html-keyboard-response","105","115367","0.0-1.0-146.0","0","0","32229","","null","","","null","16","","","","","","","","","","","","","","","",""
"","ISI","","html-keyboard-response","106","116369","0.0-1.0-147.0","0","0","32229","","null","","","null","16","NaN","","","","","","","","","","","","","","",""
"","S2","","html-keyboard-response","107","116629","0.0-1.0-148.0","0","0","32229","","null","","","null","16","","NaN","","","","","","","","","","","","","",""
"","response","","html-keyboard-response","108","117010","0.0-1.0-149.0-0.0","0","0","32229","","378","","","75","16","","","1","16","training","adjacent","FE","6","5","L.jpg","P.jpg","1","0","0","",""
"","feedback","","html-keyboard-response","109","118012","0.0-1.0-150.0-0.0","0","0","32229","","null","","","null","16","","","","","","","","","","","","","","","",""
"","time_out","","html-keyboard-response","110","120015","0.0-1.0-152.0-0.0","0","0","32229","","null","","","null","16","","","","","","","","","","","","","","","",""
"","ITI","","html-keyboard-response","111","121033","0.0-1.0-153.0","0","0","32229","","null","","","null","16","","","","","","","","","","","","","","","NaN",""
"","S1","","html-keyboard-response","112","121285","0.0-1.0-155.0","0","0","32229","","null","","","null","17","","","","","","","","","","","","","","","",""
"","ISI","","html-keyboard-response","113","122287","0.0-1.0-156.0","0","0","32229","","null","","","null","17","NaN","","","","","","","","","","","","","","",""
"","S2","","html-keyboard-response","114","122539","0.0-1.0-157.0","0","0","32229","","null","","","null","17","","NaN","","","","","","","","","","","","","",""
"","response","","html-keyboard-response","115","122741","0.0-1.0-158.0-0.0","0","0","32229","","200","","","68","17","","","1","17","training","adjacent","EF","5","6","P.jpg","L.jpg","0","1","0","",""
"","feedback","","html-keyboard-response","116","123744","0.0-1.0-159.0-0.0","0","0","32229","","null","","","null","17","","","","","","","","","","","","","","","",""
"","time_out","","html-keyboard-response","117","125746","0.0-1.0-161.0-0.0","0","0","32229","","null","","","null","17","","","","","","","","","","","","","","","",""
"","ITI","","html-keyboard-response","118","126749","0.0-1.0-162.0","0","0","32229","","null","","","null","17","","","","","","","","","","","","","","","NaN",""
"","S1","","html-keyboard-response","119","127003","0.0-1.0-164.0","0","0","32229","","null","","","null","18","","","","","","","","","","","","","","","",""
"","ISI","","html-keyboard-response","120","128005","0.0-1.0-165.0","0","0","32229","","286","","","68","18","d","","","","","","","","","","","","","","",""
"","S2","","html-keyboard-response","121","128207","0.0-1.0-166.0","0","0","32229","","200","","","68","18","","d","1","18","training","adjacent","BC","2","3","N.jpg","M.jpg","0","1","0","",""
"","feedback","","html-keyboard-response","122","129209","0.0-1.0-168.0-0.0","0","0","32229","","null","","","null","18","","","","","","","","","","","","","","","",""
"","time_out","","html-keyboard-response","123","131211","0.0-1.0-170.0-0.0","0","0","32229","","null","","","null","18","","","","","","","","","","","","","","","",""
"","ITI","","html-keyboard-response","124","132213","0.0-1.0-171.0","0","0","32229","","null","","","null","18","","","","","","","","","","","","","","","NaN",""
"","S1","","html-keyboard-response","125","132465","0.0-1.0-173.0","0","0","32229","","null","","","null","19","","","","","","","","","","","","","","","",""
"","ISI","","html-keyboard-response","126","133467","0.0-1.0-174.0","0","0","32229","","null","","","null","19","NaN","","","","","","","","","","","","","","",""
"","S2","","html-keyboard-response","127","133719","0.0-1.0-175.0","0","0","32229","","null","","","null","19","","NaN","","","","","","","","","","","","","",""
"","response","","html-keyboard-response","128","133916","0.0-1.0-176.0-0.0","0","0","32229","","195","","","75","19","","","1","19","training","adjacent","BA","2","1","N.jpg","Q.jpg","1","0","0","",""
"","feedback","","html-keyboard-response","129","134919","0.0-1.0-177.0-0.0","0","0","32229","","null","","","null","19","","","","","","","","","","","","","","","",""
"","time_out","","html-keyboard-response","130","136937","0.0-1.0-179.0-0.0","0","0","32229","","null","","","null","19","","","","","","","","","","","","","","","",""
"","ITI","","html-keyboard-response","131","137939","0.0-1.0-180.0","0","0","32229","","null","","","null","19","","","","","","","","","","","","","","","NaN",""
"","S1","","html-keyboard-response","132","138200","0.0-1.0-182.0","0","0","32229","","null","","","null","20","","","","","","","","","","","","","","","",""
"","ISI","","html-keyboard-response","133","139202","0.0-1.0-183.0","0","0","32229","","null","","","null","20","NaN","","","","","","","","","","","","","","",""
"","S2","","html-keyboard-response","134","139456","0.0-1.0-184.0","0","0","32229","","null","","","null","20","","NaN","","","","","","","","","","","","","",""
"","response","","html-keyboard-response","135","139685","0.0-1.0-185.0-0.0","0","0","32229","","228","","","75","20","","","1","20","training","adjacent","FG","6","7","L.jpg","O.jpg","1","1","1","",""
"","feedback","","html-keyboard-response","136","140688","0.0-1.0-186.0-0.0","0","0","32229","","null","","","null","20","","","","","","","","","","","","","","","",""
"","ITI","","html-keyboard-response","137","141691","0.0-1.0-189.0","0","0","32229","","null","","","null","20","","","","","","","","","","","","","","","NaN",""
"","S1","","html-keyboard-response","138","141943","0.0-1.0-191.0","0","0","32229","","null","","","null","21","","","","","","","","","","","","","","","",""
"","ISI","","html-keyboard-response","139","142945","0.0-1.0-192.0","0","0","32229","","null","","","null","21","NaN","","","","","","","","","","","","","","",""
"","S2","","html-keyboard-response","140","143199","0.0-1.0-193.0","0","0","32229","","null","","","null","21","","NaN","","","","","","","","","","","","","",""
"","response","","html-keyboard-response","141","143716","0.0-1.0-194.0-0.0","0","0","32229","","516","","","75","21","","","1","21","training","adjacent","DC","4","3","R.jpg","M.jpg","1","0","0","",""
"","feedback","","html-keyboard-response","142","144719","0.0-1.0-195.0-0.0","0","0","32229","","null","","","null","21","","","","","","","","","","","","","","","",""
"","time_out","","html-keyboard-response","143","146722","0.0-1.0-197.0-0.0","0","0","32229","","null","","","null","21","","","","","","","","","","","","","","","",""
"","ITI","","html-keyboard-response","144","147724","0.0-1.0-198.0","0","0","32229","","null","","","null","21","","","","","","","","","","","","","","","NaN",""
"","S1","","html-keyboard-response","145","147976","0.0-1.0-200.0","0","0","32229","","null","","","null","22","","","","","","","","","","","","","","","",""
"","ISI","","html-keyboard-response","146","148979","0.0-1.0-201.0","0","0","32229","","null","","","null","22","NaN","","","","","","","","","","","","","","",""
"","S2","","html-keyboard-response","147","149232","0.0-1.0-202.0","0","0","32229","","null","","","null","22","","NaN","","","","","","","","","","","","","",""
"","response","","html-keyboard-response","148","149463","0.0-1.0-203.0-0.0","0","0","32229","","230","","","75","22","","","1","22","training","adjacent","CB","3","2","M.jpg","N.jpg","1","0","0","",""
"","feedback","","html-keyboard-response","149","150466","0.0-1.0-204.0-0.0","0","0","32229","","null","","","null","22","","","","","","","","","","","","","","","",""
"","time_out","","html-keyboard-response","150","152468","0.0-1.0-206.0-0.0","0","0","32229","","null","","","null","22","","","","","","","","","","","","","","","",""
"","ITI","","html-keyboard-response","151","153471","0.0-1.0-207.0","0","0","32229","","null","","","null","22","","","","","","","","","","","","","","","NaN",""
"","S1","","html-keyboard-response","152","153724","0.0-1.0-209.0","0","0","32229","","null","","","null","23","","","","","","","","","","","","","","","",""
"","ISI","","html-keyboard-response","153","154726","0.0-1.0-210.0","0","0","32229","","null","","","null","23","NaN","","","","","","","","","","","","","","",""
"","S2","","html-keyboard-response","154","154979","0.0-1.0-211.0","0","0","32229","","null","","","null","23","","NaN","","","","","","","","","","","","","",""
"","response","","html-keyboard-response","155","155201","0.0-1.0-212.0-0.0","0","0","32229","","221","","","75","23","","","1","23","training","adjacent","DC","4","3","R.jpg","M.jpg","1","0","0","",""
"","feedback","","html-keyboard-response","156","156204","0.0-1.0-213.0-0.0","0","0","32229","","null","","","null","23","","","","","","","","","","","","","","","",""
"","time_out","","html-keyboard-response","157","158206","0.0-1.0-215.0-0.0","0","0","32229","","null","","","null","23","","","","","","","","","","","","","","","",""
"","ITI","","html-keyboard-response","158","159208","0.0-1.0-216.0","0","0","32229","","null","","","null","23","","","","","","","","","","","","","","","NaN",""
"","S1","","html-keyboard-response","159","159460","0.0-1.0-218.0","0","0","32229","","null","","","null","24","","","","","","","","","","","","","","","",""
"","ISI","","html-keyboard-response","160","160463","0.0-1.0-219.0","0","0","32229","","null","","","null","24","NaN","","","","","","","","","","","","","","",""
"","S2","","html-keyboard-response","161","160715","0.0-1.0-220.0","0","0","32229","","null","","","null","24","","NaN","","","","","","","","","","","","","",""
"","response","","html-keyboard-response","162","160893","0.0-1.0-221.0-0.0","0","0","32229","","177","","","68","24","","","1","24","training","adjacent","EF","5","6","P.jpg","L.jpg","0","1","0","",""
"","feedback","","html-keyboard-response","163","161895","0.0-1.0-222.0-0.0","0","0","32229","","null","","","null","24","","","","","","","","","","","","","","","",""
"","time_out","","html-keyboard-response","164","163898","0.0-1.0-224.0-0.0","0","0","32229","","null","","","null","24","","","","","","","","","","","","","","","",""
"","ITI","","html-keyboard-response","165","164900","0.0-1.0-225.0","0","0","32229","","null","","","null","24","","","","","","","","","","","","","","","NaN",""
"","S1","","html-keyboard-response","166","165152","0.0-1.0-227.0","0","0","32229","","null","","","null","25","","","","","","","","","","","","","","","",""
"","ISI","","html-keyboard-response","167","166154","0.0-1.0-228.0","0","0","32229","","null","","","null","25","NaN","","","","","","","","","","","","","","",""
"","S2","","html-keyboard-response","168","166392","0.0-1.0-229.0","0","0","32229","","236","","","68","25","","d","1","25","training","adjacent","BC","2","3","N.jpg","M.jpg","0","1","0","",""
"","feedback","","html-keyboard-response","169","167395","0.0-1.0-231.0-0.0","0","0","32229","","null","","","null","25","","","","","","","","","","","","","","","",""
"","time_out","","html-keyboard-response","170","169397","0.0-1.0-233.0-0.0","0","0","32229","","null","","","null","25","","","","","","","","","","","","","","","",""
"","ITI","","html-keyboard-response","171","170399","0.0-1.0-234.0","0","0","32229","","null","","","null","25","","","","","","","","","","","","","","","NaN",""
"","S1","","html-keyboard-response","172","170651","0.0-1.0-236.0","0","0","32229","","null","","","null","26","","","","","","","","","","","","","","","",""
"","ISI","","html-keyboard-response","173","171654","0.0-1.0-237.0","0","0","32229","","null","","","null","26","NaN","","","","","","","","","","","","","","",""
"","S2","","html-keyboard-response","174","171906","0.0-1.0-238.0","0","0","32229","","null","","","null","26","","NaN","","","","","","","","","","","","","",""
"","response","","html-keyboard-response","175","171920","0.0-1.0-239.0-0.0","0","0","32229","","13","","","75","26","","","1","26","training","adjacent","FG","6","7","L.jpg","O.jpg","1","1","1","",""
"","feedback","","html-keyboard-response","176","172923","0.0-1.0-240.0-0.0","0","0","32229","","null","","","null","26","","","","","","","","","","","","","","","",""
"","ITI","","html-keyboard-response","177","173926","0.0-1.0-243.0","0","0","32229","","null","","","null","26","","","","","","","","","","","","","","","NaN",""
"","S1","","html-keyboard-response","178","174179","0.0-1.0-245.0","0","0","32229","","null","","","null","27","","","","","","","","","","","","","","","",""
"","ISI","","html-keyboard-response","179","175182","0.0-1.0-246.0","0","0","32229","","null","","","null","27","NaN","","","","","","","","","","","","","","",""
"","S2","","html-keyboard-response","180","175436","0.0-1.0-247.0","0","0","32229","","null","","","null","27","","NaN","","","","","","","","","","","","","",""
"","response","","html-keyboard-response","181","175693","0.0-1.0-248.0-0.0","0","0","32229","","256","","","75","27","","","1","27","training","adjacent","CD","3","4","M.jpg","R.jpg","1","1","1","",""
"","feedback","","html-keyboard-response","182","176696","0.0-1.0-249.0-0.0","0","0","32229","","null","","","null","27","","","","","","","","","","","","","","","",""
"","ITI","","html-keyboard-response","183","177698","0.0-1.0-252.0","0","0","32229","","null","","","null","27","","","","","","","","","","","","","","","NaN",""
"","S1","","html-keyboard-response","184","177950","0.0-1.0-254.0","0","0","32229","","null","","","null","28","","","","","","","","","","","","","","","",""
"","ISI","","html-keyboard-response","185","178954","0.0-1.0-255.0","0","0","32229","","null","","","null","28","NaN","","","","","","","","","","","","","","",""
"","S2","","html-keyboard-response","186","179206","0.0-1.0-256.0","0","0","32229","","null","","","null","28","","NaN","","","","","","","","","","","","","",""
"","response","","html-keyboard-response","187","179599","0.0-1.0-257.0-0.0","0","0","32229","","392","","","75","28","","","1","28","training","adjacent","GF","7","6","O.jpg","L.jpg","1","0","0","",""
"","feedback","","html-keyboard-response","188","180602","0.0-1.0-258.0-0.0","0","0","32229","","null","","","null","28","","","","","","","","","","","","","","","",""
"","time_out","","html-keyboard-response","189","182605","0.0-1.0-260.0-0.0","0","0","32229","","null","","","null","28","","","","","","","","","","","","","","","",""
"","ITI","","html-keyboard-response","190","183607","0.0-1.0-261.0","0","0","32229","","null","","","null","28","","","","","","","","","","","","","","","NaN",""
"","S1","","html-keyboard-response","191","183859","0.0-1.0-263.0","0","0","32229","","null","","","null","29","","","","","","","","","","","","","","","",""
"","ISI","","html-keyboard-response","192","184862","0.0-1.0-264.0","0","0","32229","","null","","","null","29","NaN","","","","","","","","","","","","","","",""
"","S2","","html-keyboard-response","193","185115","0.0-1.0-265.0","0","0","32229","","null","","","null","29","","NaN","","","","","","","","","","","","","",""
"","response","","html-keyboard-response","194","185340","0.0-1.0-266.0-0.0","0","0","32229","","224","","","68","29","","","1","29","training","adjacent","AB","1","2","Q.jpg","N.jpg","0","1","0","",""
"","feedback","","html-keyboard-response","195","186342","0.0-1.0-267.0-0.0","0","0","32229","","null","","","null","29","","","","","","","","","","","","","","","",""
"","time_out","","html-keyboard-response","196","188345","0.0-1.0-269.0-0.0","0","0","32229","","null","","","null","29","","","","","","","","","","","","","","","",""
"","ITI","","html-keyboard-response","197","189347","0.0-1.0-270.0","0","0","32229","","null","","","null","29","","","","","","","","","","","","","","","NaN",""
"","S1","","html-keyboard-response","198","189599","0.0-1.0-272.0","0","0","32229","","null","","","null","30","","","","","","","","","","","","","","","",""
"","ISI","","html-keyboard-response","199","190602","0.0-1.0-273.0","0","0","32229","","null","","","null","30","NaN","","","","","","","","","","","","","","",""
"","S2","","html-keyboard-response","200","190855","0.0-1.0-274.0","0","0","32229","","null","","","null","30","","NaN","","","","","","","","","","","","","",""
"","response","","html-keyboard-response","201","191061","0.0-1.0-275.0-0.0","0","0","32229","","205","","","68","30","","","1","30","training","adjacent","DE","4","5","R.jpg","P.jpg","0","1","0","",""
"","feedback","","html-keyboard-response","202","192063","0.0-1.0-276.0-0.0","0","0","32229","","null","","","null","30","","","","","","","","","","","","","","","",""
"","time_out","","html-keyboard-response","203","194065","0.0-1.0-278.0-0.0","0","0","32229","","null","","","null","30","","","","","","","","","","","","","","","",""
"","ITI","","html-keyboard-response","204","195069","0.0-1.0-279.0","0","0","32229","","null","","","null","30","","","","","","","","","","","","","","","NaN",""
"","S1","","html-keyboard-response","205","195323","0.0-1.0-281.0","0","0","32229","","null","","","null","31","","","","","","","","","","","","","","","",""
"","ISI","","html-keyboard-response","206","196326","0.0-1.0-282.0","0","0","32229","","null","","","null","31","NaN","","","","","","","","","","","","","","",""
"","S2","","html-keyboard-response","207","196579","0.0-1.0-283.0","0","0","32229","","null","","","null","31","","NaN","","","","","","","","","","","","","",""
"","response","","html-keyboard-response","208","196698","0.0-1.0-284.0-0.0","0","0","32229","","118","","","75","31","","","1","31","training","adjacent","ED","5","4","P.jpg","R.jpg","1","0","0","",""
"","feedback","","html-keyboard-response","209","197700","0.0-1.0-285.0-0.0","0","0","32229","","null","","","null","31","","","","","","","","","","","","","","","",""
"","time_out","","html-keyboard-response","210","199703","0.0-1.0-287.0-0.0","0","0","32229","","null","","","null","31","","","","","","","","","","","","","","","",""
"","ITI","","html-keyboard-response","211","200705","0.0-1.0-288.0","0","0","32229","","null","","","null","31","","","","","","","","","","","","","","","NaN",""
"","S1","","html-keyboard-response","212","200958","0.0-1.0-290.0","0","0","32229","","null","","","null","32","","","","","","","","","","","","","","","",""
"","ISI","","html-keyboard-response","213","201961","0.0-1.0-291.0","0","0","32229","","null","","","null","32","NaN","","","","","","","","","","","","","","",""
"","S2","","html-keyboard-response","214","202213","0.0-1.0-292.0","0","0","32229","","null","","","null","32","","NaN","","","","","","","","","","","","","",""
"","response","","html-keyboard-response","215","202444","0.0-1.0-293.0-0.0","0","0","32229","","230","","","75","32","","","1","32","training","adjacent","DE","4","5","R.jpg","P.jpg","1","1","1","",""
"","feedback","","html-keyboard-response","216","203447","0.0-1.0-294.0-0.0","0","0","32229","","null","","","null","32","","","","","","","","","","","","","","","",""
"","ITI","","html-keyboard-response","217","204449","0.0-1.0-297.0","0","0","32229","","null","","","null","32","","","","","","","","","","","","","","","NaN",""
"","S1","","html-keyboard-response","218","204704","0.0-1.0-299.0","0","0","32229","","null","","","null","33","","","","","","","","","","","","","","","",""
"","ISI","","html-keyboard-response","219","205705","0.0-1.0-300.0","0","0","32229","","null","","","null","33","NaN","","","","","","","","","","","","","","",""
"","S2","","html-keyboard-response","220","205958","0.0-1.0-301.0","0","0","32229","","null","","","null","33","","NaN","","","","","","","","","","","","","",""
"","response","","html-keyboard-response","221","206048","0.0-1.0-302.0-0.0","0","0","32229","","89","","","68","33","","","1","33","training","adjacent","FE","6","5","L.jpg","P.jpg","0","0","1","",""
"","feedback","","html-keyboard-response","222","207051","0.0-1.0-303.0-0.0","0","0","32229","","null","","","null","33","","","","","","","","","","","","","","","",""
"","ITI","","html-keyboard-response","223","208053","0.0-1.0-306.0","0","0","32229","","null","","","null","33","","","","","","","","","","","","","","","NaN",""
"","S1","","html-keyboard-response","224","208305","0.0-1.0-308.0","0","0","32229","","null","","","null","34","","","","","","","","","","","","","","","",""
"","ISI","","html-keyboard-response","225","209307","0.0-1.0-309.0","0","0","32229","","null","","","null","34","NaN","","","","","","","","","","","","","","",""
"","S2","","html-keyboard-response","226","209560","0.0-1.0-310.0","0","0","32229","","null","","","null","34","","NaN","","","","","","","","","","","","","",""
"","response","","html-keyboard-response","227","209675","0.0-1.0-311.0-0.0","0","0","32229","","114","","","68","34","","","1","34","training","adjacent","CD","3","4","M.jpg","R.jpg","0","1","0","",""
"","feedback","","html-keyboard-response","228","210678","0.0-1.0-312.0-0.0","0","0","32229","","null","","","null","34","","","","","","","","","","","","","","","",""
"","time_out","","html-keyboard-response","229","212680","0.0-1.0-314.0-0.0","0","0","32229","","null","","","null","34","","","","","","","","","","","","","","","",""
"","ITI","","html-keyboard-response","230","213682","0.0-1.0-315.0","0","0","32229","","null","","","null","34","","","","","","","","","","","","","","","NaN",""
"","S1","","html-keyboard-response","231","213934","0.0-1.0-317.0","0","0","32229","","null","","","null","35","","","","","","","","","","","","","","","",""
"","ISI","","html-keyboard-response","232","214937","0.0-1.0-318.0","0","0","32229","","null","","","null","35","NaN","","","","","","","","","","","","","","",""
"","S2","","html-keyboard-response","233","215190","0.0-1.0-319.0","0","0","32229","","null","","","null","35","","NaN","","","","","","","","","","","","","",""
"","response","","html-keyboard-response","234","215210","0.0-1.0-320.0-0.0","0","0","32229","","19","","","75","35","","","1","35","training","adjacent","GF","7","6","O.jpg","L.jpg","1","0","0","",""
"","feedback","","html-keyboard-response","235","216213","0.0-1.0-321.0-0.0","0","0","32229","","null","","","null","35","","","","","","","","","","","","","","","",""
"","time_out","","html-keyboard-response","236","218215","0.0-1.0-323.0-0.0","0","0","32229","","null","","","null","35","","","","","","","","","","","","","","","",""
"","ITI","","html-keyboard-response","237","219217","0.0-1.0-324.0","0","0","32229","","null","","","null","35","","","","","","","","","","","","","","","NaN",""
"","S1","","html-keyboard-response","238","219469","0.0-1.0-326.0","0","0","32229","","null","","","null","36","","","","","","","","","","","","","","","",""
"","ISI","","html-keyboard-response","239","220471","0.0-1.0-327.0","0","0","32229","","null","","","null","36","NaN","","","","","","","","","","","","","","",""
"","S2","","html-keyboard-response","240","220724","0.0-1.0-328.0","0","0","32229","","null","","","null","36","","NaN","","","","","","","","","","","","","",""
"","response","","html-keyboard-response","241","220794","0.0-1.0-329.0-0.0","0","0","32229","","68","","","75","36","","","1","36","training","adjacent","AB","1","2","Q.jpg","N.jpg","1","1","1","",""
"","feedback","","html-keyboard-response","242","221796","0.0-1.0-330.0-0.0","0","0","32229","","null","","","null","36","","","","","","","","","","","","","","","",""
"","ITI","","html-keyboard-response","243","222799","0.0-1.0-333.0","0","0","32229","","null","","","null","36","","","","","","","","","","","","","","","NaN",""
"","S1","","html-keyboard-response","244","223051","0.0-1.0-335.0","0","0","32229","","null","","","null","37","","","","","","","","","","","","","","","",""
"","ISI","","html-keyboard-response","245","224055","0.0-1.0-336.0","0","0","32229","","null","","","null","37","NaN","","","","","","","","","","","","","","",""
"","S2","","html-keyboard-response","246","224307","0.0-1.0-337.0","0","0","32229","","null","","","null","37","","NaN","","","","","","","","","","","","","",""
"","response","","html-keyboard-response","247","224512","0.0-1.0-338.0-0.0","0","0","32229","","203","","","75","37","","","1","37","training","adjacent","DC","4","3","R.jpg","M.jpg","1","0","0","",""
"","feedback","","html-keyboard-response","248","225515","0.0-1.0-339.0-0.0","0","0","32229","","null","","","null","37","","","","","","","","","","","","","","","",""
"","time_out","","html-keyboard-response","249","227517","0.0-1.0-341.0-0.0","0","0","32229","","null","","","null","37","","","","","","","","","","","","","","","",""
"","ITI","","html-keyboard-response","250","228519","0.0-1.0-342.0","0","0","32229","","null","","","null","37","","","","","","","","","","","","","","","NaN",""
"","S1","","html-keyboard-response","251","228776","0.0-1.0-344.0","0","0","32229","","null","","","null","38","","","","","","","","","","","","","","","",""
"","ISI","","html-keyboard-response","252","229779","0.0-1.0-345.0","0","0","32229","","null","","","null","38","NaN","","","","","","","","","","","","","","",""
"","S2","","html-keyboard-response","253","230031","0.0-1.0-346.0","0","0","32229","","null","","","null","38","","NaN","","","","","","","","","","","","","",""
"","response","","html-keyboard-response","254","230071","0.0-1.0-347.0-0.0","0","0","32229","","39","","","68","38","","","1","38","training","adjacent","FE","6","5","L.jpg","P.jpg","0","0","1","",""
"","feedback","","html-keyboard-response","255","231074","0.0-1.0-348.0-0.0","0","0","32229","","null","","","null","38","","","","","","","","","","","","","","","",""
"","ITI","","html-keyboard-response","256","232076","0.0-1.0-351.0","0","0","32229","","null","","","null","38","","","","","","","","","","","","","","","NaN",""
"","S1","","html-keyboard-response","257","232329","0.0-1.0-353.0","0","0","32229","","null","","","null","39","","","","","","","","","","","","","","","",""
"","ISI","","html-keyboard-response","258","233332","0.0-1.0-354.0","0","0","32229","","null","","","null","39","NaN","","","","","","","","","","","","","","",""
"","S2","","html-keyboard-response","259","233585","0.0-1.0-355.0","0","0","32229","","null","","","null","39","","NaN","","","","","","","","","","","","","",""
"","response","","html-keyboard-response","260","233700","0.0-1.0-356.0-0.0","0","0","32229","","112","","","75","39","","","1","39","training","adjacent","BA","2","1","N.jpg","Q.jpg","1","0","0","",""
"","feedback","","html-keyboard-response","261","234702","0.0-1.0-357.0-0.0","0","0","32229","","null","","","null","39","","","","","","","","","","","","","","","",""
"","time_out","","html-keyboard-response","262","236705","0.0-1.0-359.0-0.0","0","0","32229","","null","","","null","39","","","","","","","","","","","","","","","",""
"","ITI","","html-keyboard-response","263","237707","0.0-1.0-360.0","0","0","32229","","null","","","null","39","","","","","","","","","","","","","","","NaN",""
"","S1","","html-keyboard-response","264","237960","0.0-1.0-362.0","0","0","32229","","null","","","null","40","","","","","","","","","","","","","","","",""
"","ISI","","html-keyboard-response","265","238962","0.0-1.0-363.0","0","0","32229","","198","","","68","40","d","","","","","","","","","","","","","","",""
"","S2","","html-keyboard-response","266","239192","0.0-1.0-364.0","0","0","32229","","228","","","68","40","","d","1","40","training","adjacent","FG","6","7","L.jpg","O.jpg","0","1","0","",""
"","feedback","","html-keyboard-response","267","240195","0.0-1.0-366.0-0.0","0","0","32229","","null","","","null","40","","","","","","","","","","","","","","","",""
"","time_out","","html-keyboard-response","268","242197","0.0-1.0-368.0-0.0","0","0","32229","","null","","","null","40","","","","","","","","","","","","","","","",""
"","ITI","","html-keyboard-response","269","243199","0.0-1.0-369.0","0","0","32229","","null","","","null","40","","","","","","","","","","","","","","","NaN",""
"","S1","","html-keyboard-response","270","243453","0.0-1.0-371.0","0","0","32229","","null","","","null","41","","","","","","","","","","","","","","","",""
"","ISI","","html-keyboard-response","271","244455","0.0-1.0-372.0","0","0","32229","","null","","","null","41","NaN","","","","","","","","","","","","","","",""
"","S2","","html-keyboard-response","272","244708","0.0-1.0-373.0","0","0","32229","","null","","","null","41","","NaN","","","","","","","","","","","","","",""
"","response","","html-keyboard-response","273","244972","0.0-1.0-374.0-0.0","0","0","32229","","262","","","68","41","","","1","41","training","adjacent","BA","2","1","N.jpg","Q.jpg","0","0","1","",""
"","feedback","","html-keyboard-response","274","245975","0.0-1.0-375.0-0.0","0","0","32229","","null","","","null","41","","","","","","","","","","","","","","","",""
"","ITI","","html-keyboard-response","275","246977","0.0-1.0-378.0","0","0","32229","","null","","","null","41","","","","","","","","","","","","","","","NaN",""
"","S1","","html-keyboard-response","276","247230","0.0-1.0-380.0","0","0","32229","","null","","","null","42","","","","","","","","","","","","","","","",""
"","ISI","","html-keyboard-response","277","248232","0.0-1.0-381.0","0","0","32229","","null","","","null","42","NaN","","","","","","","","","","","","","","",""
"","S2","","html-keyboard-response","278","248484","0.0-1.0-382.0","0","0","32229","","null","","","null","42","","NaN","","","","","","","","","","","","","",""
"","response","","html-keyboard-response","279","248717","0.0-1.0-383.0-0.0","0","0","32229","","231","","","68","42","","","1","42","training","adjacent","BA","2","1","N.jpg","Q.jpg","0","0","1","",""
"","feedback","","html-keyboard-response","280","249720","0.0-1.0-384.0-0.0","0","0","32229","","null","","","null","42","","","","","","","","","","","","","","","",""
"","ITI","","html-keyboard-response","281","250722","0.0-1.0-387.0","0","0","32229","","null","","","null","42","","","","","","","","","","","","","","","NaN",""
"","S1","","html-keyboard-response","282","250975","0.0-1.0-389.0","0","0","32229","","null","","","null","43","","","","","","","","","","","","","","","",""
"","ISI","","html-keyboard-response","283","251978","0.0-1.0-390.0","0","0","32229","","null","","","null","43","NaN","","","","","","","","","","","","","","",""
"","S2","","html-keyboard-response","284","252230","0.0-1.0-391.0","0","0","32229","","null","","","null","43","","NaN","","","","","","","","","","","","","",""
"","response","","html-keyboard-response","285","252482","0.0-1.0-392.0-0.0","0","0","32229","","251","","","75","43","","","1","43","training","adjacent","GF","7","6","O.jpg","L.jpg","1","0","0","",""
"","feedback","","html-keyboard-response","286","253485","0.0-1.0-393.0-0.0","0","0","32229","","null","","","null","43","","","","","","","","","","","","","","","",""
"","time_out","","html-keyboard-response","287","255488","0.0-1.0-395.0-0.0","0","0","32229","","null","","","null","43","","","","","","","","","","","","","","","",""
"","ITI","","html-keyboard-response","288","256490","0.0-1.0-396.0","0","0","32229","","null","","","null","43","","","","","","","","","","","","","","","NaN",""
"","S1","","html-keyboard-response","289","256743","0.0-1.0-398.0","0","0","32229","","null","","","null","44","","","","","","","","","","","","","","","",""
"","ISI","","html-keyboard-response","290","257745","0.0-1.0-399.0","0","0","32229","","null","","","null","44","NaN","","","","","","","","","","","","","","",""
"","S2","","html-keyboard-response","291","257998","0.0-1.0-400.0","0","0","32229","","null","","","null","44","","NaN","","","","","","","","","","","","","",""
"","response","","html-keyboard-response","292","258235","0.0-1.0-401.0-0.0","0","0","32229","","235","","","75","44","","","1","44","training","adjacent","ED","5","4","P.jpg","R.jpg","1","0","0","",""
"","feedback","","html-keyboard-response","293","259237","0.0-1.0-402.0-0.0","0","0","32229","","null","","","null","44","","","","","","","","","","","","","","","",""
"","time_out","","html-keyboard-response","294","261240","0.0-1.0-404.0-0.0","0","0","32229","","null","","","null","44","","","","","","","","","","","","","","","",""
"","ITI","","html-keyboard-response","295","262242","0.0-1.0-405.0","0","0","32229","","null","","","null","44","","","","","","","","","","","","","","","NaN",""
"","S1","","html-keyboard-response","296","262494","0.0-1.0-407.0","0","0","32229","","null","","","null","45","","","","","","","","","","","","","","","",""
"","ISI","","html-keyboard-response","297","263496","0.0-1.0-408.0","0","0","32229","","null","","","null","45","NaN","","","","","","","","","","","","","","",""
"","S2","","html-keyboard-response","298","263749","0.0-1.0-409.0","0","0","32229","","null","","","null","45","","NaN","","","","","","","","","","","","","",""
"","response","","html-keyboard-response","299","263879","0.0-1.0-410.0-0.0","0","0","32229","","128","","","75","45","","","1","45","training","adjacent","CB","3","2","M.jpg","N.jpg","1","0","0","",""
"","feedback","","html-keyboard-response","300","264882","0.0-1.0-411.0-0.0","0","0","32229","","null","","","null","45","","","","","","","","","","","","","","","",""
"","time_out","","html-keyboard-response","301","266884","0.0-1.0-413.0-0.0","0","0","32229","","null","","","null","45","","","","","","","","","","","","","","","",""
"","ITI","","html-keyboard-response","302","267886","0.0-1.0-414.0","0","0","32229","","null","","","null","45","","","","","","","","","","","","","","","NaN",""
"","S1","","html-keyboard-response","303","268139","0.0-1.0-416.0","0","0","32229","","null","","","null","46","","","","","","","","","","","","","","","",""
"","ISI","","html-keyboard-response","304","269141","0.0-1.0-417.0","0","0","32229","","null","","","null","46","NaN","","","","","","","","","","","","","","",""
"","S2","","html-keyboard-response","305","269393","0.0-1.0-418.0","0","0","32229","","null","","","null","46","","NaN","","","","","","","","","","","","","",""
"","response","","html-keyboard-response","306","269463","0.0-1.0-419.0-0.0","0","0","32229","","68","","","68","46","","","1","46","training","adjacent","EF","5","6","P.jpg","L.jpg","0","1","0","",""
"","feedback","","html-keyboard-response","307","270466","0.0-1.0-420.0-0.0","0","0","32229","","null","","","null","46","","","","","","","","","","","","","","","",""
"","time_out","","html-keyboard-response","308","272469","0.0-1.0-422.0-0.0","0","0","32229","","null","","","null","46","","","","","","","","","","","","","","","",""
"","ITI","","html-keyboard-response","309","273472","0.0-1.0-423.0","0","0","32229","","null","","","null","46","","","","","","","","","","","","","","","NaN",""
"","S1","","html-keyboard-response","310","273724","0.0-1.0-425.0","0","0","32229","","null","","","null","47","","","","","","","","","","","","","","","",""
"","ISI","","html-keyboard-response","311","274726","0.0-1.0-426.0","0","0","32229","","null","","","null","47","NaN","","","","","","","","","","","","","","",""
"","S2","","html-keyboard-response","312","274968","0.0-1.0-427.0","0","0","32229","","241","","","68","47","","d","1","47","training","adjacent","CB","3","2","M.jpg","N.jpg","0","0","1","",""
"","feedback","","html-keyboard-response","313","275972","0.0-1.0-429.0-0.0","0","0","32229","","null","","","null","47","","","","","","","","","","","","","","","",""
"","ITI","","html-keyboard-response","314","276974","0.0-1.0-432.0","0","0","32229","","null","","","null","47","","","","","","","","","","","","","","","NaN",""
"","block_over","","html-keyboard-response","315","292957","0.0-1.0-433.0-0.0","0","0","32229","","15980","","","32","47","","","","","","","","","","","","","","","",""
"","S1","","html-keyboard-response","316","293209","0.0-1.0-434.0","0","0","32229","","null","","","null","48","","","","","","","","","","","","","","","",""
"","ISI","","html-keyboard-response","317","294212","0.0-1.0-435.0","0","0","32229","","null","","","null","48","NaN","","","","","","","","","","","","","","",""
"","S2","","html-keyboard-response","318","294464","0.0-1.0-436.0","0","0","32229","","null","","","null","48","","NaN","","","","","","","","","","","","","",""
"","response","","html-keyboard-response","319","294862","0.0-1.0-437.0-0.0","0","0","32229","","396","","","75","48","","","2","48","training","adjacent","DE","4","5","R.jpg","P.jpg","1","1","1","",""
"","feedback","","html-keyboard-response","320","295864","0.0-1.0-438.0-0.0","0","0","32229","","null","","","null","48","","","","","","","","","","","","","","","",""
"","ITI","","html-keyboard-response","321","296866","0.0-1.0-441.0","0","0","32229","","null","","","null","48","","","","","","","","","","","","","","","NaN",""
"","S1","","html-keyboard-response","322","297118","0.0-1.0-443.0","0","0","32229","","null","","","null","49","","","","","","","","","","","","","","","",""
"","ISI","","html-keyboard-response","323","298121","0.0-1.0-444.0","0","0","32229","","null","","","null","49","NaN","","","","","","","","","","","","","","",""
"","S2","","html-keyboard-response","324","298373","0.0-1.0-445.0","0","0","32229","","null","","","null","49","","NaN","","","","","","","","","","","","","",""
"","response","","html-keyboard-response","325","298607","0.0-1.0-446.0-0.0","0","0","32229","","233","","","75","49","","","2","49","training","adjacent","ED","5","4","P.jpg","R.jpg","1","0","0","",""
"","feedback","","html-keyboard-response","326","299609","0.0-1.0-447.0-0.0","0","0","32229","","null","","","null","49","","","","","","","","","","","","","","","",""
"","time_out","","html-keyboard-response","327","301611","0.0-1.0-449.0-0.0","0","0","32229","","null","","","null","49","","","","","","","","","","","","","","","",""
"","ITI","","html-keyboard-response","328","302613","0.0-1.0-450.0","0","0","32229","","null","","","null","49","","","","","","","","","","","","","","","NaN",""
"","S1","","html-keyboard-response","329","302866","0.0-1.0-452.0","0","0","32229","","null","","","null","50","","","","","","","","","","","","","","","",""
"","ISI","","html-keyboard-response","330","303869","0.0-1.0-453.0","0","0","32229","","null","","","null","50","NaN","","","","","","","","","","","","","","",""
"","S2","","html-keyboard-response","331","304133","0.0-1.0-454.0","0","0","32229","","null","","","null","50","","NaN","","","","","","","","","","","","","",""
"","response","","html-keyboard-response","332","304190","0.0-1.0-455.0-0.0","0","0","32229","","55","","","68","50","","","2","50","training","adjacent","AB","1","2","Q.jpg","N.jpg","0","1","0","",""
"","feedback","","html-keyboard-response","333","305194","0.0-1.0-456.0-0.0","0","0","32229","","null","","","null","50","","","","","","","","","","","","","","","",""
"","time_out","","html-keyboard-response","334","307197","0.0-1.0-458.0-0.0","0","0","32229","","null","","","null","50","","","","","","","","","","","","","","","",""
"","ITI","","html-keyboard-response","335","308201","0.0-1.0-459.0","0","0","32229","","null","","","null","50","","","","","","","","","","","","","","","NaN",""
"","S1","","html-keyboard-response","336","308453","0.0-1.0-461.0","0","0","32229","","null","","","null","51","","","","","","","","","","","","","","","",""
"","ISI","","html-keyboard-response","337","309455","0.0-1.0-462.0","0","0","32229","","null","","","null","51","NaN","","","","","","","","","","","","","","",""
"","S2","","html-keyboard-response","338","309707","0.0-1.0-463.0","0","0","32229","","null","","","null","51","","NaN","","","","","","","","","","","","","",""
"","response","","html-keyboard-response","339","309944","0.0-1.0-464.0-0.0","0","0","32229","","234","","","68","51","","","2","51","training","adjacent","CB","3","2","M.jpg","N.jpg","0","0","1","",""
"","feedback","","html-keyboard-response","340","310946","0.0-1.0-465.0-0.0","0","0","32229","","null","","","null","51","","","","","","","","","","","","","","","",""
"","ITI","","html-keyboard-response","341","311948","0.0-1.0-468.0","0","0","32229","","null","","","null","51","","","","","","","","","","","","","","","NaN",""
"","S1","","html-keyboard-response","342","312209","0.0-1.0-470.0","0","0","32229","","null","","","null","52","","","","","","","","","","","","","","","",""
"","ISI","","html-keyboard-response","343","313211","0.0-1.0-471.0","0","0","32229","","null","","","null","52","NaN","","","","","","","","","","","","","","",""
"","S2","","html-keyboard-response","344","313464","0.0-1.0-472.0","0","0","32229","","null","","","null","52","","NaN","","","","","","","","","","","","","",""
"","response","","html-keyboard-response","345","313753","0.0-1.0-473.0-0.0","0","0","32229","","288","","","75","52","","","2","52","training","adjacent","FE","6","5","L.jpg","P.jpg","1","0","0","",""
"","feedback","","html-keyboard-response","346","314755","0.0-1.0-474.0-0.0","0","0","32229","","null","","","null","52","","","","","","","","","","","","","","","",""
"","time_out","","html-keyboard-response","347","316757","0.0-1.0-476.0-0.0","0","0","32229","","null","","","null","52","","","","","","","","","","","","","","","",""
"","ITI","","html-keyboard-response","348","317760","0.0-1.0-477.0","0","0","32229","","null","","","null","52","","","","","","","","","","","","","","","NaN",""
"","S1","","html-keyboard-response","349","318013","0.0-1.0-479.0","0","0","32229","","null","","","null","53","","","","","","","","","","","","","","","",""
"","ISI","","html-keyboard-response","350","319015","0.0-1.0-480.0","0","0","32229","","null","","","null","53","NaN","","","","","","","","","","","","","","",""
"","S2","","html-keyboard-response","351","319268","0.0-1.0-481.0","0","0","32229","","null","","","null","53","","NaN","","","","","","","","","","","","","",""
"","response","","html-keyboard-response","352","319458","0.0-1.0-482.0-0.0","0","0","32229","","189","","","68","53","","","2","53","training","adjacent","CD","3","4","M.jpg","R.jpg","0","1","0","",""
"","feedback","","html-keyboard-response","353","320460","0.0-1.0-483.0-0.0","0","0","32229","","null","","","null","53","","","","","","","","","","","","","","","",""
"","time_out","","html-keyboard-response","354","322463","0.0-1.0-485.0-0.0","0","0","32229","","null","","","null","53","","","","","","","","","","","","","","","",""
"","ITI","","html-keyboard-response","355","323465","0.0-1.0-486.0","0","0","32229","","null","","","null","53","","","","","","","","","","","","","","","NaN",""
"","S1","","html-keyboard-response","356","323718","0.0-1.0-488.0","0","0","32229","","null","","","null","54","","","","","","","","","","","","","","","",""
"","ISI","","html-keyboard-response","357","324721","0.0-1.0-489.0","0","0","32229","","null","","","null","54","NaN","","","","","","","","","","","","","","",""
"","S2","","html-keyboard-response","358","324973","0.0-1.0-490.0","0","0","32229","","null","","","null","54","","NaN","","","","","","","","","","","","","",""
"","response","","html-keyboard-response","359","325202","0.0-1.0-491.0-0.0","0","0","32229","","227","","","75","54","","","2","54","training","adjacent","EF","5","6","P.jpg","L.jpg","1","1","1","",""
"","feedback","","html-keyboard-response","360","326205","0.0-1.0-492.0-0.0","0","0","32229","","null","","","null","54","","","","","","","","","","","","","","","",""
"","ITI","","html-keyboard-response","361","327207","0.0-1.0-495.0","0","0","32229","","null","","","null","54","","","","","","","","","","","","","","","NaN",""
"","S1","","html-keyboard-response","362","327460","0.0-1.0-497.0","0","0","32229","","null","","","null","55","","","","","","","","","","","","","","","",""
"","ISI","","html-keyboard-response","363","328463","0.0-1.0-498.0","0","0","32229","","null","","","null","55","NaN","","","","","","","","","","","","","","",""
"","S2","","html-keyboard-response","364","328716","0.0-1.0-499.0","0","0","32229","","null","","","null","55","","NaN","","","","","","","","","","","","","",""
"","response","","html-keyboard-response","365","329113","0.0-1.0-500.0-0.0","0","0","32229","","396","","","75","55","","","2","55","training","adjacent","DE","4","5","R.jpg","P.jpg","1","1","1","",""
"","feedback","","html-keyboard-response","366","330115","0.0-1.0-501.0-0.0","0","0","32229","","null","","","null","55","","","","","","","","","","","","","","","",""
"","ITI","","html-keyboard-response","367","331117","0.0-1.0-504.0","0","0","32229","","null","","","null","55","","","","","","","","","","","","","","","NaN",""
"","S1","","html-keyboard-response","368","331371","0.0-1.0-506.0","0","0","32229","","null","","","null","56","","","","","","","","","","","","","","","",""
"","ISI","","html-keyboard-response","369","332373","0.0-1.0-507.0","0","0","32229","","null","","","null","56","NaN","","","","","","","","","","","","","","",""
"","S2","","html-keyboard-response","370","332625","0.0-1.0-508.0","0","0","32229","","null","","","null","56","","NaN","","","","","","","","","","","","","",""
"","response","","html-keyboard-response","371","333087","0.0-1.0-509.0-0.0","0","0","32229","","461","","","75","56","","","2","56","training","adjacent","FE","6","5","L.jpg","P.jpg","1","0","0","",""
"","feedback","","html-keyboard-response","372","334090","0.0-1.0-510.0-0.0","0","0","32229","","null","","","null","56","","","","","","","","","","","","","","","",""
"","time_out","","html-keyboard-response","373","336093","0.0-1.0-512.0-0.0","0","0","32229","","null","","","null","56","","","","","","","","","","","","","","","",""
"","ITI","","html-keyboard-response","374","337095","0.0-1.0-513.0","0","0","32229","","null","","","null","56","","","","","","","","","","","","","","","NaN",""
"","S1","","html-keyboard-response","375","337347","0.0-1.0-515.0","0","0","32229","","null","","","null","57","","","","","","","","","","","","","","","",""
"","ISI","","html-keyboard-response","376","338350","0.0-1.0-516.0","0","0","32229","","null","","","null","57","NaN","","","","","","","","","","","","","","",""
"","S2","","html-keyboard-response","377","338603","0.0-1.0-517.0","0","0","32229","","null","","","null","57","","NaN","","","","","","","","","","","","","",""
"","response","","html-keyboard-response","378","338772","0.0-1.0-518.0-0.0","0","0","32229","","167","","","75","57","","","2","57","training","adjacent","ED","5","4","P.jpg","R.jpg","1","0","0","",""
"","feedback","","html-keyboard-response","379","339774","0.0-1.0-519.0-0.0","0","0","32229","","null","","","null","57","","","","","","","","","","","","","","","",""
"","time_out","","html-keyboard-response","380","341776","0.0-1.0-521.0-0.0","0","0","32229","","null","","","null","57","","","","","","","","","","","","","","","",""
"","ITI","","html-keyboard-response","381","342779","0.0-1.0-522.0","0","0","32229","","null","","","null","57","","","","","","","","","","","","","","","NaN",""
"","S1","","html-keyboard-response","382","343031","0.0-1.0-524.0","0","0","32229","","null","","","null","58","","","","","","","","","","","","","","","",""
"","ISI","","html-keyboard-response","383","344034","0.0-1.0-525.0","0","0","32229","","null","","","null","58","NaN","","","","","","","","","","","","","","",""
"","S2","","html-keyboard-response","384","344287","0.0-1.0-526.0","0","0","32229","","null","","","null","58","","NaN","","","","","","","","","","","","","",""
"","response","","html-keyboard-response","385","344471","0.0-1.0-527.0-0.0","0","0","32229","","183","","","68","58","","","2","58","training","adjacent","DC","4","3","R.jpg","M.jpg","0","0","1","",""
"","feedback","","html-keyboard-response","386","345474","0.0-1.0-528.0-0.0","0","0","32229","","null","","","null","58","","","","","","","","","","","","","","","",""
"","ITI","","html-keyboard-response","387","346478","0.0-1.0-531.0","0","0","32229","","null","","","null","58","","","","","","","","","","","","","","","NaN",""
"","S1","","html-keyboard-response","388","346744","0.0-1.0-533.0","0","0","32229","","null","","","null","59","","","","","","","","","","","","","","","",""
"","ISI","","html-keyboard-response","389","347746","0.0-1.0-534.0","0","0","32229","","null","","","null","59","NaN","","","","","","","","","","","","","","",""
"","S2","","html-keyboard-response","390","347999","0.0-1.0-535.0","0","0","32229","","null","","","null","59","","NaN","","","","","","","","","","","","","",""
"","response","","html-keyboard-response","391","348172","0.0-1.0-536.0-0.0","0","0","32229","","172","","","68","59","","","2","59","training","adjacent","GF","7","6","O.jpg","L.jpg","0","0","1","",""
"","feedback","","html-keyboard-response","392","349175","0.0-1.0-537.0-0.0","0","0","32229","","null","","","null","59","","","","","","","","","","","","","","","",""
"","ITI","","html-keyboard-response","393","350178","0.0-1.0-540.0","0","0","32229","","null","","","null","59","","","","","","","","","","","","","","","NaN",""
"","S1","","html-keyboard-response","394","350430","0.0-1.0-542.0","0","0","32229","","null","","","null","60","","","","","","","","","","","","","","","",""
"","ISI","","html-keyboard-response","395","351433","0.0-1.0-543.0","0","0","32229","","null","","","null","60","NaN","","","","","","","","","","","","","","",""
"","S2","","html-keyboard-response","396","351685","0.0-1.0-544.0","0","0","32229","","null","","","null","60","","NaN","","","","","","","","","","","","","",""
"","response","","html-keyboard-response","397","351790","0.0-1.0-545.0-0.0","0","0","32229","","103","","","68","60","","","2","60","training","adjacent","ED","5","4","P.jpg","R.jpg","0","0","1","",""
"","feedback","","html-keyboard-response","398","352794","0.0-1.0-546.0-0.0","0","0","32229","","null","","","null","60","","","","","","","","","","","","","","","",""
"","ITI","","html-keyboard-response","399","353796","0.0-1.0-549.0","0","0","32229","","null","","","null","60","","","","","","","","","","","","","","","NaN",""
"","S1","","html-keyboard-response","400","354050","0.0-1.0-551.0","0","0","32229","","null","","","null","61","","","","","","","","","","","","","","","",""
"","ISI","","html-keyboard-response","401","355052","0.0-1.0-552.0","0","0","32229","","null","","","null","61","NaN","","","","","","","","","","","","","","",""
"","S2","","html-keyboard-response","402","355305","0.0-1.0-553.0","0","0","32229","","null","","","null","61","","NaN","","","","","","","","","","","","","",""
"","response","","html-keyboard-response","403","355394","0.0-1.0-554.0-0.0","0","0","32229","","88","","","68","61","","","2","61","training","adjacent","BC","2","3","N.jpg","M.jpg","0","1","0","",""
"","feedback","","html-keyboard-response","404","356397","0.0-1.0-555.0-0.0","0","0","32229","","null","","","null","61","","","","","","","","","","","","","","","",""
"","time_out","","html-keyboard-response","405","358399","0.0-1.0-557.0-0.0","0","0","32229","","null","","","null","61","","","","","","","","","","","","","","","",""
"","ITI","","html-keyboard-response","406","359401","0.0-1.0-558.0","0","0","32229","","null","","","null","61","","","","","","","","","","","","","","","NaN",""
"","S1","","html-keyboard-response","407","359655","0.0-1.0-560.0","0","0","32229","","null","","","null","62","","","","","","","","","","","","","","","",""
"","ISI","","html-keyboard-response","408","360658","0.0-1.0-561.0","0","0","32229","","null","","","null","62","NaN","","","","","","","","","","","","","","",""
"","S2","","html-keyboard-response","409","360911","0.0-1.0-562.0","0","0","32229","","null","","","null","62","","NaN","","","","","","","","","","","","","",""
"","response","","html-keyboard-response","410","360971","0.0-1.0-563.0-0.0","0","0","32229","","59","","","68","62","","","2","62","training","adjacent","EF","5","6","P.jpg","L.jpg","0","1","0","",""
"","feedback","","html-keyboard-response","411","361973","0.0-1.0-564.0-0.0","0","0","32229","","null","","","null","62","","","","","","","","","","","","","","","",""
"","time_out","","html-keyboard-response","412","363976","0.0-1.0-566.0-0.0","0","0","32229","","null","","","null","62","","","","","","","","","","","","","","","",""
"","ITI","","html-keyboard-response","413","364979","0.0-1.0-567.0","0","0","32229","","null","","","null","62","","","","","","","","","","","","","","","NaN",""
"","S1","","html-keyboard-response","414","365232","0.0-1.0-569.0","0","0","32229","","null","","","null","63","","","","","","","","","","","","","","","",""
"","ISI","","html-keyboard-response","415","366235","0.0-1.0-570.0","0","0","32229","","null","","","null","63","NaN","","","","","","","","","","","","","","",""
"","S2","","html-keyboard-response","416","366488","0.0-1.0-571.0","0","0","32229","","null","","","null","63","","NaN","","","","","","","","","","","","","",""
"","response","","html-keyboard-response","417","366523","0.0-1.0-572.0-0.0","0","0","32229","","34","","","75","63","","","2","63","training","adjacent","AB","1","2","Q.jpg","N.jpg","1","1","1","",""
"","feedback","","html-keyboard-response","418","367525","0.0-1.0-573.0-0.0","0","0","32229","","null","","","null","63","","","","","","","","","","","","","","","",""
"","ITI","","html-keyboard-response","419","368527","0.0-1.0-576.0","0","0","32229","","null","","","null","63","","","","","","","","","","","","","","","NaN",""
"","S1","","html-keyboard-response","420","368780","0.0-1.0-578.0","0","0","32229","","null","","","null","64","","","","","","","","","","","","","","","",""
"","ISI","","html-keyboard-response","421","369783","0.0-1.0-579.0","0","0","32229","","null","","","null","64","NaN","","","","","","","","","","","","","","",""
"","S2","","html-keyboard-response","422","370035","0.0-1.0-580.0","0","0","32229","","null","","","null","64","","NaN","","","","","","","","","","","","","",""
"","response","","html-keyboard-response","423","370176","0.0-1.0-581.0-0.0","0","0","32229","","140","","","68","64","","","2","64","training","adjacent","EF","5","6","P.jpg","L.jpg","0","1","0","",""
"","feedback","","html-keyboard-response","424","371179","0.0-1.0-582.0-0.0","0","0","32229","","null","","","null","64","","","","","","","","","","","","","","","",""
"","time_out","","html-keyboard-response","425","373182","0.0-1.0-584.0-0.0","0","0","32229","","null","","","null","64","","","","","","","","","","","","","","","",""
"","ITI","","html-keyboard-response","426","374185","0.0-1.0-585.0","0","0","32229","","null","","","null","64","","","","","","","","","","","","","","","NaN",""
"","S1","","html-keyboard-response","427","374437","0.0-1.0-587.0","0","0","32229","","null","","","null","65","","","","","","","","","","","","","","","",""
"","ISI","","html-keyboard-response","428","375440","0.0-1.0-588.0","0","0","32229","","null","","","null","65","NaN","","","","","","","","","","","","","","",""
"","S2","","html-keyboard-response","429","375706","0.0-1.0-589.0","0","0","32229","","264","","","75","65","","k","2","65","training","adjacent","BC","2","3","N.jpg","M.jpg","1","1","1","",""
"","feedback","","html-keyboard-response","430","376709","0.0-1.0-591.0-0.0","0","0","32229","","null","","","null","65","","","","","","","","","","","","","","","",""
"","ITI","","html-keyboard-response","431","377711","0.0-1.0-594.0","0","0","32229","","null","","","null","65","","","","","","","","","","","","","","","NaN",""
"","S1","","html-keyboard-response","432","377964","0.0-1.0-596.0","0","0","32229","","null","","","null","66","","","","","","","","","","","","","","","",""
"","ISI","","html-keyboard-response","433","378966","0.0-1.0-597.0","0","0","32229","","null","","","null","66","NaN","","","","","","","","","","","","","","",""
"","S2","","html-keyboard-response","434","379219","0.0-1.0-598.0","0","0","32229","","null","","","null","66","","NaN","","","","","","","","","","","","","",""
"","response","","html-keyboard-response","435","379398","0.0-1.0-599.0-0.0","0","0","32229","","177","","","75","66","","","2","66","training","adjacent","DC","4","3","R.jpg","M.jpg","1","0","0","",""
"","feedback","","html-keyboard-response","436","380400","0.0-1.0-600.0-0.0","0","0","32229","","null","","","null","66","","","","","","","","","","","","","","","",""
"","time_out","","html-keyboard-response","437","382403","0.0-1.0-602.0-0.0","0","0","32229","","null","","","null","66","","","","","","","","","","","","","","","",""
"","ITI","","html-keyboard-response","438","383405","0.0-1.0-603.0","0","0","32229","","null","","","null","66","","","","","","","","","","","","","","","NaN",""
"","S1","","html-keyboard-response","439","383658","0.0-1.0-605.0","0","0","32229","","null","","","null","67","","","","","","","","","","","","","","","",""
"","ISI","","html-keyboard-response","440","384672","0.0-1.0-606.0","0","0","32229","","null","","","null","67","NaN","","","","","","","","","","","","","","",""
"","S2","","html-keyboard-response","441","384925","0.0-1.0-607.0","0","0","32229","","null","","","null","67","","NaN","","","","","","","","","","","","","",""
"","response","","html-keyboard-response","442","385089","0.0-1.0-608.0-0.0","0","0","32229","","163","","","68","67","","","2","67","training","adjacent","DE","4","5","R.jpg","P.jpg","0","1","0","",""
"","feedback","","html-keyboard-response","443","386092","0.0-1.0-609.0-0.0","0","0","32229","","null","","","null","67","","","","","","","","","","","","","","","",""
"","time_out","","html-keyboard-response","444","388095","0.0-1.0-611.0-0.0","0","0","32229","","null","","","null","67","","","","","","","","","","","","","","","",""
"","ITI","","html-keyboard-response","445","389097","0.0-1.0-612.0","0","0","32229","","null","","","null","67","","","","","","","","","","","","","","","NaN",""
"","S1","","html-keyboard-response","446","389349","0.0-1.0-614.0","0","0","32229","","null","","","null","68","","","","","","","","","","","","","","","",""
"","ISI","","html-keyboard-response","447","390352","0.0-1.0-615.0","0","0","32229","","null","","","null","68","NaN","","","","","","","","","","","","","","",""
"","S2","","html-keyboard-response","448","390564","0.0-1.0-616.0","0","0","32229","","211","","","68","68","","d","2","68","training","adjacent","CB","3","2","M.jpg","N.jpg","0","0","1","",""
"","feedback","","html-keyboard-response","449","391567","0.0-1.0-618.0-0.0","0","0","32229","","null","","","null","68","","","","","","","","","","","","","","","",""
"","ITI","","html-keyboard-response","450","392569","0.0-1.0-621.0","0","0","32229","","null","","","null","68","","","","","","","","","","","","","","","NaN",""
"","S1","","html-keyboard-response","451","392822","0.0-1.0-623.0","0","0","32229","","null","","","null","69","","","","","","","","","","","","","","","",""
"","ISI","","html-keyboard-response","452","393824","0.0-1.0-624.0","0","0","32229","","null","","","null","69","NaN","","","","","","","","","","","","","","",""
"","S2","","html-keyboard-response","453","394076","0.0-1.0-625.0","0","0","32229","","null","","","null","69","","NaN","","","","","","","","","","","","","",""
"","response","","html-keyboard-response","454","394156","0.0-1.0-626.0-0.0","0","0","32229","","79","","","68","69","","","2","69","training","adjacent","BA","2","1","N.jpg","Q.jpg","0","0","1","",""
"","feedback","","html-keyboard-response","455","395160","0.0-1.0-627.0-0.0","0","0","32229","","null","","","null","69","","","","","","","","","","","","","","","",""
"","ITI","","html-keyboard-response","456","396164","0.0-1.0-630.0","0","0","32229","","null","","","null","69","","","","","","","","","","","","","","","NaN",""
"","S1","","html-keyboard-response","457","396417","0.0-1.0-632.0","0","0","32229","","null","","","null","70","","","","","","","","","","","","","","","",""
"","ISI","","html-keyboard-response","458","397420","0.0-1.0-633.0","0","0","32229","","null","","","null","70","NaN","","","","","","","","","","","","","","",""
"","S2","","html-keyboard-response","459","397674","0.0-1.0-634.0","0","0","32229","","null","","","null","70","","NaN","","","","","","","","","","","","","",""
"","response","","html-keyboard-response","460","397732","0.0-1.0-635.0-0.0","0","0","32229","","57","","","68","70","","","2","70","training","adjacent","ED","5","4","P.jpg","R.jpg","0","0","1","",""
"","feedback","","html-keyboard-response","461","398733","0.0-1.0-636.0-0.0","0","0","32229","","null","","","null","70","","","","","","","","","","","","","","","",""
"","ITI","","html-keyboard-response","462","399735","0.0-1.0-639.0","0","0","32229","","null","","","null","70","","","","","","","","","","","","","","","NaN",""
"","S1","","html-keyboard-response","463","399987","0.0-1.0-641.0","0","0","32229","","null","","","null","71","","","","","","","","","","","","","","","",""
"","ISI","","html-keyboard-response","464","400989","0.0-1.0-642.0","0","0","32229","","null","","","null","71","NaN","","","","","","","","","","","","","","",""
"","S2","","html-keyboard-response","465","401242","0.0-1.0-643.0","0","0","32229","","null","","","null","71","","NaN","","","","","","","","","","","","","",""
"","response","","html-keyboard-response","466","401403","0.0-1.0-644.0-0.0","0","0","32229","","159","","","68","71","","","2","71","training","adjacent","FG","6","7","L.jpg","O.jpg","0","1","0","",""
"","feedback","","html-keyboard-response","467","402406","0.0-1.0-645.0-0.0","0","0","32229","","null","","","null","71","","","","","","","","","","","","","","","",""
"","time_out","","html-keyboard-response","468","404408","0.0-1.0-647.0-0.0","0","0","32229","","null","","","null","71","","","","","","","","","","","","","","","",""
"","ITI","","html-keyboard-response","469","405410","0.0-1.0-648.0","0","0","32229","","null","","","null","71","","","","","","","","","","","","","","","NaN",""
"","S1","","html-keyboard-response","470","405662","0.0-1.0-650.0","0","0","32229","","null","","","null","72","","","","","","","","","","","","","","","",""
"","ISI","","html-keyboard-response","471","406665","0.0-1.0-651.0","0","0","32229","","null","","","null","72","NaN","","","","","","","","","","","","","","",""
"","S2","","html-keyboard-response","472","406917","0.0-1.0-652.0","0","0","32229","","null","","","null","72","","NaN","","","","","","","","","","","","","",""
"","response","","html-keyboard-response","473","407327","0.0-1.0-653.0-0.0","0","0","32229","","409","","","75","72","","","2","72","training","adjacent","FG","6","7","L.jpg","O.jpg","1","1","1","",""
"","feedback","","html-keyboard-response","474","408330","0.0-1.0-654.0-0.0","0","0","32229","","null","","","null","72","","","","","","","","","","","","","","","",""
"","ITI","","html-keyboard-response","475","409333","0.0-1.0-657.0","0","0","32229","","null","","","null","72","","","","","","","","","","","","","","","NaN",""
"","S1","","html-keyboard-response","476","409586","0.0-1.0-659.0","0","0","32229","","null","","","null","73","","","","","","","","","","","","","","","",""
"","ISI","","html-keyboard-response","477","410589","0.0-1.0-660.0","0","0","32229","","null","","","null","73","NaN","","","","","","","","","","","","","","",""
"","S2","","html-keyboard-response","478","410841","0.0-1.0-661.0","0","0","32229","","null","","","null","73","","NaN","","","","","","","","","","","","","",""
"","response","","html-keyboard-response","479","411161","0.0-1.0-662.0-0.0","0","0","32229","","318","","","75","73","","","2","73","training","adjacent","BA","2","1","N.jpg","Q.jpg","1","0","0","",""
"","feedback","","html-keyboard-response","480","412164","0.0-1.0-663.0-0.0","0","0","32229","","null","","","null","73","","","","","","","","","","","","","","","",""
"","time_out","","html-keyboard-response","481","414166","0.0-1.0-665.0-0.0","0","0","32229","","null","","","null","73","","","","","","","","","","","","","","","",""
"","ITI","","html-keyboard-response","482","415172","0.0-1.0-666.0","0","0","32229","","null","","","null","73","","","","","","","","","","","","","","","NaN",""
"","S1","","html-keyboard-response","483","415425","0.0-1.0-668.0","0","0","32229","","null","","","null","74","","","","","","","","","","","","","","","",""
"","ISI","","html-keyboard-response","484","416428","0.0-1.0-669.0","0","0","32229","","null","","","null","74","NaN","","","","","","","","","","","","","","",""
"","S2","","html-keyboard-response","485","416681","0.0-1.0-670.0","0","0","32229","","null","","","null","74","","NaN","","","","","","","","","","","","","",""
"","response","","html-keyboard-response","486","416874","0.0-1.0-671.0-0.0","0","0","32229","","191","","","68","74","","","2","74","training","adjacent","CD","3","4","M.jpg","R.jpg","0","1","0","",""
"","feedback","","html-keyboard-response","487","417876","0.0-1.0-672.0-0.0","0","0","32229","","null","","","null","74","","","","","","","","","","","","","","","",""
"","time_out","","html-keyboard-response","488","419878","0.0-1.0-674.0-0.0","0","0","32229","","null","","","null","74","","","","","","","","","","","","","","","",""
"","ITI","","html-keyboard-response","489","420881","0.0-1.0-675.0","0","0","32229","","null","","","null","74","","","","","","","","","","","","","","","NaN",""
"","S1","","html-keyboard-response","490","421133","0.0-1.0-677.0","0","0","32229","","null","","","null","75","","","","","","","","","","","","","","","",""
"","ISI","","html-keyboard-response","491","422136","0.0-1.0-678.0","0","0","32229","","null","","","null","75","NaN","","","","","","","","","","","","","","",""
"","S2","","html-keyboard-response","492","422389","0.0-1.0-679.0","0","0","32229","","null","","","null","75","","NaN","","","","","","","","","","","","","",""
"","response","","html-keyboard-response","493","422427","0.0-1.0-680.0-0.0","0","0","32229","","37","","","68","75","","","2","75","training","adjacent","GF","7","6","O.jpg","L.jpg","0","0","1","",""
"","feedback","","html-keyboard-response","494","423430","0.0-1.0-681.0-0.0","0","0","32229","","null","","","null","75","","","","","","","","","","","","","","","",""
"","ITI","","html-keyboard-response","495","424445","0.0-1.0-684.0","0","0","32229","","null","","","null","75","","","","","","","","","","","","","","","NaN",""
"","S1","","html-keyboard-response","496","424698","0.0-1.0-686.0","0","0","32229","","null","","","null","76","","","","","","","","","","","","","","","",""
"","ISI","","html-keyboard-response","497","425700","0.0-1.0-687.0","0","0","32229","","null","","","null","76","NaN","","","","","","","","","","","","","","",""
"","S2","","html-keyboard-response","498","425953","0.0-1.0-688.0","0","0","32229","","null","","","null","76","","NaN","","","","","","","","","","","","","",""
"","response","","html-keyboard-response","499","426144","0.0-1.0-689.0-0.0","0","0","32229","","190","","","68","76","","","2","76","training","adjacent","DC","4","3","R.jpg","M.jpg","0","0","1","",""
"","feedback","","html-keyboard-response","500","427146","0.0-1.0-690.0-0.0","0","0","32229","","null","","","null","76","","","","","","","","","","","","","","","",""
"","ITI","","html-keyboard-response","501","428149","0.0-1.0-693.0","0","0","32229","","null","","","null","76","","","","","","","","","","","","","","","NaN",""
"","S1","","html-keyboard-response","502","428401","0.0-1.0-695.0","0","0","32229","","null","","","null","77","","","","","","","","","","","","","","","",""
"","ISI","","html-keyboard-response","503","429403","0.0-1.0-696.0","0","0","32229","","null","","","null","77","NaN","","","","","","","","","","","","","","",""
"","S2","","html-keyboard-response","504","429655","0.0-1.0-697.0","0","0","32229","","null","","","null","77","","NaN","","","","","","","","","","","","","",""
"","response","","html-keyboard-response","505","429823","0.0-1.0-698.0-0.0","0","0","32229","","166","","","75","77","","","2","77","training","adjacent","FE","6","5","L.jpg","P.jpg","1","0","0","",""
"","feedback","","html-keyboard-response","506","430825","0.0-1.0-699.0-0.0","0","0","32229","","null","","","null","77","","","","","","","","","","","","","","","",""
"","time_out","","html-keyboard-response","507","432827","0.0-1.0-701.0-0.0","0","0","32229","","null","","","null","77","","","","","","","","","","","","","","","",""
"","ITI","","html-keyboard-response","508","433829","0.0-1.0-702.0","0","0","32229","","null","","","null","77","","","","","","","","","","","","","","","NaN",""
"","S1","","html-keyboard-response","509","434095","0.0-1.0-704.0","0","0","32229","","null","","","null","78","","","","","","","","","","","","","","","",""
"","ISI","","html-keyboard-response","510","435113","0.0-1.0-705.0","0","0","32229","","null","","","null","78","NaN","","","","","","","","","","","","","","",""
"","S2","","html-keyboard-response","511","435365","0.0-1.0-706.0","0","0","32229","","null","","","null","78","","NaN","","","","","","","","","","","","","",""
"","response","","html-keyboard-response","512","435605","0.0-1.0-707.0-0.0","0","0","32229","","238","","","68","78","","","2","78","training","adjacent","AB","1","2","Q.jpg","N.jpg","0","1","0","",""
"","feedback","","html-keyboard-response","513","436609","0.0-1.0-708.0-0.0","0","0","32229","","null","","","null","78","","","","","","","","","","","","","","","",""
"","time_out","","html-keyboard-response","514","438611","0.0-1.0-710.0-0.0","0","0","32229","","null","","","null","78","","","","","","","","","","","","","","","",""
"","ITI","","html-keyboard-response","515","439614","0.0-1.0-711.0","0","0","32229","","null","","","null","78","","","","","","","","","","","","","","","NaN",""
"","S1","","html-keyboard-response","516","439866","0.0-1.0-713.0","0","0","32229","","null","","","null","79","","","","","","","","","","","","","","","",""
"","ISI","","html-keyboard-response","517","440868","0.0-1.0-714.0","0","0","32229","","null","","","null","79","NaN","","","","","","","","","","","","","","",""
"","S2","","html-keyboard-response","518","441120","0.0-1.0-715.0","0","0","32229","","null","","","null","79","","NaN","","","","","","","","","","","","","",""
"","response","","html-keyboard-response","519","441388","0.0-1.0-716.0-0.0","0","0","32229","","267","","","75","79","","","2","79","training","adjacent","DC","4","3","R.jpg","M.jpg","1","0","0","",""
"","feedback","","html-keyboard-response","520","442391","0.0-1.0-717.0-0.0","0","0","32229","","null","","","null","79","","","","","","","","","","","","","","","",""
"","time_out","","html-keyboard-response","521","444393","0.0-1.0-719.0-0.0","0","0","32229","","null","","","null","79","","","","","","","","","","","","","","","",""
"","ITI","","html-keyboard-response","522","445396","0.0-1.0-720.0","0","0","32229","","null","","","null","79","","","","","","","","","","","","","","","NaN",""
"","S1","","html-keyboard-response","523","445648","0.0-1.0-722.0","0","0","32229","","null","","","null","80","","","","","","","","","","","","","","","",""
"","ISI","","html-keyboard-response","524","446651","0.0-1.0-723.0","0","0","32229","","null","","","null","80","NaN","","","","","","","","","","","","","","",""
"","S2","","html-keyboard-response","525","446904","0.0-1.0-724.0","0","0","32229","","null","","","null","80","","NaN","","","","","","","","","","","","","",""
"","response","","html-keyboard-response","526","447088","0.0-1.0-725.0-0.0","0","0","32229","","182","","","68","80","","","2","80","training","adjacent","FE","6","5","L.jpg","P.jpg","0","0","1","",""
"","feedback","","html-keyboard-response","527","448091","0.0-1.0-726.0-0.0","0","0","32229","","null","","","null","80","","","","","","","","","","","","","","","",""
"","ITI","","html-keyboard-response","528","449093","0.0-1.0-729.0","0","0","32229","","null","","","null","80","","","","","","","","","","","","","","","NaN",""
"","S1","","html-keyboard-response","529","449346","0.0-1.0-731.0","0","0","32229","","null","","","null","81","","","","","","","","","","","","","","","",""
"","ISI","","html-keyboard-response","530","450349","0.0-1.0-732.0","0","0","32229","","null","","","null","81","NaN","","","","","","","","","","","","","","",""
"","S2","","html-keyboard-response","531","450603","0.0-1.0-733.0","0","0","32229","","null","","","null","81","","NaN","","","","","","","","","","","","","",""
"","response","","html-keyboard-response","532","450643","0.0-1.0-734.0-0.0","0","0","32229","","39","","","75","81","","","2","81","training","adjacent","BC","2","3","N.jpg","M.jpg","1","1","1","",""
"","feedback","","html-keyboard-response","533","451646","0.0-1.0-735.0-0.0","0","0","32229","","null","","","null","81","","","","","","","","","","","","","","","",""
"","ITI","","html-keyboard-response","534","452649","0.0-1.0-738.0","0","0","32229","","null","","","null","81","","","","","","","","","","","","","","","NaN",""
"","S1","","html-keyboard-response","535","452913","0.0-1.0-740.0","0","0","32229","","null","","","null","82","","","","","","","","","","","","","","","",""
"","ISI","","html-keyboard-response","536","453915","0.0-1.0-741.0","0","0","32229","","null","","","null","82","NaN","","","","","","","","","","","","","","",""
"","S2","","html-keyboard-response","537","454168","0.0-1.0-742.0","0","0","32229","","null","","","null","82","","NaN","","","","","","","","","","","","","",""
"","response","","html-keyboard-response","538","454184","0.0-1.0-743.0-0.0","0","0","32229","","15","","","68","82","","","2","82","training","adjacent","EF","5","6","P.jpg","L.jpg","0","1","0","",""
"","feedback","","html-keyboard-response","539","455187","0.0-1.0-744.0-0.0","0","0","32229","","null","","","null","82","","","","","","","","","","","","","","","",""
"","time_out","","html-keyboard-response","540","457189","0.0-1.0-746.0-0.0","0","0","32229","","null","","","null","82","","","","","","","","","","","","","","","",""
"","ITI","","html-keyboard-response","541","458191","0.0-1.0-747.0","0","0","32229","","null","","","null","82","","","","","","","","","","","","","","","NaN",""
"","S1","","html-keyboard-response","542","458444","0.0-1.0-749.0","0","0","32229","","null","","","null","83","","","","","","","","","","","","","","","",""
"","ISI","","html-keyboard-response","543","459447","0.0-1.0-750.0","0","0","32229","","null","","","null","83","NaN","","","","","","","","","","","","","","",""
"","S2","","html-keyboard-response","544","459699","0.0-1.0-751.0","0","0","32229","","null","","","null","83","","NaN","","","","","","","","","","","","","",""
"","response","","html-keyboard-response","545","460112","0.0-1.0-752.0-0.0","0","0","32229","","410","","","75","83","","","2","83","training","adjacent","CB","3","2","M.jpg","N.jpg","1","0","0","",""
"","feedback","","html-keyboard-response","546","461115","0.0-1.0-753.0-0.0","0","0","32229","","null","","","null","83","","","","","","","","","","","","","","","",""
"","time_out","","html-keyboard-response","547","463117","0.0-1.0-755.0-0.0","0","0","32229","","null","","","null","83","","","","","","","","","","","","","","","",""
"","ITI","","html-keyboard-response","548","464119","0.0-1.0-756.0","0","0","32229","","null","","","null","83","","","","","","","","","","","","","","","NaN",""
"","S1","","html-keyboard-response","549","464374","0.0-1.0-758.0","0","0","32229","","null","","","null","84","","","","","","","","","","","","","","","",""
"","ISI","","html-keyboard-response","550","465376","0.0-1.0-759.0","0","0","32229","","null","","","null","84","NaN","","","","","","","","","","","","","","",""
"","S2","","html-keyboard-response","551","465629","0.0-1.0-760.0","0","0","32229","","null","","","null","84","","NaN","","","","","","","","","","","","","",""
"","response","","html-keyboard-response","552","465761","0.0-1.0-761.0-0.0","0","0","32229","","131","","","68","84","","","2","84","training","adjacent","BA","2","1","N.jpg","Q.jpg","0","0","1","",""
"","feedback","","html-keyboard-response","553","466765","0.0-1.0-762.0-0.0","0","0","32229","","null","","","null","84","","","","","","","","","","","","","","","",""
"","ITI","","html-keyboard-response","554","467768","0.0-1.0-765.0","0","0","32229","","null","","","null","84","","","","","","","","","","","","","","","NaN",""
"","S1","","html-keyboard-response","555","468020","0.0-1.0-767.0","0","0","32229","","null","","","null","85","","","","","","","","","","","","","","","",""
"","ISI","","html-keyboard-response","556","469023","0.0-1.0-768.0","0","0","32229","","null","","","null","85","NaN","","","","","","","","","","","","","","",""
"","S2","","html-keyboard-response","557","469276","0.0-1.0-769.0","0","0","32229","","null","","","null","85","","NaN","","","","","","","","","","","","","",""
"","response","","html-keyboard-response","558","469322","0.0-1.0-770.0-0.0","0","0","32229","","45","","","68","85","","","2","85","training","adjacent","DE","4","5","R.jpg","P.jpg","0","1","0","",""
"","feedback","","html-keyboard-response","559","470324","0.0-1.0-771.0-0.0","0","0","32229","","null","","","null","85","","","","","","","","","","","","","","","",""
"","time_out","","html-keyboard-response","560","472327","0.0-1.0-773.0-0.0","0","0","32229","","null","","","null","85","","","","","","","","","","","","","","","",""
"","ITI","","html-keyboard-response","561","473329","0.0-1.0-774.0","0","0","32229","","null","","","null","85","","","","","","","","","","","","","","","NaN",""
"","S1","","html-keyboard-response","562","473582","0.0-1.0-776.0","0","0","32229","","null","","","null","86","","","","","","","","","","","","","","","",""
"","ISI","","html-keyboard-response","563","474584","0.0-1.0-777.0","0","0","32229","","null","","","null","86","NaN","","","","","","","","","","","","","","",""
"","S2","","html-keyboard-response","564","474833","0.0-1.0-778.0","0","0","32229","","248","","","68","86","","d","2","86","training","adjacent","BA","2","1","N.jpg","Q.jpg","0","0","1","",""
"","feedback","","html-keyboard-response","565","475836","0.0-1.0-780.0-0.0","0","0","32229","","null","","","null","86","","","","","","","","","","","","","","","",""
"","ITI","","html-keyboard-response","566","476838","0.0-1.0-783.0","0","0","32229","","null","","","null","86","","","","","","","","","","","","","","","NaN",""
"","S1","","html-keyboard-response","567","477091","0.0-1.0-785.0","0","0","32229","","null","","","null","87","","","","","","","","","","","","","","","",""
"","ISI","","html-keyboard-response","568","478094","0.0-1.0-786.0","0","0","32229","","null","","","null","87","NaN","","","","","","","","","","","","","","",""
"","S2","","html-keyboard-response","569","478346","0.0-1.0-787.0","0","0","32229","","null","","","null","87","","NaN","","","","","","","","","","","","","",""
"","response","","html-keyboard-response","570","478536","0.0-1.0-788.0-0.0","0","0","32229","","188","","","68","87","","","2","87","training","adjacent","CD","3","4","M.jpg","R.jpg","0","1","0","",""
"","feedback","","html-keyboard-response","571","479538","0.0-1.0-789.0-0.0","0","0","32229","","null","","","null","87","","","","","","","","","","","","","","","",""
"","time_out","","html-keyboard-response","572","481540","0.0-1.0-791.0-0.0","0","0","32229","","null","","","null","87","","","","","","","","","","","","","","","",""
"","ITI","","html-keyboard-response","573","482543","0.0-1.0-792.0","0","0","32229","","null","","","null","87","","","","","","","","","","","","","","","NaN",""
"","S1","","html-keyboard-response","574","482795","0.0-1.0-794.0","0","0","32229","","null","","","null","88","","","","","","","","","","","","","","","",""
"","ISI","","html-keyboard-response","575","483798","0.0-1.0-795.0","0","0","32229","","null","","","null","88","NaN","","","","","","","","","","","","","","",""
"","S2","","html-keyboard-response","576","484050","0.0-1.0-796.0","0","0","32229","","null","","","null","88","","NaN","","","","","","","","","","","","","",""
"","response","","html-keyboard-response","577","484074","0.0-1.0-797.0-0.0","0","0","32229","","23","","","75","88","","","2","88","training","adjacent","BC","2","3","N.jpg","M.jpg","1","1","1","",""
"","feedback","","html-keyboard-response","578","485076","0.0-1.0-798.0-0.0","0","0","32229","","null","","","null","88","","","","","","","","","","","","","","","",""
"","ITI","","html-keyboard-response","579","486078","0.0-1.0-801.0","0","0","32229","","null","","","null","88","","","","","","","","","","","","","","","NaN",""
"","S1","","html-keyboard-response","580","486331","0.0-1.0-803.0","0","0","32229","","null","","","null","89","","","","","","","","","","","","","","","",""
"","ISI","","html-keyboard-response","581","487335","0.0-1.0-804.0","0","0","32229","","null","","","null","89","NaN","","","","","","","","","","","","","","",""
"","S2","","html-keyboard-response","582","487588","0.0-1.0-805.0","0","0","32229","","null","","","null","89","","NaN","","","","","","","","","","","","","",""
"","response","","html-keyboard-response","583","487716","0.0-1.0-806.0-0.0","0","0","32229","","127","","","75","89","","","2","89","training","adjacent","GF","7","6","O.jpg","L.jpg","1","0","0","",""
