"success","ttype","start_time","trial_type","trial_index","time_elapsed","internal_node_id","warning","missed_checkup","PID","view_history","rt","responses","repeat_instructions","key_press","index","keypress_isi","keypress_S2","block","trial_num","phase","group_type","pair_type","S1_stim","S2_stim","S1_img","S2_img","S1_chosen","S1_higher","accuracy","keypress_iti","total_bonus_tally"
"true","full_screen","d03072023hr2004","fullscreen","0","10884","0.0-0.0","0","0","39269","","","","","","","","","","","","","","","","","","","","","",""
"","instructions","","instructions","1","53301","0.0-1.0-0.0-0.0","0","0","39269","[{""page_index"":0,""viewing_time"":4553},{""page_index"":1,""viewing_time"":26869},{""page_index"":2,""viewing_time"":9267},{""page_index"":3,""viewing_time"":1722}]","42412","","","","","","","","","","","","","","","","","","","",""
"","comprehension_check","","survey-multi-choice","2","71825","0.0-1.0-0.0-1.0","0","0","39269","","18512","{""Q0"":""True"",""Q1"":""K"",""Q2"":""Once the second image appears and while the screen 'MAKE A CHOICE' is shown"",""Q3"":""Green mark"",""Q4"":""either D or K""}","0","","","","","","","","","","","","","","","","","",""
"","start_exp","","html-keyboard-response","3","74094","0.0-1.0-1.0","0","0","39269","","2259","","","32","","","","","","","","","","","","","","","","",""
"","S1","","html-keyboard-response","4","74357","0.0-1.0-2.0","0","0","39269","","null","","","null","0","","","","","","","","","","","","","","","",""
"","ISI","","html-keyboard-response","5","75366","0.0-1.0-3.0","0","0","39269","","null","","","null","0","NaN","","","","","","","","","","","","","","",""
"","S2","","html-keyboard-response","6","75628","0.0-1.0-4.0","0","0","39269","","null","","","null","0","","NaN","","","","","","","","","","","","","",""
"","response","","html-keyboard-response","7","76219","0.0-1.0-5.0-0.0","0","0","39269","","585","","","75","0","","","1","0","training","adjacent","GF","7","6","P.jpg","R.jpg","1","0","0","",""
"","feedback","","html-keyboard-response","8","77228","0.0-1.0-6.0-0.0","0","0","39269","","null","","","null","0","","","","","","","","","","","","","","","",""
"","time_out","","html-keyboard-response","9","79238","0.0-1.0-8.0-0.0","0","0","39269","","null","","","null","0","","","","","","","","","","","","","","","",""
"","ITI","","html-keyboard-response","10","80244","0.0-1.0-9.0","0","0","39269","","null","","","null","0","","","","","","","","","","","","","","","NaN",""
"","S1","","html-keyboard-response","11","80500","0.0-1.0-11.0","0","0","39269","","null","","","null","1","","","","","","","","","","","","","","","",""
"","ISI","","html-keyboard-response","12","81509","0.0-1.0-12.0","0","0","39269","","null","","","null","1","NaN","","","","","","","","","","","","","","",""
"","S2","","html-keyboard-response","13","81766","0.0-1.0-13.0","0","0","39269","","null","","","null","1","","NaN","","","","","","","","","","","","","",""
"","response","","html-keyboard-response","14","82488","0.0-1.0-14.0-0.0","0","0","39269","","717","","","68","1","","","1","1","training","adjacent","GF","7","6","P.jpg","R.jpg","0","0","1","",""
"","feedback","","html-keyboard-response","15","83501","0.0-1.0-15.0-0.0","0","0","39269","","null","","","null","1","","","","","","","","","","","","","","","",""
"","ITI","","html-keyboard-response","16","84509","0.0-1.0-18.0","0","0","39269","","null","","","null","1","","","","","","","","","","","","","","","NaN",""
"","S1","","html-keyboard-response","17","84764","0.0-1.0-20.0","0","0","39269","","null","","","null","2","","","","","","","","","","","","","","","",""
"","ISI","","html-keyboard-response","18","85773","0.0-1.0-21.0","0","0","39269","","null","","","null","2","NaN","","","","","","","","","","","","","","",""
"","S2","","html-keyboard-response","19","86029","0.0-1.0-22.0","0","0","39269","","null","","","null","2","","NaN","","","","","","","","","","","","","",""
"","response","","html-keyboard-response","20","86715","0.0-1.0-23.0-0.0","0","0","39269","","681","","","68","2","","","1","2","training","adjacent","DE","4","5","M.jpg","O.jpg","0","1","0","",""
"","feedback","","html-keyboard-response","21","87724","0.0-1.0-24.0-0.0","0","0","39269","","null","","","null","2","","","","","","","","","","","","","","","",""
"","time_out","","html-keyboard-response","22","89733","0.0-1.0-26.0-0.0","0","0","39269","","null","","","null","2","","","","","","","","","","","","","","","",""
"","ITI","","html-keyboard-response","23","90741","0.0-1.0-27.0","0","0","39269","","null","","","null","2","","","","","","","","","","","","","","","NaN",""
"","S1","","html-keyboard-response","24","91007","0.0-1.0-29.0","0","0","39269","","null","","","null","3","","","","","","","","","","","","","","","",""
"","ISI","","html-keyboard-response","25","92021","0.0-1.0-30.0","0","0","39269","","null","","","null","3","NaN","","","","","","","","","","","","","","",""
"","S2","","html-keyboard-response","26","92288","0.0-1.0-31.0","0","0","39269","","null","","","null","3","","NaN","","","","","","","","","","","","","",""
"","response","","html-keyboard-response","27","93069","0.0-1.0-32.0-0.0","0","0","39269","","774","","","75","3","","","1","3","training","adjacent","BA","2","1","L.jpg","N.jpg","1","0","0","",""
"","feedback","","html-keyboard-response","28","94076","0.0-1.0-33.0-0.0","0","0","39269","","null","","","null","3","","","","","","","","","","","","","","","",""
"","time_out","","html-keyboard-response","29","96088","0.0-1.0-35.0-0.0","0","0","39269","","null","","","null","3","","","","","","","","","","","","","","","",""
"","ITI","","html-keyboard-response","30","97101","0.0-1.0-36.0","0","0","39269","","null","","","null","3","","","","","","","","","","","","","","","NaN",""
"","S1","","html-keyboard-response","31","97356","0.0-1.0-38.0","0","0","39269","","null","","","null","4","","","","","","","","","","","","","","","",""
"","ISI","","html-keyboard-response","32","98364","0.0-1.0-39.0","0","0","39269","","null","","","null","4","NaN","","","","","","","","","","","","","","",""
"","S2","","html-keyboard-response","33","98620","0.0-1.0-40.0","0","0","39269","","null","","","null","4","","NaN","","","","","","","","","","","","","",""
"","response","","html-keyboard-response","34","99277","0.0-1.0-41.0-0.0","0","0","39269","","652","","","75","4","","","1","4","training","adjacent","GF","7","6","P.jpg","R.jpg","1","0","0","",""
"","feedback","","html-keyboard-response","35","100285","0.0-1.0-42.0-0.0","0","0","39269","","null","","","null","4","","","","","","","","","","","","","","","",""
"","time_out","","html-keyboard-response","36","102301","0.0-1.0-44.0-0.0","0","0","39269","","null","","","null","4","","","","","","","","","","","","","","","",""
"","ITI","","html-keyboard-response","37","103309","0.0-1.0-45.0","0","0","39269","","null","","","null","4","","","","","","","","","","","","","","","NaN",""
"","S1","","html-keyboard-response","38","103564","0.0-1.0-47.0","0","0","39269","","null","","","null","5","","","","","","","","","","","","","","","",""
"","ISI","","html-keyboard-response","39","104572","0.0-1.0-48.0","0","0","39269","","null","","","null","5","NaN","","","","","","","","","","","","","","",""
"","S2","","html-keyboard-response","40","104828","0.0-1.0-49.0","0","0","39269","","null","","","null","5","","NaN","","","","","","","","","","","","","",""
"","response","","html-keyboard-response","41","105471","0.0-1.0-50.0-0.0","0","0","39269","","638","","","68","5","","","1","5","training","adjacent","EF","5","6","O.jpg","R.jpg","0","1","0","",""
"","feedback","","html-keyboard-response","42","106476","0.0-1.0-51.0-0.0","0","0","39269","","null","","","null","5","","","","","","","","","","","","","","","",""
"","time_out","","html-keyboard-response","43","108485","0.0-1.0-53.0-0.0","0","0","39269","","null","","","null","5","","","","","","","","","","","","","","","",""
"","ITI","","html-keyboard-response","44","109493","0.0-1.0-54.0","0","0","39269","","null","","","null","5","","","","","","","","","","","","","","","NaN",""
"","S1","","html-keyboard-response","45","109748","0.0-1.0-56.0","0","0","39269","","null","","","null","6","","","","","","","","","","","","","","","",""
"","ISI","","html-keyboard-response","46","110756","0.0-1.0-57.0","0","0","39269","","null","","","null","6","NaN","","","","","","","","","","","","","","",""
"","S2","","html-keyboard-response","47","111012","0.0-1.0-58.0","0","0","39269","","null","","","null","6","","NaN","","","","","","","","","","","","","",""
"","response","","html-keyboard-response","48","111697","0.0-1.0-59.0-0.0","0","0","39269","","680","","","75","6","","","1","6","training","adjacent","FE","6","5","R.jpg","O.jpg","1","0","0","",""
"","feedback","","html-keyboard-response","49","112708","0.0-1.0-60.0-0.0","0","0","39269","","null","","","null","6","","","","","","","","","","","","","","","",""
"","time_out","","html-keyboard-response","50","114716","0.0-1.0-62.0-0.0","0","0","39269","","null","","","null","6","","","","","","","","","","","","","","","",""
"","ITI","","html-keyboard-response","51","115725","0.0-1.0-63.0","0","0","39269","","null","","","null","6","","","","","","","","","","","","","","","NaN",""
"","S1","","html-keyboard-response","52","115988","0.0-1.0-65.0","0","0","39269","","null","","","null","7","","","","","","","","","","","","","","","",""
"","ISI","","html-keyboard-response","53","116996","0.0-1.0-66.0","0","0","39269","","null","","","null","7","NaN","","","","","","","","","","","","","","",""
"","S2","","html-keyboard-response","54","117252","0.0-1.0-67.0","0","0","39269","","null","","","null","7","","NaN","","","","","","","","","","","","","",""
"","response","","html-keyboard-response","55","117917","0.0-1.0-68.0-0.0","0","0","39269","","658","","","68","7","","","1","7","training","adjacent","CD","3","4","Q.jpg","M.jpg","0","1","0","",""
"","feedback","","html-keyboard-response","56","118925","0.0-1.0-69.0-0.0","0","0","39269","","null","","","null","7","","","","","","","","","","","","","","","",""
"","time_out","","html-keyboard-response","57","120933","0.0-1.0-71.0-0.0","0","0","39269","","null","","","null","7","","","","","","","","","","","","","","","",""
"","ITI","","html-keyboard-response","58","121940","0.0-1.0-72.0","0","0","39269","","null","","","null","7","","","","","","","","","","","","","","","NaN",""
"","S1","","html-keyboard-response","59","122198","0.0-1.0-74.0","0","0","39269","","null","","","null","8","","","","","","","","","","","","","","","",""
"","ISI","","html-keyboard-response","60","123204","0.0-1.0-75.0","0","0","39269","","null","","","null","8","NaN","","","","","","","","","","","","","","",""
"","S2","","html-keyboard-response","61","123460","0.0-1.0-76.0","0","0","39269","","null","","","null","8","","NaN","","","","","","","","","","","","","",""
"","response","","html-keyboard-response","62","124245","0.0-1.0-77.0-0.0","0","0","39269","","781","","","75","8","","","1","8","training","adjacent","GF","7","6","P.jpg","R.jpg","1","0","0","",""
"","feedback","","html-keyboard-response","63","125253","0.0-1.0-78.0-0.0","0","0","39269","","null","","","null","8","","","","","","","","","","","","","","","",""
"","time_out","","html-keyboard-response","64","127261","0.0-1.0-80.0-0.0","0","0","39269","","null","","","null","8","","","","","","","","","","","","","","","",""
"","ITI","","html-keyboard-response","65","128268","0.0-1.0-81.0","0","0","39269","","null","","","null","8","","","","","","","","","","","","","","","NaN",""
"","S1","","html-keyboard-response","66","128524","0.0-1.0-83.0","0","0","39269","","null","","","null","9","","","","","","","","","","","","","","","",""
"","ISI","","html-keyboard-response","67","129532","0.0-1.0-84.0","0","0","39269","","null","","","null","9","NaN","","","","","","","","","","","","","","",""
"","S2","","html-keyboard-response","68","129788","0.0-1.0-85.0","0","0","39269","","null","","","null","9","","NaN","","","","","","","","","","","","","",""
"","response","","html-keyboard-response","69","130236","0.0-1.0-86.0-0.0","0","0","39269","","441","","","75","9","","","1","9","training","adjacent","FG","6","7","R.jpg","P.jpg","1","1","1","",""
"","feedback","","html-keyboard-response","70","131245","0.0-1.0-87.0-0.0","0","0","39269","","null","","","null","9","","","","","","","","","","","","","","","",""
"","ITI","","html-keyboard-response","71","132252","0.0-1.0-90.0","0","0","39269","","null","","","null","9","","","","","","","","","","","","","","","NaN",""
"","S1","","html-keyboard-response","72","132509","0.0-1.0-92.0","0","0","39269","","null","","","null","10","","","","","","","","","","","","","","","",""
"","ISI","","html-keyboard-response","73","133516","0.0-1.0-93.0","0","0","39269","","null","","","null","10","NaN","","","","","","","","","","","","","","",""
"","S2","","html-keyboard-response","74","133772","0.0-1.0-94.0","0","0","39269","","null","","","null","10","","NaN","","","","","","","","","","","","","",""
"","response","","html-keyboard-response","75","134292","0.0-1.0-95.0-0.0","0","0","39269","","514","","","75","10","","","1","10","training","adjacent","FG","6","7","R.jpg","P.jpg","1","1","1","",""
"","feedback","","html-keyboard-response","76","135301","0.0-1.0-96.0-0.0","0","0","39269","","null","","","null","10","","","","","","","","","","","","","","","",""
"","ITI","","html-keyboard-response","77","136308","0.0-1.0-99.0","0","0","39269","","null","","","null","10","","","","","","","","","","","","","","","NaN",""
"","S1","","html-keyboard-response","78","136564","0.0-1.0-101.0","0","0","39269","","null","","","null","11","","","","","","","","","","","","","","","",""
"","ISI","","html-keyboard-response","79","137572","0.0-1.0-102.0","0","0","39269","","null","","","null","11","NaN","","","","","","","","","","","","","","",""
"","S2","","html-keyboard-response","80","137829","0.0-1.0-103.0","0","0","39269","","null","","","null","11","","NaN","","","","","","","","","","","","","",""
"","response","","html-keyboard-response","81","138140","0.0-1.0-104.0-0.0","0","0","39269","","306","","","68","11","","","1","11","training","adjacent","BA","2","1","L.jpg","N.jpg","0","0","1","",""
"","feedback","","html-keyboard-response","82","139150","0.0-1.0-105.0-0.0","0","0","39269","","null","","","null","11","","","","","","","","","","","","","","","",""
"","ITI","","html-keyboard-response","83","140157","0.0-1.0-108.0","0","0","39269","","null","","","null","11","","","","","","","","","","","","","","","NaN",""
"","S1","","html-keyboard-response","84","140412","0.0-1.0-110.0","0","0","39269","","null","","","null","12","","","","","","","","","","","","","","","",""
"","ISI","","html-keyboard-response","85","141422","0.0-1.0-111.0","0","0","39269","","null","","","null","12","NaN","","","","","","","","","","","","","","",""
"","S2","","html-keyboard-response","86","141685","0.0-1.0-112.0","0","0","39269","","null","","","null","12","","NaN","","","","","","","","","","","","","",""
"","response","","html-keyboard-response","87","142161","0.0-1.0-113.0-0.0","0","0","39269","","472","","","75","12","","","1","12","training","adjacent","AB","1","2","N.jpg","L.jpg","1","1","1","",""
"","feedback","","html-keyboard-response","88","143172","0.0-1.0-114.0-0.0","0","0","39269","","null","","","null","12","","","","","","","","","","","","","","","",""
"","ITI","","html-keyboard-response","89","144181","0.0-1.0-117.0","0","0","39269","","null","","","null","12","","","","","","","","","","","","","","","NaN",""
"","S1","","html-keyboard-response","90","144437","0.0-1.0-119.0","0","0","39269","","null","","","null","13","","","","","","","","","","","","","","","",""
"","ISI","","html-keyboard-response","91","145444","0.0-1.0-120.0","0","0","39269","","null","","","null","13","NaN","","","","","","","","","","","","","","",""
"","S2","","html-keyboard-response","92","145700","0.0-1.0-121.0","0","0","39269","","null","","","null","13","","NaN","","","","","","","","","","","","","",""
"","response","","html-keyboard-response","93","146250","0.0-1.0-122.0-0.0","0","0","39269","","545","","","68","13","","","1","13","training","adjacent","BC","2","3","L.jpg","Q.jpg","0","1","0","",""
"","feedback","","html-keyboard-response","94","147261","0.0-1.0-123.0-0.0","0","0","39269","","null","","","null","13","","","","","","","","","","","","","","","",""
"","time_out","","html-keyboard-response","95","149268","0.0-1.0-125.0-0.0","0","0","39269","","null","","","null","13","","","","","","","","","","","","","","","",""
"","ITI","","html-keyboard-response","96","150276","0.0-1.0-126.0","0","0","39269","","null","","","null","13","","","","","","","","","","","","","","","NaN",""
"","S1","","html-keyboard-response","97","150532","0.0-1.0-128.0","0","0","39269","","null","","","null","14","","","","","","","","","","","","","","","",""
"","ISI","","html-keyboard-response","98","151540","0.0-1.0-129.0","0","0","39269","","null","","","null","14","NaN","","","","","","","","","","","","","","",""
"","S2","","html-keyboard-response","99","151797","0.0-1.0-130.0","0","0","39269","","null","","","null","14","","NaN","","","","","","","","","","","","","",""
"","response","","html-keyboard-response","100","152419","0.0-1.0-131.0-0.0","0","0","39269","","617","","","68","14","","","1","14","training","adjacent","CD","3","4","Q.jpg","M.jpg","0","1","0","",""
"","feedback","","html-keyboard-response","101","153428","0.0-1.0-132.0-0.0","0","0","39269","","null","","","null","14","","","","","","","","","","","","","","","",""
"","time_out","","html-keyboard-response","102","155436","0.0-1.0-134.0-0.0","0","0","39269","","null","","","null","14","","","","","","","","","","","","","","","",""
"","ITI","","html-keyboard-response","103","156447","0.0-1.0-135.0","0","0","39269","","null","","","null","14","","","","","","","","","","","","","","","NaN",""
"","S1","","html-keyboard-response","104","156709","0.0-1.0-137.0","0","0","39269","","null","","","null","15","","","","","","","","","","","","","","","",""
"","ISI","","html-keyboard-response","105","157716","0.0-1.0-138.0","0","0","39269","","null","","","null","15","NaN","","","","","","","","","","","","","","",""
"","S2","","html-keyboard-response","106","157972","0.0-1.0-139.0","0","0","39269","","null","","","null","15","","NaN","","","","","","","","","","","","","",""
"","response","","html-keyboard-response","107","158336","0.0-1.0-140.0-0.0","0","0","39269","","359","","","75","15","","","1","15","training","adjacent","DC","4","3","M.jpg","Q.jpg","1","0","0","",""
"","feedback","","html-keyboard-response","108","159350","0.0-1.0-141.0-0.0","0","0","39269","","null","","","null","15","","","","","","","","","","","","","","","",""
"","time_out","","html-keyboard-response","109","161357","0.0-1.0-143.0-0.0","0","0","39269","","null","","","null","15","","","","","","","","","","","","","","","",""
"","ITI","","html-keyboard-response","110","162364","0.0-1.0-144.0","0","0","39269","","null","","","null","15","","","","","","","","","","","","","","","NaN",""
"","S1","","html-keyboard-response","111","162621","0.0-1.0-146.0","0","0","39269","","null","","","null","16","","","","","","","","","","","","","","","",""
"","ISI","","html-keyboard-response","112","163629","0.0-1.0-147.0","0","0","39269","","null","","","null","16","NaN","","","","","","","","","","","","","","",""
"","S2","","html-keyboard-response","113","163885","0.0-1.0-148.0","0","0","39269","","null","","","null","16","","NaN","","","","","","","","","","","","","",""
"","response","","html-keyboard-response","114","164022","0.0-1.0-149.0-0.0","0","0","39269","","133","","","75","16","","","1","16","training","adjacent","ED","5","4","O.jpg","M.jpg","1","0","0","",""
"","feedback","","html-keyboard-response","115","165029","0.0-1.0-150.0-0.0","0","0","39269","","null","","","null","16","","","","","","","","","","","","","","","",""
"","time_out","","html-keyboard-response","116","167037","0.0-1.0-152.0-0.0","0","0","39269","","null","","","null","16","","","","","","","","","","","","","","","",""
"","ITI","","html-keyboard-response","117","168044","0.0-1.0-153.0","0","0","39269","","null","","","null","16","","","","","","","","","","","","","","","NaN",""
"","S1","","html-keyboard-response","118","168301","0.0-1.0-155.0","0","0","39269","","null","","","null","17","","","","","","","","","","","","","","","",""
"","ISI","","html-keyboard-response","119","169308","0.0-1.0-156.0","0","0","39269","","null","","","null","17","NaN","","","","","","","","","","","","","","",""
"","S2","","html-keyboard-response","120","169564","0.0-1.0-157.0","0","0","39269","","null","","","null","17","","NaN","","","","","","","","","","","","","",""
"","response","","html-keyboard-response","121","169815","0.0-1.0-158.0-0.0","0","0","39269","","246","","","68","17","","","1","17","training","adjacent","BC","2","3","L.jpg","Q.jpg","0","1","0","",""
"","feedback","","html-keyboard-response","122","170829","0.0-1.0-159.0-0.0","0","0","39269","","null","","","null","17","","","","","","","","","","","","","","","",""
"","time_out","","html-keyboard-response","123","172839","0.0-1.0-161.0-0.0","0","0","39269","","null","","","null","17","","","","","","","","","","","","","","","",""
"","ITI","","html-keyboard-response","124","173845","0.0-1.0-162.0","0","0","39269","","null","","","null","17","","","","","","","","","","","","","","","NaN",""
"","S1","","html-keyboard-response","125","174100","0.0-1.0-164.0","0","0","39269","","null","","","null","18","","","","","","","","","","","","","","","",""
"","ISI","","html-keyboard-response","126","175109","0.0-1.0-165.0","0","0","39269","","null","","","null","18","NaN","","","","","","","","","","","","","","",""
"","S2","","html-keyboard-response","127","175364","0.0-1.0-166.0","0","0","39269","","null","","","null","18","","NaN","","","","","","","","","","","","","",""
"","response","","html-keyboard-response","128","175812","0.0-1.0-167.0-0.0","0","0","39269","","443","","","75","18","","","1","18","training","adjacent","FE","6","5","R.jpg","O.jpg","1","0","0","",""
"","feedback","","html-keyboard-response","129","176820","0.0-1.0-168.0-0.0","0","0","39269","","null","","","null","18","","","","","","","","","","","","","","","",""
"","time_out","","html-keyboard-response","130","178829","0.0-1.0-170.0-0.0","0","0","39269","","null","","","null","18","","","","","","","","","","","","","","","",""
"","ITI","","html-keyboard-response","131","179838","0.0-1.0-171.0","0","0","39269","","null","","","null","18","","","","","","","","","","","","","","","NaN",""
"","S1","","html-keyboard-response","132","180101","0.0-1.0-173.0","0","0","39269","","null","","","null","19","","","","","","","","","","","","","","","",""
"","ISI","","html-keyboard-response","133","181108","0.0-1.0-174.0","0","0","39269","","null","","","null","19","NaN","","","","","","","","","","","","","","",""
"","S2","","html-keyboard-response","134","181364","0.0-1.0-175.0","0","0","39269","","null","","","null","19","","NaN","","","","","","","","","","","","","",""
"","response","","html-keyboard-response","135","181560","0.0-1.0-176.0-0.0","0","0","39269","","191","","","68","19","","","1","19","training","adjacent","BC","2","3","L.jpg","Q.jpg","0","1","0","",""
"","feedback","","html-keyboard-response","136","182574","0.0-1.0-177.0-0.0","0","0","39269","","null","","","null","19","","","","","","","","","","","","","","","",""
"","time_out","","html-keyboard-response","137","184581","0.0-1.0-179.0-0.0","0","0","39269","","null","","","null","19","","","","","","","","","","","","","","","",""
"","ITI","","html-keyboard-response","138","185589","0.0-1.0-180.0","0","0","39269","","null","","","null","19","","","","","","","","","","","","","","","NaN",""
"","S1","","html-keyboard-response","139","185846","0.0-1.0-182.0","0","0","39269","","null","","","null","20","","","","","","","","","","","","","","","",""
"","ISI","","html-keyboard-response","140","186855","0.0-1.0-183.0","0","0","39269","","null","","","null","20","NaN","","","","","","","","","","","","","","",""
"","S2","","html-keyboard-response","141","187116","0.0-1.0-184.0","0","0","39269","","null","","","null","20","","NaN","","","","","","","","","","","","","",""
"","response","","html-keyboard-response","142","187706","0.0-1.0-185.0-0.0","0","0","39269","","585","","","75","20","","","1","20","training","adjacent","AB","1","2","N.jpg","L.jpg","1","1","1","",""
"","feedback","","html-keyboard-response","143","188719","0.0-1.0-186.0-0.0","0","0","39269","","null","","","null","20","","","","","","","","","","","","","","","",""
"","ITI","","html-keyboard-response","144","189724","0.0-1.0-189.0","0","0","39269","","null","","","null","20","","","","","","","","","","","","","","","NaN",""
"","S1","","html-keyboard-response","145","189980","0.0-1.0-191.0","0","0","39269","","null","","","null","21","","","","","","","","","","","","","","","",""
"","ISI","","html-keyboard-response","146","190989","0.0-1.0-192.0","0","0","39269","","null","","","null","21","NaN","","","","","","","","","","","","","","",""
"","S2","","html-keyboard-response","147","191244","0.0-1.0-193.0","0","0","39269","","null","","","null","21","","NaN","","","","","","","","","","","","","",""
"","response","","html-keyboard-response","148","191555","0.0-1.0-194.0-0.0","0","0","39269","","306","","","68","21","","","1","21","training","adjacent","BA","2","1","L.jpg","N.jpg","0","0","1","",""
"","feedback","","html-keyboard-response","149","192564","0.0-1.0-195.0-0.0","0","0","39269","","null","","","null","21","","","","","","","","","","","","","","","",""
"","ITI","","html-keyboard-response","150","193573","0.0-1.0-198.0","0","0","39269","","null","","","null","21","","","","","","","","","","","","","","","NaN",""
"","S1","","html-keyboard-response","151","193829","0.0-1.0-200.0","0","0","39269","","null","","","null","22","","","","","","","","","","","","","","","",""
"","ISI","","html-keyboard-response","152","194842","0.0-1.0-201.0","0","0","39269","","null","","","null","22","NaN","","","","","","","","","","","","","","",""
"","S2","","html-keyboard-response","153","195100","0.0-1.0-202.0","0","0","39269","","null","","","null","22","","NaN","","","","","","","","","","","","","",""
"","response","","html-keyboard-response","154","195783","0.0-1.0-203.0-0.0","0","0","39269","","678","","","75","22","","","1","22","training","adjacent","CB","3","2","Q.jpg","L.jpg","1","0","0","",""
"","feedback","","html-keyboard-response","155","196798","0.0-1.0-204.0-0.0","0","0","39269","","null","","","null","22","","","","","","","","","","","","","","","",""
"","time_out","","html-keyboard-response","156","198804","0.0-1.0-206.0-0.0","0","0","39269","","null","","","null","22","","","","","","","","","","","","","","","",""
"","ITI","","html-keyboard-response","157","199813","0.0-1.0-207.0","0","0","39269","","null","","","null","22","","","","","","","","","","","","","","","NaN",""
"","S1","","html-keyboard-response","158","200068","0.0-1.0-209.0","0","0","39269","","null","","","null","23","","","","","","","","","","","","","","","",""
"","ISI","","html-keyboard-response","159","201076","0.0-1.0-210.0","0","0","39269","","null","","","null","23","NaN","","","","","","","","","","","","","","",""
"","S2","","html-keyboard-response","160","201332","0.0-1.0-211.0","0","0","39269","","null","","","null","23","","NaN","","","","","","","","","","","","","",""
"","response","","html-keyboard-response","161","201948","0.0-1.0-212.0-0.0","0","0","39269","","611","","","68","23","","","1","23","training","adjacent","FE","6","5","R.jpg","O.jpg","0","0","1","",""
"","feedback","","html-keyboard-response","162","202957","0.0-1.0-213.0-0.0","0","0","39269","","null","","","null","23","","","","","","","","","","","","","","","",""
"","ITI","","html-keyboard-response","163","203965","0.0-1.0-216.0","0","0","39269","","null","","","null","23","","","","","","","","","","","","","","","NaN",""
"","S1","","html-keyboard-response","164","204221","0.0-1.0-218.0","0","0","39269","","null","","","null","24","","","","","","","","","","","","","","","",""
"","ISI","","html-keyboard-response","165","205229","0.0-1.0-219.0","0","0","39269","","null","","","null","24","NaN","","","","","","","","","","","","","","",""
"","S2","","html-keyboard-response","166","205484","0.0-1.0-220.0","0","0","39269","","null","","","null","24","","NaN","","","","","","","","","","","","","",""
"","response","","html-keyboard-response","167","205816","0.0-1.0-221.0-0.0","0","0","39269","","328","","","68","24","","","1","24","training","adjacent","DE","4","5","M.jpg","O.jpg","0","1","0","",""
"","feedback","","html-keyboard-response","168","206829","0.0-1.0-222.0-0.0","0","0","39269","","null","","","null","24","","","","","","","","","","","","","","","",""
"","time_out","","html-keyboard-response","169","208837","0.0-1.0-224.0-0.0","0","0","39269","","null","","","null","24","","","","","","","","","","","","","","","",""
"","ITI","","html-keyboard-response","170","209844","0.0-1.0-225.0","0","0","39269","","null","","","null","24","","","","","","","","","","","","","","","NaN",""
"","S1","","html-keyboard-response","171","210100","0.0-1.0-227.0","0","0","39269","","null","","","null","25","","","","","","","","","","","","","","","",""
"","ISI","","html-keyboard-response","172","211109","0.0-1.0-228.0","0","0","39269","","null","","","null","25","NaN","","","","","","","","","","","","","","",""
"","S2","","html-keyboard-response","173","211364","0.0-1.0-229.0","0","0","39269","","null","","","null","25","","NaN","","","","","","","","","","","","","",""
"","response","","html-keyboard-response","174","211650","0.0-1.0-230.0-0.0","0","0","39269","","281","","","75","25","","","1","25","training","adjacent","DC","4","3","M.jpg","Q.jpg","1","0","0","",""
"","feedback","","html-keyboard-response","175","212661","0.0-1.0-231.0-0.0","0","0","39269","","null","","","null","25","","","","","","","","","","","","","","","",""
"","time_out","","html-keyboard-response","176","214668","0.0-1.0-233.0-0.0","0","0","39269","","null","","","null","25","","","","","","","","","","","","","","","",""
"","ITI","","html-keyboard-response","177","215676","0.0-1.0-234.0","0","0","39269","","null","","","null","25","","","","","","","","","","","","","","","NaN",""
"","S1","","html-keyboard-response","178","215932","0.0-1.0-236.0","0","0","39269","","null","","","null","26","","","","","","","","","","","","","","","",""
"","ISI","","html-keyboard-response","179","216940","0.0-1.0-237.0","0","0","39269","","null","","","null","26","NaN","","","","","","","","","","","","","","",""
"","S2","","html-keyboard-response","180","217196","0.0-1.0-238.0","0","0","39269","","null","","","null","26","","NaN","","","","","","","","","","","","","",""
"","response","","html-keyboard-response","181","217515","0.0-1.0-239.0-0.0","0","0","39269","","313","","","75","26","","","1","26","training","adjacent","AB","1","2","N.jpg","L.jpg","1","1","1","",""
"","feedback","","html-keyboard-response","182","218525","0.0-1.0-240.0-0.0","0","0","39269","","null","","","null","26","","","","","","","","","","","","","","","",""
"","ITI","","html-keyboard-response","183","219533","0.0-1.0-243.0","0","0","39269","","null","","","null","26","","","","","","","","","","","","","","","NaN",""
"","S1","","html-keyboard-response","184","219788","0.0-1.0-245.0","0","0","39269","","null","","","null","27","","","","","","","","","","","","","","","",""
"","ISI","","html-keyboard-response","185","220798","0.0-1.0-246.0","0","0","39269","","null","","","null","27","NaN","","","","","","","","","","","","","","",""
"","S2","","html-keyboard-response","186","221061","0.0-1.0-247.0","0","0","39269","","null","","","null","27","","NaN","","","","","","","","","","","","","",""
"","response","","html-keyboard-response","187","221331","0.0-1.0-248.0-0.0","0","0","39269","","264","","","75","27","","","1","27","training","adjacent","CB","3","2","Q.jpg","L.jpg","1","0","0","",""
"","feedback","","html-keyboard-response","188","222340","0.0-1.0-249.0-0.0","0","0","39269","","null","","","null","27","","","","","","","","","","","","","","","",""
"","time_out","","html-keyboard-response","189","224348","0.0-1.0-251.0-0.0","0","0","39269","","null","","","null","27","","","","","","","","","","","","","","","",""
"","ITI","","html-keyboard-response","190","225357","0.0-1.0-252.0","0","0","39269","","null","","","null","27","","","","","","","","","","","","","","","NaN",""
"","S1","","html-keyboard-response","191","225612","0.0-1.0-254.0","0","0","39269","","null","","","null","28","","","","","","","","","","","","","","","",""
"","ISI","","html-keyboard-response","192","226621","0.0-1.0-255.0","0","0","39269","","null","","","null","28","NaN","","","","","","","","","","","","","","",""
"","S2","","html-keyboard-response","193","226884","0.0-1.0-256.0","0","0","39269","","null","","","null","28","","NaN","","","","","","","","","","","","","",""
"","response","","html-keyboard-response","194","226908","0.0-1.0-257.0-0.0","0","0","39269","","18","","","75","28","","","1","28","training","adjacent","ED","5","4","O.jpg","M.jpg","1","0","0","",""
"","feedback","","html-keyboard-response","195","227920","0.0-1.0-258.0-0.0","0","0","39269","","null","","","null","28","","","","","","","","","","","","","","","",""
"","time_out","","html-keyboard-response","196","229932","0.0-1.0-260.0-0.0","0","0","39269","","null","","","null","28","","","","","","","","","","","","","","","",""
"","ITI","","html-keyboard-response","197","230940","0.0-1.0-261.0","0","0","39269","","null","","","null","28","","","","","","","","","","","","","","","NaN",""
"","S1","","html-keyboard-response","198","231197","0.0-1.0-263.0","0","0","39269","","null","","","null","29","","","","","","","","","","","","","","","",""
"","ISI","","html-keyboard-response","199","232205","0.0-1.0-264.0","0","0","39269","","null","","","null","29","NaN","","","","","","","","","","","","","","",""
"","S2","","html-keyboard-response","200","232468","0.0-1.0-265.0","0","0","39269","","null","","","null","29","","NaN","","","","","","","","","","","","","",""
"","response","","html-keyboard-response","201","232999","0.0-1.0-266.0-0.0","0","0","39269","","527","","","75","29","","","1","29","training","adjacent","EF","5","6","O.jpg","R.jpg","1","1","1","",""
"","feedback","","html-keyboard-response","202","234012","0.0-1.0-267.0-0.0","0","0","39269","","null","","","null","29","","","","","","","","","","","","","","","",""
"","ITI","","html-keyboard-response","203","235020","0.0-1.0-270.0","0","0","39269","","null","","","null","29","","","","","","","","","","","","","","","NaN",""
"","S1","","html-keyboard-response","204","235277","0.0-1.0-272.0","0","0","39269","","null","","","null","30","","","","","","","","","","","","","","","",""
"","ISI","","html-keyboard-response","205","236284","0.0-1.0-273.0","0","0","39269","","null","","","null","30","NaN","","","","","","","","","","","","","","",""
"","S2","","html-keyboard-response","206","236540","0.0-1.0-274.0","0","0","39269","","null","","","null","30","","NaN","","","","","","","","","","","","","",""
"","response","","html-keyboard-response","207","237007","0.0-1.0-275.0-0.0","0","0","39269","","462","","","75","30","","","1","30","training","adjacent","DE","4","5","M.jpg","O.jpg","1","1","1","",""
"","feedback","","html-keyboard-response","208","238021","0.0-1.0-276.0-0.0","0","0","39269","","null","","","null","30","","","","","","","","","","","","","","","",""
"","ITI","","html-keyboard-response","209","239028","0.0-1.0-279.0","0","0","39269","","null","","","null","30","","","","","","","","","","","","","","","NaN",""
"","S1","","html-keyboard-response","210","239284","0.0-1.0-281.0","0","0","39269","","null","","","null","31","","","","","","","","","","","","","","","",""
"","ISI","","html-keyboard-response","211","240293","0.0-1.0-282.0","0","0","39269","","null","","","null","31","NaN","","","","","","","","","","","","","","",""
"","S2","","html-keyboard-response","212","240549","0.0-1.0-283.0","0","0","39269","","null","","","null","31","","NaN","","","","","","","","","","","","","",""
"","response","","html-keyboard-response","213","240842","0.0-1.0-284.0-0.0","0","0","39269","","289","","","75","31","","","1","31","training","adjacent","ED","5","4","O.jpg","M.jpg","1","0","0","",""
"","feedback","","html-keyboard-response","214","241852","0.0-1.0-285.0-0.0","0","0","39269","","null","","","null","31","","","","","","","","","","","","","","","",""
"","time_out","","html-keyboard-response","215","243860","0.0-1.0-287.0-0.0","0","0","39269","","null","","","null","31","","","","","","","","","","","","","","","",""
"","ITI","","html-keyboard-response","216","244868","0.0-1.0-288.0","0","0","39269","","null","","","null","31","","","","","","","","","","","","","","","NaN",""
"","S1","","html-keyboard-response","217","245124","0.0-1.0-290.0","0","0","39269","","null","","","null","32","","","","","","","","","","","","","","","",""
"","ISI","","html-keyboard-response","218","246132","0.0-1.0-291.0","0","0","39269","","null","","","null","32","NaN","","","","","","","","","","","","","","",""
"","S2","","html-keyboard-response","219","246388","0.0-1.0-292.0","0","0","39269","","null","","","null","32","","NaN","","","","","","","","","","","","","",""
"","response","","html-keyboard-response","220","246741","0.0-1.0-293.0-0.0","0","0","39269","","348","","","68","32","","","1","32","training","adjacent","CB","3","2","Q.jpg","L.jpg","0","0","1","",""
"","feedback","","html-keyboard-response","221","247748","0.0-1.0-294.0-0.0","0","0","39269","","null","","","null","32","","","","","","","","","","","","","","","",""
"","ITI","","html-keyboard-response","222","248757","0.0-1.0-297.0","0","0","39269","","null","","","null","32","","","","","","","","","","","","","","","NaN",""
"","S1","","html-keyboard-response","223","249013","0.0-1.0-299.0","0","0","39269","","null","","","null","33","","","","","","","","","","","","","","","",""
"","ISI","","html-keyboard-response","224","250021","0.0-1.0-300.0","0","0","39269","","null","","","null","33","NaN","","","","","","","","","","","","","","",""
"","S2","","html-keyboard-response","225","250278","0.0-1.0-301.0","0","0","39269","","null","","","null","33","","NaN","","","","","","","","","","","","","",""
"","response","","html-keyboard-response","226","250940","0.0-1.0-302.0-0.0","0","0","39269","","657","","","75","33","","","1","33","training","adjacent","FG","6","7","R.jpg","P.jpg","1","1","1","",""
"","feedback","","html-keyboard-response","227","251948","0.0-1.0-303.0-0.0","0","0","39269","","null","","","null","33","","","","","","","","","","","","","","","",""
"","ITI","","html-keyboard-response","228","252956","0.0-1.0-306.0","0","0","39269","","null","","","null","33","","","","","","","","","","","","","","","NaN",""
"","S1","","html-keyboard-response","229","253212","0.0-1.0-308.0","0","0","39269","","null","","","null","34","","","","","","","","","","","","","","","",""
"","ISI","","html-keyboard-response","230","254220","0.0-1.0-309.0","0","0","39269","","null","","","null","34","NaN","","","","","","","","","","","","","","",""
"","S2","","html-keyboard-response","231","254477","0.0-1.0-310.0","0","0","39269","","null","","","null","34","","NaN","","","","","","","","","","","","","",""
"","response","","html-keyboard-response","232","255095","0.0-1.0-311.0-0.0","0","0","39269","","614","","","68","34","","","1","34","training","adjacent","CB","3","2","Q.jpg","L.jpg","0","0","1","",""
"","feedback","","html-keyboard-response","233","256108","0.0-1.0-312.0-0.0","0","0","39269","","null","","","null","34","","","","","","","","","","","","","","","",""
"","ITI","","html-keyboard-response","234","257116","0.0-1.0-315.0","0","0","39269","","null","","","null","34","","","","","","","","","","","","","","","NaN",""
"","S1","","html-keyboard-response","235","257372","0.0-1.0-317.0","0","0","39269","","null","","","null","35","","","","","","","","","","","","","","","",""
"","ISI","","html-keyboard-response","236","258380","0.0-1.0-318.0","0","0","39269","","null","","","null","35","NaN","","","","","","","","","","","","","","",""
"","S2","","html-keyboard-response","237","258623","0.0-1.0-319.0","0","0","39269","","238","","","75","35","","k","1","35","training","adjacent","AB","1","2","N.jpg","L.jpg","1","1","1","",""
"","feedback","","html-keyboard-response","238","259637","0.0-1.0-321.0-0.0","0","0","39269","","null","","","null","35","","","","","","","","","","","","","","","",""
"","ITI","","html-keyboard-response","239","260645","0.0-1.0-324.0","0","0","39269","","null","","","null","35","","","","","","","","","","","","","","","NaN",""
"","S1","","html-keyboard-response","240","260900","0.0-1.0-326.0","0","0","39269","","null","","","null","36","","","","","","","","","","","","","","","",""
"","ISI","","html-keyboard-response","241","261908","0.0-1.0-327.0","0","0","39269","","null","","","null","36","NaN","","","","","","","","","","","","","","",""
"","S2","","html-keyboard-response","242","262164","0.0-1.0-328.0","0","0","39269","","null","","","null","36","","NaN","","","","","","","","","","","","","",""
"","response","","html-keyboard-response","243","262501","0.0-1.0-329.0-0.0","0","0","39269","","332","","","68","36","","","1","36","training","adjacent","ED","5","4","O.jpg","M.jpg","0","0","1","",""
"","feedback","","html-keyboard-response","244","263510","0.0-1.0-330.0-0.0","0","0","39269","","null","","","null","36","","","","","","","","","","","","","","","",""
"","ITI","","html-keyboard-response","245","264517","0.0-1.0-333.0","0","0","39269","","null","","","null","36","","","","","","","","","","","","","","","NaN",""
"","S1","","html-keyboard-response","246","264772","0.0-1.0-335.0","0","0","39269","","null","","","null","37","","","","","","","","","","","","","","","",""
"","ISI","","html-keyboard-response","247","265780","0.0-1.0-336.0","0","0","39269","","null","","","null","37","NaN","","","","","","","","","","","","","","",""
"","S2","","html-keyboard-response","248","266037","0.0-1.0-337.0","0","0","39269","","null","","","null","37","","NaN","","","","","","","","","","","","","",""
"","response","","html-keyboard-response","249","266478","0.0-1.0-338.0-0.0","0","0","39269","","436","","","75","37","","","1","37","training","adjacent","DE","4","5","M.jpg","O.jpg","1","1","1","",""
"","feedback","","html-keyboard-response","250","267485","0.0-1.0-339.0-0.0","0","0","39269","","null","","","null","37","","","","","","","","","","","","","","","",""
"","ITI","","html-keyboard-response","251","268494","0.0-1.0-342.0","0","0","39269","","null","","","null","37","","","","","","","","","","","","","","","NaN",""
"","S1","","html-keyboard-response","252","268756","0.0-1.0-344.0","0","0","39269","","null","","","null","38","","","","","","","","","","","","","","","",""
"","ISI","","html-keyboard-response","253","269765","0.0-1.0-345.0","0","0","39269","","null","","","null","38","NaN","","","","","","","","","","","","","","",""
"","S2","","html-keyboard-response","254","270021","0.0-1.0-346.0","0","0","39269","","null","","","null","38","","NaN","","","","","","","","","","","","","",""
"","response","","html-keyboard-response","255","270608","0.0-1.0-347.0-0.0","0","0","39269","","582","","","75","38","","","1","38","training","adjacent","FG","6","7","R.jpg","P.jpg","1","1","1","",""
"","feedback","","html-keyboard-response","256","271622","0.0-1.0-348.0-0.0","0","0","39269","","null","","","null","38","","","","","","","","","","","","","","","",""
"","ITI","","html-keyboard-response","257","272628","0.0-1.0-351.0","0","0","39269","","null","","","null","38","","","","","","","","","","","","","","","NaN",""
"","S1","","html-keyboard-response","258","272884","0.0-1.0-353.0","0","0","39269","","null","","","null","39","","","","","","","","","","","","","","","",""
"","ISI","","html-keyboard-response","259","273892","0.0-1.0-354.0","0","0","39269","","null","","","null","39","NaN","","","","","","","","","","","","","","",""
"","S2","","html-keyboard-response","260","274149","0.0-1.0-355.0","0","0","39269","","null","","","null","39","","NaN","","","","","","","","","","","","","",""
"","response","","html-keyboard-response","261","274771","0.0-1.0-356.0-0.0","0","0","39269","","618","","","75","39","","","1","39","training","adjacent","DC","4","3","M.jpg","Q.jpg","1","0","0","",""
"","feedback","","html-keyboard-response","262","275780","0.0-1.0-357.0-0.0","0","0","39269","","null","","","null","39","","","","","","","","","","","","","","","",""
"","time_out","","html-keyboard-response","263","277788","0.0-1.0-359.0-0.0","0","0","39269","","null","","","null","39","","","","","","","","","","","","","","","",""
"","ITI","","html-keyboard-response","264","278798","0.0-1.0-360.0","0","0","39269","","null","","","null","39","","","","","","","","","","","","","","","NaN",""
"","S1","","html-keyboard-response","265","279061","0.0-1.0-362.0","0","0","39269","","null","","","null","40","","","","","","","","","","","","","","","",""
"","ISI","","html-keyboard-response","266","280071","0.0-1.0-363.0","0","0","39269","","null","","","null","40","NaN","","","","","","","","","","","","","","",""
"","S2","","html-keyboard-response","267","280332","0.0-1.0-364.0","0","0","39269","","null","","","null","40","","NaN","","","","","","","","","","","","","",""
"","response","","html-keyboard-response","268","280764","0.0-1.0-365.0-0.0","0","0","39269","","427","","","75","40","","","1","40","training","adjacent","CD","3","4","Q.jpg","M.jpg","1","1","1","",""
"","feedback","","html-keyboard-response","269","281773","0.0-1.0-366.0-0.0","0","0","39269","","null","","","null","40","","","","","","","","","","","","","","","",""
"","ITI","","html-keyboard-response","270","282780","0.0-1.0-369.0","0","0","39269","","null","","","null","40","","","","","","","","","","","","","","","NaN",""
"","S1","","html-keyboard-response","271","283037","0.0-1.0-371.0","0","0","39269","","null","","","null","41","","","","","","","","","","","","","","","",""
"","ISI","","html-keyboard-response","272","284045","0.0-1.0-372.0","0","0","39269","","null","","","null","41","NaN","","","","","","","","","","","","","","",""
"","S2","","html-keyboard-response","273","284300","0.0-1.0-373.0","0","0","39269","","null","","","null","41","","NaN","","","","","","","","","","","","","",""
"","response","","html-keyboard-response","274","284867","0.0-1.0-374.0-0.0","0","0","39269","","562","","","75","41","","","1","41","training","adjacent","FE","6","5","R.jpg","O.jpg","1","0","0","",""
"","feedback","","html-keyboard-response","275","285878","0.0-1.0-375.0-0.0","0","0","39269","","null","","","null","41","","","","","","","","","","","","","","","",""
"","time_out","","html-keyboard-response","276","287884","0.0-1.0-377.0-0.0","0","0","39269","","null","","","null","41","","","","","","","","","","","","","","","",""
"","ITI","","html-keyboard-response","277","288892","0.0-1.0-378.0","0","0","39269","","null","","","null","41","","","","","","","","","","","","","","","NaN",""
"","S1","","html-keyboard-response","278","289148","0.0-1.0-380.0","0","0","39269","","null","","","null","42","","","","","","","","","","","","","","","",""
"","ISI","","html-keyboard-response","279","290156","0.0-1.0-381.0","0","0","39269","","null","","","null","42","NaN","","","","","","","","","","","","","","",""
"","S2","","html-keyboard-response","280","290412","0.0-1.0-382.0","0","0","39269","","null","","","null","42","","NaN","","","","","","","","","","","","","",""
"","response","","html-keyboard-response","281","290920","0.0-1.0-383.0-0.0","0","0","39269","","503","","","68","42","","","1","42","training","adjacent","BA","2","1","L.jpg","N.jpg","0","0","1","",""
"","feedback","","html-keyboard-response","282","291933","0.0-1.0-384.0-0.0","0","0","39269","","null","","","null","42","","","","","","","","","","","","","","","",""
"","ITI","","html-keyboard-response","283","292940","0.0-1.0-387.0","0","0","39269","","null","","","null","42","","","","","","","","","","","","","","","NaN",""
"","S1","","html-keyboard-response","284","293197","0.0-1.0-389.0","0","0","39269","","null","","","null","43","","","","","","","","","","","","","","","",""
"","ISI","","html-keyboard-response","285","294204","0.0-1.0-390.0","0","0","39269","","null","","","null","43","NaN","","","","","","","","","","","","","","",""
"","S2","","html-keyboard-response","286","294461","0.0-1.0-391.0","0","0","39269","","null","","","null","43","","NaN","","","","","","","","","","","","","",""
"","response","","html-keyboard-response","287","294637","0.0-1.0-392.0-0.0","0","0","39269","","171","","","68","43","","","1","43","training","adjacent","BC","2","3","L.jpg","Q.jpg","0","1","0","",""
"","feedback","","html-keyboard-response","288","295645","0.0-1.0-393.0-0.0","0","0","39269","","null","","","null","43","","","","","","","","","","","","","","","",""
"","time_out","","html-keyboard-response","289","297652","0.0-1.0-395.0-0.0","0","0","39269","","null","","","null","43","","","","","","","","","","","","","","","",""
"","ITI","","html-keyboard-response","290","298660","0.0-1.0-396.0","0","0","39269","","null","","","null","43","","","","","","","","","","","","","","","NaN",""
"","S1","","html-keyboard-response","291","298918","0.0-1.0-398.0","0","0","39269","","null","","","null","44","","","","","","","","","","","","","","","",""
"","ISI","","html-keyboard-response","292","299924","0.0-1.0-399.0","0","0","39269","","null","","","null","44","NaN","","","","","","","","","","","","","","",""
"","S2","","html-keyboard-response","293","300181","0.0-1.0-400.0","0","0","39269","","null","","","null","44","","NaN","","","","","","","","","","","","","",""
"","response","","html-keyboard-response","294","300753","0.0-1.0-401.0-0.0","0","0","39269","","567","","","75","44","","","1","44","training","adjacent","EF","5","6","O.jpg","R.jpg","1","1","1","",""
"","feedback","","html-keyboard-response","295","301766","0.0-1.0-402.0-0.0","0","0","39269","","null","","","null","44","","","","","","","","","","","","","","","",""
"","ITI","","html-keyboard-response","296","302774","0.0-1.0-405.0","0","0","39269","","null","","","null","44","","","","","","","","","","","","","","","NaN",""
"","S1","","html-keyboard-response","297","303038","0.0-1.0-407.0","0","0","39269","","null","","","null","45","","","","","","","","","","","","","","","",""
"","ISI","","html-keyboard-response","298","304044","0.0-1.0-408.0","0","0","39269","","null","","","null","45","NaN","","","","","","","","","","","","","","",""
"","S2","","html-keyboard-response","299","304301","0.0-1.0-409.0","0","0","39269","","null","","","null","45","","NaN","","","","","","","","","","","","","",""
"","response","","html-keyboard-response","300","304826","0.0-1.0-410.0-0.0","0","0","39269","","520","","","68","45","","","1","45","training","adjacent","CD","3","4","Q.jpg","M.jpg","0","1","0","",""
"","feedback","","html-keyboard-response","301","305837","0.0-1.0-411.0-0.0","0","0","39269","","null","","","null","45","","","","","","","","","","","","","","","",""
"","time_out","","html-keyboard-response","302","307845","0.0-1.0-413.0-0.0","0","0","39269","","null","","","null","45","","","","","","","","","","","","","","","",""
"","ITI","","html-keyboard-response","303","308853","0.0-1.0-414.0","0","0","39269","","null","","","null","45","","","","","","","","","","","","","","","NaN",""
"","S1","","html-keyboard-response","304","309117","0.0-1.0-416.0","0","0","39269","","null","","","null","46","","","","","","","","","","","","","","","",""
"","ISI","","html-keyboard-response","305","310125","0.0-1.0-417.0","0","0","39269","","null","","","null","46","NaN","","","","","","","","","","","","","","",""
"","S2","","html-keyboard-response","306","310388","0.0-1.0-418.0","0","0","39269","","null","","","null","46","","NaN","","","","","","","","","","","","","",""
"","response","","html-keyboard-response","307","310442","0.0-1.0-419.0-0.0","0","0","39269","","49","","","75","46","","","1","46","training","adjacent","DC","4","3","M.jpg","Q.jpg","1","0","0","",""
"","feedback","","html-keyboard-response","308","311452","0.0-1.0-420.0-0.0","0","0","39269","","null","","","null","46","","","","","","","","","","","","","","","",""
"","time_out","","html-keyboard-response","309","313461","0.0-1.0-422.0-0.0","0","0","39269","","null","","","null","46","","","","","","","","","","","","","","","",""
"","ITI","","html-keyboard-response","310","314469","0.0-1.0-423.0","0","0","39269","","null","","","null","46","","","","","","","","","","","","","","","NaN",""
"","S1","","html-keyboard-response","311","314725","0.0-1.0-425.0","0","0","39269","","null","","","null","47","","","","","","","","","","","","","","","",""
"","ISI","","html-keyboard-response","312","315734","0.0-1.0-426.0","0","0","39269","","null","","","null","47","NaN","","","","","","","","","","","","","","",""
"","S2","","html-keyboard-response","313","315996","0.0-1.0-427.0","0","0","39269","","null","","","null","47","","NaN","","","","","","","","","","","","","",""
"","response","","html-keyboard-response","314","316284","0.0-1.0-428.0-0.0","0","0","39269","","282","","","68","47","","","1","47","training","adjacent","EF","5","6","O.jpg","R.jpg","0","1","0","",""
"","feedback","","html-keyboard-response","315","317294","0.0-1.0-429.0-0.0","0","0","39269","","null","","","null","47","","","","","","","","","","","","","","","",""
"","time_out","","html-keyboard-response","316","319301","0.0-1.0-431.0-0.0","0","0","39269","","null","","","null","47","","","","","","","","","","","","","","","",""
"","ITI","","html-keyboard-response","317","320308","0.0-1.0-432.0","0","0","39269","","null","","","null","47","","","","","","","","","","","","","","","NaN",""
"","block_over","","html-keyboard-response","318","336171","0.0-1.0-433.0-0.0","0","0","39269","","15857","","","32","47","","","","","","","","","","","","","","","",""
"","S1","","html-keyboard-response","319","336431","0.0-1.0-434.0","0","0","39269","","null","","","null","48","","","","","","","","","","","","","","","",""
"","ISI","","html-keyboard-response","320","337437","0.0-1.0-435.0","0","0","39269","","null","","","null","48","NaN","","","","","","","","","","","","","","",""
"","S2","","html-keyboard-response","321","337692","0.0-1.0-436.0","0","0","39269","","null","","","null","48","","NaN","","","","","","","","","","","","","",""
"","response","","html-keyboard-response","322","338216","0.0-1.0-437.0-0.0","0","0","39269","","519","","","68","48","","","2","48","training","adjacent","BA","2","1","L.jpg","N.jpg","0","0","1","",""
"","feedback","","html-keyboard-response","323","339228","0.0-1.0-438.0-0.0","0","0","39269","","null","","","null","48","","","","","","","","","","","","","","","",""
"","ITI","","html-keyboard-response","324","340236","0.0-1.0-441.0","0","0","39269","","null","","","null","48","","","","","","","","","","","","","","","NaN",""
"","S1","","html-keyboard-response","325","340492","0.0-1.0-443.0","0","0","39269","","null","","","null","49","","","","","","","","","","","","","","","",""
"","ISI","","html-keyboard-response","326","341501","0.0-1.0-444.0","0","0","39269","","null","","","null","49","NaN","","","","","","","","","","","","","","",""
"","S2","","html-keyboard-response","327","341756","0.0-1.0-445.0","0","0","39269","","null","","","null","49","","NaN","","","","","","","","","","","","","",""
"","response","","html-keyboard-response","328","342123","0.0-1.0-446.0-0.0","0","0","39269","","362","","","75","49","","","2","49","training","adjacent","AB","1","2","N.jpg","L.jpg","1","1","1","",""
"","feedback","","html-keyboard-response","329","343132","0.0-1.0-447.0-0.0","0","0","39269","","null","","","null","49","","","","","","","","","","","","","","","",""
"","ITI","","html-keyboard-response","330","344141","0.0-1.0-450.0","0","0","39269","","null","","","null","49","","","","","","","","","","","","","","","NaN",""
"","S1","","html-keyboard-response","331","344396","0.0-1.0-452.0","0","0","39269","","null","","","null","50","","","","","","","","","","","","","","","",""
"","ISI","","html-keyboard-response","332","345404","0.0-1.0-453.0","0","0","39269","","null","","","null","50","NaN","","","","","","","","","","","","","","",""
"","S2","","html-keyboard-response","333","345660","0.0-1.0-454.0","0","0","39269","","null","","","null","50","","NaN","","","","","","","","","","","","","",""
"","response","","html-keyboard-response","334","346043","0.0-1.0-455.0-0.0","0","0","39269","","378","","","68","50","","","2","50","training","adjacent","BC","2","3","L.jpg","Q.jpg","0","1","0","",""
"","feedback","","html-keyboard-response","335","347052","0.0-1.0-456.0-0.0","0","0","39269","","null","","","null","50","","","","","","","","","","","","","","","",""
"","time_out","","html-keyboard-response","336","349061","0.0-1.0-458.0-0.0","0","0","39269","","null","","","null","50","","","","","","","","","","","","","","","",""
"","ITI","","html-keyboard-response","337","350068","0.0-1.0-459.0","0","0","39269","","null","","","null","50","","","","","","","","","","","","","","","NaN",""
"","S1","","html-keyboard-response","338","350324","0.0-1.0-461.0","0","0","39269","","null","","","null","51","","","","","","","","","","","","","","","",""
"","ISI","","html-keyboard-response","339","351332","0.0-1.0-462.0","0","0","39269","","null","","","null","51","NaN","","","","","","","","","","","","","","",""
"","S2","","html-keyboard-response","340","351590","0.0-1.0-463.0","0","0","39269","","null","","","null","51","","NaN","","","","","","","","","","","","","",""
"","response","","html-keyboard-response","341","352196","0.0-1.0-464.0-0.0","0","0","39269","","600","","","75","51","","","2","51","training","adjacent","DC","4","3","M.jpg","Q.jpg","1","0","0","",""
"","feedback","","html-keyboard-response","342","353205","0.0-1.0-465.0-0.0","0","0","39269","","null","","","null","51","","","","","","","","","","","","","","","",""
"","time_out","","html-keyboard-response","343","355212","0.0-1.0-467.0-0.0","0","0","39269","","null","","","null","51","","","","","","","","","","","","","","","",""
"","ITI","","html-keyboard-response","344","356220","0.0-1.0-468.0","0","0","39269","","null","","","null","51","","","","","","","","","","","","","","","NaN",""
"","S1","","html-keyboard-response","345","356476","0.0-1.0-470.0","0","0","39269","","null","","","null","52","","","","","","","","","","","","","","","",""
"","ISI","","html-keyboard-response","346","357485","0.0-1.0-471.0","0","0","39269","","null","","","null","52","NaN","","","","","","","","","","","","","","",""
"","S2","","html-keyboard-response","347","357740","0.0-1.0-472.0","0","0","39269","","null","","","null","52","","NaN","","","","","","","","","","","","","",""
"","response","","html-keyboard-response","348","358078","0.0-1.0-473.0-0.0","0","0","39269","","334","","","75","52","","","2","52","training","adjacent","DE","4","5","M.jpg","O.jpg","1","1","1","",""
"","feedback","","html-keyboard-response","349","359085","0.0-1.0-474.0-0.0","0","0","39269","","null","","","null","52","","","","","","","","","","","","","","","",""
"","ITI","","html-keyboard-response","350","360093","0.0-1.0-477.0","0","0","39269","","null","","","null","52","","","","","","","","","","","","","","","NaN",""
"","S1","","html-keyboard-response","351","360357","0.0-1.0-479.0","0","0","39269","","null","","","null","53","","","","","","","","","","","","","","","",""
"","ISI","","html-keyboard-response","352","361364","0.0-1.0-480.0","0","0","39269","","null","","","null","53","NaN","","","","","","","","","","","","","","",""
"","S2","","html-keyboard-response","353","361620","0.0-1.0-481.0","0","0","39269","","null","","","null","53","","NaN","","","","","","","","","","","","","",""
"","response","","html-keyboard-response","354","362132","0.0-1.0-482.0-0.0","0","0","39269","","507","","","75","53","","","2","53","training","adjacent","BA","2","1","L.jpg","N.jpg","1","0","0","",""
"","feedback","","html-keyboard-response","355","363142","0.0-1.0-483.0-0.0","0","0","39269","","null","","","null","53","","","","","","","","","","","","","","","",""
"","time_out","","html-keyboard-response","356","365148","0.0-1.0-485.0-0.0","0","0","39269","","null","","","null","53","","","","","","","","","","","","","","","",""
"","ITI","","html-keyboard-response","357","366156","0.0-1.0-486.0","0","0","39269","","null","","","null","53","","","","","","","","","","","","","","","NaN",""
"","S1","","html-keyboard-response","358","366412","0.0-1.0-488.0","0","0","39269","","null","","","null","54","","","","","","","","","","","","","","","",""
"","ISI","","html-keyboard-response","359","367421","0.0-1.0-489.0","0","0","39269","","null","","","null","54","NaN","","","","","","","","","","","","","","",""
"","S2","","html-keyboard-response","360","367676","0.0-1.0-490.0","0","0","39269","","null","","","null","54","","NaN","","","","","","","","","","","","","",""
"","response","","html-keyboard-response","361","367943","0.0-1.0-491.0-0.0","0","0","39269","","262","","","75","54","","","2","54","training","adjacent","DE","4","5","M.jpg","O.jpg","1","1","1","",""
"","feedback","","html-keyboard-response","362","368957","0.0-1.0-492.0-0.0","0","0","39269","","null","","","null","54","","","","","","","","","","","","","","","",""
"","ITI","","html-keyboard-response","363","369965","0.0-1.0-495.0","0","0","39269","","null","","","null","54","","","","","","","","","","","","","","","NaN",""
"","S1","","html-keyboard-response","364","370221","0.0-1.0-497.0","0","0","39269","","null","","","null","55","","","","","","","","","","","","","","","",""
"","ISI","","html-keyboard-response","365","371228","0.0-1.0-498.0","0","0","39269","","null","","","null","55","NaN","","","","","","","","","","","","","","",""
"","S2","","html-keyboard-response","366","371484","0.0-1.0-499.0","0","0","39269","","null","","","null","55","","NaN","","","","","","","","","","","","","",""
"","response","","html-keyboard-response","367","372193","0.0-1.0-500.0-0.0","0","0","39269","","702","","","68","55","","","2","55","training","adjacent","CB","3","2","Q.jpg","L.jpg","0","0","1","",""
"","feedback","","html-keyboard-response","368","373204","0.0-1.0-501.0-0.0","0","0","39269","","null","","","null","55","","","","","","","","","","","","","","","",""
"","ITI","","html-keyboard-response","369","374214","0.0-1.0-504.0","0","0","39269","","null","","","null","55","","","","","","","","","","","","","","","NaN",""
"","S1","","html-keyboard-response","370","374477","0.0-1.0-506.0","0","0","39269","","null","","","null","56","","","","","","","","","","","","","","","",""
"","ISI","","html-keyboard-response","371","375487","0.0-1.0-507.0","0","0","39269","","null","","","null","56","NaN","","","","","","","","","","","","","","",""
"","S2","","html-keyboard-response","372","375749","0.0-1.0-508.0","0","0","39269","","null","","","null","56","","NaN","","","","","","","","","","","","","",""
"","response","","html-keyboard-response","373","376330","0.0-1.0-509.0-0.0","0","0","39269","","576","","","75","56","","","2","56","training","adjacent","CD","3","4","Q.jpg","M.jpg","1","1","1","",""
"","feedback","","html-keyboard-response","374","377340","0.0-1.0-510.0-0.0","0","0","39269","","null","","","null","56","","","","","","","","","","","","","","","",""
"","ITI","","html-keyboard-response","375","378348","0.0-1.0-513.0","0","0","39269","","null","","","null","56","","","","","","","","","","","","","","","NaN",""
"","S1","","html-keyboard-response","376","378605","0.0-1.0-515.0","0","0","39269","","null","","","null","57","","","","","","","","","","","","","","","",""
"","ISI","","html-keyboard-response","377","379613","0.0-1.0-516.0","0","0","39269","","null","","","null","57","NaN","","","","","","","","","","","","","","",""
"","S2","","html-keyboard-response","378","379868","0.0-1.0-517.0","0","0","39269","","null","","","null","57","","NaN","","","","","","","","","","","","","",""
"","response","","html-keyboard-response","379","380284","0.0-1.0-518.0-0.0","0","0","39269","","411","","","75","57","","","2","57","training","adjacent","CD","3","4","Q.jpg","M.jpg","1","1","1","",""
"","feedback","","html-keyboard-response","380","381292","0.0-1.0-519.0-0.0","0","0","39269","","null","","","null","57","","","","","","","","","","","","","","","",""
"","ITI","","html-keyboard-response","381","382300","0.0-1.0-522.0","0","0","39269","","null","","","null","57","","","","","","","","","","","","","","","NaN",""
"","S1","","html-keyboard-response","382","382557","0.0-1.0-524.0","0","0","39269","","null","","","null","58","","","","","","","","","","","","","","","",""
"","ISI","","html-keyboard-response","383","383569","0.0-1.0-525.0","0","0","39269","","null","","","null","58","NaN","","","","","","","","","","","","","","",""
"","S2","","html-keyboard-response","384","383828","0.0-1.0-526.0","0","0","39269","","null","","","null","58","","NaN","","","","","","","","","","","","","",""
"","response","","html-keyboard-response","385","384457","0.0-1.0-527.0-0.0","0","0","39269","","624","","","68","58","","","2","58","training","adjacent","AB","1","2","N.jpg","L.jpg","0","1","0","",""
"","feedback","","html-keyboard-response","386","385468","0.0-1.0-528.0-0.0","0","0","39269","","null","","","null","58","","","","","","","","","","","","","","","",""
"","time_out","","html-keyboard-response","387","387477","0.0-1.0-530.0-0.0","0","0","39269","","null","","","null","58","","","","","","","","","","","","","","","",""
"","ITI","","html-keyboard-response","388","388485","0.0-1.0-531.0","0","0","39269","","null","","","null","58","","","","","","","","","","","","","","","NaN",""
"","S1","","html-keyboard-response","389","388740","0.0-1.0-533.0","0","0","39269","","null","","","null","59","","","","","","","","","","","","","","","",""
"","ISI","","html-keyboard-response","390","389749","0.0-1.0-534.0","0","0","39269","","null","","","null","59","NaN","","","","","","","","","","","","","","",""
"","S2","","html-keyboard-response","391","390004","0.0-1.0-535.0","0","0","39269","","null","","","null","59","","NaN","","","","","","","","","","","","","",""
"","response","","html-keyboard-response","392","390073","0.0-1.0-536.0-0.0","0","0","39269","","64","","","75","59","","","2","59","training","adjacent","GF","7","6","P.jpg","R.jpg","1","0","0","",""
"","feedback","","html-keyboard-response","393","391084","0.0-1.0-537.0-0.0","0","0","39269","","null","","","null","59","","","","","","","","","","","","","","","",""
"","time_out","","html-keyboard-response","394","393092","0.0-1.0-539.0-0.0","0","0","39269","","null","","","null","59","","","","","","","","","","","","","","","",""
"","ITI","","html-keyboard-response","395","394100","0.0-1.0-540.0","0","0","39269","","null","","","null","59","","","","","","","","","","","","","","","NaN",""
"","S1","","html-keyboard-response","396","394357","0.0-1.0-542.0","0","0","39269","","null","","","null","60","","","","","","","","","","","","","","","",""
"","ISI","","html-keyboard-response","397","395364","0.0-1.0-543.0","0","0","39269","","null","","","null","60","NaN","","","","","","","","","","","","","","",""
"","S2","","html-keyboard-response","398","395621","0.0-1.0-544.0","0","0","39269","","null","","","null","60","","NaN","","","","","","","","","","","","","",""
"","response","","html-keyboard-response","399","395933","0.0-1.0-545.0-0.0","0","0","39269","","308","","","68","60","","","2","60","training","adjacent","FG","6","7","R.jpg","P.jpg","0","1","0","",""
"","feedback","","html-keyboard-response","400","396941","0.0-1.0-546.0-0.0","0","0","39269","","null","","","null","60","","","","","","","","","","","","","","","",""
"","time_out","","html-keyboard-response","401","398949","0.0-1.0-548.0-0.0","0","0","39269","","null","","","null","60","","","","","","","","","","","","","","","",""
"","ITI","","html-keyboard-response","402","399958","0.0-1.0-549.0","0","0","39269","","null","","","null","60","","","","","","","","","","","","","","","NaN",""
"","S1","","html-keyboard-response","403","400220","0.0-1.0-551.0","0","0","39269","","null","","","null","61","","","","","","","","","","","","","","","",""
"","ISI","","html-keyboard-response","404","401228","0.0-1.0-552.0","0","0","39269","","null","","","null","61","NaN","","","","","","","","","","","","","","",""
"","S2","","html-keyboard-response","405","401484","0.0-1.0-553.0","0","0","39269","","null","","","null","61","","NaN","","","","","","","","","","","","","",""
"","response","","html-keyboard-response","406","402098","0.0-1.0-554.0-0.0","0","0","39269","","609","","","68","61","","","2","61","training","adjacent","BC","2","3","L.jpg","Q.jpg","0","1","0","",""
"","feedback","","html-keyboard-response","407","403109","0.0-1.0-555.0-0.0","0","0","39269","","null","","","null","61","","","","","","","","","","","","","","","",""
"","time_out","","html-keyboard-response","408","405116","0.0-1.0-557.0-0.0","0","0","39269","","null","","","null","61","","","","","","","","","","","","","","","",""
"","ITI","","html-keyboard-response","409","406124","0.0-1.0-558.0","0","0","39269","","null","","","null","61","","","","","","","","","","","","","","","NaN",""
"","S1","","html-keyboard-response","410","406380","0.0-1.0-560.0","0","0","39269","","null","","","null","62","","","","","","","","","","","","","","","",""
"","ISI","","html-keyboard-response","411","407388","0.0-1.0-561.0","0","0","39269","","null","","","null","62","NaN","","","","","","","","","","","","","","",""
"","S2","","html-keyboard-response","412","407644","0.0-1.0-562.0","0","0","39269","","null","","","null","62","","NaN","","","","","","","","","","","","","",""
"","response","","html-keyboard-response","413","407770","0.0-1.0-563.0-0.0","0","0","39269","","120","","","75","62","","","2","62","training","adjacent","GF","7","6","P.jpg","R.jpg","1","0","0","",""
"","feedback","","html-keyboard-response","414","408780","0.0-1.0-564.0-0.0","0","0","39269","","null","","","null","62","","","","","","","","","","","","","","","",""
"","time_out","","html-keyboard-response","415","410788","0.0-1.0-566.0-0.0","0","0","39269","","null","","","null","62","","","","","","","","","","","","","","","",""
"","ITI","","html-keyboard-response","416","411798","0.0-1.0-567.0","0","0","39269","","null","","","null","62","","","","","","","","","","","","","","","NaN",""
"","S1","","html-keyboard-response","417","412063","0.0-1.0-569.0","0","0","39269","","null","","","null","63","","","","","","","","","","","","","","","",""
"","ISI","","html-keyboard-response","418","413068","0.0-1.0-570.0","0","0","39269","","null","","","null","63","NaN","","","","","","","","","","","","","","",""
"","S2","","html-keyboard-response","419","413326","0.0-1.0-571.0","0","0","39269","","null","","","null","63","","NaN","","","","","","","","","","","","","",""
"","response","","html-keyboard-response","420","413641","0.0-1.0-572.0-0.0","0","0","39269","","311","","","75","63","","","2","63","training","adjacent","FE","6","5","R.jpg","O.jpg","1","0","0","",""
"","feedback","","html-keyboard-response","421","414653","0.0-1.0-573.0-0.0","0","0","39269","","null","","","null","63","","","","","","","","","","","","","","","",""
"","time_out","","html-keyboard-response","422","416660","0.0-1.0-575.0-0.0","0","0","39269","","null","","","null","63","","","","","","","","","","","","","","","",""
"","ITI","","html-keyboard-response","423","417669","0.0-1.0-576.0","0","0","39269","","null","","","null","63","","","","","","","","","","","","","","","NaN",""
"","S1","","html-keyboard-response","424","417924","0.0-1.0-578.0","0","0","39269","","null","","","null","64","","","","","","","","","","","","","","","",""
"","ISI","","html-keyboard-response","425","418932","0.0-1.0-579.0","0","0","39269","","null","","","null","64","NaN","","","","","","","","","","","","","","",""
"","S2","","html-keyboard-response","426","419189","0.0-1.0-580.0","0","0","39269","","null","","","null","64","","NaN","","","","","","","","","","","","","",""
"","response","","html-keyboard-response","427","419663","0.0-1.0-581.0-0.0","0","0","39269","","470","","","75","64","","","2","64","training","adjacent","DE","4","5","M.jpg","O.jpg","1","1","1","",""
"","feedback","","html-keyboard-response","428","420669","0.0-1.0-582.0-0.0","0","0","39269","","null","","","null","64","","","","","","","","","","","","","","","",""
"","ITI","","html-keyboard-response","429","421676","0.0-1.0-585.0","0","0","39269","","null","","","null","64","","","","","","","","","","","","","","","NaN",""
"","S1","","html-keyboard-response","430","421933","0.0-1.0-587.0","0","0","39269","","null","","","null","65","","","","","","","","","","","","","","","",""
"","ISI","","html-keyboard-response","431","422941","0.0-1.0-588.0","0","0","39269","","null","","","null","65","NaN","","","","","","","","","","","","","","",""
"","S2","","html-keyboard-response","432","423205","0.0-1.0-589.0","0","0","39269","","null","","","null","65","","NaN","","","","","","","","","","","","","",""
"","response","","html-keyboard-response","433","423348","0.0-1.0-590.0-0.0","0","0","39269","","137","","","75","65","","","2","65","training","adjacent","CB","3","2","Q.jpg","L.jpg","1","0","0","",""
"","feedback","","html-keyboard-response","434","424358","0.0-1.0-591.0-0.0","0","0","39269","","null","","","null","65","","","","","","","","","","","","","","","",""
"","time_out","","html-keyboard-response","435","426364","0.0-1.0-593.0-0.0","0","0","39269","","null","","","null","65","","","","","","","","","","","","","","","",""
"","ITI","","html-keyboard-response","436","427372","0.0-1.0-594.0","0","0","39269","","null","","","null","65","","","","","","","","","","","","","","","NaN",""
"","S1","","html-keyboard-response","437","427628","0.0-1.0-596.0","0","0","39269","","null","","","null","66","","","","","","","","","","","","","","","",""
"","ISI","","html-keyboard-response","438","428638","0.0-1.0-597.0","0","0","39269","","null","","","null","66","NaN","","","","","","","","","","","","","","",""
"","S2","","html-keyboard-response","439","428900","0.0-1.0-598.0","0","0","39269","","null","","","null","66","","NaN","","","","","","","","","","","","","",""
"","response","","html-keyboard-response","440","429380","0.0-1.0-599.0-0.0","0","0","39269","","475","","","75","66","","","2","66","training","adjacent","EF","5","6","O.jpg","R.jpg","1","1","1","",""
"","feedback","","html-keyboard-response","441","430389","0.0-1.0-600.0-0.0","0","0","39269","","null","","","null","66","","","","","","","","","","","","","","","",""
"","ITI","","html-keyboard-response","442","431396","0.0-1.0-603.0","0","0","39269","","null","","","null","66","","","","","","","","","","","","","","","NaN",""
"","S1","","html-keyboard-response","443","431653","0.0-1.0-605.0","0","0","39269","","null","","","null","67","","","","","","","","","","","","","","","",""
"","ISI","","html-keyboard-response","444","432660","0.0-1.0-606.0","0","0","39269","","null","","","null","67","NaN","","","","","","","","","","","","","","",""
"","S2","","html-keyboard-response","445","432918","0.0-1.0-607.0","0","0","39269","","null","","","null","67","","NaN","","","","","","","","","","","","","",""
"","response","","html-keyboard-response","446","433612","0.0-1.0-608.0-0.0","0","0","39269","","690","","","68","67","","","2","67","training","adjacent","FE","6","5","R.jpg","O.jpg","0","0","1","",""
"","feedback","","html-keyboard-response","447","434623","0.0-1.0-609.0-0.0","0","0","39269","","null","","","null","67","","","","","","","","","","","","","","","",""
"","ITI","","html-keyboard-response","448","435629","0.0-1.0-612.0","0","0","39269","","null","","","null","67","","","","","","","","","","","","","","","NaN",""
"","S1","","html-keyboard-response","449","435884","0.0-1.0-614.0","0","0","39269","","null","","","null","68","","","","","","","","","","","","","","","",""
"","ISI","","html-keyboard-response","450","436892","0.0-1.0-615.0","0","0","39269","","null","","","null","68","NaN","","","","","","","","","","","","","","",""
"","S2","","html-keyboard-response","451","437148","0.0-1.0-616.0","0","0","39269","","null","","","null","68","","NaN","","","","","","","","","","","","","",""
"","response","","html-keyboard-response","452","437632","0.0-1.0-617.0-0.0","0","0","39269","","479","","","68","68","","","2","68","training","adjacent","EF","5","6","O.jpg","R.jpg","0","1","0","",""
"","feedback","","html-keyboard-response","453","438644","0.0-1.0-618.0-0.0","0","0","39269","","null","","","null","68","","","","","","","","","","","","","","","",""
"","time_out","","html-keyboard-response","454","440652","0.0-1.0-620.0-0.0","0","0","39269","","null","","","null","68","","","","","","","","","","","","","","","",""
"","ITI","","html-keyboard-response","455","441660","0.0-1.0-621.0","0","0","39269","","null","","","null","68","","","","","","","","","","","","","","","NaN",""
"","S1","","html-keyboard-response","456","441917","0.0-1.0-623.0","0","0","39269","","null","","","null","69","","","","","","","","","","","","","","","",""
"","ISI","","html-keyboard-response","457","442925","0.0-1.0-624.0","0","0","39269","","null","","","null","69","NaN","","","","","","","","","","","","","","",""
"","S2","","html-keyboard-response","458","443188","0.0-1.0-625.0","0","0","39269","","null","","","null","69","","NaN","","","","","","","","","","","","","",""
"","response","","html-keyboard-response","459","443566","0.0-1.0-626.0-0.0","0","0","39269","","370","","","68","69","","","2","69","training","adjacent","CD","3","4","Q.jpg","M.jpg","0","1","0","",""
"","feedback","","html-keyboard-response","460","444573","0.0-1.0-627.0-0.0","0","0","39269","","null","","","null","69","","","","","","","","","","","","","","","",""
"","time_out","","html-keyboard-response","461","446581","0.0-1.0-629.0-0.0","0","0","39269","","null","","","null","69","","","","","","","","","","","","","","","",""
"","ITI","","html-keyboard-response","462","447592","0.0-1.0-630.0","0","0","39269","","null","","","null","69","","","","","","","","","","","","","","","NaN",""
"","S1","","html-keyboard-response","463","447853","0.0-1.0-632.0","0","0","39269","","null","","","null","70","","","","","","","","","","","","","","","",""
"","ISI","","html-keyboard-response","464","448865","0.0-1.0-633.0","0","0","39269","","null","","","null","70","NaN","","","","","","","","","","","","","","",""
"","S2","","html-keyboard-response","465","449124","0.0-1.0-634.0","0","0","39269","","null","","","null","70","","NaN","","","","","","","","","","","","","",""
"","response","","html-keyboard-response","466","449782","0.0-1.0-635.0-0.0","0","0","39269","","653","","","68","70","","","2","70","training","adjacent","AB","1","2","N.jpg","L.jpg","0","1","0","",""
"","feedback","","html-keyboard-response","467","450789","0.0-1.0-636.0-0.0","0","0","39269","","null","","","null","70","","","","","","","","","","","","","","","",""
"","time_out","","html-keyboard-response","468","452797","0.0-1.0-638.0-0.0","0","0","39269","","null","","","null","70","","","","","","","","","","","","","","","",""
"","ITI","","html-keyboard-response","469","453806","0.0-1.0-639.0","0","0","39269","","null","","","null","70","","","","","","","","","","","","","","","NaN",""
"","S1","","html-keyboard-response","470","454069","0.0-1.0-641.0","0","0","39269","","null","","","null","71","","","","","","","","","","","","","","","",""
"","ISI","","html-keyboard-response","471","455077","0.0-1.0-642.0","0","0","39269","","null","","","null","71","NaN","","","","","","","","","","","","","","",""
"","S2","","html-keyboard-response","472","455332","0.0-1.0-643.0","0","0","39269","","null","","","null","71","","NaN","","","","","","","","","","","","","",""
"","response","","html-keyboard-response","473","455789","0.0-1.0-644.0-0.0","0","0","39269","","452","","","75","71","","","2","71","training","adjacent","FG","6","7","R.jpg","P.jpg","1","1","1","",""
"","feedback","","html-keyboard-response","474","456799","0.0-1.0-645.0-0.0","0","0","39269","","null","","","null","71","","","","","","","","","","","","","","","",""
"","ITI","","html-keyboard-response","475","457813","0.0-1.0-648.0","0","0","39269","","null","","","null","71","","","","","","","","","","","","","","","NaN",""
"","S1","","html-keyboard-response","476","458069","0.0-1.0-650.0","0","0","39269","","null","","","null","72","","","","","","","","","","","","","","","",""
"","ISI","","html-keyboard-response","477","459076","0.0-1.0-651.0","0","0","39269","","null","","","null","72","NaN","","","","","","","","","","","","","","",""
"","S2","","html-keyboard-response","478","459333","0.0-1.0-652.0","0","0","39269","","null","","","null","72","","NaN","","","","","","","","","","","","","",""
"","response","","html-keyboard-response","479","459476","0.0-1.0-653.0-0.0","0","0","39269","","138","","","75","72","","","2","72","training","adjacent","DC","4","3","M.jpg","Q.jpg","1","0","0","",""
"","feedback","","html-keyboard-response","480","460484","0.0-1.0-654.0-0.0","0","0","39269","","null","","","null","72","","","","","","","","","","","","","","","",""
"","time_out","","html-keyboard-response","481","462492","0.0-1.0-656.0-0.0","0","0","39269","","null","","","null","72","","","","","","","","","","","","","","","",""
"","ITI","","html-keyboard-response","482","463500","0.0-1.0-657.0","0","0","39269","","null","","","null","72","","","","","","","","","","","","","","","NaN",""
"","S1","","html-keyboard-response","483","463756","0.0-1.0-659.0","0","0","39269","","null","","","null","73","","","","","","","","","","","","","","","",""
"","ISI","","html-keyboard-response","484","464765","0.0-1.0-660.0","0","0","39269","","null","","","null","73","NaN","","","","","","","","","","","","","","",""
"","S2","","html-keyboard-response","485","465020","0.0-1.0-661.0","0","0","39269","","null","","","null","73","","NaN","","","","","","","","","","","","","",""
"","response","","html-keyboard-response","486","465460","0.0-1.0-662.0-0.0","0","0","39269","","434","","","75","73","","","2","73","training","adjacent","DC","4","3","M.jpg","Q.jpg","1","0","0","",""
"","feedback","","html-keyboard-response","487","466468","0.0-1.0-663.0-0.0","0","0","39269","","null","","","null","73","","","","","","","","","","","","","","","",""
"","time_out","","html-keyboard-response","488","468476","0.0-1.0-665.0-0.0","0","0","39269","","null","","","null","73","","","","","","","","","","","","","","","",""
"","ITI","","html-keyboard-response","489","469485","0.0-1.0-666.0","0","0","39269","","null","","","null","73","","","","","","","","","","","","","","","NaN",""
"","S1","","html-keyboard-response","490","469741","0.0-1.0-668.0","0","0","39269","","null","","","null","74","","","","","","","","","","","","","","","",""
"","ISI","","html-keyboard-response","491","470748","0.0-1.0-669.0","0","0","39269","","null","","","null","74","NaN","","","","","","","","","","","","","","",""
"","S2","","html-keyboard-response","492","471004","0.0-1.0-670.0","0","0","39269","","null","","","null","74","","NaN","","","","","","","","","","","","","",""
"","response","","html-keyboard-response","493","471629","0.0-1.0-671.0-0.0","0","0","39269","","620","","","75","74","","","2","74","training","adjacent","ED","5","4","O.jpg","M.jpg","1","0","0","",""
"","feedback","","html-keyboard-response","494","472636","0.0-1.0-672.0-0.0","0","0","39269","","null","","","null","74","","","","","","","","","","","","","","","",""
"","time_out","","html-keyboard-response","495","474645","0.0-1.0-674.0-0.0","0","0","39269","","null","","","null","74","","","","","","","","","","","","","","","",""
"","ITI","","html-keyboard-response","496","475653","0.0-1.0-675.0","0","0","39269","","null","","","null","74","","","","","","","","","","","","","","","NaN",""
"","S1","","html-keyboard-response","497","475909","0.0-1.0-677.0","0","0","39269","","null","","","null","75","","","","","","","","","","","","","","","",""
"","ISI","","html-keyboard-response","498","476918","0.0-1.0-678.0","0","0","39269","","null","","","null","75","NaN","","","","","","","","","","","","","","",""
"","S2","","html-keyboard-response","499","477180","0.0-1.0-679.0","0","0","39269","","null","","","null","75","","NaN","","","","","","","","","","","","","",""
"","response","","html-keyboard-response","500","477726","0.0-1.0-680.0-0.0","0","0","39269","","542","","","75","75","","","2","75","training","adjacent","BC","2","3","L.jpg","Q.jpg","1","1","1","",""
"","feedback","","html-keyboard-response","501","478732","0.0-1.0-681.0-0.0","0","0","39269","","null","","","null","75","","","","","","","","","","","","","","","",""
"","ITI","","html-keyboard-response","502","479741","0.0-1.0-684.0","0","0","39269","","null","","","null","75","","","","","","","","","","","","","","","NaN",""
"","S1","","html-keyboard-response","503","479996","0.0-1.0-686.0","0","0","39269","","null","","","null","76","","","","","","","","","","","","","","","",""
"","ISI","","html-keyboard-response","504","481004","0.0-1.0-687.0","0","0","39269","","null","","","null","76","NaN","","","","","","","","","","","","","","",""
"","S2","","html-keyboard-response","505","481260","0.0-1.0-688.0","0","0","39269","","null","","","null","76","","NaN","","","","","","","","","","","","","",""
"","response","","html-keyboard-response","506","481607","0.0-1.0-689.0-0.0","0","0","39269","","341","","","75","76","","","2","76","training","adjacent","EF","5","6","O.jpg","R.jpg","1","1","1","",""
"","feedback","","html-keyboard-response","507","482621","0.0-1.0-690.0-0.0","0","0","39269","","null","","","null","76","","","","","","","","","","","","","","","",""
"","ITI","","html-keyboard-response","508","483628","0.0-1.0-693.0","0","0","39269","","null","","","null","76","","","","","","","","","","","","","","","NaN",""
"","S1","","html-keyboard-response","509","483884","0.0-1.0-695.0","0","0","39269","","null","","","null","77","","","","","","","","","","","","","","","",""
"","ISI","","html-keyboard-response","510","484892","0.0-1.0-696.0","0","0","39269","","null","","","null","77","NaN","","","","","","","","","","","","","","",""
"","S2","","html-keyboard-response","511","485149","0.0-1.0-697.0","0","0","39269","","null","","","null","77","","NaN","","","","","","","","","","","","","",""
"","response","","html-keyboard-response","512","485740","0.0-1.0-698.0-0.0","0","0","39269","","584","","","68","77","","","2","77","training","adjacent","ED","5","4","O.jpg","M.jpg","0","0","1","",""
"","feedback","","html-keyboard-response","513","486749","0.0-1.0-699.0-0.0","0","0","39269","","null","","","null","77","","","","","","","","","","","","","","","",""
"","ITI","","html-keyboard-response","514","487756","0.0-1.0-702.0","0","0","39269","","null","","","null","77","","","","","","","","","","","","","","","NaN",""
"","S1","","html-keyboard-response","515","488012","0.0-1.0-704.0","0","0","39269","","null","","","null","78","","","","","","","","","","","","","","","",""
"","ISI","","html-keyboard-response","516","489020","0.0-1.0-705.0","0","0","39269","","null","","","null","78","NaN","","","","","","","","","","","","","","",""
"","S2","","html-keyboard-response","517","489276","0.0-1.0-706.0","0","0","39269","","null","","","null","78","","NaN","","","","","","","","","","","","","",""
"","response","","html-keyboard-response","518","489640","0.0-1.0-707.0-0.0","0","0","39269","","360","","","75","78","","","2","78","training","adjacent","FG","6","7","R.jpg","P.jpg","1","1","1","",""
"","feedback","","html-keyboard-response","519","490654","0.0-1.0-708.0-0.0","0","0","39269","","null","","","null","78","","","","","","","","","","","","","","","",""
"","ITI","","html-keyboard-response","520","491661","0.0-1.0-711.0","0","0","39269","","null","","","null","78","","","","","","","","","","","","","","","NaN",""
"","S1","","html-keyboard-response","521","491917","0.0-1.0-713.0","0","0","39269","","null","","","null","79","","","","","","","","","","","","","","","",""
"","ISI","","html-keyboard-response","522","492931","0.0-1.0-714.0","0","0","39269","","null","","","null","79","NaN","","","","","","","","","","","","","","",""
"","S2","","html-keyboard-response","523","493197","0.0-1.0-715.0","0","0","39269","","null","","","null","79","","NaN","","","","","","","","","","","","","",""
"","response","","html-keyboard-response","524","493394","0.0-1.0-716.0-0.0","0","0","39269","","191","","","75","79","","","2","79","training","adjacent","CB","3","2","Q.jpg","L.jpg","1","0","0","",""
"","feedback","","html-keyboard-response","525","494405","0.0-1.0-717.0-0.0","0","0","39269","","null","","","null","79","","","","","","","","","","","","","","","",""
"","time_out","","html-keyboard-response","526","496414","0.0-1.0-719.0-0.0","0","0","39269","","null","","","null","79","","","","","","","","","","","","","","","",""
"","ITI","","html-keyboard-response","527","497421","0.0-1.0-720.0","0","0","39269","","null","","","null","79","","","","","","","","","","","","","","","NaN",""
"","S1","","html-keyboard-response","528","497676","0.0-1.0-722.0","0","0","39269","","null","","","null","80","","","","","","","","","","","","","","","",""
"","ISI","","html-keyboard-response","529","498685","0.0-1.0-723.0","0","0","39269","","null","","","null","80","NaN","","","","","","","","","","","","","","",""
"","S2","","html-keyboard-response","530","498940","0.0-1.0-724.0","0","0","39269","","null","","","null","80","","NaN","","","","","","","","","","","","","",""
"","response","","html-keyboard-response","531","499243","0.0-1.0-725.0-0.0","0","0","39269","","297","","","75","80","","","2","80","training","adjacent","EF","5","6","O.jpg","R.jpg","1","1","1","",""
"","feedback","","html-keyboard-response","532","500256","0.0-1.0-726.0-0.0","0","0","39269","","null","","","null","80","","","","","","","","","","","","","","","",""
"","ITI","","html-keyboard-response","533","501269","0.0-1.0-729.0","0","0","39269","","null","","","null","80","","","","","","","","","","","","","","","NaN",""
"","S1","","html-keyboard-response","534","501524","0.0-1.0-731.0","0","0","39269","","null","","","null","81","","","","","","","","","","","","","","","",""
"","ISI","","html-keyboard-response","535","502533","0.0-1.0-732.0","0","0","39269","","null","","","null","81","NaN","","","","","","","","","","","","","","",""
"","S2","","html-keyboard-response","536","502789","0.0-1.0-733.0","0","0","39269","","null","","","null","81","","NaN","","","","","","","","","","","","","",""
"","response","","html-keyboard-response","537","503585","0.0-1.0-734.0-0.0","0","0","39269","","789","","","75","81","","","2","81","training","adjacent","BA","2","1","L.jpg","N.jpg","1","0","0","",""
"","feedback","","html-keyboard-response","538","504596","0.0-1.0-735.0-0.0","0","0","39269","","null","","","null","81","","","","","","","","","","","","","","","",""
"","time_out","","html-keyboard-response","539","506605","0.0-1.0-737.0-0.0","0","0","39269","","null","","","null","81","","","","","","","","","","","","","","","",""
"","ITI","","html-keyboard-response","540","507613","0.0-1.0-738.0","0","0","39269","","null","","","null","81","","","","","","","","","","","","","","","NaN",""
"","S1","","html-keyboard-response","541","507869","0.0-1.0-740.0","0","0","39269","","null","","","null","82","","","","","","","","","","","","","","","",""
"","ISI","","html-keyboard-response","542","508884","0.0-1.0-741.0","0","0","39269","","null","","","null","82","NaN","","","","","","","","","","","","","","",""
"","S2","","html-keyboard-response","543","509141","0.0-1.0-742.0","0","0","39269","","null","","","null","82","","NaN","","","","","","","","","","","","","",""
"","response","","html-keyboard-response","544","509887","0.0-1.0-743.0-0.0","0","0","39269","","743","","","68","82","","","2","82","training","adjacent","AB","1","2","N.jpg","L.jpg","0","1","0","",""
"","feedback","","html-keyboard-response","545","510900","0.0-1.0-744.0-0.0","0","0","39269","","null","","","null","82","","","","","","","","","","","","","","","",""
"","time_out","","html-keyboard-response","546","512908","0.0-1.0-746.0-0.0","0","0","39269","","null","","","null","82","","","","","","","","","","","","","","","",""
"","ITI","","html-keyboard-response","547","513920","0.0-1.0-747.0","0","0","39269","","null","","","null","82","","","","","","","","","","","","","","","NaN",""
"","S1","","html-keyboard-response","548","514180","0.0-1.0-749.0","0","0","39269","","null","","","null","83","","","","","","","","","","","","","","","",""
"","ISI","","html-keyboard-response","549","515189","0.0-1.0-750.0","0","0","39269","","null","","","null","83","NaN","","","","","","","","","","","","","","",""
"","S2","","html-keyboard-response","550","515445","0.0-1.0-751.0","0","0","39269","","null","","","null","83","","NaN","","","","","","","","","","","","","",""
"","response","","html-keyboard-response","551","515943","0.0-1.0-752.0-0.0","0","0","39269","","494","","","75","83","","","2","83","training","adjacent","CB","3","2","Q.jpg","L.jpg","1","0","0","",""
"","feedback","","html-keyboard-response","552","516956","0.0-1.0-753.0-0.0","0","0","39269","","null","","","null","83","","","","","","","","","","","","","","","",""
"","time_out","","html-keyboard-response","553","518965","0.0-1.0-755.0-0.0","0","0","39269","","null","","","null","83","","","","","","","","","","","","","","","",""
"","ITI","","html-keyboard-response","554","519973","0.0-1.0-756.0","0","0","39269","","null","","","null","83","","","","","","","","","","","","","","","NaN",""
"","S1","","html-keyboard-response","555","520236","0.0-1.0-758.0","0","0","39269","","null","","","null","84","","","","","","","","","","","","","","","",""
"","ISI","","html-keyboard-response","556","521244","0.0-1.0-759.0","0","0","39269","","null","","","null","84","NaN","","","","","","","","","","","","","","",""
"","S2","","html-keyboard-response","557","521501","0.0-1.0-760.0","0","0","39269","","null","","","null","84","","NaN","","","","","","","","","","","","","",""
"","response","","html-keyboard-response","558","521835","0.0-1.0-761.0-0.0","0","0","39269","","329","","","75","84","","","2","84","training","adjacent","GF","7","6","P.jpg","R.jpg","1","0","0","",""
"","feedback","","html-keyboard-response","559","522845","0.0-1.0-762.0-0.0","0","0","39269","","null","","","null","84","","","","","","","","","","","","","","","",""
"","time_out","","html-keyboard-response","560","524853","0.0-1.0-764.0-0.0","0","0","39269","","null","","","null","84","","","","","","","","","","","","","","","",""
"","ITI","","html-keyboard-response","561","525861","0.0-1.0-765.0","0","0","39269","","null","","","null","84","","","","","","","","","","","","","","","NaN",""
"","S1","","html-keyboard-response","562","526126","0.0-1.0-767.0","0","0","39269","","null","","","null","85","","","","","","","","","","","","","","","",""
"","ISI","","html-keyboard-response","563","527133","0.0-1.0-768.0","0","0","39269","","null","","","null","85","NaN","","","","","","","","","","","","","","",""
"","S2","","html-keyboard-response","564","527389","0.0-1.0-769.0","0","0","39269","","null","","","null","85","","NaN","","","","","","","","","","","","","",""
"","response","","html-keyboard-response","565","527663","0.0-1.0-770.0-0.0","0","0","39269","","267","","","68","85","","","2","85","training","adjacent","BC","2","3","L.jpg","Q.jpg","0","1","0","",""
"","feedback","","html-keyboard-response","566","528677","0.0-1.0-771.0-0.0","0","0","39269","","null","","","null","85","","","","","","","","","","","","","","","",""
"","time_out","","html-keyboard-response","567","530684","0.0-1.0-773.0-0.0","0","0","39269","","null","","","null","85","","","","","","","","","","","","","","","",""
"","ITI","","html-keyboard-response","568","531693","0.0-1.0-774.0","0","0","39269","","null","","","null","85","","","","","","","","","","","","","","","NaN",""
"","S1","","html-keyboard-response","569","531956","0.0-1.0-776.0","0","0","39269","","null","","","null","86","","","","","","","","","","","","","","","",""
"","ISI","","html-keyboard-response","570","532965","0.0-1.0-777.0","0","0","39269","","null","","","null","86","NaN","","","","","","","","","","","","","","",""
"","S2","","html-keyboard-response","571","533220","0.0-1.0-778.0","0","0","39269","","null","","","null","86","","NaN","","","","","","","","","","","","","",""
"","response","","html-keyboard-response","572","533412","0.0-1.0-779.0-0.0","0","0","39269","","187","","","75","86","","","2","86","training","adjacent","FE","6","5","R.jpg","O.jpg","1","0","0","",""
"","feedback","","html-keyboard-response","573","534420","0.0-1.0-780.0-0.0","0","0","39269","","null","","","null","86","","","","","","","","","","","","","","","",""
"","time_out","","html-keyboard-response","574","536428","0.0-1.0-782.0-0.0","0","0","39269","","null","","","null","86","","","","","","","","","","","","","","","",""
"","ITI","","html-keyboard-response","575","537436","0.0-1.0-783.0","0","0","39269","","null","","","null","86","","","","","","","","","","","","","","","NaN",""
"","S1","","html-keyboard-response","576","537697","0.0-1.0-785.0","0","0","39269","","null","","","null","87","","","","","","","","","","","","","","","",""
"","ISI","","html-keyboard-response","577","538708","0.0-1.0-786.0","0","0","39269","","null","","","null","87","NaN","","","","","","","","","","","","","","",""
"","S2","","html-keyboard-response","578","538964","0.0-1.0-787.0","0","0","39269","","null","","","null","87","","NaN","","","","","","","","","","","","","",""
"","response","","html-keyboard-response","579","539655","0.0-1.0-788.0-0.0","0","0","39269","","686","","","75","87","","","2","87","training","adjacent","ED","5","4","O.jpg","M.jpg","1","0","0","",""
"","feedback","","html-keyboard-response","580","540668","0.0-1.0-789.0-0.0","0","0","39269","","null","","","null","87","","","","","","","","","","","","","","","",""
"","time_out","","html-keyboard-response","581","542678","0.0-1.0-791.0-0.0","0","0","39269","","null","","","null","87","","","","","","","","","","","","","","","",""
"","ITI","","html-keyboard-response","582","543686","0.0-1.0-792.0","0","0","39269","","null","","","null","87","","","","","","","","","","","","","","","NaN",""
