"success","ttype","start_time","trial_type","trial_index","time_elapsed","internal_node_id","warning","missed_checkup","PID","view_history","rt","responses","repeat_instructions","key_press","index","keypress_isi","keypress_S2","block","trial_num","phase","group_type","pair_type","S1_stim","S2_stim","S1_img","S2_img","S1_chosen","S1_higher","accuracy","keypress_iti","total_bonus_tally"
"true","full_screen","d07282022hr1956","fullscreen","0","5970","0.0-0.0","0","0","28173","","","","","","","","","","","","","","","","","","","","","",""
"","instructions","","instructions","1","20024","0.0-1.0-0.0-0.0","0","0","28173","[{""page_index"":0,""viewing_time"":2826},{""page_index"":1,""viewing_time"":5812},{""page_index"":2,""viewing_time"":4569},{""page_index"":3,""viewing_time"":845}]","14053","","","","","","","","","","","","","","","","","","","",""
"","comprehension_check","","survey-multi-choice","2","32787","0.0-1.0-0.0-1.0","0","0","28173","","12758","{""Q0"":""True"",""Q1"":""True"",""Q2"":""When you see the prompt 'MAKE A CHOICE' after the second image was presented"",""Q3"":""Green mark"",""Q4"":""either D or K""}","0","","","","","","","","","","","","","","","","","",""
"","start_exp","","html-keyboard-response","3","33991","0.0-1.0-1.0","0","0","28173","","1202","","","32","","","","","","","","","","","","","","","","",""
"","S1","","html-keyboard-response","4","34244","0.0-1.0-2.0","0","0","28173","","null","","","null","0","","","","","","","","","","","","","","","",""
"","ISI","","html-keyboard-response","5","36247","0.0-1.0-3.0","0","0","28173","","null","","","null","0","NaN","","","","","","","","","","","","","","",""
"","S2","","html-keyboard-response","6","36499","0.0-1.0-4.0","0","0","28173","","null","","","null","0","","NaN","","","","","","","","","","","","","",""
"","response","","html-keyboard-response","7","37069","0.0-1.0-5.0","0","0","28173","","567","","","68","0","","","1","0","training","adjacent","AB","1","2","L.jpg","Q.jpg","0","1","0","",""
"","feedback","","html-keyboard-response","8","38072","0.0-1.0-6.0-0.0","0","0","28173","","null","","","null","0","","","","","","","","","","","","","","","",""
"","time_out","","html-keyboard-response","9","40074","0.0-1.0-8.0-0.0","0","0","28173","","null","","","null","0","","","","","","","","","","","","","","","",""
"","ITI","","html-keyboard-response","10","41077","0.0-1.0-9.0","0","0","28173","","null","","","null","0","","","","","","","","","","","","","","","NaN",""
"","S1","","html-keyboard-response","11","41329","0.0-1.0-11.0","0","0","28173","","null","","","null","1","","","","","","","","","","","","","","","",""
"","ISI","","html-keyboard-response","12","43331","0.0-1.0-12.0","0","0","28173","","null","","","null","1","NaN","","","","","","","","","","","","","","",""
"","S2","","html-keyboard-response","13","43583","0.0-1.0-13.0","0","0","28173","","null","","","null","1","","NaN","","","","","","","","","","","","","",""
"","response","","html-keyboard-response","14","44256","0.0-1.0-14.0","0","0","28173","","672","","","68","1","","","1","1","training","adjacent","GF","7","6","P.jpg","M.jpg","0","0","1","",""
"","feedback","","html-keyboard-response","15","45257","0.0-1.0-15.0-0.0","0","0","28173","","null","","","null","1","","","","","","","","","","","","","","","",""
"","ITI","","html-keyboard-response","16","46259","0.0-1.0-18.0","0","0","28173","","null","","","null","1","","","","","","","","","","","","","","","NaN",""
"","S1","","html-keyboard-response","17","46511","0.0-1.0-20.0","0","0","28173","","null","","","null","2","","","","","","","","","","","","","","","",""
"","ISI","","html-keyboard-response","18","48548","0.0-1.0-21.0","0","0","28173","","null","","","null","2","NaN","","","","","","","","","","","","","","",""
"","S2","","html-keyboard-response","19","48800","0.0-1.0-22.0","0","0","28173","","null","","","null","2","","NaN","","","","","","","","","","","","","",""
"","response","","html-keyboard-response","20","49495","0.0-1.0-23.0","0","0","28173","","693","","","68","2","","","1","2","training","adjacent","AB","1","2","L.jpg","Q.jpg","0","1","0","",""
"","feedback","","html-keyboard-response","21","50497","0.0-1.0-24.0-0.0","0","0","28173","","null","","","null","2","","","","","","","","","","","","","","","",""
"","time_out","","html-keyboard-response","22","52499","0.0-1.0-26.0-0.0","0","0","28173","","null","","","null","2","","","","","","","","","","","","","","","",""
"","ITI","","html-keyboard-response","23","53500","0.0-1.0-27.0","0","0","28173","","null","","","null","2","","","","","","","","","","","","","","","NaN",""
"","S1","","html-keyboard-response","24","53753","0.0-1.0-29.0","0","0","28173","","null","","","null","3","","","","","","","","","","","","","","","",""
"","ISI","","html-keyboard-response","25","55756","0.0-1.0-30.0","0","0","28173","","null","","","null","3","NaN","","","","","","","","","","","","","","",""
"","S2","","html-keyboard-response","26","56007","0.0-1.0-31.0","0","0","28173","","null","","","null","3","","NaN","","","","","","","","","","","","","",""
"","response","","html-keyboard-response","27","56815","0.0-1.0-32.0","0","0","28173","","806","","","68","3","","","1","3","training","adjacent","AB","1","2","L.jpg","Q.jpg","0","1","0","",""
"","feedback","","html-keyboard-response","28","57817","0.0-1.0-33.0-0.0","0","0","28173","","null","","","null","3","","","","","","","","","","","","","","","",""
"","time_out","","html-keyboard-response","29","59820","0.0-1.0-35.0-0.0","0","0","28173","","null","","","null","3","","","","","","","","","","","","","","","",""
"","ITI","","html-keyboard-response","30","60821","0.0-1.0-36.0","0","0","28173","","null","","","null","3","","","","","","","","","","","","","","","NaN",""
"","S1","","html-keyboard-response","31","61074","0.0-1.0-38.0","0","0","28173","","null","","","null","4","","","","","","","","","","","","","","","",""
"","ISI","","html-keyboard-response","32","63075","0.0-1.0-39.0","0","0","28173","","null","","","null","4","NaN","","","","","","","","","","","","","","",""
"","S2","","html-keyboard-response","33","63327","0.0-1.0-40.0","0","0","28173","","null","","","null","4","","NaN","","","","","","","","","","","","","",""
"","response","","html-keyboard-response","34","63436","0.0-1.0-41.0","0","0","28173","","108","","","68","4","","","1","4","training","adjacent","CB","3","2","R.jpg","Q.jpg","0","0","1","",""
"","feedback","","html-keyboard-response","35","64438","0.0-1.0-42.0-0.0","0","0","28173","","null","","","null","4","","","","","","","","","","","","","","","",""
"","ITI","","html-keyboard-response","36","65440","0.0-1.0-45.0","0","0","28173","","null","","","null","4","","","","","","","","","","","","","","","NaN",""
"","S1","","html-keyboard-response","37","65693","0.0-1.0-47.0","0","0","28173","","null","","","null","5","","","","","","","","","","","","","","","",""
"","ISI","","html-keyboard-response","38","67695","0.0-1.0-48.0","0","0","28173","","null","","","null","5","NaN","","","","","","","","","","","","","","",""
"","S2","","html-keyboard-response","39","67947","0.0-1.0-49.0","0","0","28173","","null","","","null","5","","NaN","","","","","","","","","","","","","",""
"","response","","html-keyboard-response","40","68588","0.0-1.0-50.0","0","0","28173","","639","","","68","5","","","1","5","training","adjacent","EF","5","6","N.jpg","M.jpg","0","1","0","",""
"","feedback","","html-keyboard-response","41","69590","0.0-1.0-51.0-0.0","0","0","28173","","null","","","null","5","","","","","","","","","","","","","","","",""
"","time_out","","html-keyboard-response","42","71593","0.0-1.0-53.0-0.0","0","0","28173","","null","","","null","5","","","","","","","","","","","","","","","",""
"","ITI","","html-keyboard-response","43","72595","0.0-1.0-54.0","0","0","28173","","null","","","null","5","","","","","","","","","","","","","","","NaN",""
"","S1","","html-keyboard-response","44","72848","0.0-1.0-56.0","0","0","28173","","null","","","null","6","","","","","","","","","","","","","","","",""
"","ISI","","html-keyboard-response","45","74849","0.0-1.0-57.0","0","0","28173","","null","","","null","6","NaN","","","","","","","","","","","","","","",""
"","S2","","html-keyboard-response","46","75102","0.0-1.0-58.0","0","0","28173","","null","","","null","6","","NaN","","","","","","","","","","","","","",""
"","response","","html-keyboard-response","47","75161","0.0-1.0-59.0","0","0","28173","","57","","","75","6","","","1","6","training","adjacent","AB","1","2","L.jpg","Q.jpg","1","1","1","",""
"","feedback","","html-keyboard-response","48","76163","0.0-1.0-60.0-0.0","0","0","28173","","null","","","null","6","","","","","","","","","","","","","","","",""
"","ITI","","html-keyboard-response","49","77165","0.0-1.0-63.0","0","0","28173","","null","","","null","6","","","","","","","","","","","","","","","NaN",""
"","S1","","html-keyboard-response","50","77417","0.0-1.0-65.0","0","0","28173","","null","","","null","7","","","","","","","","","","","","","","","",""
"","ISI","","html-keyboard-response","51","79420","0.0-1.0-66.0","0","0","28173","","null","","","null","7","NaN","","","","","","","","","","","","","","",""
"","S2","","html-keyboard-response","52","79671","0.0-1.0-67.0","0","0","28173","","null","","","null","7","","NaN","","","","","","","","","","","","","",""
"","response","","html-keyboard-response","53","79820","0.0-1.0-68.0","0","0","28173","","147","","","75","7","","","1","7","training","adjacent","BA","2","1","Q.jpg","L.jpg","1","0","0","",""
"","feedback","","html-keyboard-response","54","80822","0.0-1.0-69.0-0.0","0","0","28173","","null","","","null","7","","","","","","","","","","","","","","","",""
"","time_out","","html-keyboard-response","55","82823","0.0-1.0-71.0-0.0","0","0","28173","","null","","","null","7","","","","","","","","","","","","","","","",""
"","ITI","","html-keyboard-response","56","83827","0.0-1.0-72.0","0","0","28173","","null","","","null","7","","","","","","","","","","","","","","","NaN",""
"","S1","","html-keyboard-response","57","84079","0.0-1.0-74.0","0","0","28173","","null","","","null","8","","","","","","","","","","","","","","","",""
"","ISI","","html-keyboard-response","58","86081","0.0-1.0-75.0","0","0","28173","","null","","","null","8","NaN","","","","","","","","","","","","","","",""
"","S2","","html-keyboard-response","59","86334","0.0-1.0-76.0","0","0","28173","","null","","","null","8","","NaN","","","","","","","","","","","","","",""
"","response","","html-keyboard-response","60","86410","0.0-1.0-77.0","0","0","28173","","75","","","68","8","","","1","8","training","adjacent","BA","2","1","Q.jpg","L.jpg","0","0","1","",""
"","feedback","","html-keyboard-response","61","87412","0.0-1.0-78.0-0.0","0","0","28173","","null","","","null","8","","","","","","","","","","","","","","","",""
"","ITI","","html-keyboard-response","62","88414","0.0-1.0-81.0","0","0","28173","","null","","","null","8","","","","","","","","","","","","","","","NaN",""
"","S1","","html-keyboard-response","63","88666","0.0-1.0-83.0","0","0","28173","","null","","","null","9","","","","","","","","","","","","","","","",""
"","ISI","","html-keyboard-response","64","90668","0.0-1.0-84.0","0","0","28173","","null","","","null","9","NaN","","","","","","","","","","","","","","",""
"","S2","","html-keyboard-response","65","90920","0.0-1.0-85.0","0","0","28173","","null","","","null","9","","NaN","","","","","","","","","","","","","",""
"","response","","html-keyboard-response","66","91576","0.0-1.0-86.0","0","0","28173","","655","","","75","9","","","1","9","training","adjacent","CB","3","2","R.jpg","Q.jpg","1","0","0","",""
"","feedback","","html-keyboard-response","67","92579","0.0-1.0-87.0-0.0","0","0","28173","","null","","","null","9","","","","","","","","","","","","","","","",""
"","time_out","","html-keyboard-response","68","94581","0.0-1.0-89.0-0.0","0","0","28173","","null","","","null","9","","","","","","","","","","","","","","","",""
"","ITI","","html-keyboard-response","69","95583","0.0-1.0-90.0","0","0","28173","","null","","","null","9","","","","","","","","","","","","","","","NaN",""
"","S1","","html-keyboard-response","70","95835","0.0-1.0-92.0","0","0","28173","","null","","","null","10","","","","","","","","","","","","","","","",""
"","ISI","","html-keyboard-response","71","97838","0.0-1.0-93.0","0","0","28173","","null","","","null","10","NaN","","","","","","","","","","","","","","",""
"","S2","","html-keyboard-response","72","98090","0.0-1.0-94.0","0","0","28173","","null","","","null","10","","NaN","","","","","","","","","","","","","",""
"","response","","html-keyboard-response","73","98600","0.0-1.0-95.0","0","0","28173","","509","","","68","10","","","1","10","training","adjacent","BA","2","1","Q.jpg","L.jpg","0","0","1","",""
"","feedback","","html-keyboard-response","74","99603","0.0-1.0-96.0-0.0","0","0","28173","","null","","","null","10","","","","","","","","","","","","","","","",""
"","ITI","","html-keyboard-response","75","100605","0.0-1.0-99.0","0","0","28173","","null","","","null","10","","","","","","","","","","","","","","","NaN",""
"","S1","","html-keyboard-response","76","100856","0.0-1.0-101.0","0","0","28173","","null","","","null","11","","","","","","","","","","","","","","","",""
"","ISI","","html-keyboard-response","77","102858","0.0-1.0-102.0","0","0","28173","","null","","","null","11","NaN","","","","","","","","","","","","","","",""
"","S2","","html-keyboard-response","78","103110","0.0-1.0-103.0","0","0","28173","","null","","","null","11","","NaN","","","","","","","","","","","","","",""
"","response","","html-keyboard-response","79","103427","0.0-1.0-104.0","0","0","28173","","316","","","75","11","","","1","11","training","adjacent","FG","6","7","M.jpg","P.jpg","1","1","1","",""
"","feedback","","html-keyboard-response","80","104429","0.0-1.0-105.0-0.0","0","0","28173","","null","","","null","11","","","","","","","","","","","","","","","",""
"","ITI","","html-keyboard-response","81","105430","0.0-1.0-108.0","0","0","28173","","null","","","null","11","","","","","","","","","","","","","","","NaN",""
"","S1","","html-keyboard-response","82","105683","0.0-1.0-110.0","0","0","28173","","null","","","null","12","","","","","","","","","","","","","","","",""
"","ISI","","html-keyboard-response","83","107685","0.0-1.0-111.0","0","0","28173","","null","","","null","12","NaN","","","","","","","","","","","","","","",""
"","S2","","html-keyboard-response","84","107938","0.0-1.0-112.0","0","0","28173","","null","","","null","12","","NaN","","","","","","","","","","","","","",""
"","response","","html-keyboard-response","85","108433","0.0-1.0-113.0","0","0","28173","","494","","","68","12","","","1","12","training","adjacent","EF","5","6","N.jpg","M.jpg","0","1","0","",""
"","feedback","","html-keyboard-response","86","109436","0.0-1.0-114.0-0.0","0","0","28173","","null","","","null","12","","","","","","","","","","","","","","","",""
"","time_out","","html-keyboard-response","87","111437","0.0-1.0-116.0-0.0","0","0","28173","","null","","","null","12","","","","","","","","","","","","","","","",""
"","ITI","","html-keyboard-response","88","112439","0.0-1.0-117.0","0","0","28173","","null","","","null","12","","","","","","","","","","","","","","","NaN",""
"","S1","","html-keyboard-response","89","112691","0.0-1.0-119.0","0","0","28173","","null","","","null","13","","","","","","","","","","","","","","","",""
"","ISI","","html-keyboard-response","90","114692","0.0-1.0-120.0","0","0","28173","","null","","","null","13","NaN","","","","","","","","","","","","","","",""
"","S2","","html-keyboard-response","91","114944","0.0-1.0-121.0","0","0","28173","","null","","","null","13","","NaN","","","","","","","","","","","","","",""
"","response","","html-keyboard-response","92","115270","0.0-1.0-122.0","0","0","28173","","324","","","68","13","","","1","13","training","adjacent","BC","2","3","Q.jpg","R.jpg","0","1","0","",""
"","feedback","","html-keyboard-response","93","116272","0.0-1.0-123.0-0.0","0","0","28173","","null","","","null","13","","","","","","","","","","","","","","","",""
"","time_out","","html-keyboard-response","94","118274","0.0-1.0-125.0-0.0","0","0","28173","","null","","","null","13","","","","","","","","","","","","","","","",""
"","ITI","","html-keyboard-response","95","119276","0.0-1.0-126.0","0","0","28173","","null","","","null","13","","","","","","","","","","","","","","","NaN",""
"","S1","","html-keyboard-response","96","119528","0.0-1.0-128.0","0","0","28173","","null","","","null","14","","","","","","","","","","","","","","","",""
"","ISI","","html-keyboard-response","97","121531","0.0-1.0-129.0","0","0","28173","","null","","","null","14","NaN","","","","","","","","","","","","","","",""
"","S2","","html-keyboard-response","98","121783","0.0-1.0-130.0","0","0","28173","","null","","","null","14","","NaN","","","","","","","","","","","","","",""
"","response","","html-keyboard-response","99","122485","0.0-1.0-131.0","0","0","28173","","700","","","75","14","","","1","14","training","adjacent","FE","6","5","M.jpg","N.jpg","1","0","0","",""
"","feedback","","html-keyboard-response","100","123488","0.0-1.0-132.0-0.0","0","0","28173","","null","","","null","14","","","","","","","","","","","","","","","",""
"","time_out","","html-keyboard-response","101","125490","0.0-1.0-134.0-0.0","0","0","28173","","null","","","null","14","","","","","","","","","","","","","","","",""
"","ITI","","html-keyboard-response","102","126492","0.0-1.0-135.0","0","0","28173","","null","","","null","14","","","","","","","","","","","","","","","NaN",""
"","S1","","html-keyboard-response","103","126744","0.0-1.0-137.0","0","0","28173","","null","","","null","15","","","","","","","","","","","","","","","",""
"","ISI","","html-keyboard-response","104","128746","0.0-1.0-138.0","0","0","28173","","null","","","null","15","NaN","","","","","","","","","","","","","","",""
"","S2","","html-keyboard-response","105","128998","0.0-1.0-139.0","0","0","28173","","null","","","null","15","","NaN","","","","","","","","","","","","","",""
"","response","","html-keyboard-response","106","129224","0.0-1.0-140.0","0","0","28173","","226","","","68","15","","","1","15","training","adjacent","CB","3","2","R.jpg","Q.jpg","0","0","1","",""
"","feedback","","html-keyboard-response","107","130226","0.0-1.0-141.0-0.0","0","0","28173","","null","","","null","15","","","","","","","","","","","","","","","",""
"","ITI","","html-keyboard-response","108","131228","0.0-1.0-144.0","0","0","28173","","null","","","null","15","","","","","","","","","","","","","","","NaN",""
"","S1","","html-keyboard-response","109","131480","0.0-1.0-146.0","0","0","28173","","null","","","null","16","","","","","","","","","","","","","","","",""
"","ISI","","html-keyboard-response","110","133482","0.0-1.0-147.0","0","0","28173","","null","","","null","16","NaN","","","","","","","","","","","","","","",""
"","S2","","html-keyboard-response","111","133734","0.0-1.0-148.0","0","0","28173","","null","","","null","16","","NaN","","","","","","","","","","","","","",""
"","response","","html-keyboard-response","112","134531","0.0-1.0-149.0","0","0","28173","","795","","","75","16","","","1","16","training","adjacent","CD","3","4","R.jpg","O.jpg","1","1","1","",""
"","feedback","","html-keyboard-response","113","135533","0.0-1.0-150.0-0.0","0","0","28173","","null","","","null","16","","","","","","","","","","","","","","","",""
"","ITI","","html-keyboard-response","114","136534","0.0-1.0-153.0","0","0","28173","","null","","","null","16","","","","","","","","","","","","","","","NaN",""
"","S1","","html-keyboard-response","115","136786","0.0-1.0-155.0","0","0","28173","","null","","","null","17","","","","","","","","","","","","","","","",""
"","ISI","","html-keyboard-response","116","138788","0.0-1.0-156.0","0","0","28173","","null","","","null","17","NaN","","","","","","","","","","","","","","",""
"","S2","","html-keyboard-response","117","139041","0.0-1.0-157.0","0","0","28173","","null","","","null","17","","NaN","","","","","","","","","","","","","",""
"","response","","html-keyboard-response","118","139773","0.0-1.0-158.0","0","0","28173","","732","","","68","17","","","1","17","training","adjacent","EF","5","6","N.jpg","M.jpg","0","1","0","",""
"","feedback","","html-keyboard-response","119","140776","0.0-1.0-159.0-0.0","0","0","28173","","null","","","null","17","","","","","","","","","","","","","","","",""
"","time_out","","html-keyboard-response","120","142779","0.0-1.0-161.0-0.0","0","0","28173","","null","","","null","17","","","","","","","","","","","","","","","",""
"","ITI","","html-keyboard-response","121","143781","0.0-1.0-162.0","0","0","28173","","null","","","null","17","","","","","","","","","","","","","","","NaN",""
"","S1","","html-keyboard-response","122","144033","0.0-1.0-164.0","0","0","28173","","null","","","null","18","","","","","","","","","","","","","","","",""
"","ISI","","html-keyboard-response","123","146035","0.0-1.0-165.0","0","0","28173","","null","","","null","18","NaN","","","","","","","","","","","","","","",""
"","S2","","html-keyboard-response","124","146286","0.0-1.0-166.0","0","0","28173","","null","","","null","18","","NaN","","","","","","","","","","","","","",""
"","response","","html-keyboard-response","125","146472","0.0-1.0-167.0","0","0","28173","","185","","","68","18","","","1","18","training","adjacent","DE","4","5","O.jpg","N.jpg","0","1","0","",""
"","feedback","","html-keyboard-response","126","147474","0.0-1.0-168.0-0.0","0","0","28173","","null","","","null","18","","","","","","","","","","","","","","","",""
"","time_out","","html-keyboard-response","127","149478","0.0-1.0-170.0-0.0","0","0","28173","","null","","","null","18","","","","","","","","","","","","","","","",""
"","ITI","","html-keyboard-response","128","150479","0.0-1.0-171.0","0","0","28173","","null","","","null","18","","","","","","","","","","","","","","","NaN",""
"","S1","","html-keyboard-response","129","150732","0.0-1.0-173.0","0","0","28173","","null","","","null","19","","","","","","","","","","","","","","","",""
"","ISI","","html-keyboard-response","130","152733","0.0-1.0-174.0","0","0","28173","","null","","","null","19","NaN","","","","","","","","","","","","","","",""
"","S2","","html-keyboard-response","131","152986","0.0-1.0-175.0","0","0","28173","","null","","","null","19","","NaN","","","","","","","","","","","","","",""
"","response","","html-keyboard-response","132","153356","0.0-1.0-176.0","0","0","28173","","369","","","68","19","","","1","19","training","adjacent","BC","2","3","Q.jpg","R.jpg","0","1","0","",""
"","feedback","","html-keyboard-response","133","154358","0.0-1.0-177.0-0.0","0","0","28173","","null","","","null","19","","","","","","","","","","","","","","","",""
"","time_out","","html-keyboard-response","134","156360","0.0-1.0-179.0-0.0","0","0","28173","","null","","","null","19","","","","","","","","","","","","","","","",""
"","ITI","","html-keyboard-response","135","157362","0.0-1.0-180.0","0","0","28173","","null","","","null","19","","","","","","","","","","","","","","","NaN",""
"","S1","","html-keyboard-response","136","157614","0.0-1.0-182.0","0","0","28173","","null","","","null","20","","","","","","","","","","","","","","","",""
"","ISI","","html-keyboard-response","137","159617","0.0-1.0-183.0","0","0","28173","","null","","","null","20","NaN","","","","","","","","","","","","","","",""
"","S2","","html-keyboard-response","138","159869","0.0-1.0-184.0","0","0","28173","","null","","","null","20","","NaN","","","","","","","","","","","","","",""
"","response","","html-keyboard-response","139","159980","0.0-1.0-185.0","0","0","28173","","110","","","75","20","","","1","20","training","adjacent","BC","2","3","Q.jpg","R.jpg","1","1","1","",""
"","feedback","","html-keyboard-response","140","160984","0.0-1.0-186.0-0.0","0","0","28173","","null","","","null","20","","","","","","","","","","","","","","","",""
"","ITI","","html-keyboard-response","141","161985","0.0-1.0-189.0","0","0","28173","","null","","","null","20","","","","","","","","","","","","","","","NaN",""
"","S1","","html-keyboard-response","142","162238","0.0-1.0-191.0","0","0","28173","","null","","","null","21","","","","","","","","","","","","","","","",""
"","ISI","","html-keyboard-response","143","164239","0.0-1.0-192.0","0","0","28173","","null","","","null","21","NaN","","","","","","","","","","","","","","",""
"","S2","","html-keyboard-response","144","164492","0.0-1.0-193.0","0","0","28173","","null","","","null","21","","NaN","","","","","","","","","","","","","",""
"","response","","html-keyboard-response","145","164534","0.0-1.0-194.0","0","0","28173","","41","","","75","21","","","1","21","training","adjacent","DC","4","3","O.jpg","R.jpg","1","0","0","",""
"","feedback","","html-keyboard-response","146","165537","0.0-1.0-195.0-0.0","0","0","28173","","null","","","null","21","","","","","","","","","","","","","","","",""
"","time_out","","html-keyboard-response","147","167539","0.0-1.0-197.0-0.0","0","0","28173","","null","","","null","21","","","","","","","","","","","","","","","",""
"","ITI","","html-keyboard-response","148","168542","0.0-1.0-198.0","0","0","28173","","null","","","null","21","","","","","","","","","","","","","","","NaN",""
"","S1","","html-keyboard-response","149","168793","0.0-1.0-200.0","0","0","28173","","null","","","null","22","","","","","","","","","","","","","","","",""
"","ISI","","html-keyboard-response","150","170794","0.0-1.0-201.0","0","0","28173","","null","","","null","22","NaN","","","","","","","","","","","","","","",""
"","S2","","html-keyboard-response","151","171047","0.0-1.0-202.0","0","0","28173","","null","","","null","22","","NaN","","","","","","","","","","","","","",""
"","response","","html-keyboard-response","152","171419","0.0-1.0-203.0","0","0","28173","","371","","","75","22","","","1","22","training","adjacent","FG","6","7","M.jpg","P.jpg","1","1","1","",""
"","feedback","","html-keyboard-response","153","172422","0.0-1.0-204.0-0.0","0","0","28173","","null","","","null","22","","","","","","","","","","","","","","","",""
"","ITI","","html-keyboard-response","154","173424","0.0-1.0-207.0","0","0","28173","","null","","","null","22","","","","","","","","","","","","","","","NaN",""
"","S1","","html-keyboard-response","155","173676","0.0-1.0-209.0","0","0","28173","","null","","","null","23","","","","","","","","","","","","","","","",""
"","ISI","","html-keyboard-response","156","175677","0.0-1.0-210.0","0","0","28173","","null","","","null","23","NaN","","","","","","","","","","","","","","",""
"","S2","","html-keyboard-response","157","175930","0.0-1.0-211.0","0","0","28173","","null","","","null","23","","NaN","","","","","","","","","","","","","",""
"","response","","html-keyboard-response","158","176290","0.0-1.0-212.0","0","0","28173","","359","","","75","23","","","1","23","training","adjacent","DC","4","3","O.jpg","R.jpg","1","0","0","",""
"","feedback","","html-keyboard-response","159","177293","0.0-1.0-213.0-0.0","0","0","28173","","null","","","null","23","","","","","","","","","","","","","","","",""
"","time_out","","html-keyboard-response","160","179296","0.0-1.0-215.0-0.0","0","0","28173","","null","","","null","23","","","","","","","","","","","","","","","",""
"","ITI","","html-keyboard-response","161","180300","0.0-1.0-216.0","0","0","28173","","null","","","null","23","","","","","","","","","","","","","","","NaN",""
"","S1","","html-keyboard-response","162","180552","0.0-1.0-218.0","0","0","28173","","null","","","null","24","","","","","","","","","","","","","","","",""
"","ISI","","html-keyboard-response","163","182554","0.0-1.0-219.0","0","0","28173","","null","","","null","24","NaN","","","","","","","","","","","","","","",""
"","S2","","html-keyboard-response","164","182807","0.0-1.0-220.0","0","0","28173","","null","","","null","24","","NaN","","","","","","","","","","","","","",""
"","response","","html-keyboard-response","165","183173","0.0-1.0-221.0","0","0","28173","","365","","","75","24","","","1","24","training","adjacent","FE","6","5","M.jpg","N.jpg","1","0","0","",""
"","feedback","","html-keyboard-response","166","184175","0.0-1.0-222.0-0.0","0","0","28173","","null","","","null","24","","","","","","","","","","","","","","","",""
"","time_out","","html-keyboard-response","167","186178","0.0-1.0-224.0-0.0","0","0","28173","","null","","","null","24","","","","","","","","","","","","","","","",""
"","ITI","","html-keyboard-response","168","187180","0.0-1.0-225.0","0","0","28173","","null","","","null","24","","","","","","","","","","","","","","","NaN",""
"","S1","","html-keyboard-response","169","187432","0.0-1.0-227.0","0","0","28173","","null","","","null","25","","","","","","","","","","","","","","","",""
"","ISI","","html-keyboard-response","170","189435","0.0-1.0-228.0","0","0","28173","","null","","","null","25","NaN","","","","","","","","","","","","","","",""
"","S2","","html-keyboard-response","171","189686","0.0-1.0-229.0","0","0","28173","","null","","","null","25","","NaN","","","","","","","","","","","","","",""
"","response","","html-keyboard-response","172","190256","0.0-1.0-230.0","0","0","28173","","569","","","75","25","","","1","25","training","adjacent","BA","2","1","Q.jpg","L.jpg","1","0","0","",""
"","feedback","","html-keyboard-response","173","191260","0.0-1.0-231.0-0.0","0","0","28173","","null","","","null","25","","","","","","","","","","","","","","","",""
"","time_out","","html-keyboard-response","174","193262","0.0-1.0-233.0-0.0","0","0","28173","","null","","","null","25","","","","","","","","","","","","","","","",""
"","ITI","","html-keyboard-response","175","194265","0.0-1.0-234.0","0","0","28173","","null","","","null","25","","","","","","","","","","","","","","","NaN",""
"","S1","","html-keyboard-response","176","194518","0.0-1.0-236.0","0","0","28173","","null","","","null","26","","","","","","","","","","","","","","","",""
"","ISI","","html-keyboard-response","177","196521","0.0-1.0-237.0","0","0","28173","","null","","","null","26","NaN","","","","","","","","","","","","","","",""
"","S2","","html-keyboard-response","178","196773","0.0-1.0-238.0","0","0","28173","","null","","","null","26","","NaN","","","","","","","","","","","","","",""
"","response","","html-keyboard-response","179","197439","0.0-1.0-239.0","0","0","28173","","665","","","75","26","","","1","26","training","adjacent","CD","3","4","R.jpg","O.jpg","1","1","1","",""
"","feedback","","html-keyboard-response","180","198442","0.0-1.0-240.0-0.0","0","0","28173","","null","","","null","26","","","","","","","","","","","","","","","",""
"","ITI","","html-keyboard-response","181","199444","0.0-1.0-243.0","0","0","28173","","null","","","null","26","","","","","","","","","","","","","","","NaN",""
"","S1","","html-keyboard-response","182","199696","0.0-1.0-245.0","0","0","28173","","null","","","null","27","","","","","","","","","","","","","","","",""
"","ISI","","html-keyboard-response","183","201698","0.0-1.0-246.0","0","0","28173","","null","","","null","27","NaN","","","","","","","","","","","","","","",""
"","S2","","html-keyboard-response","184","201951","0.0-1.0-247.0","0","0","28173","","null","","","null","27","","NaN","","","","","","","","","","","","","",""
"","response","","html-keyboard-response","185","202310","0.0-1.0-248.0","0","0","28173","","358","","","68","27","","","1","27","training","adjacent","DE","4","5","O.jpg","N.jpg","0","1","0","",""
"","feedback","","html-keyboard-response","186","203312","0.0-1.0-249.0-0.0","0","0","28173","","null","","","null","27","","","","","","","","","","","","","","","",""
"","time_out","","html-keyboard-response","187","205315","0.0-1.0-251.0-0.0","0","0","28173","","null","","","null","27","","","","","","","","","","","","","","","",""
"","ITI","","html-keyboard-response","188","206318","0.0-1.0-252.0","0","0","28173","","null","","","null","27","","","","","","","","","","","","","","","NaN",""
"","S1","","html-keyboard-response","189","206570","0.0-1.0-254.0","0","0","28173","","null","","","null","28","","","","","","","","","","","","","","","",""
"","ISI","","html-keyboard-response","190","208572","0.0-1.0-255.0","0","0","28173","","null","","","null","28","NaN","","","","","","","","","","","","","","",""
"","S2","","html-keyboard-response","191","208824","0.0-1.0-256.0","0","0","28173","","null","","","null","28","","NaN","","","","","","","","","","","","","",""
"","response","","html-keyboard-response","192","209258","0.0-1.0-257.0","0","0","28173","","432","","","75","28","","","1","28","training","adjacent","CD","3","4","R.jpg","O.jpg","1","1","1","",""
"","feedback","","html-keyboard-response","193","210259","0.0-1.0-258.0-0.0","0","0","28173","","null","","","null","28","","","","","","","","","","","","","","","",""
"","ITI","","html-keyboard-response","194","211262","0.0-1.0-261.0","0","0","28173","","null","","","null","28","","","","","","","","","","","","","","","NaN",""
"","S1","","html-keyboard-response","195","211515","0.0-1.0-263.0","0","0","28173","","null","","","null","29","","","","","","","","","","","","","","","",""
"","ISI","","html-keyboard-response","196","213517","0.0-1.0-264.0","0","0","28173","","null","","","null","29","NaN","","","","","","","","","","","","","","",""
"","S2","","html-keyboard-response","197","213769","0.0-1.0-265.0","0","0","28173","","null","","","null","29","","NaN","","","","","","","","","","","","","",""
"","response","","html-keyboard-response","198","213812","0.0-1.0-266.0","0","0","28173","","41","","","68","29","","","1","29","training","adjacent","DE","4","5","O.jpg","N.jpg","0","1","0","",""
"","feedback","","html-keyboard-response","199","214814","0.0-1.0-267.0-0.0","0","0","28173","","null","","","null","29","","","","","","","","","","","","","","","",""
"","time_out","","html-keyboard-response","200","216816","0.0-1.0-269.0-0.0","0","0","28173","","null","","","null","29","","","","","","","","","","","","","","","",""
"","ITI","","html-keyboard-response","201","217820","0.0-1.0-270.0","0","0","28173","","null","","","null","29","","","","","","","","","","","","","","","NaN",""
"","S1","","html-keyboard-response","202","218072","0.0-1.0-272.0","0","0","28173","","null","","","null","30","","","","","","","","","","","","","","","",""
"","ISI","","html-keyboard-response","203","220073","0.0-1.0-273.0","0","0","28173","","null","","","null","30","NaN","","","","","","","","","","","","","","",""
"","S2","","html-keyboard-response","204","220325","0.0-1.0-274.0","0","0","28173","","null","","","null","30","","NaN","","","","","","","","","","","","","",""
"","response","","html-keyboard-response","205","220847","0.0-1.0-275.0","0","0","28173","","520","","","68","30","","","1","30","training","adjacent","GF","7","6","P.jpg","M.jpg","0","0","1","",""
"","feedback","","html-keyboard-response","206","221850","0.0-1.0-276.0-0.0","0","0","28173","","null","","","null","30","","","","","","","","","","","","","","","",""
"","ITI","","html-keyboard-response","207","222852","0.0-1.0-279.0","0","0","28173","","null","","","null","30","","","","","","","","","","","","","","","NaN",""
"","S1","","html-keyboard-response","208","223104","0.0-1.0-281.0","0","0","28173","","null","","","null","31","","","","","","","","","","","","","","","",""
"","ISI","","html-keyboard-response","209","225105","0.0-1.0-282.0","0","0","28173","","null","","","null","31","NaN","","","","","","","","","","","","","","",""
"","S2","","html-keyboard-response","210","225357","0.0-1.0-283.0","0","0","28173","","null","","","null","31","","NaN","","","","","","","","","","","","","",""
"","response","","html-keyboard-response","211","225769","0.0-1.0-284.0","0","0","28173","","410","","","75","31","","","1","31","training","adjacent","ED","5","4","N.jpg","O.jpg","1","0","0","",""
"","feedback","","html-keyboard-response","212","226771","0.0-1.0-285.0-0.0","0","0","28173","","null","","","null","31","","","","","","","","","","","","","","","",""
"","time_out","","html-keyboard-response","213","228773","0.0-1.0-287.0-0.0","0","0","28173","","null","","","null","31","","","","","","","","","","","","","","","",""
"","ITI","","html-keyboard-response","214","229776","0.0-1.0-288.0","0","0","28173","","null","","","null","31","","","","","","","","","","","","","","","NaN",""
"","S1","","html-keyboard-response","215","230028","0.0-1.0-290.0","0","0","28173","","null","","","null","32","","","","","","","","","","","","","","","",""
"","ISI","","html-keyboard-response","216","232030","0.0-1.0-291.0","0","0","28173","","null","","","null","32","NaN","","","","","","","","","","","","","","",""
"","S2","","html-keyboard-response","217","232282","0.0-1.0-292.0","0","0","28173","","null","","","null","32","","NaN","","","","","","","","","","","","","",""
"","response","","html-keyboard-response","218","232855","0.0-1.0-293.0","0","0","28173","","572","","","68","32","","","1","32","training","adjacent","GF","7","6","P.jpg","M.jpg","0","0","1","",""
"","feedback","","html-keyboard-response","219","233857","0.0-1.0-294.0-0.0","0","0","28173","","null","","","null","32","","","","","","","","","","","","","","","",""
"","ITI","","html-keyboard-response","220","234860","0.0-1.0-297.0","0","0","28173","","null","","","null","32","","","","","","","","","","","","","","","NaN",""
"","S1","","html-keyboard-response","221","235113","0.0-1.0-299.0","0","0","28173","","null","","","null","33","","","","","","","","","","","","","","","",""
"","ISI","","html-keyboard-response","222","237115","0.0-1.0-300.0","0","0","28173","","null","","","null","33","NaN","","","","","","","","","","","","","","",""
"","S2","","html-keyboard-response","223","237367","0.0-1.0-301.0","0","0","28173","","null","","","null","33","","NaN","","","","","","","","","","","","","",""
"","response","","html-keyboard-response","224","237773","0.0-1.0-302.0","0","0","28173","","404","","","68","33","","","1","33","training","adjacent","DC","4","3","O.jpg","R.jpg","0","0","1","",""
"","feedback","","html-keyboard-response","225","238776","0.0-1.0-303.0-0.0","0","0","28173","","null","","","null","33","","","","","","","","","","","","","","","",""
"","ITI","","html-keyboard-response","226","239778","0.0-1.0-306.0","0","0","28173","","null","","","null","33","","","","","","","","","","","","","","","NaN",""
"","S1","","html-keyboard-response","227","240030","0.0-1.0-308.0","0","0","28173","","null","","","null","34","","","","","","","","","","","","","","","",""
"","ISI","","html-keyboard-response","228","242032","0.0-1.0-309.0","0","0","28173","","null","","","null","34","NaN","","","","","","","","","","","","","","",""
"","S2","","html-keyboard-response","229","242284","0.0-1.0-310.0","0","0","28173","","null","","","null","34","","NaN","","","","","","","","","","","","","",""
"","response","","html-keyboard-response","230","242493","0.0-1.0-311.0","0","0","28173","","208","","","75","34","","","1","34","training","adjacent","ED","5","4","N.jpg","O.jpg","1","0","0","",""
"","feedback","","html-keyboard-response","231","243497","0.0-1.0-312.0-0.0","0","0","28173","","null","","","null","34","","","","","","","","","","","","","","","",""
"","time_out","","html-keyboard-response","232","245499","0.0-1.0-314.0-0.0","0","0","28173","","null","","","null","34","","","","","","","","","","","","","","","",""
"","ITI","","html-keyboard-response","233","246501","0.0-1.0-315.0","0","0","28173","","null","","","null","34","","","","","","","","","","","","","","","NaN",""
"","S1","","html-keyboard-response","234","246753","0.0-1.0-317.0","0","0","28173","","null","","","null","35","","","","","","","","","","","","","","","",""
"","ISI","","html-keyboard-response","235","248756","0.0-1.0-318.0","0","0","28173","","null","","","null","35","NaN","","","","","","","","","","","","","","",""
"","S2","","html-keyboard-response","236","249008","0.0-1.0-319.0","0","0","28173","","null","","","null","35","","NaN","","","","","","","","","","","","","",""
"","response","","html-keyboard-response","237","249294","0.0-1.0-320.0","0","0","28173","","285","","","68","35","","","1","35","training","adjacent","BC","2","3","Q.jpg","R.jpg","0","1","0","",""
"","feedback","","html-keyboard-response","238","250297","0.0-1.0-321.0-0.0","0","0","28173","","null","","","null","35","","","","","","","","","","","","","","","",""
"","time_out","","html-keyboard-response","239","252299","0.0-1.0-323.0-0.0","0","0","28173","","null","","","null","35","","","","","","","","","","","","","","","",""
"","ITI","","html-keyboard-response","240","253301","0.0-1.0-324.0","0","0","28173","","null","","","null","35","","","","","","","","","","","","","","","NaN",""
"","S1","","html-keyboard-response","241","253553","0.0-1.0-326.0","0","0","28173","","null","","","null","36","","","","","","","","","","","","","","","",""
"","ISI","","html-keyboard-response","242","255555","0.0-1.0-327.0","0","0","28173","","null","","","null","36","NaN","","","","","","","","","","","","","","",""
"","S2","","html-keyboard-response","243","255808","0.0-1.0-328.0","0","0","28173","","null","","","null","36","","NaN","","","","","","","","","","","","","",""
"","response","","html-keyboard-response","244","256078","0.0-1.0-329.0","0","0","28173","","267","","","68","36","","","1","36","training","adjacent","CB","3","2","R.jpg","Q.jpg","0","0","1","",""
"","feedback","","html-keyboard-response","245","257081","0.0-1.0-330.0-0.0","0","0","28173","","null","","","null","36","","","","","","","","","","","","","","","",""
"","ITI","","html-keyboard-response","246","258083","0.0-1.0-333.0","0","0","28173","","null","","","null","36","","","","","","","","","","","","","","","NaN",""
"","S1","","html-keyboard-response","247","258335","0.0-1.0-335.0","0","0","28173","","null","","","null","37","","","","","","","","","","","","","","","",""
"","ISI","","html-keyboard-response","248","260339","0.0-1.0-336.0","0","0","28173","","null","","","null","37","NaN","","","","","","","","","","","","","","",""
"","S2","","html-keyboard-response","249","260591","0.0-1.0-337.0","0","0","28173","","null","","","null","37","","NaN","","","","","","","","","","","","","",""
"","response","","html-keyboard-response","250","260865","0.0-1.0-338.0","0","0","28173","","272","","","75","37","","","1","37","training","adjacent","FE","6","5","M.jpg","N.jpg","1","0","0","",""
"","feedback","","html-keyboard-response","251","261868","0.0-1.0-339.0-0.0","0","0","28173","","null","","","null","37","","","","","","","","","","","","","","","",""
"","time_out","","html-keyboard-response","252","263870","0.0-1.0-341.0-0.0","0","0","28173","","null","","","null","37","","","","","","","","","","","","","","","",""
"","ITI","","html-keyboard-response","253","264871","0.0-1.0-342.0","0","0","28173","","null","","","null","37","","","","","","","","","","","","","","","NaN",""
"","S1","","html-keyboard-response","254","265123","0.0-1.0-344.0","0","0","28173","","null","","","null","38","","","","","","","","","","","","","","","",""
"","ISI","","html-keyboard-response","255","267125","0.0-1.0-345.0","0","0","28173","","null","","","null","38","NaN","","","","","","","","","","","","","","",""
"","S2","","html-keyboard-response","256","267378","0.0-1.0-346.0","0","0","28173","","null","","","null","38","","NaN","","","","","","","","","","","","","",""
"","response","","html-keyboard-response","257","267751","0.0-1.0-347.0","0","0","28173","","372","","","75","38","","","1","38","training","adjacent","ED","5","4","N.jpg","O.jpg","1","0","0","",""
"","feedback","","html-keyboard-response","258","268753","0.0-1.0-348.0-0.0","0","0","28173","","null","","","null","38","","","","","","","","","","","","","","","",""
"","time_out","","html-keyboard-response","259","270755","0.0-1.0-350.0-0.0","0","0","28173","","null","","","null","38","","","","","","","","","","","","","","","",""
"","ITI","","html-keyboard-response","260","271757","0.0-1.0-351.0","0","0","28173","","null","","","null","38","","","","","","","","","","","","","","","NaN",""
"","S1","","html-keyboard-response","261","272009","0.0-1.0-353.0","0","0","28173","","null","","","null","39","","","","","","","","","","","","","","","",""
"","ISI","","html-keyboard-response","262","274012","0.0-1.0-354.0","0","0","28173","","null","","","null","39","NaN","","","","","","","","","","","","","","",""
"","S2","","html-keyboard-response","263","274265","0.0-1.0-355.0","0","0","28173","","null","","","null","39","","NaN","","","","","","","","","","","","","",""
"","response","","html-keyboard-response","264","274598","0.0-1.0-356.0","0","0","28173","","331","","","75","39","","","1","39","training","adjacent","FG","6","7","M.jpg","P.jpg","1","1","1","",""
"","feedback","","html-keyboard-response","265","275600","0.0-1.0-357.0-0.0","0","0","28173","","null","","","null","39","","","","","","","","","","","","","","","",""
"","ITI","","html-keyboard-response","266","276603","0.0-1.0-360.0","0","0","28173","","null","","","null","39","","","","","","","","","","","","","","","NaN",""
"","block_over","","html-keyboard-response","267","279003","0.0-1.0-361.0-0.0","0","0","28173","","2398","","","32","39","","","","","","","","","","","","","","","",""
"","S1","","html-keyboard-response","268","279255","0.0-1.0-362.0","0","0","28173","","null","","","null","40","","","","","","","","","","","","","","","",""
"","ISI","","html-keyboard-response","269","281257","0.0-1.0-363.0","0","0","28173","","null","","","null","40","NaN","","","","","","","","","","","","","","",""
"","S2","","html-keyboard-response","270","281509","0.0-1.0-364.0","0","0","28173","","null","","","null","40","","NaN","","","","","","","","","","","","","",""
"","response","","html-keyboard-response","271","281812","0.0-1.0-365.0","0","0","28173","","302","","","68","40","","","2","40","training","adjacent","GF","7","6","P.jpg","M.jpg","0","0","1","",""
"","feedback","","html-keyboard-response","272","282815","0.0-1.0-366.0-0.0","0","0","28173","","null","","","null","40","","","","","","","","","","","","","","","",""
"","ITI","","html-keyboard-response","273","283817","0.0-1.0-369.0","0","0","28173","","null","","","null","40","","","","","","","","","","","","","","","NaN",""
"","S1","","html-keyboard-response","274","284070","0.0-1.0-371.0","0","0","28173","","null","","","null","41","","","","","","","","","","","","","","","",""
"","ISI","","html-keyboard-response","275","286072","0.0-1.0-372.0","0","0","28173","","null","","","null","41","NaN","","","","","","","","","","","","","","",""
"","S2","","html-keyboard-response","276","286324","0.0-1.0-373.0","0","0","28173","","null","","","null","41","","NaN","","","","","","","","","","","","","",""
"","response","","html-keyboard-response","277","286647","0.0-1.0-374.0","0","0","28173","","321","","","75","41","","","2","41","training","adjacent","DE","4","5","O.jpg","N.jpg","1","1","1","",""
"","feedback","","html-keyboard-response","278","287649","0.0-1.0-375.0-0.0","0","0","28173","","null","","","null","41","","","","","","","","","","","","","","","",""
"","ITI","","html-keyboard-response","279","288652","0.0-1.0-378.0","0","0","28173","","null","","","null","41","","","","","","","","","","","","","","","NaN",""
"","S1","","html-keyboard-response","280","288904","0.0-1.0-380.0","0","0","28173","","null","","","null","42","","","","","","","","","","","","","","","",""
"","ISI","","html-keyboard-response","281","290905","0.0-1.0-381.0","0","0","28173","","null","","","null","42","NaN","","","","","","","","","","","","","","",""
"","S2","","html-keyboard-response","282","291158","0.0-1.0-382.0","0","0","28173","","null","","","null","42","","NaN","","","","","","","","","","","","","",""
"","response","","html-keyboard-response","283","291400","0.0-1.0-383.0","0","0","28173","","241","","","75","42","","","2","42","training","adjacent","CD","3","4","R.jpg","O.jpg","1","1","1","",""
"","feedback","","html-keyboard-response","284","292402","0.0-1.0-384.0-0.0","0","0","28173","","null","","","null","42","","","","","","","","","","","","","","","",""
"","ITI","","html-keyboard-response","285","293405","0.0-1.0-387.0","0","0","28173","","null","","","null","42","","","","","","","","","","","","","","","NaN",""
"","S1","","html-keyboard-response","286","293657","0.0-1.0-389.0","0","0","28173","","null","","","null","43","","","","","","","","","","","","","","","",""
"","ISI","","html-keyboard-response","287","295659","0.0-1.0-390.0","0","0","28173","","null","","","null","43","NaN","","","","","","","","","","","","","","",""
"","S2","","html-keyboard-response","288","295910","0.0-1.0-391.0","0","0","28173","","null","","","null","43","","NaN","","","","","","","","","","","","","",""
"","response","","html-keyboard-response","289","296106","0.0-1.0-392.0","0","0","28173","","195","","","75","43","","","2","43","training","adjacent","FG","6","7","M.jpg","P.jpg","1","1","1","",""
"","feedback","","html-keyboard-response","290","297108","0.0-1.0-393.0-0.0","0","0","28173","","null","","","null","43","","","","","","","","","","","","","","","",""
"","ITI","","html-keyboard-response","291","298110","0.0-1.0-396.0","0","0","28173","","null","","","null","43","","","","","","","","","","","","","","","NaN",""
"","S1","","html-keyboard-response","292","298363","0.0-1.0-398.0","0","0","28173","","null","","","null","44","","","","","","","","","","","","","","","",""
"","ISI","","html-keyboard-response","293","300365","0.0-1.0-399.0","0","0","28173","","null","","","null","44","NaN","","","","","","","","","","","","","","",""
"","S2","","html-keyboard-response","294","300618","0.0-1.0-400.0","0","0","28173","","null","","","null","44","","NaN","","","","","","","","","","","","","",""
"","response","","html-keyboard-response","295","300896","0.0-1.0-401.0","0","0","28173","","278","","","75","44","","","2","44","training","adjacent","AB","1","2","L.jpg","Q.jpg","1","1","1","",""
"","feedback","","html-keyboard-response","296","301899","0.0-1.0-402.0-0.0","0","0","28173","","null","","","null","44","","","","","","","","","","","","","","","",""
"","ITI","","html-keyboard-response","297","302902","0.0-1.0-405.0","0","0","28173","","null","","","null","44","","","","","","","","","","","","","","","NaN",""
"","S1","","html-keyboard-response","298","303154","0.0-1.0-407.0","0","0","28173","","null","","","null","45","","","","","","","","","","","","","","","",""
"","ISI","","html-keyboard-response","299","305156","0.0-1.0-408.0","0","0","28173","","null","","","null","45","NaN","","","","","","","","","","","","","","",""
"","S2","","html-keyboard-response","300","305409","0.0-1.0-409.0","0","0","28173","","null","","","null","45","","NaN","","","","","","","","","","","","","",""
"","response","","html-keyboard-response","301","305964","0.0-1.0-410.0","0","0","28173","","554","","","68","45","","","2","45","training","adjacent","CB","3","2","R.jpg","Q.jpg","0","0","1","",""
"","feedback","","html-keyboard-response","302","306966","0.0-1.0-411.0-0.0","0","0","28173","","null","","","null","45","","","","","","","","","","","","","","","",""
"","ITI","","html-keyboard-response","303","307968","0.0-1.0-414.0","0","0","28173","","null","","","null","45","","","","","","","","","","","","","","","NaN",""
"","S1","","html-keyboard-response","304","308221","0.0-1.0-416.0","0","0","28173","","null","","","null","46","","","","","","","","","","","","","","","",""
"","ISI","","html-keyboard-response","305","310226","0.0-1.0-417.0","0","0","28173","","null","","","null","46","NaN","","","","","","","","","","","","","","",""
"","S2","","html-keyboard-response","306","310480","0.0-1.0-418.0","0","0","28173","","null","","","null","46","","NaN","","","","","","","","","","","","","",""
"","response","","html-keyboard-response","307","311233","0.0-1.0-419.0","0","0","28173","","751","","","68","46","","","2","46","training","adjacent","BA","2","1","Q.jpg","L.jpg","0","0","1","",""
"","feedback","","html-keyboard-response","308","312235","0.0-1.0-420.0-0.0","0","0","28173","","null","","","null","46","","","","","","","","","","","","","","","",""
"","ITI","","html-keyboard-response","309","313237","0.0-1.0-423.0","0","0","28173","","null","","","null","46","","","","","","","","","","","","","","","NaN",""
"","S1","","html-keyboard-response","310","313489","0.0-1.0-425.0","0","0","28173","","null","","","null","47","","","","","","","","","","","","","","","",""
"","ISI","","html-keyboard-response","311","315490","0.0-1.0-426.0","0","0","28173","","null","","","null","47","NaN","","","","","","","","","","","","","","",""
"","S2","","html-keyboard-response","312","315742","0.0-1.0-427.0","0","0","28173","","null","","","null","47","","NaN","","","","","","","","","","","","","",""
"","response","","html-keyboard-response","313","316024","0.0-1.0-428.0","0","0","28173","","280","","","68","47","","","2","47","training","adjacent","CB","3","2","R.jpg","Q.jpg","0","0","1","",""
"","feedback","","html-keyboard-response","314","317026","0.0-1.0-429.0-0.0","0","0","28173","","null","","","null","47","","","","","","","","","","","","","","","",""
"","ITI","","html-keyboard-response","315","318028","0.0-1.0-432.0","0","0","28173","","null","","","null","47","","","","","","","","","","","","","","","NaN",""
"","S1","","html-keyboard-response","316","318279","0.0-1.0-434.0","0","0","28173","","null","","","null","48","","","","","","","","","","","","","","","",""
"","ISI","","html-keyboard-response","317","320281","0.0-1.0-435.0","0","0","28173","","null","","","null","48","NaN","","","","","","","","","","","","","","",""
"","S2","","html-keyboard-response","318","320535","0.0-1.0-436.0","0","0","28173","","null","","","null","48","","NaN","","","","","","","","","","","","","",""
"","response","","html-keyboard-response","319","320881","0.0-1.0-437.0","0","0","28173","","345","","","75","48","","","2","48","training","adjacent","FG","6","7","M.jpg","P.jpg","1","1","1","",""
"","feedback","","html-keyboard-response","320","321883","0.0-1.0-438.0-0.0","0","0","28173","","null","","","null","48","","","","","","","","","","","","","","","",""
"","ITI","","html-keyboard-response","321","322885","0.0-1.0-441.0","0","0","28173","","null","","","null","48","","","","","","","","","","","","","","","NaN",""
"","S1","","html-keyboard-response","322","323138","0.0-1.0-443.0","0","0","28173","","null","","","null","49","","","","","","","","","","","","","","","",""
"","ISI","","html-keyboard-response","323","325140","0.0-1.0-444.0","0","0","28173","","null","","","null","49","NaN","","","","","","","","","","","","","","",""
"","S2","","html-keyboard-response","324","325392","0.0-1.0-445.0","0","0","28173","","null","","","null","49","","NaN","","","","","","","","","","","","","",""
"","response","","html-keyboard-response","325","326021","0.0-1.0-446.0","0","0","28173","","627","","","68","49","","","2","49","training","adjacent","AB","1","2","L.jpg","Q.jpg","0","1","0","",""
"","feedback","","html-keyboard-response","326","327023","0.0-1.0-447.0-0.0","0","0","28173","","null","","","null","49","","","","","","","","","","","","","","","",""
"","time_out","","html-keyboard-response","327","329026","0.0-1.0-449.0-0.0","0","0","28173","","null","","","null","49","","","","","","","","","","","","","","","",""
"","ITI","","html-keyboard-response","328","330028","0.0-1.0-450.0","0","0","28173","","null","","","null","49","","","","","","","","","","","","","","","NaN",""
"","S1","","html-keyboard-response","329","330280","0.0-1.0-452.0","0","0","28173","","null","","","null","50","","","","","","","","","","","","","","","",""
"","ISI","","html-keyboard-response","330","332282","0.0-1.0-453.0","0","0","28173","","null","","","null","50","NaN","","","","","","","","","","","","","","",""
"","S2","","html-keyboard-response","331","332534","0.0-1.0-454.0","0","0","28173","","null","","","null","50","","NaN","","","","","","","","","","","","","",""
"","response","","html-keyboard-response","332","332835","0.0-1.0-455.0","0","0","28173","","300","","","75","50","","","2","50","training","adjacent","BC","2","3","Q.jpg","R.jpg","1","1","1","",""
"","feedback","","html-keyboard-response","333","333838","0.0-1.0-456.0-0.0","0","0","28173","","null","","","null","50","","","","","","","","","","","","","","","",""
"","ITI","","html-keyboard-response","334","334840","0.0-1.0-459.0","0","0","28173","","null","","","null","50","","","","","","","","","","","","","","","NaN",""
"","S1","","html-keyboard-response","335","335092","0.0-1.0-461.0","0","0","28173","","null","","","null","51","","","","","","","","","","","","","","","",""
"","ISI","","html-keyboard-response","336","337093","0.0-1.0-462.0","0","0","28173","","null","","","null","51","NaN","","","","","","","","","","","","","","",""
"","S2","","html-keyboard-response","337","337346","0.0-1.0-463.0","0","0","28173","","null","","","null","51","","NaN","","","","","","","","","","","","","",""
"","response","","html-keyboard-response","338","337678","0.0-1.0-464.0","0","0","28173","","331","","","68","51","","","2","51","training","adjacent","GF","7","6","P.jpg","M.jpg","0","0","1","",""
"","feedback","","html-keyboard-response","339","338680","0.0-1.0-465.0-0.0","0","0","28173","","null","","","null","51","","","","","","","","","","","","","","","",""
"","ITI","","html-keyboard-response","340","339682","0.0-1.0-468.0","0","0","28173","","null","","","null","51","","","","","","","","","","","","","","","NaN",""
"","S1","","html-keyboard-response","341","339934","0.0-1.0-470.0","0","0","28173","","null","","","null","52","","","","","","","","","","","","","","","",""
"","ISI","","html-keyboard-response","342","341953","0.0-1.0-471.0","0","0","28173","","null","","","null","52","NaN","","","","","","","","","","","","","","",""
"","S2","","html-keyboard-response","343","342205","0.0-1.0-472.0","0","0","28173","","null","","","null","52","","NaN","","","","","","","","","","","","","",""
"","response","","html-keyboard-response","344","342466","0.0-1.0-473.0","0","0","28173","","260","","","75","52","","","2","52","training","adjacent","CD","3","4","R.jpg","O.jpg","1","1","1","",""
"","feedback","","html-keyboard-response","345","343469","0.0-1.0-474.0-0.0","0","0","28173","","null","","","null","52","","","","","","","","","","","","","","","",""
"","ITI","","html-keyboard-response","346","344470","0.0-1.0-477.0","0","0","28173","","null","","","null","52","","","","","","","","","","","","","","","NaN",""
"","S1","","html-keyboard-response","347","344723","0.0-1.0-479.0","0","0","28173","","null","","","null","53","","","","","","","","","","","","","","","",""
"","ISI","","html-keyboard-response","348","346724","0.0-1.0-480.0","0","0","28173","","null","","","null","53","NaN","","","","","","","","","","","","","","",""
"","S2","","html-keyboard-response","349","346976","0.0-1.0-481.0","0","0","28173","","null","","","null","53","","NaN","","","","","","","","","","","","","",""
"","response","","html-keyboard-response","350","347111","0.0-1.0-482.0","0","0","28173","","133","","","75","53","","","2","53","training","adjacent","DC","4","3","O.jpg","R.jpg","1","0","0","",""
"","feedback","","html-keyboard-response","351","348113","0.0-1.0-483.0-0.0","0","0","28173","","null","","","null","53","","","","","","","","","","","","","","","",""
"","time_out","","html-keyboard-response","352","350116","0.0-1.0-485.0-0.0","0","0","28173","","null","","","null","53","","","","","","","","","","","","","","","",""
"","ITI","","html-keyboard-response","353","351119","0.0-1.0-486.0","0","0","28173","","null","","","null","53","","","","","","","","","","","","","","","NaN",""
"","S1","","html-keyboard-response","354","351371","0.0-1.0-488.0","0","0","28173","","null","","","null","54","","","","","","","","","","","","","","","",""
"","ISI","","html-keyboard-response","355","353372","0.0-1.0-489.0","0","0","28173","","null","","","null","54","NaN","","","","","","","","","","","","","","",""
"","S2","","html-keyboard-response","356","353624","0.0-1.0-490.0","0","0","28173","","null","","","null","54","","NaN","","","","","","","","","","","","","",""
"","response","","html-keyboard-response","357","353810","0.0-1.0-491.0","0","0","28173","","185","","","68","54","","","2","54","training","adjacent","EF","5","6","N.jpg","M.jpg","0","1","0","",""
"","feedback","","html-keyboard-response","358","354811","0.0-1.0-492.0-0.0","0","0","28173","","null","","","null","54","","","","","","","","","","","","","","","",""
"","time_out","","html-keyboard-response","359","356813","0.0-1.0-494.0-0.0","0","0","28173","","null","","","null","54","","","","","","","","","","","","","","","",""
"","ITI","","html-keyboard-response","360","357814","0.0-1.0-495.0","0","0","28173","","null","","","null","54","","","","","","","","","","","","","","","NaN",""
"","S1","","html-keyboard-response","361","358066","0.0-1.0-497.0","0","0","28173","","null","","","null","55","","","","","","","","","","","","","","","",""
"","ISI","","html-keyboard-response","362","360068","0.0-1.0-498.0","0","0","28173","","null","","","null","55","NaN","","","","","","","","","","","","","","",""
"","S2","","html-keyboard-response","363","360320","0.0-1.0-499.0","0","0","28173","","null","","","null","55","","NaN","","","","","","","","","","","","","",""
"","response","","html-keyboard-response","364","360541","0.0-1.0-500.0","0","0","28173","","220","","","75","55","","","2","55","training","adjacent","FE","6","5","M.jpg","N.jpg","1","0","0","",""
"","feedback","","html-keyboard-response","365","361544","0.0-1.0-501.0-0.0","0","0","28173","","null","","","null","55","","","","","","","","","","","","","","","",""
"","time_out","","html-keyboard-response","366","363547","0.0-1.0-503.0-0.0","0","0","28173","","null","","","null","55","","","","","","","","","","","","","","","",""
"","ITI","","html-keyboard-response","367","364549","0.0-1.0-504.0","0","0","28173","","null","","","null","55","","","","","","","","","","","","","","","NaN",""
"","S1","","html-keyboard-response","368","364802","0.0-1.0-506.0","0","0","28173","","null","","","null","56","","","","","","","","","","","","","","","",""
"","ISI","","html-keyboard-response","369","366805","0.0-1.0-507.0","0","0","28173","","null","","","null","56","NaN","","","","","","","","","","","","","","",""
"","S2","","html-keyboard-response","370","367058","0.0-1.0-508.0","0","0","28173","","null","","","null","56","","NaN","","","","","","","","","","","","","",""
"","response","","html-keyboard-response","371","367595","0.0-1.0-509.0","0","0","28173","","536","","","68","56","","","2","56","training","adjacent","EF","5","6","N.jpg","M.jpg","0","1","0","",""
"","feedback","","html-keyboard-response","372","368598","0.0-1.0-510.0-0.0","0","0","28173","","null","","","null","56","","","","","","","","","","","","","","","",""
"","time_out","","html-keyboard-response","373","370601","0.0-1.0-512.0-0.0","0","0","28173","","null","","","null","56","","","","","","","","","","","","","","","",""
"","ITI","","html-keyboard-response","374","371603","0.0-1.0-513.0","0","0","28173","","null","","","null","56","","","","","","","","","","","","","","","NaN",""
"","S1","","html-keyboard-response","375","371855","0.0-1.0-515.0","0","0","28173","","null","","","null","57","","","","","","","","","","","","","","","",""
"","ISI","","html-keyboard-response","376","373856","0.0-1.0-516.0","0","0","28173","","null","","","null","57","NaN","","","","","","","","","","","","","","",""
"","S2","","html-keyboard-response","377","374110","0.0-1.0-517.0","0","0","28173","","null","","","null","57","","NaN","","","","","","","","","","","","","",""
"","response","","html-keyboard-response","378","374295","0.0-1.0-518.0","0","0","28173","","183","","","75","57","","","2","57","training","adjacent","FE","6","5","M.jpg","N.jpg","1","0","0","",""
"","feedback","","html-keyboard-response","379","375296","0.0-1.0-519.0-0.0","0","0","28173","","null","","","null","57","","","","","","","","","","","","","","","",""
"","time_out","","html-keyboard-response","380","377298","0.0-1.0-521.0-0.0","0","0","28173","","null","","","null","57","","","","","","","","","","","","","","","",""
"","ITI","","html-keyboard-response","381","378301","0.0-1.0-522.0","0","0","28173","","null","","","null","57","","","","","","","","","","","","","","","NaN",""
"","S1","","html-keyboard-response","382","378554","0.0-1.0-524.0","0","0","28173","","null","","","null","58","","","","","","","","","","","","","","","",""
"","ISI","","html-keyboard-response","383","380556","0.0-1.0-525.0","0","0","28173","","null","","","null","58","NaN","","","","","","","","","","","","","","",""
"","S2","","html-keyboard-response","384","380807","0.0-1.0-526.0","0","0","28173","","null","","","null","58","","NaN","","","","","","","","","","","","","",""
"","response","","html-keyboard-response","385","380874","0.0-1.0-527.0","0","0","28173","","65","","","75","58","","","2","58","training","adjacent","DE","4","5","O.jpg","N.jpg","1","1","1","",""
"","feedback","","html-keyboard-response","386","381876","0.0-1.0-528.0-0.0","0","0","28173","","null","","","null","58","","","","","","","","","","","","","","","",""
"","ITI","","html-keyboard-response","387","382878","0.0-1.0-531.0","0","0","28173","","null","","","null","58","","","","","","","","","","","","","","","NaN",""
"","S1","","html-keyboard-response","388","383130","0.0-1.0-533.0","0","0","28173","","null","","","null","59","","","","","","","","","","","","","","","",""
"","ISI","","html-keyboard-response","389","385132","0.0-1.0-534.0","0","0","28173","","null","","","null","59","NaN","","","","","","","","","","","","","","",""
"","S2","","html-keyboard-response","390","385385","0.0-1.0-535.0","0","0","28173","","null","","","null","59","","NaN","","","","","","","","","","","","","",""
"","response","","html-keyboard-response","391","385679","0.0-1.0-536.0","0","0","28173","","293","","","75","59","","","2","59","training","adjacent","AB","1","2","L.jpg","Q.jpg","1","1","1","",""
"","feedback","","html-keyboard-response","392","386683","0.0-1.0-537.0-0.0","0","0","28173","","null","","","null","59","","","","","","","","","","","","","","","",""
"","ITI","","html-keyboard-response","393","387686","0.0-1.0-540.0","0","0","28173","","null","","","null","59","","","","","","","","","","","","","","","NaN",""
"","S1","","html-keyboard-response","394","387938","0.0-1.0-542.0","0","0","28173","","null","","","null","60","","","","","","","","","","","","","","","",""
"","ISI","","html-keyboard-response","395","389941","0.0-1.0-543.0","0","0","28173","","null","","","null","60","NaN","","","","","","","","","","","","","","",""
"","S2","","html-keyboard-response","396","390193","0.0-1.0-544.0","0","0","28173","","null","","","null","60","","NaN","","","","","","","","","","","","","",""
"","response","","html-keyboard-response","397","390254","0.0-1.0-545.0","0","0","28173","","60","","","68","60","","","2","60","training","adjacent","EF","5","6","N.jpg","M.jpg","0","1","0","",""
"","feedback","","html-keyboard-response","398","391255","0.0-1.0-546.0-0.0","0","0","28173","","null","","","null","60","","","","","","","","","","","","","","","",""
"","time_out","","html-keyboard-response","399","393257","0.0-1.0-548.0-0.0","0","0","28173","","null","","","null","60","","","","","","","","","","","","","","","",""
"","ITI","","html-keyboard-response","400","394260","0.0-1.0-549.0","0","0","28173","","null","","","null","60","","","","","","","","","","","","","","","NaN",""
"","S1","","html-keyboard-response","401","394512","0.0-1.0-551.0","0","0","28173","","null","","","null","61","","","","","","","","","","","","","","","",""
"","ISI","","html-keyboard-response","402","396514","0.0-1.0-552.0","0","0","28173","","null","","","null","61","NaN","","","","","","","","","","","","","","",""
"","S2","","html-keyboard-response","403","396766","0.0-1.0-553.0","0","0","28173","","null","","","null","61","","NaN","","","","","","","","","","","","","",""
"","response","","html-keyboard-response","404","397534","0.0-1.0-554.0","0","0","28173","","767","","","68","61","","","2","61","training","adjacent","ED","5","4","N.jpg","O.jpg","0","0","1","",""
"","feedback","","html-keyboard-response","405","398537","0.0-1.0-555.0-0.0","0","0","28173","","null","","","null","61","","","","","","","","","","","","","","","",""
"","ITI","","html-keyboard-response","406","399538","0.0-1.0-558.0","0","0","28173","","null","","","null","61","","","","","","","","","","","","","","","NaN",""
"","S1","","html-keyboard-response","407","399790","0.0-1.0-560.0","0","0","28173","","null","","","null","62","","","","","","","","","","","","","","","",""
"","ISI","","html-keyboard-response","408","401792","0.0-1.0-561.0","0","0","28173","","null","","","null","62","NaN","","","","","","","","","","","","","","",""
"","S2","","html-keyboard-response","409","402046","0.0-1.0-562.0","0","0","28173","","null","","","null","62","","NaN","","","","","","","","","","","","","",""
"","response","","html-keyboard-response","410","402261","0.0-1.0-563.0","0","0","28173","","213","","","68","62","","","2","62","training","adjacent","BC","2","3","Q.jpg","R.jpg","0","1","0","",""
"","feedback","","html-keyboard-response","411","403263","0.0-1.0-564.0-0.0","0","0","28173","","null","","","null","62","","","","","","","","","","","","","","","",""
"","time_out","","html-keyboard-response","412","405265","0.0-1.0-566.0-0.0","0","0","28173","","null","","","null","62","","","","","","","","","","","","","","","",""
"","ITI","","html-keyboard-response","413","406267","0.0-1.0-567.0","0","0","28173","","null","","","null","62","","","","","","","","","","","","","","","NaN",""
"","S1","","html-keyboard-response","414","406519","0.0-1.0-569.0","0","0","28173","","null","","","null","63","","","","","","","","","","","","","","","",""
"","ISI","","html-keyboard-response","415","408521","0.0-1.0-570.0","0","0","28173","","null","","","null","63","NaN","","","","","","","","","","","","","","",""
"","S2","","html-keyboard-response","416","408774","0.0-1.0-571.0","0","0","28173","","null","","","null","63","","NaN","","","","","","","","","","","","","",""
"","response","","html-keyboard-response","417","409081","0.0-1.0-572.0","0","0","28173","","306","","","75","63","","","2","63","training","adjacent","DC","4","3","O.jpg","R.jpg","1","0","0","",""
"","feedback","","html-keyboard-response","418","410083","0.0-1.0-573.0-0.0","0","0","28173","","null","","","null","63","","","","","","","","","","","","","","","",""
"","time_out","","html-keyboard-response","419","412085","0.0-1.0-575.0-0.0","0","0","28173","","null","","","null","63","","","","","","","","","","","","","","","",""
"","ITI","","html-keyboard-response","420","413087","0.0-1.0-576.0","0","0","28173","","null","","","null","63","","","","","","","","","","","","","","","NaN",""
"","S1","","html-keyboard-response","421","413340","0.0-1.0-578.0","0","0","28173","","null","","","null","64","","","","","","","","","","","","","","","",""
"","ISI","","html-keyboard-response","422","415342","0.0-1.0-579.0","0","0","28173","","null","","","null","64","NaN","","","","","","","","","","","","","","",""
"","S2","","html-keyboard-response","423","415594","0.0-1.0-580.0","0","0","28173","","null","","","null","64","","NaN","","","","","","","","","","","","","",""
"","response","","html-keyboard-response","424","415828","0.0-1.0-581.0","0","0","28173","","234","","","75","64","","","2","64","training","adjacent","BA","2","1","Q.jpg","L.jpg","1","0","0","",""
"","feedback","","html-keyboard-response","425","416832","0.0-1.0-582.0-0.0","0","0","28173","","null","","","null","64","","","","","","","","","","","","","","","",""
"","time_out","","html-keyboard-response","426","418834","0.0-1.0-584.0-0.0","0","0","28173","","null","","","null","64","","","","","","","","","","","","","","","",""
"","ITI","","html-keyboard-response","427","419836","0.0-1.0-585.0","0","0","28173","","null","","","null","64","","","","","","","","","","","","","","","NaN",""
"","S1","","html-keyboard-response","428","420088","0.0-1.0-587.0","0","0","28173","","null","","","null","65","","","","","","","","","","","","","","","",""
"","ISI","","html-keyboard-response","429","422091","0.0-1.0-588.0","0","0","28173","","null","","","null","65","NaN","","","","","","","","","","","","","","",""
"","S2","","html-keyboard-response","430","422344","0.0-1.0-589.0","0","0","28173","","null","","","null","65","","NaN","","","","","","","","","","","","","",""
"","response","","html-keyboard-response","431","422710","0.0-1.0-590.0","0","0","28173","","364","","","68","65","","","2","65","training","adjacent","BA","2","1","Q.jpg","L.jpg","0","0","1","",""
"","feedback","","html-keyboard-response","432","423713","0.0-1.0-591.0-0.0","0","0","28173","","null","","","null","65","","","","","","","","","","","","","","","",""
"","ITI","","html-keyboard-response","433","424716","0.0-1.0-594.0","0","0","28173","","null","","","null","65","","","","","","","","","","","","","","","NaN",""
"","S1","","html-keyboard-response","434","424968","0.0-1.0-596.0","0","0","28173","","null","","","null","66","","","","","","","","","","","","","","","",""
"","ISI","","html-keyboard-response","435","426970","0.0-1.0-597.0","0","0","28173","","null","","","null","66","NaN","","","","","","","","","","","","","","",""
"","S2","","html-keyboard-response","436","427223","0.0-1.0-598.0","0","0","28173","","null","","","null","66","","NaN","","","","","","","","","","","","","",""
"","response","","html-keyboard-response","437","427365","0.0-1.0-599.0","0","0","28173","","141","","","75","66","","","2","66","training","adjacent","DE","4","5","O.jpg","N.jpg","1","1","1","",""
"","feedback","","html-keyboard-response","438","428368","0.0-1.0-600.0-0.0","0","0","28173","","null","","","null","66","","","","","","","","","","","","","","","",""
"","ITI","","html-keyboard-response","439","429370","0.0-1.0-603.0","0","0","28173","","null","","","null","66","","","","","","","","","","","","","","","NaN",""
"","S1","","html-keyboard-response","440","429622","0.0-1.0-605.0","0","0","28173","","null","","","null","67","","","","","","","","","","","","","","","",""
"","ISI","","html-keyboard-response","441","431624","0.0-1.0-606.0","0","0","28173","","null","","","null","67","NaN","","","","","","","","","","","","","","",""
"","S2","","html-keyboard-response","442","431877","0.0-1.0-607.0","0","0","28173","","null","","","null","67","","NaN","","","","","","","","","","","","","",""
"","response","","html-keyboard-response","443","432023","0.0-1.0-608.0","0","0","28173","","144","","","75","67","","","2","67","training","adjacent","ED","5","4","N.jpg","O.jpg","1","0","0","",""
"","feedback","","html-keyboard-response","444","433026","0.0-1.0-609.0-0.0","0","0","28173","","null","","","null","67","","","","","","","","","","","","","","","",""
"","time_out","","html-keyboard-response","445","435029","0.0-1.0-611.0-0.0","0","0","28173","","null","","","null","67","","","","","","","","","","","","","","","",""
"","ITI","","html-keyboard-response","446","436031","0.0-1.0-612.0","0","0","28173","","null","","","null","67","","","","","","","","","","","","","","","NaN",""
"","S1","","html-keyboard-response","447","436283","0.0-1.0-614.0","0","0","28173","","null","","","null","68","","","","","","","","","","","","","","","",""
"","ISI","","html-keyboard-response","448","438285","0.0-1.0-615.0","0","0","28173","","null","","","null","68","NaN","","","","","","","","","","","","","","",""
"","S2","","html-keyboard-response","449","438537","0.0-1.0-616.0","0","0","28173","","null","","","null","68","","NaN","","","","","","","","","","","","","",""
"","response","","html-keyboard-response","450","438940","0.0-1.0-617.0","0","0","28173","","403","","","75","68","","","2","68","training","adjacent","DE","4","5","O.jpg","N.jpg","1","1","1","",""
"","feedback","","html-keyboard-response","451","439943","0.0-1.0-618.0-0.0","0","0","28173","","null","","","null","68","","","","","","","","","","","","","","","",""
"","ITI","","html-keyboard-response","452","440947","0.0-1.0-621.0","0","0","28173","","null","","","null","68","","","","","","","","","","","","","","","NaN",""
"","S1","","html-keyboard-response","453","441200","0.0-1.0-623.0","0","0","28173","","null","","","null","69","","","","","","","","","","","","","","","",""
"","ISI","","html-keyboard-response","454","443202","0.0-1.0-624.0","0","0","28173","","null","","","null","69","NaN","","","","","","","","","","","","","","",""
"","S2","","html-keyboard-response","455","443454","0.0-1.0-625.0","0","0","28173","","null","","","null","69","","NaN","","","","","","","","","","","","","",""
"","response","","html-keyboard-response","456","444150","0.0-1.0-626.0","0","0","28173","","694","","","75","69","","","2","69","training","adjacent","CD","3","4","R.jpg","O.jpg","1","1","1","",""
"","feedback","","html-keyboard-response","457","445153","0.0-1.0-627.0-0.0","0","0","28173","","null","","","null","69","","","","","","","","","","","","","","","",""
"","ITI","","html-keyboard-response","458","446155","0.0-1.0-630.0","0","0","28173","","null","","","null","69","","","","","","","","","","","","","","","NaN",""
"","S1","","html-keyboard-response","459","446408","0.0-1.0-632.0","0","0","28173","","null","","","null","70","","","","","","","","","","","","","","","",""
"","ISI","","html-keyboard-response","460","448410","0.0-1.0-633.0","0","0","28173","","null","","","null","70","NaN","","","","","","","","","","","","","","",""
"","S2","","html-keyboard-response","461","448661","0.0-1.0-634.0","0","0","28173","","null","","","null","70","","NaN","","","","","","","","","","","","","",""
"","response","","html-keyboard-response","462","448741","0.0-1.0-635.0","0","0","28173","","77","","","75","70","","","2","70","training","adjacent","CD","3","4","R.jpg","O.jpg","1","1","1","",""
"","feedback","","html-keyboard-response","463","449743","0.0-1.0-636.0-0.0","0","0","28173","","null","","","null","70","","","","","","","","","","","","","","","",""
"","ITI","","html-keyboard-response","464","450744","0.0-1.0-639.0","0","0","28173","","null","","","null","70","","","","","","","","","","","","","","","NaN",""
"","S1","","html-keyboard-response","465","450996","0.0-1.0-641.0","0","0","28173","","null","","","null","71","","","","","","","","","","","","","","","",""
"","ISI","","html-keyboard-response","466","452998","0.0-1.0-642.0","0","0","28173","","null","","","null","71","NaN","","","","","","","","","","","","","","",""
"","S2","","html-keyboard-response","467","453251","0.0-1.0-643.0","0","0","28173","","null","","","null","71","","NaN","","","","","","","","","","","","","",""
"","response","","html-keyboard-response","468","453792","0.0-1.0-644.0","0","0","28173","","540","","","68","71","","","2","71","training","adjacent","BC","2","3","Q.jpg","R.jpg","0","1","0","",""
"","feedback","","html-keyboard-response","469","454795","0.0-1.0-645.0-0.0","0","0","28173","","null","","","null","71","","","","","","","","","","","","","","","",""
"","time_out","","html-keyboard-response","470","456797","0.0-1.0-647.0-0.0","0","0","28173","","null","","","null","71","","","","","","","","","","","","","","","",""
"","ITI","","html-keyboard-response","471","457799","0.0-1.0-648.0","0","0","28173","","null","","","null","71","","","","","","","","","","","","","","","NaN",""
"","S1","","html-keyboard-response","472","458051","0.0-1.0-650.0","0","0","28173","","null","","","null","72","","","","","","","","","","","","","","","",""
"","ISI","","html-keyboard-response","473","460054","0.0-1.0-651.0","0","0","28173","","null","","","null","72","NaN","","","","","","","","","","","","","","",""
"","S2","","html-keyboard-response","474","460306","0.0-1.0-652.0","0","0","28173","","null","","","null","72","","NaN","","","","","","","","","","","","","",""
"","response","","html-keyboard-response","475","460696","0.0-1.0-653.0","0","0","28173","","388","","","68","72","","","2","72","training","adjacent","GF","7","6","P.jpg","M.jpg","0","0","1","",""
"","feedback","","html-keyboard-response","476","461698","0.0-1.0-654.0-0.0","0","0","28173","","null","","","null","72","","","","","","","","","","","","","","","",""
"","ITI","","html-keyboard-response","477","462700","0.0-1.0-657.0","0","0","28173","","null","","","null","72","","","","","","","","","","","","","","","NaN",""
"","S1","","html-keyboard-response","478","462952","0.0-1.0-659.0","0","0","28173","","null","","","null","73","","","","","","","","","","","","","","","",""
"","ISI","","html-keyboard-response","479","464954","0.0-1.0-660.0","0","0","28173","","null","","","null","73","NaN","","","","","","","","","","","","","","",""
"","S2","","html-keyboard-response","480","465207","0.0-1.0-661.0","0","0","28173","","null","","","null","73","","NaN","","","","","","","","","","","","","",""
"","response","","html-keyboard-response","481","465652","0.0-1.0-662.0","0","0","28173","","445","","","75","73","","","2","73","training","adjacent","ED","5","4","N.jpg","O.jpg","1","0","0","",""
"","feedback","","html-keyboard-response","482","466654","0.0-1.0-663.0-0.0","0","0","28173","","null","","","null","73","","","","","","","","","","","","","","","",""
"","time_out","","html-keyboard-response","483","468657","0.0-1.0-665.0-0.0","0","0","28173","","null","","","null","73","","","","","","","","","","","","","","","",""
"","ITI","","html-keyboard-response","484","469660","0.0-1.0-666.0","0","0","28173","","null","","","null","73","","","","","","","","","","","","","","","NaN",""
"","S1","","html-keyboard-response","485","469912","0.0-1.0-668.0","0","0","28173","","null","","","null","74","","","","","","","","","","","","","","","",""
"","ISI","","html-keyboard-response","486","471915","0.0-1.0-669.0","0","0","28173","","null","","","null","74","NaN","","","","","","","","","","","","","","",""
"","S2","","html-keyboard-response","487","472168","0.0-1.0-670.0","0","0","28173","","null","","","null","74","","NaN","","","","","","","","","","","","","",""
"","response","","html-keyboard-response","488","472924","0.0-1.0-671.0","0","0","28173","","755","","","68","74","","","2","74","training","adjacent","ED","5","4","N.jpg","O.jpg","0","0","1","",""
"","feedback","","html-keyboard-response","489","473927","0.0-1.0-672.0-0.0","0","0","28173","","null","","","null","74","","","","","","","","","","","","","","","",""
"","ITI","","html-keyboard-response","490","474929","0.0-1.0-675.0","0","0","28173","","null","","","null","74","","","","","","","","","","","","","","","NaN",""
"","S1","","html-keyboard-response","491","475181","0.0-1.0-677.0","0","0","28173","","null","","","null","75","","","","","","","","","","","","","","","",""
"","ISI","","html-keyboard-response","492","477183","0.0-1.0-678.0","0","0","28173","","null","","","null","75","NaN","","","","","","","","","","","","","","",""
"","S2","","html-keyboard-response","493","477436","0.0-1.0-679.0","0","0","28173","","null","","","null","75","","NaN","","","","","","","","","","","","","",""
"","response","","html-keyboard-response","494","477616","0.0-1.0-680.0","0","0","28173","","179","","","75","75","","","2","75","training","adjacent","DC","4","3","O.jpg","R.jpg","1","0","0","",""
"","feedback","","html-keyboard-response","495","478620","0.0-1.0-681.0-0.0","0","0","28173","","null","","","null","75","","","","","","","","","","","","","","","",""
"","time_out","","html-keyboard-response","496","480622","0.0-1.0-683.0-0.0","0","0","28173","","null","","","null","75","","","","","","","","","","","","","","","",""
"","ITI","","html-keyboard-response","497","481624","0.0-1.0-684.0","0","0","28173","","null","","","null","75","","","","","","","","","","","","","","","NaN",""
"","S1","","html-keyboard-response","498","481876","0.0-1.0-686.0","0","0","28173","","null","","","null","76","","","","","","","","","","","","","","","",""
"","ISI","","html-keyboard-response","499","483878","0.0-1.0-687.0","0","0","28173","","null","","","null","76","NaN","","","","","","","","","","","","","","",""
"","S2","","html-keyboard-response","500","484131","0.0-1.0-688.0","0","0","28173","","null","","","null","76","","NaN","","","","","","","","","","","","","",""
"","response","","html-keyboard-response","501","484500","0.0-1.0-689.0","0","0","28173","","368","","","75","76","","","2","76","training","adjacent","FG","6","7","M.jpg","P.jpg","1","1","1","",""
"","feedback","","html-keyboard-response","502","485502","0.0-1.0-690.0-0.0","0","0","28173","","null","","","null","76","","","","","","","","","","","","","","","",""
"","ITI","","html-keyboard-response","503","486505","0.0-1.0-693.0","0","0","28173","","null","","","null","76","","","","","","","","","","","","","","","NaN",""
"","S1","","html-keyboard-response","504","486757","0.0-1.0-695.0","0","0","28173","","null","","","null","77","","","","","","","","","","","","","","","",""
"","ISI","","html-keyboard-response","505","488759","0.0-1.0-696.0","0","0","28173","","null","","","null","77","NaN","","","","","","","","","","","","","","",""
"","S2","","html-keyboard-response","506","489011","0.0-1.0-697.0","0","0","28173","","null","","","null","77","","NaN","","","","","","","","","","","","","",""
"","response","","html-keyboard-response","507","489285","0.0-1.0-698.0","0","0","28173","","272","","","68","77","","","2","77","training","adjacent","DC","4","3","O.jpg","R.jpg","0","0","1","",""
"","feedback","","html-keyboard-response","508","490287","0.0-1.0-699.0-0.0","0","0","28173","","null","","","null","77","","","","","","","","","","","","","","","",""
"","ITI","","html-keyboard-response","509","491290","0.0-1.0-702.0","0","0","28173","","null","","","null","77","","","","","","","","","","","","","","","NaN",""
"","S1","","html-keyboard-response","510","491542","0.0-1.0-704.0","0","0","28173","","null","","","null","78","","","","","","","","","","","","","","","",""
"","ISI","","html-keyboard-response","511","493543","0.0-1.0-705.0","0","0","28173","","null","","","null","78","NaN","","","","","","","","","","","","","","",""
"","S2","","html-keyboard-response","512","493795","0.0-1.0-706.0","0","0","28173","","null","","","null","78","","NaN","","","","","","","","","","","","","",""
"","response","","html-keyboard-response","513","494176","0.0-1.0-707.0","0","0","28173","","380","","","75","78","","","2","78","training","adjacent","FE","6","5","M.jpg","N.jpg","1","0","0","",""
"","feedback","","html-keyboard-response","514","495180","0.0-1.0-708.0-0.0","0","0","28173","","null","","","null","78","","","","","","","","","","","","","","","",""
"","time_out","","html-keyboard-response","515","497182","0.0-1.0-710.0-0.0","0","0","28173","","null","","","null","78","","","","","","","","","","","","","","","",""
"","ITI","","html-keyboard-response","516","498184","0.0-1.0-711.0","0","0","28173","","null","","","null","78","","","","","","","","","","","","","","","NaN",""
"","S1","","html-keyboard-response","517","498437","0.0-1.0-713.0","0","0","28173","","null","","","null","79","","","","","","","","","","","","","","","",""
"","ISI","","html-keyboard-response","518","500439","0.0-1.0-714.0","0","0","28173","","null","","","null","79","NaN","","","","","","","","","","","","","","",""
"","S2","","html-keyboard-response","519","500691","0.0-1.0-715.0","0","0","28173","","null","","","null","79","","NaN","","","","","","","","","","","","","",""
"","response","","html-keyboard-response","520","500991","0.0-1.0-716.0","0","0","28173","","298","","","75","79","","","2","79","training","adjacent","CB","3","2","R.jpg","Q.jpg","1","0","0","",""
"","feedback","","html-keyboard-response","521","501994","0.0-1.0-717.0-0.0","0","0","28173","","null","","","null","79","","","","","","","","","","","","","","","",""
"","time_out","","html-keyboard-response","522","503997","0.0-1.0-719.0-0.0","0","0","28173","","null","","","null","79","","","","","","","","","","","","","","","",""
"","ITI","","html-keyboard-response","523","505002","0.0-1.0-720.0","0","0","28173","","null","","","null","79","","","","","","","","","","","","","","","NaN",""
"","block_over","","html-keyboard-response","524","506558","0.0-1.0-721.0-0.0","0","0","28173","","1554","","","32","79","","","","","","","","","","","","","","","",""
"","S1","","html-keyboard-response","525","506810","0.0-1.0-722.0","0","0","28173","","null","","","null","80","","","","","","","","","","","","","","","",""
"","ISI","","html-keyboard-response","526","508811","0.0-1.0-723.0","0","0","28173","","null","","","null","80","NaN","","","","","","","","","","","","","","",""
"","S2","","html-keyboard-response","527","509063","0.0-1.0-724.0","0","0","28173","","null","","","null","80","","NaN","","","","","","","","","","","","","",""
"","response","","html-keyboard-response","528","509501","0.0-1.0-725.0","0","0","28173","","437","","","75","80","","","3","80","training","adjacent","ED","5","4","N.jpg","O.jpg","1","0","0","",""
"","feedback","","html-keyboard-response","529","510503","0.0-1.0-726.0-0.0","0","0","28173","","null","","","null","80","","","","","","","","","","","","","","","",""
"","time_out","","html-keyboard-response","530","512506","0.0-1.0-728.0-0.0","0","0","28173","","null","","","null","80","","","","","","","","","","","","","","","",""
"","ITI","","html-keyboard-response","531","513508","0.0-1.0-729.0","0","0","28173","","null","","","null","80","","","","","","","","","","","","","","","NaN",""
"","S1","","html-keyboard-response","532","513760","0.0-1.0-731.0","0","0","28173","","null","","","null","81","","","","","","","","","","","","","","","",""
"","ISI","","html-keyboard-response","533","515763","0.0-1.0-732.0","0","0","28173","","null","","","null","81","NaN","","","","","","","","","","","","","","",""
"","S2","","html-keyboard-response","534","516015","0.0-1.0-733.0","0","0","28173","","null","","","null","81","","NaN","","","","","","","","","","","","","",""
"","response","","html-keyboard-response","535","516369","0.0-1.0-734.0","0","0","28173","","352","","","75","81","","","3","81","training","adjacent","FE","6","5","M.jpg","N.jpg","1","0","0","",""
"","feedback","","html-keyboard-response","536","517371","0.0-1.0-735.0-0.0","0","0","28173","","null","","","null","81","","","","","","","","","","","","","","","",""
"","time_out","","html-keyboard-response","537","519373","0.0-1.0-737.0-0.0","0","0","28173","","null","","","null","81","","","","","","","","","","","","","","","",""
"","ITI","","html-keyboard-response","538","520375","0.0-1.0-738.0","0","0","28173","","null","","","null","81","","","","","","","","","","","","","","","NaN",""
"","S1","","html-keyboard-response","539","520627","0.0-1.0-740.0","0","0","28173","","null","","","null","82","","","","","","","","","","","","","","","",""
"","ISI","","html-keyboard-response","540","522630","0.0-1.0-741.0","0","0","28173","","null","","","null","82","NaN","","","","","","","","","","","","","","",""
"","S2","","html-keyboard-response","541","522882","0.0-1.0-742.0","0","0","28173","","null","","","null","82","","NaN","","","","","","","","","","","","","",""
"","response","","html-keyboard-response","542","523168","0.0-1.0-743.0","0","0","28173","","284","","","75","82","","","3","82","training","adjacent","FG","6","7","M.jpg","P.jpg","1","1","1","",""
"","feedback","","html-keyboard-response","543","524171","0.0-1.0-744.0-0.0","0","0","28173","","null","","","null","82","","","","","","","","","","","","","","","",""
"","ITI","","html-keyboard-response","544","525173","0.0-1.0-747.0","0","0","28173","","null","","","null","82","","","","","","","","","","","","","","","NaN",""
"","S1","","html-keyboard-response","545","525426","0.0-1.0-749.0","0","0","28173","","null","","","null","83","","","","","","","","","","","","","","","",""
"","ISI","","html-keyboard-response","546","527429","0.0-1.0-750.0","0","0","28173","","null","","","null","83","NaN","","","","","","","","","","","","","","",""
"","S2","","html-keyboard-response","547","527682","0.0-1.0-751.0","0","0","28173","","null","","","null","83","","NaN","","","","","","","","","","","","","",""
"","response","","html-keyboard-response","548","528474","0.0-1.0-752.0","0","0","28173","","791","","","68","83","","","3","83","training","adjacent","GF","7","6","P.jpg","M.jpg","0","0","1","",""
"","feedback","","html-keyboard-response","549","529477","0.0-1.0-753.0-0.0","0","0","28173","","null","","","null","83","","","","","","","","","","","","","","","",""
"","ITI","","html-keyboard-response","550","530478","0.0-1.0-756.0","0","0","28173","","null","","","null","83","","","","","","","","","","","","","","","NaN",""
"","S1","","html-keyboard-response","551","530731","0.0-1.0-758.0","0","0","28173","","null","","","null","84","","","","","","","","","","","","","","","",""
"","ISI","","html-keyboard-response","552","532733","0.0-1.0-759.0","0","0","28173","","null","","","null","84","NaN","","","","","","","","","","","","","","",""
"","S2","","html-keyboard-response","553","532985","0.0-1.0-760.0","0","0","28173","","null","","","null","84","","NaN","","","","","","","","","","","","","",""
"","response","","html-keyboard-response","554","533063","0.0-1.0-761.0","0","0","28173","","77","","","68","84","","","3","84","training","adjacent","FG","6","7","M.jpg","P.jpg","0","1","0","",""
"","feedback","","html-keyboard-response","555","534066","0.0-1.0-762.0-0.0","0","0","28173","","null","","","null","84","","","","","","","","","","","","","","","",""
"","time_out","","html-keyboard-response","556","536068","0.0-1.0-764.0-0.0","0","0","28173","","null","","","null","84","","","","","","","","","","","","","","","",""
"","ITI","","html-keyboard-response","557","537069","0.0-1.0-765.0","0","0","28173","","null","","","null","84","","","","","","","","","","","","","","","NaN",""
"","S1","","html-keyboard-response","558","537322","0.0-1.0-767.0","0","0","28173","","null","","","null","85","","","","","","","","","","","","","","","",""
"","ISI","","html-keyboard-response","559","539324","0.0-1.0-768.0","0","0","28173","","null","","","null","85","NaN","","","","","","","","","","","","","","",""
"","S2","","html-keyboard-response","560","539576","0.0-1.0-769.0","0","0","28173","","null","","","null","85","","NaN","","","","","","","","","","","","","",""
"","response","","html-keyboard-response","561","539964","0.0-1.0-770.0","0","0","28173","","386","","","75","85","","","3","85","training","adjacent","DC","4","3","O.jpg","R.jpg","1","0","0","",""
"","feedback","","html-keyboard-response","562","540967","0.0-1.0-771.0-0.0","0","0","28173","","null","","","null","85","","","","","","","","","","","","","","","",""
"","time_out","","html-keyboard-response","563","542969","0.0-1.0-773.0-0.0","0","0","28173","","null","","","null","85","","","","","","","","","","","","","","","",""
"","ITI","","html-keyboard-response","564","543976","0.0-1.0-774.0","0","0","28173","","null","","","null","85","","","","","","","","","","","","","","","NaN",""
"","S1","","html-keyboard-response","565","544229","0.0-1.0-776.0","0","0","28173","","null","","","null","86","","","","","","","","","","","","","","","",""
"","ISI","","html-keyboard-response","566","546230","0.0-1.0-777.0","0","0","28173","","null","","","null","86","NaN","","","","","","","","","","","","","","",""
"","S2","","html-keyboard-response","567","546482","0.0-1.0-778.0","0","0","28173","","null","","","null","86","","NaN","","","","","","","","","","","","","",""
"","response","","html-keyboard-response","568","546849","0.0-1.0-779.0","0","0","28173","","365","","","75","86","","","3","86","training","adjacent","EF","5","6","N.jpg","M.jpg","1","1","1","",""
"","feedback","","html-keyboard-response","569","547852","0.0-1.0-780.0-0.0","0","0","28173","","null","","","null","86","","","","","","","","","","","","","","","",""
"","ITI","","html-keyboard-response","570","548855","0.0-1.0-783.0","0","0","28173","","null","","","null","86","","","","","","","","","","","","","","","NaN",""
"","S1","","html-keyboard-response","571","549108","0.0-1.0-785.0","0","0","28173","","null","","","null","87","","","","","","","","","","","","","","","",""
"","ISI","","html-keyboard-response","572","551110","0.0-1.0-786.0","0","0","28173","","null","","","null","87","NaN","","","","","","","","","","","","","","",""
"","S2","","html-keyboard-response","573","551362","0.0-1.0-787.0","0","0","28173","","null","","","null","87","","NaN","","","","","","","","","","","","","",""
"","response","","html-keyboard-response","574","551404","0.0-1.0-788.0","0","0","28173","","40","","","68","87","","","3","87","training","adjacent","GF","7","6","P.jpg","M.jpg","0","0","1","",""
"","feedback","","html-keyboard-response","575","552406","0.0-1.0-789.0-0.0","0","0","28173","","null","","","null","87","","","","","","","","","","","","","","","",""
"","ITI","","html-keyboard-response","576","553409","0.0-1.0-792.0","0","0","28173","","null","","","null","87","","","","","","","","","","","","","","","NaN",""
"","S1","","html-keyboard-response","577","553661","0.0-1.0-794.0","0","0","28173","","null","","","null","88","","","","","","","","","","","","","","","",""
"","ISI","","html-keyboard-response","578","555663","0.0-1.0-795.0","0","0","28173","","null","","","null","88","NaN","","","","","","","","","","","","","","",""
"","S2","","html-keyboard-response","579","555916","0.0-1.0-796.0","0","0","28173","","null","","","null","88","","NaN","","","","","","","","","","","","","",""
"","response","","html-keyboard-response","580","556326","0.0-1.0-797.0","0","0","28173","","409","","","75","88","","","3","88","training","adjacent","FE","6","5","M.jpg","N.jpg","1","0","0","",""
"","feedback","","html-keyboard-response","581","557329","0.0-1.0-798.0-0.0","0","0","28173","","null","","","null","88","","","","","","","","","","","","","","","",""
"","time_out","","html-keyboard-response","582","559332","0.0-1.0-800.0-0.0","0","0","28173","","null","","","null","88","","","","","","","","","","","","","","","",""
"","ITI","","html-keyboard-response","583","560334","0.0-1.0-801.0","0","0","28173","","null","","","null","88","","","","","","","","","","","","","","","NaN",""
"","S1","","html-keyboard-response","584","560586","0.0-1.0-803.0","0","0","28173","","null","","","null","89","","","","","","","","","","","","","","","",""
"","ISI","","html-keyboard-response","585","562589","0.0-1.0-804.0","0","0","28173","","null","","","null","89","NaN","","","","","","","","","","","","","","",""
