"success","ttype","start_time","trial_type","trial_index","time_elapsed","internal_node_id","warning","missed_checkup","PID","view_history","rt","responses","repeat_instructions","key_press","index","keypress_isi","keypress_S2","block","trial_num","phase","group_type","pair_type","S1_stim","S2_stim","S1_img","S2_img","S1_chosen","S1_higher","accuracy","keypress_iti","total_bonus_tally"
"true","full_screen","d03042023hr1508","fullscreen","0","2848","0.0-0.0","0","0","67627","","","","","","","","","","","","","","","","","","","","","",""
"","instructions","","instructions","1","36961","0.0-1.0-0.0-0.0","0","0","67627","[{""page_index"":0,""viewing_time"":10901},{""page_index"":1,""viewing_time"":13687},{""page_index"":2,""viewing_time"":5048},{""page_index"":3,""viewing_time"":4460}]","34097","","","","","","","","","","","","","","","","","","","",""
"","comprehension_check","","survey-multi-choice","2","64475","0.0-1.0-0.0-1.0","0","0","67627","","27498","{""Q0"":""True"",""Q1"":""D"",""Q2"":""Once the second image appears and while the screen 'MAKE A CHOICE' is shown"",""Q3"":""Green mark"",""Q4"":""either D or K""}","1","","","","","","","","","","","","","","","","","",""
"","missed_instruction_checkup","","html-keyboard-response","3","67039","0.0-1.0-0.0-2.0-0.0","0","1","67627","","2550","","","32","","","","","","","","","","","","","","","","",""
"","instructions","","instructions","4","78126","0.0-1.0-0.1-0.1","0","0","67627","[{""page_index"":0,""viewing_time"":3207},{""page_index"":1,""viewing_time"":2267},{""page_index"":2,""viewing_time"":1928},{""page_index"":3,""viewing_time"":3674}]","11077","","","","","","","","","","","","","","","","","","","",""
"","comprehension_check","","survey-multi-choice","5","98347","0.0-1.0-0.1-1.1","0","0","67627","","20206","{""Q0"":""True"",""Q1"":""K"",""Q2"":""Once the second image appears and while the screen 'MAKE A CHOICE' is shown"",""Q3"":""Green mark"",""Q4"":""either D or K""}","0","","","","","","","","","","","","","","","","","",""
"","start_exp","","html-keyboard-response","6","102150","0.0-1.0-1.0","0","0","67627","","3794","","","32","","","","","","","","","","","","","","","","",""
"","S1","","html-keyboard-response","7","102412","0.0-1.0-2.0","0","0","67627","","null","","","null","0","","","","","","","","","","","","","","","",""
"","ISI","","html-keyboard-response","8","102951","0.0-1.0-3.0","0","0","67627","","null","","","null","0","NaN","","","","","","","","","","","","","","",""
"","S2","","html-keyboard-response","9","103247","0.0-1.0-4.0","0","0","67627","","null","","","null","0","","NaN","","","","","","","","","","","","","",""
"","response","","html-keyboard-response","10","105012","0.0-1.0-5.0-0.0","0","0","67627","","null","","","null","0","","","1","0","training","adjacent","BC","2","3","R.jpg","N.jpg","NaN","1","0","",""
"","too_slow_prompt","","html-keyboard-response","11","106026","0.0-1.0-7.0-0.0","1","0","67627","","null","","","null","","","","","","","","","","","","","","","","",""
"","time_out","","html-keyboard-response","12","108035","0.0-1.0-8.0-0.0","0","0","67627","","null","","","null","0","","","","","","","","","","","","","","","",""
"","ITI","","html-keyboard-response","13","109041","0.0-1.0-9.0","0","0","67627","","494","","","68","0","","","","","","","","","","","","","","","d",""
"","S1","","html-keyboard-response","14","109424","0.0-1.0-11.0","0","0","67627","","null","","","null","1","","","","","","","","","","","","","","","",""
"","ISI","","html-keyboard-response","15","109928","0.0-1.0-12.0","0","0","67627","","126","","","75","1","k","","","","","","","","","","","","","","",""
"","S2","","html-keyboard-response","16","110181","0.0-1.0-13.0","0","0","67627","","null","","","null","1","","NaN","","","","","","","","","","","","","",""
"","response","","html-keyboard-response","17","110296","0.0-1.0-14.0-0.0","0","0","67627","","109","","","75","1","","","1","1","training","adjacent","GF","7","6","L.jpg","P.jpg","1","0","0","",""
"","feedback","","html-keyboard-response","18","111306","0.0-1.0-15.0-0.0","0","0","67627","","null","","","null","1","","","","","","","","","","","","","","","",""
"","time_out","","html-keyboard-response","19","113317","0.0-1.0-17.0-0.0","0","0","67627","","null","","","null","1","","","","","","","","","","","","","","","",""
"","ITI","","html-keyboard-response","20","114366","0.0-1.0-18.0","0","0","67627","","794","","","75","1","","","","","","","","","","","","","","","k",""
"","S1","","html-keyboard-response","21","114628","0.0-1.0-20.0","0","0","67627","","null","","","null","2","","","","","","","","","","","","","","","",""
"","ISI","","html-keyboard-response","22","115141","0.0-1.0-21.0","0","0","67627","","223","","","68","2","d","","","","","","","","","","","","","","",""
"","S2","","html-keyboard-response","23","115408","0.0-1.0-22.0","0","0","67627","","null","","","null","2","","NaN","","","","","","","","","","","","","",""
"","response","","html-keyboard-response","24","115769","0.0-1.0-23.0-0.0","0","0","67627","","356","","","75","2","","","1","2","training","adjacent","EF","5","6","M.jpg","P.jpg","1","1","1","",""
"","feedback","","html-keyboard-response","25","116778","0.0-1.0-24.0-0.0","0","0","67627","","null","","","null","2","","","","","","","","","","","","","","","",""
"","ITI","","html-keyboard-response","26","117788","0.0-1.0-27.0","0","0","67627","","979","","","75","2","","","","","","","","","","","","","","","k",""
"","S1","","html-keyboard-response","27","118046","0.0-1.0-29.0","0","0","67627","","null","","","null","3","","","","","","","","","","","","","","","",""
"","ISI","","html-keyboard-response","28","118564","0.0-1.0-30.0","0","0","67627","","104","","","68","3","d","","","","","","","","","","","","","","",""
"","S2","","html-keyboard-response","29","118712","0.0-1.0-31.0","0","0","67627","","145","","","75","3","","k","1","3","training","adjacent","BC","2","3","R.jpg","N.jpg","1","1","1","",""
"","feedback","","html-keyboard-response","30","119716","0.0-1.0-33.0-0.0","0","0","67627","","null","","","null","3","","","","","","","","","","","","","","","",""
"","ITI","","html-keyboard-response","31","120722","0.0-1.0-36.0","0","0","67627","","261","","","68","3","","","","","","","","","","","","","","","d",""
"","S1","","html-keyboard-response","32","120982","0.0-1.0-38.0","0","0","67627","","null","","","null","4","","","","","","","","","","","","","","","",""
"","ISI","","html-keyboard-response","33","121488","0.0-1.0-39.0","0","0","67627","","281","","","68","4","d","","","","","","","","","","","","","","",""
"","S2","","html-keyboard-response","34","121545","0.0-1.0-40.0","0","0","67627","","51","","","75","4","","k","1","4","training","adjacent","ED","5","4","M.jpg","O.jpg","1","0","0","",""
"","feedback","","html-keyboard-response","35","122554","0.0-1.0-42.0-0.0","0","0","67627","","null","","","null","4","","","","","","","","","","","","","","","",""
"","time_out","","html-keyboard-response","36","124562","0.0-1.0-44.0-0.0","0","0","67627","","null","","","null","4","","","","","","","","","","","","","","","",""
"","ITI","","html-keyboard-response","37","125566","0.0-1.0-45.0","0","0","67627","","71","","","75","4","","","","","","","","","","","","","","","k",""
"","S1","","html-keyboard-response","38","125819","0.0-1.0-47.0","0","0","67627","","null","","","null","5","","","","","","","","","","","","","","","",""
"","ISI","","html-keyboard-response","39","126322","0.0-1.0-48.0","0","0","67627","","360","","","75","5","k","","","","","","","","","","","","","","",""
"","S2","","html-keyboard-response","40","126593","0.0-1.0-49.0","0","0","67627","","null","","","null","5","","NaN","","","","","","","","","","","","","",""
"","response","","html-keyboard-response","41","127894","0.0-1.0-50.0-0.0","0","0","67627","","1258","","","68","5","","","1","5","training","adjacent","CD","3","4","N.jpg","O.jpg","0","1","0","",""
"","feedback","","html-keyboard-response","42","128899","0.0-1.0-51.0-0.0","0","0","67627","","null","","","null","5","","","","","","","","","","","","","","","",""
"","time_out","","html-keyboard-response","43","130905","0.0-1.0-53.0-0.0","0","0","67627","","null","","","null","5","","","","","","","","","","","","","","","",""
"","ITI","","html-keyboard-response","44","131911","0.0-1.0-54.0","0","0","67627","","25","","","75","5","","","","","","","","","","","","","","","k",""
"","S1","","html-keyboard-response","45","132166","0.0-1.0-56.0","0","0","67627","","null","","","null","6","","","","","","","","","","","","","","","",""
"","ISI","","html-keyboard-response","46","132671","0.0-1.0-57.0","0","0","67627","","85","","","68","6","d","","","","","","","","","","","","","","",""
"","S2","","html-keyboard-response","47","132885","0.0-1.0-58.0","0","0","67627","","211","","","68","6","","d","1","6","training","adjacent","BA","2","1","R.jpg","Q.jpg","0","0","1","",""
"","feedback","","html-keyboard-response","48","133901","0.0-1.0-60.0-0.0","0","0","67627","","null","","","null","6","","","","","","","","","","","","","","","",""
"","ITI","","html-keyboard-response","49","134925","0.0-1.0-63.0","0","0","67627","","96","","","75","6","","","","","","","","","","","","","","","k",""
"","S1","","html-keyboard-response","50","135184","0.0-1.0-65.0","0","0","67627","","null","","","null","7","","","","","","","","","","","","","","","",""
"","ISI","","html-keyboard-response","51","135687","0.0-1.0-66.0","0","0","67627","","217","","","75","7","k","","","","","","","","","","","","","","",""
"","S2","","html-keyboard-response","52","135783","0.0-1.0-67.0","0","0","67627","","92","","","75","7","","k","1","7","training","adjacent","DE","4","5","O.jpg","M.jpg","1","1","1","",""
"","feedback","","html-keyboard-response","53","136797","0.0-1.0-69.0-0.0","0","0","67627","","null","","","null","7","","","","","","","","","","","","","","","",""
"","ITI","","html-keyboard-response","54","137806","0.0-1.0-72.0","0","0","67627","","null","","","null","7","","","","","","","","","","","","","","","NaN",""
"","S1","","html-keyboard-response","55","138066","0.0-1.0-74.0","0","0","67627","","null","","","null","8","","","","","","","","","","","","","","","",""
"","ISI","","html-keyboard-response","56","138585","0.0-1.0-75.0","0","0","67627","","null","","","null","8","NaN","","","","","","","","","","","","","","",""
"","S2","","html-keyboard-response","57","138839","0.0-1.0-76.0","0","0","67627","","null","","","null","8","","NaN","","","","","","","","","","","","","",""
"","response","","html-keyboard-response","58","139913","0.0-1.0-77.0-0.0","0","0","67627","","1069","","","75","8","","","1","8","training","adjacent","GF","7","6","L.jpg","P.jpg","1","0","0","",""
"","feedback","","html-keyboard-response","59","140935","0.0-1.0-78.0-0.0","0","0","67627","","null","","","null","8","","","","","","","","","","","","","","","",""
"","time_out","","html-keyboard-response","60","142947","0.0-1.0-80.0-0.0","0","0","67627","","null","","","null","8","","","","","","","","","","","","","","","",""
"","ITI","","html-keyboard-response","61","143963","0.0-1.0-81.0","0","0","67627","","177","","","75","8","","","","","","","","","","","","","","","k",""
"","S1","","html-keyboard-response","62","144230","0.0-1.0-83.0","0","0","67627","","null","","","null","9","","","","","","","","","","","","","","","",""
"","ISI","","html-keyboard-response","63","144741","0.0-1.0-84.0","0","0","67627","","72","","","68","9","d","","","","","","","","","","","","","","",""
"","S2","","html-keyboard-response","64","144855","0.0-1.0-85.0","0","0","67627","","110","","","75","9","","k","1","9","training","adjacent","DC","4","3","O.jpg","N.jpg","1","0","0","",""
"","feedback","","html-keyboard-response","65","145859","0.0-1.0-87.0-0.0","0","0","67627","","null","","","null","9","","","","","","","","","","","","","","","",""
"","time_out","","html-keyboard-response","66","147864","0.0-1.0-89.0-0.0","0","0","67627","","null","","","null","9","","","","","","","","","","","","","","","",""
"","ITI","","html-keyboard-response","67","148878","0.0-1.0-90.0","0","0","67627","","490","","","68","9","","","","","","","","","","","","","","","d",""
"","S1","","html-keyboard-response","68","149139","0.0-1.0-92.0","0","0","67627","","null","","","null","10","","","","","","","","","","","","","","","",""
"","ISI","","html-keyboard-response","69","149646","0.0-1.0-93.0","0","0","67627","","210","","","68","10","d","","","","","","","","","","","","","","",""
"","S2","","html-keyboard-response","70","149684","0.0-1.0-94.0","0","0","67627","","33","","","75","10","","k","1","10","training","adjacent","DC","4","3","O.jpg","N.jpg","1","0","0","",""
"","feedback","","html-keyboard-response","71","150720","0.0-1.0-96.0-0.0","0","0","67627","","null","","","null","10","","","","","","","","","","","","","","","",""
"","time_out","","html-keyboard-response","72","152739","0.0-1.0-98.0-0.0","0","0","67627","","null","","","null","10","","","","","","","","","","","","","","","",""
"","ITI","","html-keyboard-response","73","153747","0.0-1.0-99.0","0","0","67627","","265","","","68","10","","","","","","","","","","","","","","","d",""
"","S1","","html-keyboard-response","74","154013","0.0-1.0-101.0","0","0","67627","","null","","","null","11","","","","","","","","","","","","","","","",""
"","ISI","","html-keyboard-response","75","154529","0.0-1.0-102.0","0","0","67627","","252","","","68","11","d","","","","","","","","","","","","","","",""
"","S2","","html-keyboard-response","76","154640","0.0-1.0-103.0","0","0","67627","","106","","","75","11","","k","1","11","training","adjacent","CD","3","4","N.jpg","O.jpg","1","1","1","",""
"","feedback","","html-keyboard-response","77","155649","0.0-1.0-105.0-0.0","0","0","67627","","null","","","null","11","","","","","","","","","","","","","","","",""
"","ITI","","html-keyboard-response","78","156662","0.0-1.0-108.0","0","0","67627","","168","","","68","11","","","","","","","","","","","","","","","d",""
"","S1","","html-keyboard-response","79","156930","0.0-1.0-110.0","0","0","67627","","null","","","null","12","","","","","","","","","","","","","","","",""
"","ISI","","html-keyboard-response","80","157441","0.0-1.0-111.0","0","0","67627","","null","","","null","12","NaN","","","","","","","","","","","","","","",""
"","S2","","html-keyboard-response","81","157697","0.0-1.0-112.0","0","0","67627","","null","","","null","12","","NaN","","","","","","","","","","","","","",""
"","response","","html-keyboard-response","82","158349","0.0-1.0-113.0-0.0","0","0","67627","","647","","","68","12","","","1","12","training","adjacent","BA","2","1","R.jpg","Q.jpg","0","0","1","",""
"","feedback","","html-keyboard-response","83","159354","0.0-1.0-114.0-0.0","0","0","67627","","null","","","null","12","","","","","","","","","","","","","","","",""
"","ITI","","html-keyboard-response","84","160359","0.0-1.0-117.0","0","0","67627","","279","","","68","12","","","","","","","","","","","","","","","d",""
"","S1","","html-keyboard-response","85","160620","0.0-1.0-119.0","0","0","67627","","null","","","null","13","","","","","","","","","","","","","","","",""
"","ISI","","html-keyboard-response","86","161129","0.0-1.0-120.0","0","0","67627","","301","","","75","13","k","","","","","","","","","","","","","","",""
"","S2","","html-keyboard-response","87","161166","0.0-1.0-121.0","0","0","67627","","34","","","68","13","","d","1","13","training","adjacent","CB","3","2","N.jpg","R.jpg","0","0","1","",""
"","feedback","","html-keyboard-response","88","162179","0.0-1.0-123.0-0.0","0","0","67627","","null","","","null","13","","","","","","","","","","","","","","","",""
"","ITI","","html-keyboard-response","89","163189","0.0-1.0-126.0","0","0","67627","","124","","","68","13","","","","","","","","","","","","","","","d",""
"","S1","","html-keyboard-response","90","163449","0.0-1.0-128.0","0","0","67627","","null","","","null","14","","","","","","","","","","","","","","","",""
"","ISI","","html-keyboard-response","91","163960","0.0-1.0-129.0","0","0","67627","","319","","","68","14","d","","","","","","","","","","","","","","",""
"","S2","","html-keyboard-response","92","164102","0.0-1.0-130.0","0","0","67627","","138","","","75","14","","k","1","14","training","adjacent","DE","4","5","O.jpg","M.jpg","1","1","1","",""
"","feedback","","html-keyboard-response","93","165109","0.0-1.0-132.0-0.0","0","0","67627","","null","","","null","14","","","","","","","","","","","","","","","",""
"","ITI","","html-keyboard-response","94","166119","0.0-1.0-135.0","0","0","67627","","97","","","75","14","","","","","","","","","","","","","","","k",""
"","S1","","html-keyboard-response","95","166387","0.0-1.0-137.0","0","0","67627","","null","","","null","15","","","","","","","","","","","","","","","",""
"","ISI","","html-keyboard-response","96","166891","0.0-1.0-138.0","0","0","67627","","57","","","68","15","d","","","","","","","","","","","","","","",""
"","S2","","html-keyboard-response","97","167159","0.0-1.0-139.0","0","0","67627","","null","","","null","15","","NaN","","","","","","","","","","","","","",""
"","response","","html-keyboard-response","98","168511","0.0-1.0-140.0-0.0","0","0","67627","","1346","","","68","15","","","1","15","training","adjacent","BA","2","1","R.jpg","Q.jpg","0","0","1","",""
"","feedback","","html-keyboard-response","99","169519","0.0-1.0-141.0-0.0","0","0","67627","","null","","","null","15","","","","","","","","","","","","","","","",""
"","ITI","","html-keyboard-response","100","170526","0.0-1.0-144.0","0","0","67627","","null","","","null","15","","","","","","","","","","","","","","","NaN",""
"","S1","","html-keyboard-response","101","170782","0.0-1.0-146.0","0","0","67627","","null","","","null","16","","","","","","","","","","","","","","","",""
"","ISI","","html-keyboard-response","102","171288","0.0-1.0-147.0","0","0","67627","","237","","","83","16","s","","","","","","","","","","","","","","",""
"","S2","","html-keyboard-response","103","171543","0.0-1.0-148.0","0","0","67627","","null","","","null","16","","NaN","","","","","","","","","","","","","",""
"","response","","html-keyboard-response","104","171751","0.0-1.0-149.0-0.0","0","0","67627","","203","","","68","16","","","1","16","training","adjacent","CB","3","2","N.jpg","R.jpg","0","0","1","",""
"","feedback","","html-keyboard-response","105","172778","0.0-1.0-150.0-0.0","0","0","67627","","null","","","null","16","","","","","","","","","","","","","","","",""
"","ITI","","html-keyboard-response","106","173785","0.0-1.0-153.0","0","0","67627","","136","","","68","16","","","","","","","","","","","","","","","d",""
"","S1","","html-keyboard-response","107","174047","0.0-1.0-155.0","0","0","67627","","null","","","null","17","","","","","","","","","","","","","","","",""
"","ISI","","html-keyboard-response","108","174552","0.0-1.0-156.0","0","0","67627","","293","","","75","17","k","","","","","","","","","","","","","","",""
"","S2","","html-keyboard-response","109","174621","0.0-1.0-157.0","0","0","67627","","65","","","68","17","","d","1","17","training","adjacent","DE","4","5","O.jpg","M.jpg","0","1","0","",""
"","feedback","","html-keyboard-response","110","175636","0.0-1.0-159.0-0.0","0","0","67627","","null","","","null","17","","","","","","","","","","","","","","","",""
"","time_out","","html-keyboard-response","111","177652","0.0-1.0-161.0-0.0","0","0","67627","","null","","","null","17","","","","","","","","","","","","","","","",""
"","ITI","","html-keyboard-response","112","178661","0.0-1.0-162.0","0","0","67627","","12","","","75","17","","","","","","","","","","","","","","","k",""
"","S1","","html-keyboard-response","113","178922","0.0-1.0-164.0","0","0","67627","","null","","","null","18","","","","","","","","","","","","","","","",""
"","ISI","","html-keyboard-response","114","179431","0.0-1.0-165.0","0","0","67627","","26","","","68","18","d","","","","","","","","","","","","","","",""
"","S2","","html-keyboard-response","115","179479","0.0-1.0-166.0","0","0","67627","","45","","","68","18","","d","1","18","training","adjacent","DE","4","5","O.jpg","M.jpg","0","1","0","",""
"","feedback","","html-keyboard-response","116","180579","0.0-1.0-168.0-0.0","0","0","67627","","null","","","null","18","","","","","","","","","","","","","","","",""
"","time_out","","html-keyboard-response","117","182593","0.0-1.0-170.0-0.0","0","0","67627","","null","","","null","18","","","","","","","","","","","","","","","",""
"","ITI","","html-keyboard-response","118","183600","0.0-1.0-171.0","0","0","67627","","313","","","68","18","","","","","","","","","","","","","","","d",""
"","S1","","html-keyboard-response","119","183865","0.0-1.0-173.0","0","0","67627","","null","","","null","19","","","","","","","","","","","","","","","",""
"","ISI","","html-keyboard-response","120","184375","0.0-1.0-174.0","0","0","67627","","24","","","75","19","k","","","","","","","","","","","","","","",""
"","S2","","html-keyboard-response","121","184531","0.0-1.0-175.0","0","0","67627","","154","","","75","19","","k","1","19","training","adjacent","FE","6","5","P.jpg","M.jpg","1","0","0","",""
"","feedback","","html-keyboard-response","122","185542","0.0-1.0-177.0-0.0","0","0","67627","","null","","","null","19","","","","","","","","","","","","","","","",""
"","time_out","","html-keyboard-response","123","187558","0.0-1.0-179.0-0.0","0","0","67627","","null","","","null","19","","","","","","","","","","","","","","","",""
"","ITI","","html-keyboard-response","124","188581","0.0-1.0-180.0","0","0","67627","","null","","","null","19","","","","","","","","","","","","","","","NaN",""
"","S1","","html-keyboard-response","125","188835","0.0-1.0-182.0","0","0","67627","","null","","","null","20","","","","","","","","","","","","","","","",""
"","ISI","","html-keyboard-response","126","189345","0.0-1.0-183.0","0","0","67627","","219","","","75","20","k","","","","","","","","","","","","","","",""
"","S2","","html-keyboard-response","127","189611","0.0-1.0-184.0","0","0","67627","","null","","","null","20","","NaN","","","","","","","","","","","","","",""
"","response","","html-keyboard-response","128","190058","0.0-1.0-185.0-0.0","0","0","67627","","439","","","75","20","","","1","20","training","adjacent","AB","1","2","Q.jpg","R.jpg","1","1","1","",""
"","feedback","","html-keyboard-response","129","191071","0.0-1.0-186.0-0.0","0","0","67627","","null","","","null","20","","","","","","","","","","","","","","","",""
"","ITI","","html-keyboard-response","130","192084","0.0-1.0-189.0","0","0","67627","","670","","","68","20","","","","","","","","","","","","","","","d",""
"","S1","","html-keyboard-response","131","192360","0.0-1.0-191.0","0","0","67627","","null","","","null","21","","","","","","","","","","","","","","","",""
"","ISI","","html-keyboard-response","132","192865","0.0-1.0-192.0","0","0","67627","","61","","","68","21","d","","","","","","","","","","","","","","",""
"","S2","","html-keyboard-response","133","193126","0.0-1.0-193.0","0","0","67627","","null","","","null","21","","NaN","","","","","","","","","","","","","",""
"","response","","html-keyboard-response","134","193531","0.0-1.0-194.0-0.0","0","0","67627","","399","","","75","21","","","1","21","training","adjacent","DC","4","3","O.jpg","N.jpg","1","0","0","",""
"","feedback","","html-keyboard-response","135","194563","0.0-1.0-195.0-0.0","0","0","67627","","null","","","null","21","","","","","","","","","","","","","","","",""
"","time_out","","html-keyboard-response","136","196577","0.0-1.0-197.0-0.0","0","0","67627","","null","","","null","21","","","","","","","","","","","","","","","",""
"","ITI","","html-keyboard-response","137","197588","0.0-1.0-198.0","0","0","67627","","296","","","68","21","","","","","","","","","","","","","","","d",""
"","S1","","html-keyboard-response","138","197851","0.0-1.0-200.0","0","0","67627","","null","","","null","22","","","","","","","","","","","","","","","",""
"","ISI","","html-keyboard-response","139","198358","0.0-1.0-201.0","0","0","67627","","177","","","75","22","k","","","","","","","","","","","","","","",""
"","S2","","html-keyboard-response","140","198630","0.0-1.0-202.0","0","0","67627","","null","","","null","22","","NaN","","","","","","","","","","","","","",""
"","response","","html-keyboard-response","141","198754","0.0-1.0-203.0-0.0","0","0","67627","","119","","","75","22","","","1","22","training","adjacent","BC","2","3","R.jpg","N.jpg","1","1","1","",""
"","feedback","","html-keyboard-response","142","199775","0.0-1.0-204.0-0.0","0","0","67627","","null","","","null","22","","","","","","","","","","","","","","","",""
"","ITI","","html-keyboard-response","143","200786","0.0-1.0-207.0","0","0","67627","","1","","","75","22","","","","","","","","","","","","","","","k",""
"","S1","","html-keyboard-response","144","201046","0.0-1.0-209.0","0","0","67627","","null","","","null","23","","","","","","","","","","","","","","","",""
"","ISI","","html-keyboard-response","145","201553","0.0-1.0-210.0","0","0","67627","","96","","","68","23","d","","","","","","","","","","","","","","",""
"","S2","","html-keyboard-response","146","201695","0.0-1.0-211.0","0","0","67627","","138","","","68","23","","d","1","23","training","adjacent","BC","2","3","R.jpg","N.jpg","0","1","0","",""
"","feedback","","html-keyboard-response","147","202699","0.0-1.0-213.0-0.0","0","0","67627","","null","","","null","23","","","","","","","","","","","","","","","",""
"","time_out","","html-keyboard-response","148","204737","0.0-1.0-215.0-0.0","0","0","67627","","null","","","null","23","","","","","","","","","","","","","","","",""
"","ITI","","html-keyboard-response","149","205751","0.0-1.0-216.0","0","0","67627","","70","","","75","23","","","","","","","","","","","","","","","k",""
"","S1","","html-keyboard-response","150","206007","0.0-1.0-218.0","0","0","67627","","null","","","null","24","","","","","","","","","","","","","","","",""
"","ISI","","html-keyboard-response","151","206510","0.0-1.0-219.0","0","0","67627","","334","","","68","24","d","","","","","","","","","","","","","","",""
"","S2","","html-keyboard-response","152","206770","0.0-1.0-220.0","0","0","67627","","null","","","null","24","","NaN","","","","","","","","","","","","","",""
"","response","","html-keyboard-response","153","206789","0.0-1.0-221.0-0.0","0","0","67627","","15","","","75","24","","","1","24","training","adjacent","FE","6","5","P.jpg","M.jpg","1","0","0","",""
"","feedback","","html-keyboard-response","154","207807","0.0-1.0-222.0-0.0","0","0","67627","","null","","","null","24","","","","","","","","","","","","","","","",""
"","time_out","","html-keyboard-response","155","209817","0.0-1.0-224.0-0.0","0","0","67627","","null","","","null","24","","","","","","","","","","","","","","","",""
"","ITI","","html-keyboard-response","156","210821","0.0-1.0-225.0","0","0","67627","","142","","","75","24","","","","","","","","","","","","","","","k",""
"","S1","","html-keyboard-response","157","211075","0.0-1.0-227.0","0","0","67627","","null","","","null","25","","","","","","","","","","","","","","","",""
"","ISI","","html-keyboard-response","158","211584","0.0-1.0-228.0","0","0","67627","","185","","","68","25","d","","","","","","","","","","","","","","",""
"","S2","","html-keyboard-response","159","211639","0.0-1.0-229.0","0","0","67627","","50","","","75","25","","k","1","25","training","adjacent","ED","5","4","M.jpg","O.jpg","1","0","0","",""
"","feedback","","html-keyboard-response","160","212658","0.0-1.0-231.0-0.0","0","0","67627","","null","","","null","25","","","","","","","","","","","","","","","",""
"","time_out","","html-keyboard-response","161","214671","0.0-1.0-233.0-0.0","0","0","67627","","null","","","null","25","","","","","","","","","","","","","","","",""
"","ITI","","html-keyboard-response","162","215681","0.0-1.0-234.0","0","0","67627","","634","","","75","25","","","","","","","","","","","","","","","k",""
"","S1","","html-keyboard-response","163","215937","0.0-1.0-236.0","0","0","67627","","null","","","null","26","","","","","","","","","","","","","","","",""
"","ISI","","html-keyboard-response","164","216480","0.0-1.0-237.0","0","0","67627","","212","","","75","26","k","","","","","","","","","","","","","","",""
"","S2","","html-keyboard-response","165","216699","0.0-1.0-238.0","0","0","67627","","210","","","75","26","","k","1","26","training","adjacent","ED","5","4","M.jpg","O.jpg","1","0","0","",""
"","feedback","","html-keyboard-response","166","217702","0.0-1.0-240.0-0.0","0","0","67627","","null","","","null","26","","","","","","","","","","","","","","","",""
"","time_out","","html-keyboard-response","167","219714","0.0-1.0-242.0-0.0","0","0","67627","","null","","","null","26","","","","","","","","","","","","","","","",""
"","ITI","","html-keyboard-response","168","220719","0.0-1.0-243.0","0","0","67627","","117","","","68","26","","","","","","","","","","","","","","","d",""
"","S1","","html-keyboard-response","169","220973","0.0-1.0-245.0","0","0","67627","","null","","","null","27","","","","","","","","","","","","","","","",""
"","ISI","","html-keyboard-response","170","221489","0.0-1.0-246.0","0","0","67627","","198","","","68","27","d","","","","","","","","","","","","","","",""
"","S2","","html-keyboard-response","171","221685","0.0-1.0-247.0","0","0","67627","","189","","","75","27","","k","1","27","training","adjacent","CD","3","4","N.jpg","O.jpg","1","1","1","",""
"","feedback","","html-keyboard-response","172","222691","0.0-1.0-249.0-0.0","0","0","67627","","null","","","null","27","","","","","","","","","","","","","","","",""
"","ITI","","html-keyboard-response","173","223698","0.0-1.0-252.0","0","0","67627","","256","","","68","27","","","","","","","","","","","","","","","d",""
"","S1","","html-keyboard-response","174","223959","0.0-1.0-254.0","0","0","67627","","null","","","null","28","","","","","","","","","","","","","","","",""
"","ISI","","html-keyboard-response","175","224500","0.0-1.0-255.0","0","0","67627","","12","","","75","28","k","","","","","","","","","","","","","","",""
"","S2","","html-keyboard-response","176","224544","0.0-1.0-256.0","0","0","67627","","41","","","75","28","","k","1","28","training","adjacent","DC","4","3","O.jpg","N.jpg","1","0","0","",""
"","feedback","","html-keyboard-response","177","225550","0.0-1.0-258.0-0.0","0","0","67627","","null","","","null","28","","","","","","","","","","","","","","","",""
"","time_out","","html-keyboard-response","178","227558","0.0-1.0-260.0-0.0","0","0","67627","","null","","","null","28","","","","","","","","","","","","","","","",""
"","ITI","","html-keyboard-response","179","228569","0.0-1.0-261.0","0","0","67627","","218","","","75","28","","","","","","","","","","","","","","","k",""
"","S1","","html-keyboard-response","180","228823","0.0-1.0-263.0","0","0","67627","","null","","","null","29","","","","","","","","","","","","","","","",""
"","ISI","","html-keyboard-response","181","229328","0.0-1.0-264.0","0","0","67627","","122","","","75","29","k","","","","","","","","","","","","","","",""
"","S2","","html-keyboard-response","182","229590","0.0-1.0-265.0","0","0","67627","","null","","","null","29","","NaN","","","","","","","","","","","","","",""
"","response","","html-keyboard-response","183","229608","0.0-1.0-266.0-0.0","0","0","67627","","14","","","75","29","","","1","29","training","adjacent","EF","5","6","M.jpg","P.jpg","1","1","1","",""
"","feedback","","html-keyboard-response","184","230614","0.0-1.0-267.0-0.0","0","0","67627","","null","","","null","29","","","","","","","","","","","","","","","",""
"","ITI","","html-keyboard-response","185","231620","0.0-1.0-270.0","0","0","67627","","78","","","75","29","","","","","","","","","","","","","","","k",""
"","S1","","html-keyboard-response","186","231874","0.0-1.0-272.0","0","0","67627","","null","","","null","30","","","","","","","","","","","","","","","",""
"","ISI","","html-keyboard-response","187","232386","0.0-1.0-273.0","0","0","67627","","195","","","68","30","d","","","","","","","","","","","","","","",""
"","S2","","html-keyboard-response","188","232594","0.0-1.0-274.0","0","0","67627","","202","","","68","30","","d","1","30","training","adjacent","CD","3","4","N.jpg","O.jpg","0","1","0","",""
"","feedback","","html-keyboard-response","189","233600","0.0-1.0-276.0-0.0","0","0","67627","","null","","","null","30","","","","","","","","","","","","","","","",""
"","time_out","","html-keyboard-response","190","235621","0.0-1.0-278.0-0.0","0","0","67627","","null","","","null","30","","","","","","","","","","","","","","","",""
"","ITI","","html-keyboard-response","191","236630","0.0-1.0-279.0","0","0","67627","","303","","","75","30","","","","","","","","","","","","","","","k",""
"","S1","","html-keyboard-response","192","236889","0.0-1.0-281.0","0","0","67627","","null","","","null","31","","","","","","","","","","","","","","","",""
"","ISI","","html-keyboard-response","193","237455","0.0-1.0-282.0","0","0","67627","","201","","","75","31","k","","","","","","","","","","","","","","",""
"","S2","","html-keyboard-response","194","237660","0.0-1.0-283.0","0","0","67627","","198","","","75","31","","k","1","31","training","adjacent","FG","6","7","P.jpg","L.jpg","1","1","1","",""
"","feedback","","html-keyboard-response","195","238667","0.0-1.0-285.0-0.0","0","0","67627","","null","","","null","31","","","","","","","","","","","","","","","",""
"","ITI","","html-keyboard-response","196","239671","0.0-1.0-288.0","0","0","67627","","185","","","75","31","","","","","","","","","","","","","","","k",""
"","S1","","html-keyboard-response","197","239933","0.0-1.0-290.0","0","0","67627","","null","","","null","32","","","","","","","","","","","","","","","",""
"","ISI","","html-keyboard-response","198","240438","0.0-1.0-291.0","0","0","67627","","302","","","75","32","k","","","","","","","","","","","","","","",""
"","S2","","html-keyboard-response","199","240539","0.0-1.0-292.0","0","0","67627","","97","","","68","32","","d","1","32","training","adjacent","FG","6","7","P.jpg","L.jpg","0","1","0","",""
"","feedback","","html-keyboard-response","200","241543","0.0-1.0-294.0-0.0","0","0","67627","","null","","","null","32","","","","","","","","","","","","","","","",""
"","time_out","","html-keyboard-response","201","243612","0.0-1.0-296.0-0.0","0","0","67627","","null","","","null","32","","","","","","","","","","","","","","","",""
"","ITI","","html-keyboard-response","202","244619","0.0-1.0-297.0","0","0","67627","","11","","","75","32","","","","","","","","","","","","","","","k",""
"","S1","","html-keyboard-response","203","244877","0.0-1.0-299.0","0","0","67627","","null","","","null","33","","","","","","","","","","","","","","","",""
"","ISI","","html-keyboard-response","204","245396","0.0-1.0-300.0","0","0","67627","","150","","","68","33","d","","","","","","","","","","","","","","",""
"","S2","","html-keyboard-response","205","245474","0.0-1.0-301.0","0","0","67627","","74","","","68","33","","d","1","33","training","adjacent","CB","3","2","N.jpg","R.jpg","0","0","1","",""
"","feedback","","html-keyboard-response","206","246485","0.0-1.0-303.0-0.0","0","0","67627","","null","","","null","33","","","","","","","","","","","","","","","",""
"","ITI","","html-keyboard-response","207","247501","0.0-1.0-306.0","0","0","67627","","125","","","75","33","","","","","","","","","","","","","","","k",""
"","S1","","html-keyboard-response","208","247764","0.0-1.0-308.0","0","0","67627","","null","","","null","34","","","","","","","","","","","","","","","",""
"","ISI","","html-keyboard-response","209","248272","0.0-1.0-309.0","0","0","67627","","203","","","68","34","d","","","","","","","","","","","","","","",""
"","S2","","html-keyboard-response","210","248473","0.0-1.0-310.0","0","0","67627","","197","","","68","34","","d","1","34","training","adjacent","FG","6","7","P.jpg","L.jpg","0","1","0","",""
"","feedback","","html-keyboard-response","211","249537","0.0-1.0-312.0-0.0","0","0","67627","","null","","","null","34","","","","","","","","","","","","","","","",""
"","time_out","","html-keyboard-response","212","251545","0.0-1.0-314.0-0.0","0","0","67627","","null","","","null","34","","","","","","","","","","","","","","","",""
"","ITI","","html-keyboard-response","213","252559","0.0-1.0-315.0","0","0","67627","","430","","","75","34","","","","","","","","","","","","","","","k",""
"","S1","","html-keyboard-response","214","252813","0.0-1.0-317.0","0","0","67627","","null","","","null","35","","","","","","","","","","","","","","","",""
"","ISI","","html-keyboard-response","215","253318","0.0-1.0-318.0","0","0","67627","","29","","","68","35","d","","","","","","","","","","","","","","",""
"","S2","","html-keyboard-response","216","253444","0.0-1.0-319.0","0","0","67627","","122","","","68","35","","d","1","35","training","adjacent","GF","7","6","L.jpg","P.jpg","0","0","1","",""
"","feedback","","html-keyboard-response","217","254449","0.0-1.0-321.0-0.0","0","0","67627","","null","","","null","35","","","","","","","","","","","","","","","",""
"","ITI","","html-keyboard-response","218","255459","0.0-1.0-324.0","0","0","67627","","103","","","68","35","","","","","","","","","","","","","","","d",""
"","S1","","html-keyboard-response","219","255731","0.0-1.0-326.0","0","0","67627","","null","","","null","36","","","","","","","","","","","","","","","",""
"","ISI","","html-keyboard-response","220","256235","0.0-1.0-327.0","0","0","67627","","111","","","75","36","k","","","","","","","","","","","","","","",""
"","S2","","html-keyboard-response","221","256378","0.0-1.0-328.0","0","0","67627","","135","","","75","36","","k","1","36","training","adjacent","FE","6","5","P.jpg","M.jpg","1","0","0","",""
"","feedback","","html-keyboard-response","222","257384","0.0-1.0-330.0-0.0","0","0","67627","","null","","","null","36","","","","","","","","","","","","","","","",""
"","time_out","","html-keyboard-response","223","259388","0.0-1.0-332.0-0.0","0","0","67627","","null","","","null","36","","","","","","","","","","","","","","","",""
"","ITI","","html-keyboard-response","224","260425","0.0-1.0-333.0","0","0","67627","","189","","","68","36","","","","","","","","","","","","","","","d",""
"","S1","","html-keyboard-response","225","260684","0.0-1.0-335.0","0","0","67627","","null","","","null","37","","","","","","","","","","","","","","","",""
"","ISI","","html-keyboard-response","226","261187","0.0-1.0-336.0","0","0","67627","","76","","","68","37","d","","","","","","","","","","","","","","",""
"","S2","","html-keyboard-response","227","261385","0.0-1.0-337.0","0","0","67627","","194","","","68","37","","d","1","37","training","adjacent","GF","7","6","L.jpg","P.jpg","0","0","1","",""
"","feedback","","html-keyboard-response","228","262410","0.0-1.0-339.0-0.0","0","0","67627","","null","","","null","37","","","","","","","","","","","","","","","",""
"","ITI","","html-keyboard-response","229","263435","0.0-1.0-342.0","0","0","67627","","107","","","68","37","","","","","","","","","","","","","","","d",""
"","S1","","html-keyboard-response","230","263698","0.0-1.0-344.0","0","0","67627","","null","","","null","38","","","","","","","","","","","","","","","",""
"","ISI","","html-keyboard-response","231","264202","0.0-1.0-345.0","0","0","67627","","92","","","68","38","d","","","","","","","","","","","","","","",""
"","S2","","html-keyboard-response","232","264403","0.0-1.0-346.0","0","0","67627","","194","","","68","38","","d","1","38","training","adjacent","AB","1","2","Q.jpg","R.jpg","0","1","0","",""
"","feedback","","html-keyboard-response","233","265418","0.0-1.0-348.0-0.0","0","0","67627","","null","","","null","38","","","","","","","","","","","","","","","",""
"","time_out","","html-keyboard-response","234","267428","0.0-1.0-350.0-0.0","0","0","67627","","null","","","null","38","","","","","","","","","","","","","","","",""
"","ITI","","html-keyboard-response","235","268453","0.0-1.0-351.0","0","0","67627","","218","","","68","38","","","","","","","","","","","","","","","d",""
"","S1","","html-keyboard-response","236","268716","0.0-1.0-353.0","0","0","67627","","null","","","null","39","","","","","","","","","","","","","","","",""
"","ISI","","html-keyboard-response","237","269228","0.0-1.0-354.0","0","0","67627","","120","","","68","39","d","","","","","","","","","","","","","","",""
"","S2","","html-keyboard-response","238","269297","0.0-1.0-355.0","0","0","67627","","62","","","68","39","","d","1","39","training","adjacent","CB","3","2","N.jpg","R.jpg","0","0","1","",""
"","feedback","","html-keyboard-response","239","270313","0.0-1.0-357.0-0.0","0","0","67627","","null","","","null","39","","","","","","","","","","","","","","","",""
"","ITI","","html-keyboard-response","240","271319","0.0-1.0-360.0","0","0","67627","","106","","","75","39","","","","","","","","","","","","","","","k",""
"","S1","","html-keyboard-response","241","271573","0.0-1.0-362.0","0","0","67627","","null","","","null","40","","","","","","","","","","","","","","","",""
"","ISI","","html-keyboard-response","242","272086","0.0-1.0-363.0","0","0","67627","","240","","","68","40","d","","","","","","","","","","","","","","",""
"","S2","","html-keyboard-response","243","272175","0.0-1.0-364.0","0","0","67627","","85","","","68","40","","d","1","40","training","adjacent","AB","1","2","Q.jpg","R.jpg","0","1","0","",""
"","feedback","","html-keyboard-response","244","273181","0.0-1.0-366.0-0.0","0","0","67627","","null","","","null","40","","","","","","","","","","","","","","","",""
"","time_out","","html-keyboard-response","245","275201","0.0-1.0-368.0-0.0","0","0","67627","","null","","","null","40","","","","","","","","","","","","","","","",""
"","ITI","","html-keyboard-response","246","276213","0.0-1.0-369.0","0","0","67627","","424","","","68","40","","","","","","","","","","","","","","","d",""
"","S1","","html-keyboard-response","247","276477","0.0-1.0-371.0","0","0","67627","","null","","","null","41","","","","","","","","","","","","","","","",""
"","ISI","","html-keyboard-response","248","276985","0.0-1.0-372.0","0","0","67627","","27","","","68","41","d","","","","","","","","","","","","","","",""
"","S2","","html-keyboard-response","249","277059","0.0-1.0-373.0","0","0","67627","","68","","","75","41","","k","1","41","training","adjacent","EF","5","6","M.jpg","P.jpg","1","1","1","",""
"","feedback","","html-keyboard-response","250","278065","0.0-1.0-375.0-0.0","0","0","67627","","null","","","null","41","","","","","","","","","","","","","","","",""
"","ITI","","html-keyboard-response","251","279075","0.0-1.0-378.0","0","0","67627","","77","","","68","41","","","","","","","","","","","","","","","d",""
"","S1","","html-keyboard-response","252","279329","0.0-1.0-380.0","0","0","67627","","null","","","null","42","","","","","","","","","","","","","","","",""
"","ISI","","html-keyboard-response","253","279838","0.0-1.0-381.0","0","0","67627","","255","","","68","42","d","","","","","","","","","","","","","","",""
"","S2","","html-keyboard-response","254","279993","0.0-1.0-382.0","0","0","67627","","150","","","68","42","","d","1","42","training","adjacent","FE","6","5","P.jpg","M.jpg","0","0","1","",""
"","feedback","","html-keyboard-response","255","280996","0.0-1.0-384.0-0.0","0","0","67627","","null","","","null","42","","","","","","","","","","","","","","","",""
"","ITI","","html-keyboard-response","256","282002","0.0-1.0-387.0","0","0","67627","","163","","","68","42","","","","","","","","","","","","","","","d",""
"","S1","","html-keyboard-response","257","282258","0.0-1.0-389.0","0","0","67627","","null","","","null","43","","","","","","","","","","","","","","","",""
"","ISI","","html-keyboard-response","258","282764","0.0-1.0-390.0","0","0","67627","","207","","","75","43","k","","","","","","","","","","","","","","",""
"","S2","","html-keyboard-response","259","282803","0.0-1.0-391.0","0","0","67627","","36","","","75","43","","k","1","43","training","adjacent","EF","5","6","M.jpg","P.jpg","1","1","1","",""
"","feedback","","html-keyboard-response","260","283812","0.0-1.0-393.0-0.0","0","0","67627","","null","","","null","43","","","","","","","","","","","","","","","",""
"","ITI","","html-keyboard-response","261","284817","0.0-1.0-396.0","0","0","67627","","98","","","68","43","","","","","","","","","","","","","","","d",""
"","S1","","html-keyboard-response","262","285073","0.0-1.0-398.0","0","0","67627","","null","","","null","44","","","","","","","","","","","","","","","",""
"","ISI","","html-keyboard-response","263","285586","0.0-1.0-399.0","0","0","67627","","139","","","75","44","k","","","","","","","","","","","","","","",""
"","S2","","html-keyboard-response","264","285606","0.0-1.0-400.0","0","0","67627","","14","","","75","44","","k","1","44","training","adjacent","ED","5","4","M.jpg","O.jpg","1","0","0","",""
"","feedback","","html-keyboard-response","265","286612","0.0-1.0-402.0-0.0","0","0","67627","","null","","","null","44","","","","","","","","","","","","","","","",""
"","time_out","","html-keyboard-response","266","288619","0.0-1.0-404.0-0.0","0","0","67627","","null","","","null","44","","","","","","","","","","","","","","","",""
"","ITI","","html-keyboard-response","267","289626","0.0-1.0-405.0","0","0","67627","","210","","","68","44","","","","","","","","","","","","","","","d",""
"","S1","","html-keyboard-response","268","289892","0.0-1.0-407.0","0","0","67627","","null","","","null","45","","","","","","","","","","","","","","","",""
"","ISI","","html-keyboard-response","269","290396","0.0-1.0-408.0","0","0","67627","","305","","","68","45","d","","","","","","","","","","","","","","",""
"","S2","","html-keyboard-response","270","290624","0.0-1.0-409.0","0","0","67627","","225","","","68","45","","d","1","45","training","adjacent","FG","6","7","P.jpg","L.jpg","0","1","0","",""
"","feedback","","html-keyboard-response","271","291642","0.0-1.0-411.0-0.0","0","0","67627","","null","","","null","45","","","","","","","","","","","","","","","",""
"","time_out","","html-keyboard-response","272","293648","0.0-1.0-413.0-0.0","0","0","67627","","null","","","null","45","","","","","","","","","","","","","","","",""
"","ITI","","html-keyboard-response","273","294666","0.0-1.0-414.0","0","0","67627","","154","","","68","45","","","","","","","","","","","","","","","d",""
"","S1","","html-keyboard-response","274","294919","0.0-1.0-416.0","0","0","67627","","null","","","null","46","","","","","","","","","","","","","","","",""
"","ISI","","html-keyboard-response","275","295424","0.0-1.0-417.0","0","0","67627","","54","","","75","46","k","","","","","","","","","","","","","","",""
"","S2","","html-keyboard-response","276","295599","0.0-1.0-418.0","0","0","67627","","168","","","68","46","","d","1","46","training","adjacent","AB","1","2","Q.jpg","R.jpg","0","1","0","",""
"","feedback","","html-keyboard-response","277","296609","0.0-1.0-420.0-0.0","0","0","67627","","null","","","null","46","","","","","","","","","","","","","","","",""
"","time_out","","html-keyboard-response","278","298619","0.0-1.0-422.0-0.0","0","0","67627","","null","","","null","46","","","","","","","","","","","","","","","",""
"","ITI","","html-keyboard-response","279","299626","0.0-1.0-423.0","0","0","67627","","29","","","75","46","","","","","","","","","","","","","","","k",""
"","S1","","html-keyboard-response","280","299891","0.0-1.0-425.0","0","0","67627","","null","","","null","47","","","","","","","","","","","","","","","",""
"","ISI","","html-keyboard-response","281","300402","0.0-1.0-426.0","0","0","67627","","268","","","75","47","k","","","","","","","","","","","","","","",""
"","S2","","html-keyboard-response","282","300730","0.0-1.0-427.0","0","0","67627","","326","","","75","47","","k","1","47","training","adjacent","BA","2","1","R.jpg","Q.jpg","1","0","0","",""
"","feedback","","html-keyboard-response","283","301734","0.0-1.0-429.0-0.0","0","0","67627","","null","","","null","47","","","","","","","","","","","","","","","",""
"","time_out","","html-keyboard-response","284","303741","0.0-1.0-431.0-0.0","0","0","67627","","null","","","null","47","","","","","","","","","","","","","","","",""
"","ITI","","html-keyboard-response","285","304762","0.0-1.0-432.0","0","0","67627","","51","","","68","47","","","","","","","","","","","","","","","d",""
"","block_over","","html-keyboard-response","286","338732","0.0-1.0-433.0-0.0","0","0","67627","","33960","","","32","47","","","","","","","","","","","","","","","",""
"","S1","","html-keyboard-response","287","338995","0.0-1.0-434.0","0","0","67627","","null","","","null","48","","","","","","","","","","","","","","","",""
"","ISI","","html-keyboard-response","288","339500","0.0-1.0-435.0","0","0","67627","","null","","","null","48","NaN","","","","","","","","","","","","","","",""
"","S2","","html-keyboard-response","289","339760","0.0-1.0-436.0","0","0","67627","","null","","","null","48","","NaN","","","","","","","","","","","","","",""
"","response","","html-keyboard-response","290","340157","0.0-1.0-437.0-0.0","0","0","67627","","392","","","75","48","","","2","48","training","adjacent","DC","4","3","O.jpg","N.jpg","1","0","0","",""
"","feedback","","html-keyboard-response","291","341168","0.0-1.0-438.0-0.0","0","0","67627","","null","","","null","48","","","","","","","","","","","","","","","",""
"","time_out","","html-keyboard-response","292","343179","0.0-1.0-440.0-0.0","0","0","67627","","null","","","null","48","","","","","","","","","","","","","","","",""
"","ITI","","html-keyboard-response","293","344187","0.0-1.0-441.0","0","0","67627","","123","","","75","48","","","","","","","","","","","","","","","k",""
"","S1","","html-keyboard-response","294","344447","0.0-1.0-443.0","0","0","67627","","null","","","null","49","","","","","","","","","","","","","","","",""
"","ISI","","html-keyboard-response","295","344961","0.0-1.0-444.0","0","0","67627","","171","","","68","49","d","","","","","","","","","","","","","","",""
"","S2","","html-keyboard-response","296","345046","0.0-1.0-445.0","0","0","67627","","79","","","68","49","","d","2","49","training","adjacent","FE","6","5","P.jpg","M.jpg","0","0","1","",""
"","feedback","","html-keyboard-response","297","346063","0.0-1.0-447.0-0.0","0","0","67627","","null","","","null","49","","","","","","","","","","","","","","","",""
"","ITI","","html-keyboard-response","298","347072","0.0-1.0-450.0","0","0","67627","","329","","","75","49","","","","","","","","","","","","","","","k",""
"","S1","","html-keyboard-response","299","347334","0.0-1.0-452.0","0","0","67627","","null","","","null","50","","","","","","","","","","","","","","","",""
"","ISI","","html-keyboard-response","300","347838","0.0-1.0-453.0","0","0","67627","","77","","","75","50","k","","","","","","","","","","","","","","",""
"","S2","","html-keyboard-response","301","347871","0.0-1.0-454.0","0","0","67627","","29","","","75","50","","k","2","50","training","adjacent","BA","2","1","R.jpg","Q.jpg","1","0","0","",""
"","feedback","","html-keyboard-response","302","348881","0.0-1.0-456.0-0.0","0","0","67627","","null","","","null","50","","","","","","","","","","","","","","","",""
"","time_out","","html-keyboard-response","303","350901","0.0-1.0-458.0-0.0","0","0","67627","","null","","","null","50","","","","","","","","","","","","","","","",""
"","ITI","","html-keyboard-response","304","351907","0.0-1.0-459.0","0","0","67627","","562","","","75","50","","","","","","","","","","","","","","","k",""
"","S1","","html-keyboard-response","305","352174","0.0-1.0-461.0","0","0","67627","","null","","","null","51","","","","","","","","","","","","","","","",""
"","ISI","","html-keyboard-response","306","352678","0.0-1.0-462.0","0","0","67627","","110","","","68","51","d","","","","","","","","","","","","","","",""
"","S2","","html-keyboard-response","307","352725","0.0-1.0-463.0","0","0","67627","","44","","","68","51","","d","2","51","training","adjacent","AB","1","2","Q.jpg","R.jpg","0","1","0","",""
"","feedback","","html-keyboard-response","308","353741","0.0-1.0-465.0-0.0","0","0","67627","","null","","","null","51","","","","","","","","","","","","","","","",""
"","time_out","","html-keyboard-response","309","355748","0.0-1.0-467.0-0.0","0","0","67627","","null","","","null","51","","","","","","","","","","","","","","","",""
"","ITI","","html-keyboard-response","310","356758","0.0-1.0-468.0","0","0","67627","","89","","","75","51","","","","","","","","","","","","","","","k",""
"","S1","","html-keyboard-response","311","357015","0.0-1.0-470.0","0","0","67627","","null","","","null","52","","","","","","","","","","","","","","","",""
"","ISI","","html-keyboard-response","312","357521","0.0-1.0-471.0","0","0","67627","","82","","","68","52","d","","","","","","","","","","","","","","",""
"","S2","","html-keyboard-response","313","357542","0.0-1.0-472.0","0","0","67627","","17","","","68","52","","d","2","52","training","adjacent","DE","4","5","O.jpg","M.jpg","0","1","0","",""
"","feedback","","html-keyboard-response","314","358547","0.0-1.0-474.0-0.0","0","0","67627","","null","","","null","52","","","","","","","","","","","","","","","",""
"","time_out","","html-keyboard-response","315","360553","0.0-1.0-476.0-0.0","0","0","67627","","null","","","null","52","","","","","","","","","","","","","","","",""
"","ITI","","html-keyboard-response","316","361559","0.0-1.0-477.0","0","0","67627","","94","","","68","52","","","","","","","","","","","","","","","d",""
"","S1","","html-keyboard-response","317","361820","0.0-1.0-479.0","0","0","67627","","null","","","null","53","","","","","","","","","","","","","","","",""
"","ISI","","html-keyboard-response","318","362326","0.0-1.0-480.0","0","0","67627","","268","","","75","53","k","","","","","","","","","","","","","","",""
"","S2","","html-keyboard-response","319","362521","0.0-1.0-481.0","0","0","67627","","187","","","75","53","","k","2","53","training","adjacent","CB","3","2","N.jpg","R.jpg","1","0","0","",""
"","feedback","","html-keyboard-response","320","363532","0.0-1.0-483.0-0.0","0","0","67627","","null","","","null","53","","","","","","","","","","","","","","","",""
"","time_out","","html-keyboard-response","321","365540","0.0-1.0-485.0-0.0","0","0","67627","","null","","","null","53","","","","","","","","","","","","","","","",""
"","ITI","","html-keyboard-response","322","366582","0.0-1.0-486.0","0","0","67627","","170","","","75","53","","","","","","","","","","","","","","","k",""
"","S1","","html-keyboard-response","323","366840","0.0-1.0-488.0","0","0","67627","","null","","","null","54","","","","","","","","","","","","","","","",""
"","ISI","","html-keyboard-response","324","367348","0.0-1.0-489.0","0","0","67627","","162","","","75","54","k","","","","","","","","","","","","","","",""
"","S2","","html-keyboard-response","325","367497","0.0-1.0-490.0","0","0","67627","","143","","","75","54","","k","2","54","training","adjacent","ED","5","4","M.jpg","O.jpg","1","0","0","",""
"","feedback","","html-keyboard-response","326","368512","0.0-1.0-492.0-0.0","0","0","67627","","null","","","null","54","","","","","","","","","","","","","","","",""
"","time_out","","html-keyboard-response","327","370521","0.0-1.0-494.0-0.0","0","0","67627","","null","","","null","54","","","","","","","","","","","","","","","",""
"","ITI","","html-keyboard-response","328","371527","0.0-1.0-495.0","0","0","67627","","415","","","68","54","","","","","","","","","","","","","","","d",""
"","S1","","html-keyboard-response","329","371782","0.0-1.0-497.0","0","0","67627","","null","","","null","55","","","","","","","","","","","","","","","",""
"","ISI","","html-keyboard-response","330","372297","0.0-1.0-498.0","0","0","67627","","167","","","68","55","d","","","","","","","","","","","","","","",""
"","S2","","html-keyboard-response","331","372550","0.0-1.0-499.0","0","0","67627","","null","","","null","55","","NaN","","","","","","","","","","","","","",""
"","response","","html-keyboard-response","332","372567","0.0-1.0-500.0-0.0","0","0","67627","","14","","","68","55","","","2","55","training","adjacent","DE","4","5","O.jpg","M.jpg","0","1","0","",""
"","feedback","","html-keyboard-response","333","373580","0.0-1.0-501.0-0.0","0","0","67627","","null","","","null","55","","","","","","","","","","","","","","","",""
"","time_out","","html-keyboard-response","334","375594","0.0-1.0-503.0-0.0","0","0","67627","","null","","","null","55","","","","","","","","","","","","","","","",""
"","ITI","","html-keyboard-response","335","376615","0.0-1.0-504.0","0","0","67627","","17","","","75","55","","","","","","","","","","","","","","","k",""
"","S1","","html-keyboard-response","336","376882","0.0-1.0-506.0","0","0","67627","","null","","","null","56","","","","","","","","","","","","","","","",""
"","ISI","","html-keyboard-response","337","377392","0.0-1.0-507.0","0","0","67627","","53","","","68","56","d","","","","","","","","","","","","","","",""
"","S2","","html-keyboard-response","338","377477","0.0-1.0-508.0","0","0","67627","","80","","","68","56","","d","2","56","training","adjacent","CD","3","4","N.jpg","O.jpg","0","1","0","",""
"","feedback","","html-keyboard-response","339","378494","0.0-1.0-510.0-0.0","0","0","67627","","null","","","null","56","","","","","","","","","","","","","","","",""
"","time_out","","html-keyboard-response","340","380498","0.0-1.0-512.0-0.0","0","0","67627","","null","","","null","56","","","","","","","","","","","","","","","",""
"","ITI","","html-keyboard-response","341","381512","0.0-1.0-513.0","0","0","67627","","115","","","68","56","","","","","","","","","","","","","","","d",""
"","S1","","html-keyboard-response","342","381774","0.0-1.0-515.0","0","0","67627","","null","","","null","57","","","","","","","","","","","","","","","",""
"","ISI","","html-keyboard-response","343","382278","0.0-1.0-516.0","0","0","67627","","45","","","75","57","k","","","","","","","","","","","","","","",""
"","S2","","html-keyboard-response","344","382332","0.0-1.0-517.0","0","0","67627","","51","","","75","57","","k","2","57","training","adjacent","ED","5","4","M.jpg","O.jpg","1","0","0","",""
"","feedback","","html-keyboard-response","345","383346","0.0-1.0-519.0-0.0","0","0","67627","","null","","","null","57","","","","","","","","","","","","","","","",""
"","time_out","","html-keyboard-response","346","385369","0.0-1.0-521.0-0.0","0","0","67627","","null","","","null","57","","","","","","","","","","","","","","","",""
"","ITI","","html-keyboard-response","347","386385","0.0-1.0-522.0","0","0","67627","","62","","","68","57","","","","","","","","","","","","","","","d",""
"","S1","","html-keyboard-response","348","386639","0.0-1.0-524.0","0","0","67627","","null","","","null","58","","","","","","","","","","","","","","","",""
"","ISI","","html-keyboard-response","349","387144","0.0-1.0-525.0","0","0","67627","","241","","","68","58","d","","","","","","","","","","","","","","",""
"","S2","","html-keyboard-response","350","387347","0.0-1.0-526.0","0","0","67627","","199","","","68","58","","d","2","58","training","adjacent","CD","3","4","N.jpg","O.jpg","0","1","0","",""
"","feedback","","html-keyboard-response","351","388358","0.0-1.0-528.0-0.0","0","0","67627","","null","","","null","58","","","","","","","","","","","","","","","",""
"","time_out","","html-keyboard-response","352","390371","0.0-1.0-530.0-0.0","0","0","67627","","null","","","null","58","","","","","","","","","","","","","","","",""
"","ITI","","html-keyboard-response","353","391383","0.0-1.0-531.0","0","0","67627","","27","","","75","58","","","","","","","","","","","","","","","k",""
"","S1","","html-keyboard-response","354","391641","0.0-1.0-533.0","0","0","67627","","null","","","null","59","","","","","","","","","","","","","","","",""
"","ISI","","html-keyboard-response","355","392145","0.0-1.0-534.0","0","0","67627","","119","","","75","59","k","","","","","","","","","","","","","","",""
"","S2","","html-keyboard-response","356","392229","0.0-1.0-535.0","0","0","67627","","80","","","75","59","","k","2","59","training","adjacent","ED","5","4","M.jpg","O.jpg","1","0","0","",""
"","feedback","","html-keyboard-response","357","393234","0.0-1.0-537.0-0.0","0","0","67627","","null","","","null","59","","","","","","","","","","","","","","","",""
"","time_out","","html-keyboard-response","358","395262","0.0-1.0-539.0-0.0","0","0","67627","","null","","","null","59","","","","","","","","","","","","","","","",""
"","ITI","","html-keyboard-response","359","396275","0.0-1.0-540.0","0","0","67627","","155","","","68","59","","","","","","","","","","","","","","","d",""
"","S1","","html-keyboard-response","360","396601","0.0-1.0-542.0","0","0","67627","","null","","","null","60","","","","","","","","","","","","","","","",""
"","ISI","","html-keyboard-response","361","397104","0.0-1.0-543.0","0","0","67627","","276","","","68","60","d","","","","","","","","","","","","","","",""
"","S2","","html-keyboard-response","362","397233","0.0-1.0-544.0","0","0","67627","","126","","","68","60","","d","2","60","training","adjacent","BC","2","3","R.jpg","N.jpg","0","1","0","",""
"","feedback","","html-keyboard-response","363","398241","0.0-1.0-546.0-0.0","0","0","67627","","null","","","null","60","","","","","","","","","","","","","","","",""
"","time_out","","html-keyboard-response","364","400252","0.0-1.0-548.0-0.0","0","0","67627","","null","","","null","60","","","","","","","","","","","","","","","",""
"","ITI","","html-keyboard-response","365","401281","0.0-1.0-549.0","0","0","67627","","29","","","75","60","","","","","","","","","","","","","","","k",""
"","S1","","html-keyboard-response","366","401539","0.0-1.0-551.0","0","0","67627","","null","","","null","61","","","","","","","","","","","","","","","",""
"","ISI","","html-keyboard-response","367","402059","0.0-1.0-552.0","0","0","67627","","13","","","68","61","d","","","","","","","","","","","","","","",""
"","S2","","html-keyboard-response","368","402146","0.0-1.0-553.0","0","0","67627","","84","","","68","61","","d","2","61","training","adjacent","EF","5","6","M.jpg","P.jpg","0","1","0","",""
"","feedback","","html-keyboard-response","369","403157","0.0-1.0-555.0-0.0","0","0","67627","","null","","","null","61","","","","","","","","","","","","","","","",""
"","time_out","","html-keyboard-response","370","405163","0.0-1.0-557.0-0.0","0","0","67627","","null","","","null","61","","","","","","","","","","","","","","","",""
"","ITI","","html-keyboard-response","371","406171","0.0-1.0-558.0","0","0","67627","","739","","","68","61","","","","","","","","","","","","","","","d",""
"","S1","","html-keyboard-response","372","406534","0.0-1.0-560.0","0","0","67627","","null","","","null","62","","","","","","","","","","","","","","","",""
"","ISI","","html-keyboard-response","373","407043","0.0-1.0-561.0","0","0","67627","","17","","","68","62","d","","","","","","","","","","","","","","",""
"","S2","","html-keyboard-response","374","407180","0.0-1.0-562.0","0","0","67627","","131","","","75","62","","k","2","62","training","adjacent","CD","3","4","N.jpg","O.jpg","1","1","1","",""
"","feedback","","html-keyboard-response","375","408185","0.0-1.0-564.0-0.0","0","0","67627","","null","","","null","62","","","","","","","","","","","","","","","",""
"","ITI","","html-keyboard-response","376","409190","0.0-1.0-567.0","0","0","67627","","567","","","68","62","","","","","","","","","","","","","","","d",""
"","S1","","html-keyboard-response","377","409447","0.0-1.0-569.0","0","0","67627","","null","","","null","63","","","","","","","","","","","","","","","",""
"","ISI","","html-keyboard-response","378","409950","0.0-1.0-570.0","0","0","67627","","104","","","68","63","d","","","","","","","","","","","","","","",""
"","S2","","html-keyboard-response","379","409964","0.0-1.0-571.0","0","0","67627","","10","","","68","63","","d","2","63","training","adjacent","AB","1","2","Q.jpg","R.jpg","0","1","0","",""
"","feedback","","html-keyboard-response","380","410974","0.0-1.0-573.0-0.0","0","0","67627","","null","","","null","63","","","","","","","","","","","","","","","",""
"","time_out","","html-keyboard-response","381","412981","0.0-1.0-575.0-0.0","0","0","67627","","null","","","null","63","","","","","","","","","","","","","","","",""
"","ITI","","html-keyboard-response","382","413989","0.0-1.0-576.0","0","0","67627","","344","","","75","63","","","","","","","","","","","","","","","k",""
"","S1","","html-keyboard-response","383","414245","0.0-1.0-578.0","0","0","67627","","null","","","null","64","","","","","","","","","","","","","","","",""
"","ISI","","html-keyboard-response","384","414747","0.0-1.0-579.0","0","0","67627","","312","","","75","64","k","","","","","","","","","","","","","","",""
"","S2","","html-keyboard-response","385","414823","0.0-1.0-580.0","0","0","67627","","71","","","68","64","","d","2","64","training","adjacent","AB","1","2","Q.jpg","R.jpg","0","1","0","",""
"","feedback","","html-keyboard-response","386","415868","0.0-1.0-582.0-0.0","0","0","67627","","null","","","null","64","","","","","","","","","","","","","","","",""
"","time_out","","html-keyboard-response","387","417878","0.0-1.0-584.0-0.0","0","0","67627","","null","","","null","64","","","","","","","","","","","","","","","",""
"","ITI","","html-keyboard-response","388","418885","0.0-1.0-585.0","0","0","67627","","87","","","68","64","","","","","","","","","","","","","","","d",""
"","S1","","html-keyboard-response","389","419171","0.0-1.0-587.0","0","0","67627","","null","","","null","65","","","","","","","","","","","","","","","",""
"","ISI","","html-keyboard-response","390","419676","0.0-1.0-588.0","0","0","67627","","314","","","75","65","k","","","","","","","","","","","","","","",""
"","S2","","html-keyboard-response","391","419846","0.0-1.0-589.0","0","0","67627","","164","","","75","65","","k","2","65","training","adjacent","FG","6","7","P.jpg","L.jpg","1","1","1","",""
"","feedback","","html-keyboard-response","392","420858","0.0-1.0-591.0-0.0","0","0","67627","","null","","","null","65","","","","","","","","","","","","","","","",""
"","ITI","","html-keyboard-response","393","421872","0.0-1.0-594.0","0","0","67627","","209","","","68","65","","","","","","","","","","","","","","","d",""
"","S1","","html-keyboard-response","394","422130","0.0-1.0-596.0","0","0","67627","","null","","","null","66","","","","","","","","","","","","","","","",""
"","ISI","","html-keyboard-response","395","422636","0.0-1.0-597.0","0","0","67627","","129","","","75","66","k","","","","","","","","","","","","","","",""
"","S2","","html-keyboard-response","396","422666","0.0-1.0-598.0","0","0","67627","","25","","","75","66","","k","2","66","training","adjacent","CD","3","4","N.jpg","O.jpg","1","1","1","",""
"","feedback","","html-keyboard-response","397","423676","0.0-1.0-600.0-0.0","0","0","67627","","null","","","null","66","","","","","","","","","","","","","","","",""
"","ITI","","html-keyboard-response","398","424707","0.0-1.0-603.0","0","0","67627","","24","","","68","66","","","","","","","","","","","","","","","d",""
"","S1","","html-keyboard-response","399","424966","0.0-1.0-605.0","0","0","67627","","null","","","null","67","","","","","","","","","","","","","","","",""
"","ISI","","html-keyboard-response","400","425478","0.0-1.0-606.0","0","0","67627","","193","","","75","67","k","","","","","","","","","","","","","","",""
"","S2","","html-keyboard-response","401","425572","0.0-1.0-607.0","0","0","67627","","88","","","75","67","","k","2","67","training","adjacent","ED","5","4","M.jpg","O.jpg","1","0","0","",""
"","feedback","","html-keyboard-response","402","426577","0.0-1.0-609.0-0.0","0","0","67627","","null","","","null","67","","","","","","","","","","","","","","","",""
"","time_out","","html-keyboard-response","403","428584","0.0-1.0-611.0-0.0","0","0","67627","","null","","","null","67","","","","","","","","","","","","","","","",""
"","ITI","","html-keyboard-response","404","429600","0.0-1.0-612.0","0","0","67627","","134","","","68","67","","","","","","","","","","","","","","","d",""
"","S1","","html-keyboard-response","405","429855","0.0-1.0-614.0","0","0","67627","","null","","","null","68","","","","","","","","","","","","","","","",""
"","ISI","","html-keyboard-response","406","430366","0.0-1.0-615.0","0","0","67627","","0","","","68","68","d","","","","","","","","","","","","","","",""
"","S2","","html-keyboard-response","407","430480","0.0-1.0-616.0","0","0","67627","","109","","","75","68","","k","2","68","training","adjacent","FG","6","7","P.jpg","L.jpg","1","1","1","",""
"","feedback","","html-keyboard-response","408","431501","0.0-1.0-618.0-0.0","0","0","67627","","null","","","null","68","","","","","","","","","","","","","","","",""
"","ITI","","html-keyboard-response","409","432513","0.0-1.0-621.0","0","0","67627","","19","","","68","68","","","","","","","","","","","","","","","d",""
"","S1","","html-keyboard-response","410","432777","0.0-1.0-623.0","0","0","67627","","null","","","null","69","","","","","","","","","","","","","","","",""
"","ISI","","html-keyboard-response","411","433280","0.0-1.0-624.0","0","0","67627","","0","","","75","69","k","","","","","","","","","","","","","","",""
"","S2","","html-keyboard-response","412","433303","0.0-1.0-625.0","0","0","67627","","19","","","75","69","","k","2","69","training","adjacent","CB","3","2","N.jpg","R.jpg","1","0","0","",""
"","feedback","","html-keyboard-response","413","434309","0.0-1.0-627.0-0.0","0","0","67627","","null","","","null","69","","","","","","","","","","","","","","","",""
"","time_out","","html-keyboard-response","414","436316","0.0-1.0-629.0-0.0","0","0","67627","","null","","","null","69","","","","","","","","","","","","","","","",""
"","ITI","","html-keyboard-response","415","437327","0.0-1.0-630.0","0","0","67627","","36","","","75","69","","","","","","","","","","","","","","","k",""
"","S1","","html-keyboard-response","416","437593","0.0-1.0-632.0","0","0","67627","","null","","","null","70","","","","","","","","","","","","","","","",""
"","ISI","","html-keyboard-response","417","438111","0.0-1.0-633.0","0","0","67627","","138","","","75","70","k","","","","","","","","","","","","","","",""
"","S2","","html-keyboard-response","418","438161","0.0-1.0-634.0","0","0","67627","","44","","","75","70","","k","2","70","training","adjacent","FE","6","5","P.jpg","M.jpg","1","0","0","",""
"","feedback","","html-keyboard-response","419","439175","0.0-1.0-636.0-0.0","0","0","67627","","null","","","null","70","","","","","","","","","","","","","","","",""
"","time_out","","html-keyboard-response","420","441195","0.0-1.0-638.0-0.0","0","0","67627","","null","","","null","70","","","","","","","","","","","","","","","",""
"","ITI","","html-keyboard-response","421","442295","0.0-1.0-639.0","0","0","67627","","130","","","68","70","","","","","","","","","","","","","","","d",""
"","S1","","html-keyboard-response","422","442564","0.0-1.0-641.0","0","0","67627","","null","","","null","71","","","","","","","","","","","","","","","",""
"","ISI","","html-keyboard-response","423","443072","0.0-1.0-642.0","0","0","67627","","192","","","68","71","d","","","","","","","","","","","","","","",""
"","S2","","html-keyboard-response","424","443148","0.0-1.0-643.0","0","0","67627","","68","","","75","71","","k","2","71","training","adjacent","BA","2","1","R.jpg","Q.jpg","1","0","0","",""
"","feedback","","html-keyboard-response","425","444156","0.0-1.0-645.0-0.0","0","0","67627","","null","","","null","71","","","","","","","","","","","","","","","",""
"","time_out","","html-keyboard-response","426","446172","0.0-1.0-647.0-0.0","0","0","67627","","null","","","null","71","","","","","","","","","","","","","","","",""
"","ITI","","html-keyboard-response","427","447182","0.0-1.0-648.0","0","0","67627","","364","","","75","71","","","","","","","","","","","","","","","k",""
"","S1","","html-keyboard-response","428","447448","0.0-1.0-650.0","0","0","67627","","null","","","null","72","","","","","","","","","","","","","","","",""
"","ISI","","html-keyboard-response","429","447959","0.0-1.0-651.0","0","0","67627","","172","","","75","72","k","","","","","","","","","","","","","","",""
"","S2","","html-keyboard-response","430","448109","0.0-1.0-652.0","0","0","67627","","144","","","75","72","","k","2","72","training","adjacent","BC","2","3","R.jpg","N.jpg","1","1","1","",""
"","feedback","","html-keyboard-response","431","449124","0.0-1.0-654.0-0.0","0","0","67627","","null","","","null","72","","","","","","","","","","","","","","","",""
"","ITI","","html-keyboard-response","432","450141","0.0-1.0-657.0","0","0","67627","","201","","","68","72","","","","","","","","","","","","","","","d",""
"","S1","","html-keyboard-response","433","450411","0.0-1.0-659.0","0","0","67627","","null","","","null","73","","","","","","","","","","","","","","","",""
"","ISI","","html-keyboard-response","434","450990","0.0-1.0-660.0","0","0","67627","","111","","","75","73","k","","","","","","","","","","","","","","",""
"","S2","","html-keyboard-response","435","451006","0.0-1.0-661.0","0","0","67627","","12","","","75","73","","k","2","73","training","adjacent","DC","4","3","O.jpg","N.jpg","1","0","0","",""
"","feedback","","html-keyboard-response","436","452022","0.0-1.0-663.0-0.0","0","0","67627","","null","","","null","73","","","","","","","","","","","","","","","",""
"","time_out","","html-keyboard-response","437","454034","0.0-1.0-665.0-0.0","0","0","67627","","null","","","null","73","","","","","","","","","","","","","","","",""
"","ITI","","html-keyboard-response","438","455043","0.0-1.0-666.0","0","0","67627","","38","","","68","73","","","","","","","","","","","","","","","d",""
"","S1","","html-keyboard-response","439","455298","0.0-1.0-668.0","0","0","67627","","null","","","null","74","","","","","","","","","","","","","","","",""
"","ISI","","html-keyboard-response","440","455807","0.0-1.0-669.0","0","0","67627","","332","","","75","74","k","","","","","","","","","","","","","","",""
"","S2","","html-keyboard-response","441","455820","0.0-1.0-670.0","0","0","67627","","0","","","68","74","","d","2","74","training","adjacent","FE","6","5","P.jpg","M.jpg","0","0","1","",""
"","feedback","","html-keyboard-response","442","456826","0.0-1.0-672.0-0.0","0","0","67627","","null","","","null","74","","","","","","","","","","","","","","","",""
"","ITI","","html-keyboard-response","443","457842","0.0-1.0-675.0","0","0","67627","","null","","","null","74","","","","","","","","","","","","","","","NaN",""
"","S1","","html-keyboard-response","444","458099","0.0-1.0-677.0","0","0","67627","","null","","","null","75","","","","","","","","","","","","","","","",""
"","ISI","","html-keyboard-response","445","458660","0.0-1.0-678.0","0","0","67627","","272","","","68","75","d","","","","","","","","","","","","","","",""
"","S2","","html-keyboard-response","446","458923","0.0-1.0-679.0","0","0","67627","","null","","","null","75","","NaN","","","","","","","","","","","","","",""
"","response","","html-keyboard-response","447","458997","0.0-1.0-680.0-0.0","0","0","67627","","68","","","75","75","","","2","75","training","adjacent","FE","6","5","P.jpg","M.jpg","1","0","0","",""
"","feedback","","html-keyboard-response","448","460025","0.0-1.0-681.0-0.0","0","0","67627","","null","","","null","75","","","","","","","","","","","","","","","",""
"","time_out","","html-keyboard-response","449","462047","0.0-1.0-683.0-0.0","0","0","67627","","null","","","null","75","","","","","","","","","","","","","","","",""
"","ITI","","html-keyboard-response","450","463061","0.0-1.0-684.0","0","0","67627","","144","","","68","75","","","","","","","","","","","","","","","d",""
"","S1","","html-keyboard-response","451","463323","0.0-1.0-686.0","0","0","67627","","null","","","null","76","","","","","","","","","","","","","","","",""
"","ISI","","html-keyboard-response","452","463827","0.0-1.0-687.0","0","0","67627","","245","","","68","76","d","","","","","","","","","","","","","","",""
"","S2","","html-keyboard-response","453","464083","0.0-1.0-688.0","0","0","67627","","null","","","null","76","","NaN","","","","","","","","","","","","","",""
"","response","","html-keyboard-response","454","465842","0.0-1.0-689.0-0.0","0","0","67627","","null","","","null","76","","","2","76","training","adjacent","BC","2","3","R.jpg","N.jpg","NaN","1","0","",""
"","too_slow_prompt","","html-keyboard-response","455","466850","0.0-1.0-691.0-0.0","1","0","67627","","null","","","null","","","","","","","","","","","","","","","","",""
"","time_out","","html-keyboard-response","456","468900","0.0-1.0-692.0-0.0","0","0","67627","","null","","","null","76","","","","","","","","","","","","","","","",""
"","ITI","","html-keyboard-response","457","469917","0.0-1.0-693.0","0","0","67627","","142","","","68","76","","","","","","","","","","","","","","","d",""
"","S1","","html-keyboard-response","458","470171","0.0-1.0-695.0","0","0","67627","","null","","","null","77","","","","","","","","","","","","","","","",""
"","ISI","","html-keyboard-response","459","470689","0.0-1.0-696.0","0","0","67627","","170","","","75","77","k","","","","","","","","","","","","","","",""
"","S2","","html-keyboard-response","460","470966","0.0-1.0-697.0","0","0","67627","","null","","","null","77","","NaN","","","","","","","","","","","","","",""
"","response","","html-keyboard-response","461","471408","0.0-1.0-698.0-0.0","0","0","67627","","438","","","68","77","","","2","77","training","adjacent","DE","4","5","O.jpg","M.jpg","0","1","0","",""
"","feedback","","html-keyboard-response","462","472440","0.0-1.0-699.0-0.0","0","0","67627","","null","","","null","77","","","","","","","","","","","","","","","",""
"","time_out","","html-keyboard-response","463","474516","0.0-1.0-701.0-0.0","0","0","67627","","null","","","null","77","","","","","","","","","","","","","","","",""
"","ITI","","html-keyboard-response","464","475519","0.0-1.0-702.0","0","0","67627","","106","","","75","77","","","","","","","","","","","","","","","k",""
"","S1","","html-keyboard-response","465","475780","0.0-1.0-704.0","0","0","67627","","null","","","null","78","","","","","","","","","","","","","","","",""
"","ISI","","html-keyboard-response","466","476283","0.0-1.0-705.0","0","0","67627","","233","","","75","78","k","","","","","","","","","","","","","","",""
"","S2","","html-keyboard-response","467","476560","0.0-1.0-706.0","0","0","67627","","null","","","null","78","","NaN","","","","","","","","","","","","","",""
"","response","","html-keyboard-response","468","476677","0.0-1.0-707.0-0.0","0","0","67627","","98","","","68","78","","","2","78","training","adjacent","GF","7","6","L.jpg","P.jpg","0","0","1","",""
"","feedback","","html-keyboard-response","469","477682","0.0-1.0-708.0-0.0","0","0","67627","","null","","","null","78","","","","","","","","","","","","","","","",""
"","ITI","","html-keyboard-response","470","478731","0.0-1.0-711.0","0","0","67627","","null","","","null","78","","","","","","","","","","","","","","","NaN",""
"","S1","","html-keyboard-response","471","478986","0.0-1.0-713.0","0","0","67627","","null","","","null","79","","","","","","","","","","","","","","","",""
"","ISI","","html-keyboard-response","472","479492","0.0-1.0-714.0","0","0","67627","","288","","","75","79","k","","","","","","","","","","","","","","",""
"","S2","","html-keyboard-response","473","479723","0.0-1.0-715.0","0","0","67627","","225","","","68","79","","d","2","79","training","adjacent","AB","1","2","Q.jpg","R.jpg","0","1","0","",""
"","feedback","","html-keyboard-response","474","480729","0.0-1.0-717.0-0.0","0","0","67627","","null","","","null","79","","","","","","","","","","","","","","","",""
"","time_out","","html-keyboard-response","475","482738","0.0-1.0-719.0-0.0","0","0","67627","","null","","","null","79","","","","","","","","","","","","","","","",""
"","ITI","","html-keyboard-response","476","483743","0.0-1.0-720.0","0","0","67627","","null","","","null","79","","","","","","","","","","","","","","","NaN",""
"","S1","","html-keyboard-response","477","484009","0.0-1.0-722.0","0","0","67627","","null","","","null","80","","","","","","","","","","","","","","","",""
"","ISI","","html-keyboard-response","478","484516","0.0-1.0-723.0","0","0","67627","","null","","","null","80","NaN","","","","","","","","","","","","","","",""
"","S2","","html-keyboard-response","479","484703","0.0-1.0-724.0","0","0","67627","","180","","","68","80","","d","2","80","training","adjacent","EF","5","6","M.jpg","P.jpg","0","1","0","",""
"","feedback","","html-keyboard-response","480","485719","0.0-1.0-726.0-0.0","0","0","67627","","null","","","null","80","","","","","","","","","","","","","","","",""
"","time_out","","html-keyboard-response","481","487731","0.0-1.0-728.0-0.0","0","0","67627","","null","","","null","80","","","","","","","","","","","","","","","",""
"","ITI","","html-keyboard-response","482","488742","0.0-1.0-729.0","0","0","67627","","694","","","75","80","","","","","","","","","","","","","","","k",""
"","S1","","html-keyboard-response","483","489000","0.0-1.0-731.0","0","0","67627","","null","","","null","81","","","","","","","","","","","","","","","",""
"","ISI","","html-keyboard-response","484","489509","0.0-1.0-732.0","0","0","67627","","326","","","75","81","k","","","","","","","","","","","","","","",""
"","S2","","html-keyboard-response","485","489771","0.0-1.0-733.0","0","0","67627","","null","","","null","81","","NaN","","","","","","","","","","","","","",""
"","response","","html-keyboard-response","486","489808","0.0-1.0-734.0-0.0","0","0","67627","","32","","","68","81","","","2","81","training","adjacent","GF","7","6","L.jpg","P.jpg","0","0","1","",""
"","feedback","","html-keyboard-response","487","490814","0.0-1.0-735.0-0.0","0","0","67627","","null","","","null","81","","","","","","","","","","","","","","","",""
"","ITI","","html-keyboard-response","488","491831","0.0-1.0-738.0","0","0","67627","","null","","","null","81","","","","","","","","","","","","","","","NaN",""
"","S1","","html-keyboard-response","489","492098","0.0-1.0-740.0","0","0","67627","","null","","","null","82","","","","","","","","","","","","","","","",""
"","ISI","","html-keyboard-response","490","492612","0.0-1.0-741.0","0","0","67627","","null","","","null","82","NaN","","","","","","","","","","","","","","",""
"","S2","","html-keyboard-response","491","492810","0.0-1.0-742.0","0","0","67627","","193","","","75","82","","k","2","82","training","adjacent","GF","7","6","L.jpg","P.jpg","1","0","0","",""
"","feedback","","html-keyboard-response","492","493820","0.0-1.0-744.0-0.0","0","0","67627","","null","","","null","82","","","","","","","","","","","","","","","",""
"","time_out","","html-keyboard-response","493","495824","0.0-1.0-746.0-0.0","0","0","67627","","null","","","null","82","","","","","","","","","","","","","","","",""
"","ITI","","html-keyboard-response","494","496837","0.0-1.0-747.0","0","0","67627","","829","","","75","82","","","","","","","","","","","","","","","k",""
"","S1","","html-keyboard-response","495","497103","0.0-1.0-749.0","0","0","67627","","null","","","null","83","","","","","","","","","","","","","","","",""
"","ISI","","html-keyboard-response","496","497630","0.0-1.0-750.0","0","0","67627","","256","","","75","83","k","","","","","","","","","","","","","","",""
"","S2","","html-keyboard-response","497","497690","0.0-1.0-751.0","0","0","67627","","57","","","68","83","","d","2","83","training","adjacent","EF","5","6","M.jpg","P.jpg","0","1","0","",""
"","feedback","","html-keyboard-response","498","498695","0.0-1.0-753.0-0.0","0","0","67627","","null","","","null","83","","","","","","","","","","","","","","","",""
"","time_out","","html-keyboard-response","499","500705","0.0-1.0-755.0-0.0","0","0","67627","","null","","","null","83","","","","","","","","","","","","","","","",""
"","ITI","","html-keyboard-response","500","501713","0.0-1.0-756.0","0","0","67627","","null","","","null","83","","","","","","","","","","","","","","","NaN",""
"","S1","","html-keyboard-response","501","501969","0.0-1.0-758.0","0","0","67627","","null","","","null","84","","","","","","","","","","","","","","","",""
"","ISI","","html-keyboard-response","502","502480","0.0-1.0-759.0","0","0","67627","","158","","","75","84","k","","","","","","","","","","","","","","",""
"","S2","","html-keyboard-response","503","502484","0.0-1.0-760.0","0","0","67627","","1","","","68","84","","d","2","84","training","adjacent","GF","7","6","L.jpg","P.jpg","0","0","1","",""
"","feedback","","html-keyboard-response","504","503491","0.0-1.0-762.0-0.0","0","0","67627","","null","","","null","84","","","","","","","","","","","","","","","",""
"","ITI","","html-keyboard-response","505","504585","0.0-1.0-765.0","0","0","67627","","null","","","null","84","","","","","","","","","","","","","","","NaN",""
"","S1","","html-keyboard-response","506","504839","0.0-1.0-767.0","0","0","67627","","null","","","null","85","","","","","","","","","","","","","","","",""
"","ISI","","html-keyboard-response","507","505348","0.0-1.0-768.0","0","0","67627","","329","","","75","85","k","","","","","","","","","","","","","","",""
"","S2","","html-keyboard-response","508","505506","0.0-1.0-769.0","0","0","67627","","155","","","68","85","","d","2","85","training","adjacent","EF","5","6","M.jpg","P.jpg","0","1","0","",""
"","feedback","","html-keyboard-response","509","506513","0.0-1.0-771.0-0.0","0","0","67627","","null","","","null","85","","","","","","","","","","","","","","","",""
"","time_out","","html-keyboard-response","510","508529","0.0-1.0-773.0-0.0","0","0","67627","","null","","","null","85","","","","","","","","","","","","","","","",""
"","ITI","","html-keyboard-response","511","509548","0.0-1.0-774.0","0","0","67627","","743","","","75","85","","","","","","","","","","","","","","","k",""
"","S1","","html-keyboard-response","512","509804","0.0-1.0-776.0","0","0","67627","","null","","","null","86","","","","","","","","","","","","","","","",""
"","ISI","","html-keyboard-response","513","510326","0.0-1.0-777.0","0","0","67627","","0","","","75","86","k","","","","","","","","","","","","","","",""
"","S2","","html-keyboard-response","514","510393","0.0-1.0-778.0","0","0","67627","","56","","","68","86","","d","2","86","training","adjacent","DC","4","3","O.jpg","N.jpg","0","0","1","",""
"","feedback","","html-keyboard-response","515","511400","0.0-1.0-780.0-0.0","0","0","67627","","null","","","null","86","","","","","","","","","","","","","","","",""
"","ITI","","html-keyboard-response","516","512414","0.0-1.0-783.0","0","0","67627","","null","","","null","86","","","","","","","","","","","","","","","NaN",""
"","S1","","html-keyboard-response","517","512674","0.0-1.0-785.0","0","0","67627","","null","","","null","87","","","","","","","","","","","","","","","",""
"","ISI","","html-keyboard-response","518","513188","0.0-1.0-786.0","0","0","67627","","430","","","75","87","k","","","","","","","","","","","","","","",""
"","S2","","html-keyboard-response","519","513452","0.0-1.0-787.0","0","0","67627","","262","","","68","87","","d","2","87","training","adjacent","DE","4","5","O.jpg","M.jpg","0","1","0","",""
"","feedback","","html-keyboard-response","520","514478","0.0-1.0-789.0-0.0","0","0","67627","","null","","","null","87","","","","","","","","","","","","","","","",""
"","time_out","","html-keyboard-response","521","516497","0.0-1.0-791.0-0.0","0","0","67627","","null","","","null","87","","","","","","","","","","","","","","","",""
"","ITI","","html-keyboard-response","522","517502","0.0-1.0-792.0","0","0","67627","","null","","","null","87","","","","","","","","","","","","","","","NaN",""
"","S1","","html-keyboard-response","523","517759","0.0-1.0-794.0","0","0","67627","","null","","","null","88","","","","","","","","","","","","","","","",""
"","ISI","","html-keyboard-response","524","518265","0.0-1.0-795.0","0","0","67627","","263","","","75","88","k","","","","","","","","","","","","","","",""
"","S2","","html-keyboard-response","525","518380","0.0-1.0-796.0","0","0","67627","","112","","","68","88","","d","2","88","training","adjacent","FG","6","7","P.jpg","L.jpg","0","1","0","",""
"","feedback","","html-keyboard-response","526","519384","0.0-1.0-798.0-0.0","0","0","67627","","null","","","null","88","","","","","","","","","","","","","","","",""
"","time_out","","html-keyboard-response","527","521390","0.0-1.0-800.0-0.0","0","0","67627","","null","","","null","88","","","","","","","","","","","","","","","",""
"","ITI","","html-keyboard-response","528","522407","0.0-1.0-801.0","0","0","67627","","null","","","null","88","","","","","","","","","","","","","","","NaN",""
"","S1","","html-keyboard-response","529","522670","0.0-1.0-803.0","0","0","67627","","null","","","null","89","","","","","","","","","","","","","","","",""
"","ISI","","html-keyboard-response","530","523189","0.0-1.0-804.0","0","0","67627","","367","","","75","89","k","","","","","","","","","","","","","","",""
"","S2","","html-keyboard-response","531","523314","0.0-1.0-805.0","0","0","67627","","120","","","68","89","","d","2","89","training","adjacent","CB","3","2","N.jpg","R.jpg","0","0","1","",""
"","feedback","","html-keyboard-response","532","524320","0.0-1.0-807.0-0.0","0","0","67627","","null","","","null","89","","","","","","","","","","","","","","","",""
"","ITI","","html-keyboard-response","533","525331","0.0-1.0-810.0","0","0","67627","","null","","","null","89","","","","","","","","","","","","","","","NaN",""
"","S1","","html-keyboard-response","534","525596","0.0-1.0-812.0","0","0","67627","","null","","","null","90","","","","","","","","","","","","","","","",""
"","ISI","","html-keyboard-response","535","526109","0.0-1.0-813.0","0","0","67627","","330","","","75","90","k","","","","","","","","","","","","","","",""
"","S2","","html-keyboard-response","536","526176","0.0-1.0-814.0","0","0","67627","","63","","","68","90","","d","2","90","training","adjacent","BA","2","1","R.jpg","Q.jpg","0","0","1","",""
"","feedback","","html-keyboard-response","537","527182","0.0-1.0-816.0-0.0","0","0","67627","","null","","","null","90","","","","","","","","","","","","","","","",""
"","ITI","","html-keyboard-response","538","528189","0.0-1.0-819.0","0","0","67627","","null","","","null","90","","","","","","","","","","","","","","","NaN",""
"","S1","","html-keyboard-response","539","528470","0.0-1.0-821.0","0","0","67627","","null","","","null","91","","","","","","","","","","","","","","","",""
"","ISI","","html-keyboard-response","540","528980","0.0-1.0-822.0","0","0","67627","","363","","","75","91","k","","","","","","","","","","","","","","",""
"","S2","","html-keyboard-response","541","529140","0.0-1.0-823.0","0","0","67627","","154","","","68","91","","d","2","91","training","adjacent","BA","2","1","R.jpg","Q.jpg","0","0","1","",""
"","feedback","","html-keyboard-response","542","530176","0.0-1.0-825.0-0.0","0","0","67627","","null","","","null","91","","","","","","","","","","","","","","","",""
"","ITI","","html-keyboard-response","543","531186","0.0-1.0-828.0","0","0","67627","","null","","","null","91","","","","","","","","","","","","","","","NaN",""
"","S1","","html-keyboard-response","544","531445","0.0-1.0-830.0","0","0","67627","","null","","","null","92","","","","","","","","","","","","","","","",""
"","ISI","","html-keyboard-response","545","531950","0.0-1.0-831.0","0","0","67627","","null","","","null","92","NaN","","","","","","","","","","","","","","",""
"","S2","","html-keyboard-response","546","532068","0.0-1.0-832.0","0","0","67627","","113","","","75","92","","k","2","92","training","adjacent","FG","6","7","P.jpg","L.jpg","1","1","1","",""
"","feedback","","html-keyboard-response","547","533088","0.0-1.0-834.0-0.0","0","0","67627","","null","","","null","92","","","","","","","","","","","","","","","",""
"","ITI","","html-keyboard-response","548","534095","0.0-1.0-837.0","0","0","67627","","null","","","null","92","","","","","","","","","","","","","","","NaN",""
"","S1","","html-keyboard-response","549","534350","0.0-1.0-839.0","0","0","67627","","null","","","null","93","","","","","","","","","","","","","","","",""
"","ISI","","html-keyboard-response","550","534853","0.0-1.0-840.0","0","0","67627","","456","","","75","93","k","","","","","","","","","","","","","","",""
"","S2","","html-keyboard-response","551","535005","0.0-1.0-841.0","0","0","67627","","147","","","68","93","","d","2","93","training","adjacent","CB","3","2","N.jpg","R.jpg","0","0","1","",""
"","feedback","","html-keyboard-response","552","536029","0.0-1.0-843.0-0.0","0","0","67627","","null","","","null","93","","","","","","","","","","","","","","","",""
"","ITI","","html-keyboard-response","553","537053","0.0-1.0-846.0","0","0","67627","","null","","","null","93","","","","","","","","","","","","","","","NaN",""
"","S1","","html-keyboard-response","554","537317","0.0-1.0-848.0","0","0","67627","","null","","","null","94","","","","","","","","","","","","","","","",""
"","ISI","","html-keyboard-response","555","537834","0.0-1.0-849.0","0","0","67627","","353","","","75","94","k","","","","","","","","","","","","","","",""
"","S2","","html-keyboard-response","556","538099","0.0-1.0-850.0","0","0","67627","","null","","","null","94","","NaN","","","","","","","","","","","","","",""
"","response","","html-keyboard-response","557","539861","0.0-1.0-851.0-0.0","0","0","67627","","null","","","null","94","","","2","94","training","adjacent","BC","2","3","R.jpg","N.jpg","NaN","1","0","",""
"","too_slow_prompt","","html-keyboard-response","558","540868","0.0-1.0-853.0-0.0","1","0","67627","","null","","","null","","","","","","","","","","","","","","","","",""
"","time_out","","html-keyboard-response","559","542883","0.0-1.0-854.0-0.0","0","0","67627","","null","","","null","94","","","","","","","","","","","","","","","",""
"","ITI","","html-keyboard-response","560","543897","0.0-1.0-855.0","0","0","67627","","null","","","null","94","","","","","","","","","","","","","","","NaN",""
"","S1","","html-keyboard-response","561","544153","0.0-1.0-857.0","0","0","67627","","null","","","null","95","","","","","","","","","","","","","","","",""
"","ISI","","html-keyboard-response","562","544659","0.0-1.0-858.0","0","0","67627","","299","","","75","95","k","","","","","","","","","","","","","","",""
"","S2","","html-keyboard-response","563","544744","0.0-1.0-859.0","0","0","67627","","81","","","68","95","","d","2","95","training","adjacent","DC","4","3","O.jpg","N.jpg","0","0","1","",""
"","feedback","","html-keyboard-response","564","545761","0.0-1.0-861.0-0.0","0","0","67627","","null","","","null","95","","","","","","","","","","","","","","","",""
"","ITI","","html-keyboard-response","565","546814","0.0-1.0-864.0","0","0","67627","","null","","","null","95","","","","","","","","","","","","","","","NaN",""
"","block_over","","html-keyboard-response","566","554487","0.0-1.0-865.0-0.0","0","0","67627","","7664","","","32","95","","","","","","","","","","","","","","","",""
"","S1","","html-keyboard-response","567","554756","0.0-1.0-866.0","0","0","67627","","null","","","null","96","","","","","","","","","","","","","","","",""
"","ISI","","html-keyboard-response","568","555274","0.0-1.0-867.0","0","0","67627","","null","","","null","96","NaN","","","","","","","","","","","","","","",""
"","S2","","html-keyboard-response","569","555279","0.0-1.0-868.0","0","0","67627","","0","","","75","96","","k","3","96","training","adjacent","BA","2","1","R.jpg","Q.jpg","1","0","0","",""
"","feedback","","html-keyboard-response","570","556294","0.0-1.0-870.0-0.0","0","0","67627","","null","","","null","96","","","","","","","","","","","","","","","",""
"","time_out","","html-keyboard-response","571","558306","0.0-1.0-872.0-0.0","0","0","67627","","null","","","null","96","","","","","","","","","","","","","","","",""
"","ITI","","html-keyboard-response","572","559324","0.0-1.0-873.0","0","0","67627","","null","","","null","96","","","","","","","","","","","","","","","NaN",""
"","S1","","html-keyboard-response","573","559582","0.0-1.0-875.0","0","0","67627","","null","","","null","97","","","","","","","","","","","","","","","",""
"","ISI","","html-keyboard-response","574","560097","0.0-1.0-876.0","0","0","67627","","231","","","75","97","k","","","","","","","","","","","","","","",""
"","S2","","html-keyboard-response","575","560117","0.0-1.0-877.0","0","0","67627","","16","","","68","97","","d","3","97","training","adjacent","DC","4","3","O.jpg","N.jpg","0","0","1","",""
"","feedback","","html-keyboard-response","576","561129","0.0-1.0-879.0-0.0","0","0","67627","","null","","","null","97","","","","","","","","","","","","","","","",""
"","ITI","","html-keyboard-response","577","562141","0.0-1.0-882.0","0","0","67627","","null","","","null","97","","","","","","","","","","","","","","","NaN",""
"","S1","","html-keyboard-response","578","562407","0.0-1.0-884.0","0","0","67627","","null","","","null","98","","","","","","","","","","","","","","","",""
"","ISI","","html-keyboard-response","579","562914","0.0-1.0-885.0","0","0","67627","","346","","","68","98","d","","","","","","","","","","","","","","",""
"","S2","","html-keyboard-response","580","562997","0.0-1.0-886.0","0","0","67627","","78","","","75","98","","k","3","98","training","adjacent","FE","6","5","P.jpg","M.jpg","1","0","0","",""
"","feedback","","html-keyboard-response","581","564009","0.0-1.0-888.0-0.0","0","0","67627","","null","","","null","98","","","","","","","","","","","","","","","",""
"","time_out","","html-keyboard-response","582","566022","0.0-1.0-890.0-0.0","0","0","67627","","null","","","null","98","","","","","","","","","","","","","","","",""
"","ITI","","html-keyboard-response","583","567033","0.0-1.0-891.0","0","0","67627","","null","","","null","98","","","","","","","","","","","","","","","NaN",""
"","S1","","html-keyboard-response","584","567399","0.0-1.0-893.0","0","0","67627","","null","","","null","99","","","","","","","","","","","","","","","",""
"","ISI","","html-keyboard-response","585","567920","0.0-1.0-894.0","0","0","67627","","384","","","68","99","d","","","","","","","","","","","","","","",""
"","S2","","html-keyboard-response","586","568179","0.0-1.0-895.0","0","0","67627","","null","","","null","99","","NaN","","","","","","","","","","","","","",""
