"success","ttype","start_time","trial_type","trial_index","time_elapsed","internal_node_id","warning","missed_checkup","PID","view_history","rt","responses","repeat_instructions","key_press","index","keypress_isi","keypress_S2","block","trial_num","phase","group_type","pair_type","S1_stim","S2_stim","S1_img","S2_img","S1_chosen","S1_higher","accuracy","keypress_iti","total_bonus_tally"
"true","full_screen","d04142023hr1658","fullscreen","0","21047","0.0-0.0","0","0","69495","","","","","","","","","","","","","","","","","","","","","",""
"","instructions","","instructions","1","163468","0.0-1.0-0.0-0.0","0","0","69495","[{""page_index"":0,""viewing_time"":8459},{""page_index"":1,""viewing_time"":108442},{""page_index"":2,""viewing_time"":20555},{""page_index"":3,""viewing_time"":4949}]","142409","","","","","","","","","","","","","","","","","","","",""
"","comprehension_check","","survey-multi-choice","2","193196","0.0-1.0-0.0-1.0","0","0","69495","","29718","{""Q0"":""True"",""Q1"":""K"",""Q2"":""Once the second image appears and while the screen 'MAKE A CHOICE' is shown"",""Q3"":""Green mark"",""Q4"":""either D or K""}","0","","","","","","","","","","","","","","","","","",""
"","start_exp","","html-keyboard-response","3","197956","0.0-1.0-1.0","0","0","69495","","4743","","","32","","","","","","","","","","","","","","","","",""
"","S1","","html-keyboard-response","4","198232","0.0-1.0-2.0","0","0","69495","","null","","","null","0","","","","","","","","","","","","","","","",""
"","ISI","","html-keyboard-response","5","199255","0.0-1.0-3.0","0","0","69495","","null","","","null","0","NaN","","","","","","","","","","","","","","",""
"","S2","","html-keyboard-response","6","199519","0.0-1.0-4.0","0","0","69495","","null","","","null","0","","NaN","","","","","","","","","","","","","",""
"","response","","html-keyboard-response","7","200770","0.0-1.0-5.0-0.0","0","0","69495","","1237","","","75","0","","","1","0","training","adjacent","BA","2","1","L.jpg","R.jpg","1","0","0","",""
"","feedback","","html-keyboard-response","8","201792","0.0-1.0-6.0-0.0","0","0","69495","","null","","","null","0","","","","","","","","","","","","","","","",""
"","time_out","","html-keyboard-response","9","203815","0.0-1.0-8.0-0.0","0","0","69495","","null","","","null","0","","","","","","","","","","","","","","","",""
"","ITI","","html-keyboard-response","10","204830","0.0-1.0-9.0","0","0","69495","","null","","","null","0","","","","","","","","","","","","","","","NaN",""
"","S1","","html-keyboard-response","11","205094","0.0-1.0-11.0","0","0","69495","","null","","","null","1","","","","","","","","","","","","","","","",""
"","ISI","","html-keyboard-response","12","206114","0.0-1.0-12.0","0","0","69495","","null","","","null","1","NaN","","","","","","","","","","","","","","",""
"","S2","","html-keyboard-response","13","206375","0.0-1.0-13.0","0","0","69495","","null","","","null","1","","NaN","","","","","","","","","","","","","",""
"","response","","html-keyboard-response","14","207604","0.0-1.0-14.0-0.0","0","0","69495","","1216","","","75","1","","","1","1","training","adjacent","CD","3","4","O.jpg","N.jpg","1","1","1","",""
"","feedback","","html-keyboard-response","15","208624","0.0-1.0-15.0-0.0","0","0","69495","","null","","","null","1","","","","","","","","","","","","","","","",""
"","ITI","","html-keyboard-response","16","209648","0.0-1.0-18.0","0","0","69495","","null","","","null","1","","","","","","","","","","","","","","","NaN",""
"","S1","","html-keyboard-response","17","209912","0.0-1.0-20.0","0","0","69495","","null","","","null","2","","","","","","","","","","","","","","","",""
"","ISI","","html-keyboard-response","18","210927","0.0-1.0-21.0","0","0","69495","","null","","","null","2","NaN","","","","","","","","","","","","","","",""
"","S2","","html-keyboard-response","19","211200","0.0-1.0-22.0","0","0","69495","","null","","","null","2","","NaN","","","","","","","","","","","","","",""
"","response","","html-keyboard-response","20","211909","0.0-1.0-23.0-0.0","0","0","69495","","692","","","68","2","","","1","2","training","adjacent","BC","2","3","L.jpg","O.jpg","0","1","0","",""
"","feedback","","html-keyboard-response","21","212930","0.0-1.0-24.0-0.0","0","0","69495","","null","","","null","2","","","","","","","","","","","","","","","",""
"","time_out","","html-keyboard-response","22","214948","0.0-1.0-26.0-0.0","0","0","69495","","null","","","null","2","","","","","","","","","","","","","","","",""
"","ITI","","html-keyboard-response","23","215965","0.0-1.0-27.0","0","0","69495","","null","","","null","2","","","","","","","","","","","","","","","NaN",""
"","S1","","html-keyboard-response","24","216238","0.0-1.0-29.0","0","0","69495","","null","","","null","3","","","","","","","","","","","","","","","",""
"","ISI","","html-keyboard-response","25","217258","0.0-1.0-30.0","0","0","69495","","null","","","null","3","NaN","","","","","","","","","","","","","","",""
"","S2","","html-keyboard-response","26","217529","0.0-1.0-31.0","0","0","69495","","null","","","null","3","","NaN","","","","","","","","","","","","","",""
"","response","","html-keyboard-response","27","218645","0.0-1.0-32.0-0.0","0","0","69495","","1101","","","68","3","","","1","3","training","adjacent","BC","2","3","L.jpg","O.jpg","0","1","0","",""
"","feedback","","html-keyboard-response","28","219664","0.0-1.0-33.0-0.0","0","0","69495","","null","","","null","3","","","","","","","","","","","","","","","",""
"","time_out","","html-keyboard-response","29","221687","0.0-1.0-35.0-0.0","0","0","69495","","null","","","null","3","","","","","","","","","","","","","","","",""
"","ITI","","html-keyboard-response","30","222711","0.0-1.0-36.0","0","0","69495","","null","","","null","3","","","","","","","","","","","","","","","NaN",""
"","S1","","html-keyboard-response","31","222982","0.0-1.0-38.0","0","0","69495","","null","","","null","4","","","","","","","","","","","","","","","",""
"","ISI","","html-keyboard-response","32","224000","0.0-1.0-39.0","0","0","69495","","null","","","null","4","NaN","","","","","","","","","","","","","","",""
"","S2","","html-keyboard-response","33","224263","0.0-1.0-40.0","0","0","69495","","null","","","null","4","","NaN","","","","","","","","","","","","","",""
"","response","","html-keyboard-response","34","224955","0.0-1.0-41.0-0.0","0","0","69495","","681","","","68","4","","","1","4","training","adjacent","DE","4","5","N.jpg","Q.jpg","0","1","0","",""
"","feedback","","html-keyboard-response","35","225976","0.0-1.0-42.0-0.0","0","0","69495","","null","","","null","4","","","","","","","","","","","","","","","",""
"","time_out","","html-keyboard-response","36","228000","0.0-1.0-44.0-0.0","0","0","69495","","null","","","null","4","","","","","","","","","","","","","","","",""
"","ITI","","html-keyboard-response","37","229023","0.0-1.0-45.0","0","0","69495","","null","","","null","4","","","","","","","","","","","","","","","NaN",""
"","S1","","html-keyboard-response","38","229296","0.0-1.0-47.0","0","0","69495","","null","","","null","5","","","","","","","","","","","","","","","",""
"","ISI","","html-keyboard-response","39","230320","0.0-1.0-48.0","0","0","69495","","null","","","null","5","NaN","","","","","","","","","","","","","","",""
"","S2","","html-keyboard-response","40","230590","0.0-1.0-49.0","0","0","69495","","null","","","null","5","","NaN","","","","","","","","","","","","","",""
"","response","","html-keyboard-response","41","231386","0.0-1.0-50.0-0.0","0","0","69495","","781","","","68","5","","","1","5","training","adjacent","CB","3","2","O.jpg","L.jpg","0","0","1","",""
"","feedback","","html-keyboard-response","42","232408","0.0-1.0-51.0-0.0","0","0","69495","","null","","","null","5","","","","","","","","","","","","","","","",""
"","ITI","","html-keyboard-response","43","233434","0.0-1.0-54.0","0","0","69495","","null","","","null","5","","","","","","","","","","","","","","","NaN",""
"","S1","","html-keyboard-response","44","233702","0.0-1.0-56.0","0","0","69495","","null","","","null","6","","","","","","","","","","","","","","","",""
"","ISI","","html-keyboard-response","45","234718","0.0-1.0-57.0","0","0","69495","","null","","","null","6","NaN","","","","","","","","","","","","","","",""
"","S2","","html-keyboard-response","46","234994","0.0-1.0-58.0","0","0","69495","","null","","","null","6","","NaN","","","","","","","","","","","","","",""
"","response","","html-keyboard-response","47","235676","0.0-1.0-59.0-0.0","0","0","69495","","667","","","68","6","","","1","6","training","adjacent","ED","5","4","Q.jpg","N.jpg","0","0","1","",""
"","feedback","","html-keyboard-response","48","236694","0.0-1.0-60.0-0.0","0","0","69495","","null","","","null","6","","","","","","","","","","","","","","","",""
"","ITI","","html-keyboard-response","49","237713","0.0-1.0-63.0","0","0","69495","","null","","","null","6","","","","","","","","","","","","","","","NaN",""
"","S1","","html-keyboard-response","50","237983","0.0-1.0-65.0","0","0","69495","","null","","","null","7","","","","","","","","","","","","","","","",""
"","ISI","","html-keyboard-response","51","238999","0.0-1.0-66.0","0","0","69495","","null","","","null","7","NaN","","","","","","","","","","","","","","",""
"","S2","","html-keyboard-response","52","239270","0.0-1.0-67.0","0","0","69495","","null","","","null","7","","NaN","","","","","","","","","","","","","",""
"","response","","html-keyboard-response","53","239731","0.0-1.0-68.0-0.0","0","0","69495","","447","","","75","7","","","1","7","training","adjacent","DE","4","5","N.jpg","Q.jpg","1","1","1","",""
"","feedback","","html-keyboard-response","54","240751","0.0-1.0-69.0-0.0","0","0","69495","","null","","","null","7","","","","","","","","","","","","","","","",""
"","ITI","","html-keyboard-response","55","241775","0.0-1.0-72.0","0","0","69495","","null","","","null","7","","","","","","","","","","","","","","","NaN",""
"","S1","","html-keyboard-response","56","242047","0.0-1.0-74.0","0","0","69495","","null","","","null","8","","","","","","","","","","","","","","","",""
"","ISI","","html-keyboard-response","57","243062","0.0-1.0-75.0","0","0","69495","","null","","","null","8","NaN","","","","","","","","","","","","","","",""
"","S2","","html-keyboard-response","58","243338","0.0-1.0-76.0","0","0","69495","","null","","","null","8","","NaN","","","","","","","","","","","","","",""
"","response","","html-keyboard-response","59","243969","0.0-1.0-77.0-0.0","0","0","69495","","620","","","75","8","","","1","8","training","adjacent","CB","3","2","O.jpg","L.jpg","1","0","0","",""
"","feedback","","html-keyboard-response","60","244990","0.0-1.0-78.0-0.0","0","0","69495","","null","","","null","8","","","","","","","","","","","","","","","",""
"","time_out","","html-keyboard-response","61","247008","0.0-1.0-80.0-0.0","0","0","69495","","null","","","null","8","","","","","","","","","","","","","","","",""
"","ITI","","html-keyboard-response","62","248032","0.0-1.0-81.0","0","0","69495","","null","","","null","8","","","","","","","","","","","","","","","NaN",""
"","S1","","html-keyboard-response","63","248303","0.0-1.0-83.0","0","0","69495","","null","","","null","9","","","","","","","","","","","","","","","",""
"","ISI","","html-keyboard-response","64","249320","0.0-1.0-84.0","0","0","69495","","null","","","null","9","NaN","","","","","","","","","","","","","","",""
"","S2","","html-keyboard-response","65","249589","0.0-1.0-85.0","0","0","69495","","null","","","null","9","","NaN","","","","","","","","","","","","","",""
"","response","","html-keyboard-response","66","250306","0.0-1.0-86.0-0.0","0","0","69495","","702","","","75","9","","","1","9","training","adjacent","CB","3","2","O.jpg","L.jpg","1","0","0","",""
"","feedback","","html-keyboard-response","67","251334","0.0-1.0-87.0-0.0","0","0","69495","","null","","","null","9","","","","","","","","","","","","","","","",""
"","time_out","","html-keyboard-response","68","253350","0.0-1.0-89.0-0.0","0","0","69495","","null","","","null","9","","","","","","","","","","","","","","","",""
"","ITI","","html-keyboard-response","69","254367","0.0-1.0-90.0","0","0","69495","","null","","","null","9","","","","","","","","","","","","","","","NaN",""
"","S1","","html-keyboard-response","70","254638","0.0-1.0-92.0","0","0","69495","","null","","","null","10","","","","","","","","","","","","","","","",""
"","ISI","","html-keyboard-response","71","255656","0.0-1.0-93.0","0","0","69495","","null","","","null","10","NaN","","","","","","","","","","","","","","",""
"","S2","","html-keyboard-response","72","255928","0.0-1.0-94.0","0","0","69495","","null","","","null","10","","NaN","","","","","","","","","","","","","",""
"","response","","html-keyboard-response","73","257130","0.0-1.0-95.0-0.0","0","0","69495","","1188","","","75","10","","","1","10","training","adjacent","AB","1","2","R.jpg","L.jpg","1","1","1","",""
"","feedback","","html-keyboard-response","74","258153","0.0-1.0-96.0-0.0","0","0","69495","","null","","","null","10","","","","","","","","","","","","","","","",""
"","ITI","","html-keyboard-response","75","259173","0.0-1.0-99.0","0","0","69495","","null","","","null","10","","","","","","","","","","","","","","","NaN",""
"","S1","","html-keyboard-response","76","259447","0.0-1.0-101.0","0","0","69495","","null","","","null","11","","","","","","","","","","","","","","","",""
"","ISI","","html-keyboard-response","77","260465","0.0-1.0-102.0","0","0","69495","","null","","","null","11","NaN","","","","","","","","","","","","","","",""
"","S2","","html-keyboard-response","78","260736","0.0-1.0-103.0","0","0","69495","","null","","","null","11","","NaN","","","","","","","","","","","","","",""
"","response","","html-keyboard-response","79","261595","0.0-1.0-104.0-0.0","0","0","69495","","844","","","68","11","","","1","11","training","adjacent","CD","3","4","O.jpg","N.jpg","0","1","0","",""
"","feedback","","html-keyboard-response","80","262617","0.0-1.0-105.0-0.0","0","0","69495","","null","","","null","11","","","","","","","","","","","","","","","",""
"","time_out","","html-keyboard-response","81","264640","0.0-1.0-107.0-0.0","0","0","69495","","null","","","null","11","","","","","","","","","","","","","","","",""
"","ITI","","html-keyboard-response","82","265663","0.0-1.0-108.0","0","0","69495","","null","","","null","11","","","","","","","","","","","","","","","NaN",""
"","S1","","html-keyboard-response","83","265935","0.0-1.0-110.0","0","0","69495","","null","","","null","12","","","","","","","","","","","","","","","",""
"","ISI","","html-keyboard-response","84","266948","0.0-1.0-111.0","0","0","69495","","null","","","null","12","NaN","","","","","","","","","","","","","","",""
"","S2","","html-keyboard-response","85","267215","0.0-1.0-112.0","0","0","69495","","null","","","null","12","","NaN","","","","","","","","","","","","","",""
"","response","","html-keyboard-response","86","267549","0.0-1.0-113.0-0.0","0","0","69495","","320","","","68","12","","","1","12","training","adjacent","BA","2","1","L.jpg","R.jpg","0","0","1","",""
"","feedback","","html-keyboard-response","87","268569","0.0-1.0-114.0-0.0","0","0","69495","","null","","","null","12","","","","","","","","","","","","","","","",""
"","ITI","","html-keyboard-response","88","269592","0.0-1.0-117.0","0","0","69495","","null","","","null","12","","","","","","","","","","","","","","","NaN",""
"","S1","","html-keyboard-response","89","269863","0.0-1.0-119.0","0","0","69495","","null","","","null","13","","","","","","","","","","","","","","","",""
"","ISI","","html-keyboard-response","90","270878","0.0-1.0-120.0","0","0","69495","","null","","","null","13","NaN","","","","","","","","","","","","","","",""
"","S2","","html-keyboard-response","91","271146","0.0-1.0-121.0","0","0","69495","","null","","","null","13","","NaN","","","","","","","","","","","","","",""
"","response","","html-keyboard-response","92","271674","0.0-1.0-122.0-0.0","0","0","69495","","517","","","75","13","","","1","13","training","adjacent","BA","2","1","L.jpg","R.jpg","1","0","0","",""
"","feedback","","html-keyboard-response","93","272694","0.0-1.0-123.0-0.0","0","0","69495","","null","","","null","13","","","","","","","","","","","","","","","",""
"","time_out","","html-keyboard-response","94","274712","0.0-1.0-125.0-0.0","0","0","69495","","null","","","null","13","","","","","","","","","","","","","","","",""
"","ITI","","html-keyboard-response","95","275735","0.0-1.0-126.0","0","0","69495","","null","","","null","13","","","","","","","","","","","","","","","NaN",""
"","S1","","html-keyboard-response","96","276001","0.0-1.0-128.0","0","0","69495","","null","","","null","14","","","","","","","","","","","","","","","",""
"","ISI","","html-keyboard-response","97","277016","0.0-1.0-129.0","0","0","69495","","null","","","null","14","NaN","","","","","","","","","","","","","","",""
"","S2","","html-keyboard-response","98","277286","0.0-1.0-130.0","0","0","69495","","null","","","null","14","","NaN","","","","","","","","","","","","","",""
"","response","","html-keyboard-response","99","278048","0.0-1.0-131.0-0.0","0","0","69495","","747","","","68","14","","","1","14","training","adjacent","FG","6","7","P.jpg","M.jpg","0","1","0","",""
"","feedback","","html-keyboard-response","100","279071","0.0-1.0-132.0-0.0","0","0","69495","","null","","","null","14","","","","","","","","","","","","","","","",""
"","time_out","","html-keyboard-response","101","281098","0.0-1.0-134.0-0.0","0","0","69495","","null","","","null","14","","","","","","","","","","","","","","","",""
"","ITI","","html-keyboard-response","102","282120","0.0-1.0-135.0","0","0","69495","","null","","","null","14","","","","","","","","","","","","","","","NaN",""
"","S1","","html-keyboard-response","103","282392","0.0-1.0-137.0","0","0","69495","","null","","","null","15","","","","","","","","","","","","","","","",""
"","ISI","","html-keyboard-response","104","283416","0.0-1.0-138.0","0","0","69495","","null","","","null","15","NaN","","","","","","","","","","","","","","",""
"","S2","","html-keyboard-response","105","283688","0.0-1.0-139.0","0","0","69495","","null","","","null","15","","NaN","","","","","","","","","","","","","",""
"","response","","html-keyboard-response","106","284227","0.0-1.0-140.0-0.0","0","0","69495","","524","","","75","15","","","1","15","training","adjacent","ED","5","4","Q.jpg","N.jpg","1","0","0","",""
"","feedback","","html-keyboard-response","107","285248","0.0-1.0-141.0-0.0","0","0","69495","","null","","","null","15","","","","","","","","","","","","","","","",""
"","time_out","","html-keyboard-response","108","287274","0.0-1.0-143.0-0.0","0","0","69495","","null","","","null","15","","","","","","","","","","","","","","","",""
"","ITI","","html-keyboard-response","109","288297","0.0-1.0-144.0","0","0","69495","","null","","","null","15","","","","","","","","","","","","","","","NaN",""
"","S1","","html-keyboard-response","110","288567","0.0-1.0-146.0","0","0","69495","","null","","","null","16","","","","","","","","","","","","","","","",""
"","ISI","","html-keyboard-response","111","289582","0.0-1.0-147.0","0","0","69495","","null","","","null","16","NaN","","","","","","","","","","","","","","",""
"","S2","","html-keyboard-response","112","289857","0.0-1.0-148.0","0","0","69495","","null","","","null","16","","NaN","","","","","","","","","","","","","",""
"","response","","html-keyboard-response","113","290467","0.0-1.0-149.0-0.0","0","0","69495","","595","","","75","16","","","1","16","training","adjacent","CD","3","4","O.jpg","N.jpg","1","1","1","",""
"","feedback","","html-keyboard-response","114","291487","0.0-1.0-150.0-0.0","0","0","69495","","null","","","null","16","","","","","","","","","","","","","","","",""
"","ITI","","html-keyboard-response","115","292511","0.0-1.0-153.0","0","0","69495","","null","","","null","16","","","","","","","","","","","","","","","NaN",""
"","S1","","html-keyboard-response","116","292773","0.0-1.0-155.0","0","0","69495","","null","","","null","17","","","","","","","","","","","","","","","",""
"","ISI","","html-keyboard-response","117","293791","0.0-1.0-156.0","0","0","69495","","null","","","null","17","NaN","","","","","","","","","","","","","","",""
"","S2","","html-keyboard-response","118","294065","0.0-1.0-157.0","0","0","69495","","null","","","null","17","","NaN","","","","","","","","","","","","","",""
"","response","","html-keyboard-response","119","294299","0.0-1.0-158.0-0.0","0","0","69495","","221","","","68","17","","","1","17","training","adjacent","BC","2","3","L.jpg","O.jpg","0","1","0","",""
"","feedback","","html-keyboard-response","120","295321","0.0-1.0-159.0-0.0","0","0","69495","","null","","","null","17","","","","","","","","","","","","","","","",""
"","time_out","","html-keyboard-response","121","297343","0.0-1.0-161.0-0.0","0","0","69495","","null","","","null","17","","","","","","","","","","","","","","","",""
"","ITI","","html-keyboard-response","122","298358","0.0-1.0-162.0","0","0","69495","","null","","","null","17","","","","","","","","","","","","","","","NaN",""
"","S1","","html-keyboard-response","123","298631","0.0-1.0-164.0","0","0","69495","","null","","","null","18","","","","","","","","","","","","","","","",""
"","ISI","","html-keyboard-response","124","299655","0.0-1.0-165.0","0","0","69495","","null","","","null","18","NaN","","","","","","","","","","","","","","",""
"","S2","","html-keyboard-response","125","299925","0.0-1.0-166.0","0","0","69495","","null","","","null","18","","NaN","","","","","","","","","","","","","",""
"","response","","html-keyboard-response","126","299963","0.0-1.0-167.0-0.0","0","0","69495","","33","","","75","18","","","1","18","training","adjacent","GF","7","6","M.jpg","P.jpg","1","0","0","",""
"","feedback","","html-keyboard-response","127","300984","0.0-1.0-168.0-0.0","0","0","69495","","null","","","null","18","","","","","","","","","","","","","","","",""
"","time_out","","html-keyboard-response","128","303007","0.0-1.0-170.0-0.0","0","0","69495","","null","","","null","18","","","","","","","","","","","","","","","",""
"","ITI","","html-keyboard-response","129","304022","0.0-1.0-171.0","0","0","69495","","null","","","null","18","","","","","","","","","","","","","","","NaN",""
"","S1","","html-keyboard-response","130","304295","0.0-1.0-173.0","0","0","69495","","null","","","null","19","","","","","","","","","","","","","","","",""
"","ISI","","html-keyboard-response","131","305310","0.0-1.0-174.0","0","0","69495","","null","","","null","19","NaN","","","","","","","","","","","","","","",""
"","S2","","html-keyboard-response","132","305581","0.0-1.0-175.0","0","0","69495","","null","","","null","19","","NaN","","","","","","","","","","","","","",""
"","response","","html-keyboard-response","133","305917","0.0-1.0-176.0-0.0","0","0","69495","","318","","","68","19","","","1","19","training","adjacent","DC","4","3","N.jpg","O.jpg","0","0","1","",""
"","feedback","","html-keyboard-response","134","306936","0.0-1.0-177.0-0.0","0","0","69495","","null","","","null","19","","","","","","","","","","","","","","","",""
"","ITI","","html-keyboard-response","135","307959","0.0-1.0-180.0","0","0","69495","","null","","","null","19","","","","","","","","","","","","","","","NaN",""
"","S1","","html-keyboard-response","136","308233","0.0-1.0-182.0","0","0","69495","","null","","","null","20","","","","","","","","","","","","","","","",""
"","ISI","","html-keyboard-response","137","309255","0.0-1.0-183.0","0","0","69495","","null","","","null","20","NaN","","","","","","","","","","","","","","",""
"","S2","","html-keyboard-response","138","309527","0.0-1.0-184.0","0","0","69495","","null","","","null","20","","NaN","","","","","","","","","","","","","",""
"","response","","html-keyboard-response","139","310274","0.0-1.0-185.0-0.0","0","0","69495","","733","","","68","20","","","1","20","training","adjacent","GF","7","6","M.jpg","P.jpg","0","0","1","",""
"","feedback","","html-keyboard-response","140","311296","0.0-1.0-186.0-0.0","0","0","69495","","null","","","null","20","","","","","","","","","","","","","","","",""
"","ITI","","html-keyboard-response","141","312318","0.0-1.0-189.0","0","0","69495","","null","","","null","20","","","","","","","","","","","","","","","NaN",""
"","S1","","html-keyboard-response","142","312592","0.0-1.0-191.0","0","0","69495","","null","","","null","21","","","","","","","","","","","","","","","",""
"","ISI","","html-keyboard-response","143","313606","0.0-1.0-192.0","0","0","69495","","null","","","null","21","NaN","","","","","","","","","","","","","","",""
"","S2","","html-keyboard-response","144","313869","0.0-1.0-193.0","0","0","69495","","null","","","null","21","","NaN","","","","","","","","","","","","","",""
"","response","","html-keyboard-response","145","314163","0.0-1.0-194.0-0.0","0","0","69495","","281","","","75","21","","","1","21","training","adjacent","DC","4","3","N.jpg","O.jpg","1","0","0","",""
"","feedback","","html-keyboard-response","146","315182","0.0-1.0-195.0-0.0","0","0","69495","","null","","","null","21","","","","","","","","","","","","","","","",""
"","time_out","","html-keyboard-response","147","317199","0.0-1.0-197.0-0.0","0","0","69495","","null","","","null","21","","","","","","","","","","","","","","","",""
"","ITI","","html-keyboard-response","148","318223","0.0-1.0-198.0","0","0","69495","","null","","","null","21","","","","","","","","","","","","","","","NaN",""
"","S1","","html-keyboard-response","149","318495","0.0-1.0-200.0","0","0","69495","","null","","","null","22","","","","","","","","","","","","","","","",""
"","ISI","","html-keyboard-response","150","319519","0.0-1.0-201.0","0","0","69495","","null","","","null","22","NaN","","","","","","","","","","","","","","",""
"","S2","","html-keyboard-response","151","319791","0.0-1.0-202.0","0","0","69495","","null","","","null","22","","NaN","","","","","","","","","","","","","",""
"","response","","html-keyboard-response","152","320082","0.0-1.0-203.0-0.0","0","0","69495","","276","","","75","22","","","1","22","training","adjacent","FE","6","5","P.jpg","Q.jpg","1","0","0","",""
"","feedback","","html-keyboard-response","153","321101","0.0-1.0-204.0-0.0","0","0","69495","","null","","","null","22","","","","","","","","","","","","","","","",""
"","time_out","","html-keyboard-response","154","323118","0.0-1.0-206.0-0.0","0","0","69495","","null","","","null","22","","","","","","","","","","","","","","","",""
"","ITI","","html-keyboard-response","155","324135","0.0-1.0-207.0","0","0","69495","","null","","","null","22","","","","","","","","","","","","","","","NaN",""
"","S1","","html-keyboard-response","156","324408","0.0-1.0-209.0","0","0","69495","","null","","","null","23","","","","","","","","","","","","","","","",""
"","ISI","","html-keyboard-response","157","325430","0.0-1.0-210.0","0","0","69495","","null","","","null","23","NaN","","","","","","","","","","","","","","",""
"","S2","","html-keyboard-response","158","325693","0.0-1.0-211.0","0","0","69495","","null","","","null","23","","NaN","","","","","","","","","","","","","",""
"","response","","html-keyboard-response","159","325745","0.0-1.0-212.0-0.0","0","0","69495","","49","","","75","23","","","1","23","training","adjacent","FG","6","7","P.jpg","M.jpg","1","1","1","",""
"","feedback","","html-keyboard-response","160","326763","0.0-1.0-213.0-0.0","0","0","69495","","null","","","null","23","","","","","","","","","","","","","","","",""
"","ITI","","html-keyboard-response","161","327782","0.0-1.0-216.0","0","0","69495","","null","","","null","23","","","","","","","","","","","","","","","NaN",""
"","S1","","html-keyboard-response","162","328055","0.0-1.0-218.0","0","0","69495","","null","","","null","24","","","","","","","","","","","","","","","",""
"","ISI","","html-keyboard-response","163","329071","0.0-1.0-219.0","0","0","69495","","null","","","null","24","NaN","","","","","","","","","","","","","","",""
"","S2","","html-keyboard-response","164","329343","0.0-1.0-220.0","0","0","69495","","null","","","null","24","","NaN","","","","","","","","","","","","","",""
"","response","","html-keyboard-response","165","329676","0.0-1.0-221.0-0.0","0","0","69495","","318","","","75","24","","","1","24","training","adjacent","FE","6","5","P.jpg","Q.jpg","1","0","0","",""
"","feedback","","html-keyboard-response","166","330694","0.0-1.0-222.0-0.0","0","0","69495","","null","","","null","24","","","","","","","","","","","","","","","",""
"","time_out","","html-keyboard-response","167","332719","0.0-1.0-224.0-0.0","0","0","69495","","null","","","null","24","","","","","","","","","","","","","","","",""
"","ITI","","html-keyboard-response","168","333743","0.0-1.0-225.0","0","0","69495","","null","","","null","24","","","","","","","","","","","","","","","NaN",""
"","S1","","html-keyboard-response","169","334015","0.0-1.0-227.0","0","0","69495","","null","","","null","25","","","","","","","","","","","","","","","",""
"","ISI","","html-keyboard-response","170","335032","0.0-1.0-228.0","0","0","69495","","null","","","null","25","NaN","","","","","","","","","","","","","","",""
"","S2","","html-keyboard-response","171","335302","0.0-1.0-229.0","0","0","69495","","null","","","null","25","","NaN","","","","","","","","","","","","","",""
"","response","","html-keyboard-response","172","335699","0.0-1.0-230.0-0.0","0","0","69495","","381","","","75","25","","","1","25","training","adjacent","GF","7","6","M.jpg","P.jpg","1","0","0","",""
"","feedback","","html-keyboard-response","173","336718","0.0-1.0-231.0-0.0","0","0","69495","","null","","","null","25","","","","","","","","","","","","","","","",""
"","time_out","","html-keyboard-response","174","338745","0.0-1.0-233.0-0.0","0","0","69495","","null","","","null","25","","","","","","","","","","","","","","","",""
"","ITI","","html-keyboard-response","175","339770","0.0-1.0-234.0","0","0","69495","","null","","","null","25","","","","","","","","","","","","","","","NaN",""
"","S1","","html-keyboard-response","176","340041","0.0-1.0-236.0","0","0","69495","","null","","","null","26","","","","","","","","","","","","","","","",""
"","ISI","","html-keyboard-response","177","341065","0.0-1.0-237.0","0","0","69495","","null","","","null","26","NaN","","","","","","","","","","","","","","",""
"","S2","","html-keyboard-response","178","341334","0.0-1.0-238.0","0","0","69495","","null","","","null","26","","NaN","","","","","","","","","","","","","",""
"","response","","html-keyboard-response","179","341809","0.0-1.0-239.0-0.0","0","0","69495","","461","","","75","26","","","1","26","training","adjacent","CB","3","2","O.jpg","L.jpg","1","0","0","",""
"","feedback","","html-keyboard-response","180","342831","0.0-1.0-240.0-0.0","0","0","69495","","null","","","null","26","","","","","","","","","","","","","","","",""
"","time_out","","html-keyboard-response","181","344846","0.0-1.0-242.0-0.0","0","0","69495","","null","","","null","26","","","","","","","","","","","","","","","",""
"","ITI","","html-keyboard-response","182","345863","0.0-1.0-243.0","0","0","69495","","null","","","null","26","","","","","","","","","","","","","","","NaN",""
"","S1","","html-keyboard-response","183","346136","0.0-1.0-245.0","0","0","69495","","null","","","null","27","","","","","","","","","","","","","","","",""
"","ISI","","html-keyboard-response","184","347162","0.0-1.0-246.0","0","0","69495","","null","","","null","27","NaN","","","","","","","","","","","","","","",""
"","S2","","html-keyboard-response","185","347434","0.0-1.0-247.0","0","0","69495","","null","","","null","27","","NaN","","","","","","","","","","","","","",""
"","response","","html-keyboard-response","186","347803","0.0-1.0-248.0-0.0","0","0","69495","","360","","","75","27","","","1","27","training","adjacent","EF","5","6","Q.jpg","P.jpg","1","1","1","",""
"","feedback","","html-keyboard-response","187","348828","0.0-1.0-249.0-0.0","0","0","69495","","null","","","null","27","","","","","","","","","","","","","","","",""
"","ITI","","html-keyboard-response","188","349849","0.0-1.0-252.0","0","0","69495","","null","","","null","27","","","","","","","","","","","","","","","NaN",""
"","S1","","html-keyboard-response","189","350117","0.0-1.0-254.0","0","0","69495","","null","","","null","28","","","","","","","","","","","","","","","",""
"","ISI","","html-keyboard-response","190","351134","0.0-1.0-255.0","0","0","69495","","null","","","null","28","NaN","","","","","","","","","","","","","","",""
"","S2","","html-keyboard-response","191","351406","0.0-1.0-256.0","0","0","69495","","null","","","null","28","","NaN","","","","","","","","","","","","","",""
"","response","","html-keyboard-response","192","353177","0.0-1.0-257.0-0.0","0","0","69495","","null","","","null","28","","","1","28","training","adjacent","AB","1","2","R.jpg","L.jpg","NaN","1","0","",""
"","too_slow_prompt","","html-keyboard-response","193","354199","0.0-1.0-259.0-0.0","1","0","69495","","null","","","null","","","","","","","","","","","","","","","","",""
"","time_out","","html-keyboard-response","194","356220","0.0-1.0-260.0-0.0","0","0","69495","","null","","","null","28","","","","","","","","","","","","","","","",""
"","ITI","","html-keyboard-response","195","357241","0.0-1.0-261.0","0","0","69495","","null","","","null","28","","","","","","","","","","","","","","","NaN",""
"","S1","","html-keyboard-response","196","357513","0.0-1.0-263.0","0","0","69495","","null","","","null","29","","","","","","","","","","","","","","","",""
"","ISI","","html-keyboard-response","197","358535","0.0-1.0-264.0","0","0","69495","","null","","","null","29","NaN","","","","","","","","","","","","","","",""
"","S2","","html-keyboard-response","198","358806","0.0-1.0-265.0","0","0","69495","","null","","","null","29","","NaN","","","","","","","","","","","","","",""
"","response","","html-keyboard-response","199","359197","0.0-1.0-266.0-0.0","0","0","69495","","374","","","75","29","","","1","29","training","adjacent","AB","1","2","R.jpg","L.jpg","1","1","1","",""
"","feedback","","html-keyboard-response","200","360216","0.0-1.0-267.0-0.0","0","0","69495","","null","","","null","29","","","","","","","","","","","","","","","",""
"","ITI","","html-keyboard-response","201","361238","0.0-1.0-270.0","0","0","69495","","null","","","null","29","","","","","","","","","","","","","","","NaN",""
"","S1","","html-keyboard-response","202","361512","0.0-1.0-272.0","0","0","69495","","null","","","null","30","","","","","","","","","","","","","","","",""
"","ISI","","html-keyboard-response","203","362537","0.0-1.0-273.0","0","0","69495","","null","","","null","30","NaN","","","","","","","","","","","","","","",""
"","S2","","html-keyboard-response","204","362806","0.0-1.0-274.0","0","0","69495","","null","","","null","30","","NaN","","","","","","","","","","","","","",""
"","response","","html-keyboard-response","205","363159","0.0-1.0-275.0-0.0","0","0","69495","","336","","","68","30","","","1","30","training","adjacent","DE","4","5","N.jpg","Q.jpg","0","1","0","",""
"","feedback","","html-keyboard-response","206","364185","0.0-1.0-276.0-0.0","0","0","69495","","null","","","null","30","","","","","","","","","","","","","","","",""
"","time_out","","html-keyboard-response","207","366206","0.0-1.0-278.0-0.0","0","0","69495","","null","","","null","30","","","","","","","","","","","","","","","",""
"","ITI","","html-keyboard-response","208","367226","0.0-1.0-279.0","0","0","69495","","null","","","null","30","","","","","","","","","","","","","","","NaN",""
"","S1","","html-keyboard-response","209","367496","0.0-1.0-281.0","0","0","69495","","null","","","null","31","","","","","","","","","","","","","","","",""
"","ISI","","html-keyboard-response","210","368518","0.0-1.0-282.0","0","0","69495","","null","","","null","31","NaN","","","","","","","","","","","","","","",""
"","S2","","html-keyboard-response","211","368791","0.0-1.0-283.0","0","0","69495","","null","","","null","31","","NaN","","","","","","","","","","","","","",""
"","response","","html-keyboard-response","212","369033","0.0-1.0-284.0-0.0","0","0","69495","","227","","","75","31","","","1","31","training","adjacent","FE","6","5","P.jpg","Q.jpg","1","0","0","",""
"","feedback","","html-keyboard-response","213","370057","0.0-1.0-285.0-0.0","0","0","69495","","null","","","null","31","","","","","","","","","","","","","","","",""
"","time_out","","html-keyboard-response","214","372080","0.0-1.0-287.0-0.0","0","0","69495","","null","","","null","31","","","","","","","","","","","","","","","",""
"","ITI","","html-keyboard-response","215","373103","0.0-1.0-288.0","0","0","69495","","null","","","null","31","","","","","","","","","","","","","","","NaN",""
"","S1","","html-keyboard-response","216","373374","0.0-1.0-290.0","0","0","69495","","null","","","null","32","","","","","","","","","","","","","","","",""
"","ISI","","html-keyboard-response","217","374389","0.0-1.0-291.0","0","0","69495","","null","","","null","32","NaN","","","","","","","","","","","","","","",""
"","S2","","html-keyboard-response","218","374663","0.0-1.0-292.0","0","0","69495","","null","","","null","32","","NaN","","","","","","","","","","","","","",""
"","response","","html-keyboard-response","219","374867","0.0-1.0-293.0-0.0","0","0","69495","","188","","","75","32","","","1","32","training","adjacent","AB","1","2","R.jpg","L.jpg","1","1","1","",""
"","feedback","","html-keyboard-response","220","375889","0.0-1.0-294.0-0.0","0","0","69495","","null","","","null","32","","","","","","","","","","","","","","","",""
"","ITI","","html-keyboard-response","221","376909","0.0-1.0-297.0","0","0","69495","","null","","","null","32","","","","","","","","","","","","","","","NaN",""
"","S1","","html-keyboard-response","222","377181","0.0-1.0-299.0","0","0","69495","","null","","","null","33","","","","","","","","","","","","","","","",""
"","ISI","","html-keyboard-response","223","378199","0.0-1.0-300.0","0","0","69495","","null","","","null","33","NaN","","","","","","","","","","","","","","",""
"","S2","","html-keyboard-response","224","378472","0.0-1.0-301.0","0","0","69495","","null","","","null","33","","NaN","","","","","","","","","","","","","",""
"","response","","html-keyboard-response","225","378748","0.0-1.0-302.0-0.0","0","0","69495","","260","","","68","33","","","1","33","training","adjacent","GF","7","6","M.jpg","P.jpg","0","0","1","",""
"","feedback","","html-keyboard-response","226","379774","0.0-1.0-303.0-0.0","0","0","69495","","null","","","null","33","","","","","","","","","","","","","","","",""
"","ITI","","html-keyboard-response","227","380802","0.0-1.0-306.0","0","0","69495","","null","","","null","33","","","","","","","","","","","","","","","NaN",""
"","S1","","html-keyboard-response","228","381070","0.0-1.0-308.0","0","0","69495","","null","","","null","34","","","","","","","","","","","","","","","",""
"","ISI","","html-keyboard-response","229","382087","0.0-1.0-309.0","0","0","69495","","null","","","null","34","NaN","","","","","","","","","","","","","","",""
"","S2","","html-keyboard-response","230","382360","0.0-1.0-310.0","0","0","69495","","null","","","null","34","","NaN","","","","","","","","","","","","","",""
"","response","","html-keyboard-response","231","382811","0.0-1.0-311.0-0.0","0","0","69495","","437","","","68","34","","","1","34","training","adjacent","CD","3","4","O.jpg","N.jpg","0","1","0","",""
"","feedback","","html-keyboard-response","232","383833","0.0-1.0-312.0-0.0","0","0","69495","","null","","","null","34","","","","","","","","","","","","","","","",""
"","time_out","","html-keyboard-response","233","385854","0.0-1.0-314.0-0.0","0","0","69495","","null","","","null","34","","","","","","","","","","","","","","","",""
"","ITI","","html-keyboard-response","234","386871","0.0-1.0-315.0","0","0","69495","","null","","","null","34","","","","","","","","","","","","","","","NaN",""
"","S1","","html-keyboard-response","235","387143","0.0-1.0-317.0","0","0","69495","","null","","","null","35","","","","","","","","","","","","","","","",""
"","ISI","","html-keyboard-response","236","388158","0.0-1.0-318.0","0","0","69495","","null","","","null","35","NaN","","","","","","","","","","","","","","",""
"","S2","","html-keyboard-response","237","388432","0.0-1.0-319.0","0","0","69495","","null","","","null","35","","NaN","","","","","","","","","","","","","",""
"","response","","html-keyboard-response","238","388620","0.0-1.0-320.0-0.0","0","0","69495","","176","","","75","35","","","1","35","training","adjacent","FG","6","7","P.jpg","M.jpg","1","1","1","",""
"","feedback","","html-keyboard-response","239","389640","0.0-1.0-321.0-0.0","0","0","69495","","null","","","null","35","","","","","","","","","","","","","","","",""
"","ITI","","html-keyboard-response","240","390662","0.0-1.0-324.0","0","0","69495","","null","","","null","35","","","","","","","","","","","","","","","NaN",""
"","S1","","html-keyboard-response","241","390936","0.0-1.0-326.0","0","0","69495","","null","","","null","36","","","","","","","","","","","","","","","",""
"","ISI","","html-keyboard-response","242","391959","0.0-1.0-327.0","0","0","69495","","null","","","null","36","NaN","","","","","","","","","","","","","","",""
"","S2","","html-keyboard-response","243","392234","0.0-1.0-328.0","0","0","69495","","null","","","null","36","","NaN","","","","","","","","","","","","","",""
"","response","","html-keyboard-response","244","392874","0.0-1.0-329.0-0.0","0","0","69495","","627","","","68","36","","","1","36","training","adjacent","FG","6","7","P.jpg","M.jpg","0","1","0","",""
"","feedback","","html-keyboard-response","245","393895","0.0-1.0-330.0-0.0","0","0","69495","","null","","","null","36","","","","","","","","","","","","","","","",""
"","time_out","","html-keyboard-response","246","395917","0.0-1.0-332.0-0.0","0","0","69495","","null","","","null","36","","","","","","","","","","","","","","","",""
"","ITI","","html-keyboard-response","247","396936","0.0-1.0-333.0","0","0","69495","","null","","","null","36","","","","","","","","","","","","","","","NaN",""
"","S1","","html-keyboard-response","248","397205","0.0-1.0-335.0","0","0","69495","","null","","","null","37","","","","","","","","","","","","","","","",""
"","ISI","","html-keyboard-response","249","398229","0.0-1.0-336.0","0","0","69495","","null","","","null","37","NaN","","","","","","","","","","","","","","",""
"","S2","","html-keyboard-response","250","398505","0.0-1.0-337.0","0","0","69495","","null","","","null","37","","NaN","","","","","","","","","","","","","",""
"","response","","html-keyboard-response","251","398570","0.0-1.0-338.0-0.0","0","0","69495","","59","","","75","37","","","1","37","training","adjacent","EF","5","6","Q.jpg","P.jpg","1","1","1","",""
"","feedback","","html-keyboard-response","252","399591","0.0-1.0-339.0-0.0","0","0","69495","","null","","","null","37","","","","","","","","","","","","","","","",""
"","ITI","","html-keyboard-response","253","400616","0.0-1.0-342.0","0","0","69495","","null","","","null","37","","","","","","","","","","","","","","","NaN",""
"","S1","","html-keyboard-response","254","400888","0.0-1.0-344.0","0","0","69495","","null","","","null","38","","","","","","","","","","","","","","","",""
"","ISI","","html-keyboard-response","255","401912","0.0-1.0-345.0","0","0","69495","","null","","","null","38","NaN","","","","","","","","","","","","","","",""
"","S2","","html-keyboard-response","256","402182","0.0-1.0-346.0","0","0","69495","","null","","","null","38","","NaN","","","","","","","","","","","","","",""
"","response","","html-keyboard-response","257","402538","0.0-1.0-347.0-0.0","0","0","69495","","343","","","75","38","","","1","38","training","adjacent","BA","2","1","L.jpg","R.jpg","1","0","0","",""
"","feedback","","html-keyboard-response","258","403559","0.0-1.0-348.0-0.0","0","0","69495","","null","","","null","38","","","","","","","","","","","","","","","",""
"","time_out","","html-keyboard-response","259","405583","0.0-1.0-350.0-0.0","0","0","69495","","null","","","null","38","","","","","","","","","","","","","","","",""
"","ITI","","html-keyboard-response","260","406601","0.0-1.0-351.0","0","0","69495","","null","","","null","38","","","","","","","","","","","","","","","NaN",""
"","S1","","html-keyboard-response","261","406872","0.0-1.0-353.0","0","0","69495","","null","","","null","39","","","","","","","","","","","","","","","",""
"","ISI","","html-keyboard-response","262","407895","0.0-1.0-354.0","0","0","69495","","null","","","null","39","NaN","","","","","","","","","","","","","","",""
"","S2","","html-keyboard-response","263","408167","0.0-1.0-355.0","0","0","69495","","null","","","null","39","","NaN","","","","","","","","","","","","","",""
"","response","","html-keyboard-response","264","408289","0.0-1.0-356.0-0.0","0","0","69495","","109","","","75","39","","","1","39","training","adjacent","DC","4","3","N.jpg","O.jpg","1","0","0","",""
"","feedback","","html-keyboard-response","265","409310","0.0-1.0-357.0-0.0","0","0","69495","","null","","","null","39","","","","","","","","","","","","","","","",""
"","time_out","","html-keyboard-response","266","411326","0.0-1.0-359.0-0.0","0","0","69495","","null","","","null","39","","","","","","","","","","","","","","","",""
"","ITI","","html-keyboard-response","267","412343","0.0-1.0-360.0","0","0","69495","","null","","","null","39","","","","","","","","","","","","","","","NaN",""
"","S1","","html-keyboard-response","268","412617","0.0-1.0-362.0","0","0","69495","","null","","","null","40","","","","","","","","","","","","","","","",""
"","ISI","","html-keyboard-response","269","413639","0.0-1.0-363.0","0","0","69495","","null","","","null","40","NaN","","","","","","","","","","","","","","",""
"","S2","","html-keyboard-response","270","413910","0.0-1.0-364.0","0","0","69495","","null","","","null","40","","NaN","","","","","","","","","","","","","",""
"","response","","html-keyboard-response","271","414121","0.0-1.0-365.0-0.0","0","0","69495","","195","","","68","40","","","1","40","training","adjacent","BC","2","3","L.jpg","O.jpg","0","1","0","",""
"","feedback","","html-keyboard-response","272","415142","0.0-1.0-366.0-0.0","0","0","69495","","null","","","null","40","","","","","","","","","","","","","","","",""
"","time_out","","html-keyboard-response","273","417166","0.0-1.0-368.0-0.0","0","0","69495","","null","","","null","40","","","","","","","","","","","","","","","",""
"","ITI","","html-keyboard-response","274","418183","0.0-1.0-369.0","0","0","69495","","null","","","null","40","","","","","","","","","","","","","","","NaN",""
"","S1","","html-keyboard-response","275","418455","0.0-1.0-371.0","0","0","69495","","null","","","null","41","","","","","","","","","","","","","","","",""
"","ISI","","html-keyboard-response","276","419471","0.0-1.0-372.0","0","0","69495","","null","","","null","41","NaN","","","","","","","","","","","","","","",""
"","S2","","html-keyboard-response","277","419741","0.0-1.0-373.0","0","0","69495","","null","","","null","41","","NaN","","","","","","","","","","","","","",""
"","response","","html-keyboard-response","278","420397","0.0-1.0-374.0-0.0","0","0","69495","","642","","","68","41","","","1","41","training","adjacent","EF","5","6","Q.jpg","P.jpg","0","1","0","",""
"","feedback","","html-keyboard-response","279","421416","0.0-1.0-375.0-0.0","0","0","69495","","null","","","null","41","","","","","","","","","","","","","","","",""
"","time_out","","html-keyboard-response","280","423441","0.0-1.0-377.0-0.0","0","0","69495","","null","","","null","41","","","","","","","","","","","","","","","",""
"","ITI","","html-keyboard-response","281","424462","0.0-1.0-378.0","0","0","69495","","null","","","null","41","","","","","","","","","","","","","","","NaN",""
"","S1","","html-keyboard-response","282","424735","0.0-1.0-380.0","0","0","69495","","null","","","null","42","","","","","","","","","","","","","","","",""
"","ISI","","html-keyboard-response","283","425751","0.0-1.0-381.0","0","0","69495","","null","","","null","42","NaN","","","","","","","","","","","","","","",""
"","S2","","html-keyboard-response","284","426022","0.0-1.0-382.0","0","0","69495","","null","","","null","42","","NaN","","","","","","","","","","","","","",""
"","response","","html-keyboard-response","285","426610","0.0-1.0-383.0-0.0","0","0","69495","","574","","","68","42","","","1","42","training","adjacent","ED","5","4","Q.jpg","N.jpg","0","0","1","",""
"","feedback","","html-keyboard-response","286","427631","0.0-1.0-384.0-0.0","0","0","69495","","null","","","null","42","","","","","","","","","","","","","","","",""
"","ITI","","html-keyboard-response","287","428657","0.0-1.0-387.0","0","0","69495","","null","","","null","42","","","","","","","","","","","","","","","NaN",""
"","S1","","html-keyboard-response","288","428925","0.0-1.0-389.0","0","0","69495","","null","","","null","43","","","","","","","","","","","","","","","",""
"","ISI","","html-keyboard-response","289","429942","0.0-1.0-390.0","0","0","69495","","null","","","null","43","NaN","","","","","","","","","","","","","","",""
"","S2","","html-keyboard-response","290","430216","0.0-1.0-391.0","0","0","69495","","null","","","null","43","","NaN","","","","","","","","","","","","","",""
"","response","","html-keyboard-response","291","430506","0.0-1.0-392.0-0.0","0","0","69495","","276","","","68","43","","","1","43","training","adjacent","DC","4","3","N.jpg","O.jpg","0","0","1","",""
"","feedback","","html-keyboard-response","292","431527","0.0-1.0-393.0-0.0","0","0","69495","","null","","","null","43","","","","","","","","","","","","","","","",""
"","ITI","","html-keyboard-response","293","432554","0.0-1.0-396.0","0","0","69495","","null","","","null","43","","","","","","","","","","","","","","","NaN",""
"","S1","","html-keyboard-response","294","432823","0.0-1.0-398.0","0","0","69495","","null","","","null","44","","","","","","","","","","","","","","","",""
"","ISI","","html-keyboard-response","295","433847","0.0-1.0-399.0","0","0","69495","","null","","","null","44","NaN","","","","","","","","","","","","","","",""
"","S2","","html-keyboard-response","296","434120","0.0-1.0-400.0","0","0","69495","","null","","","null","44","","NaN","","","","","","","","","","","","","",""
"","response","","html-keyboard-response","297","434593","0.0-1.0-401.0-0.0","0","0","69495","","459","","","68","44","","","1","44","training","adjacent","DE","4","5","N.jpg","Q.jpg","0","1","0","",""
"","feedback","","html-keyboard-response","298","435616","0.0-1.0-402.0-0.0","0","0","69495","","null","","","null","44","","","","","","","","","","","","","","","",""
"","time_out","","html-keyboard-response","299","437640","0.0-1.0-404.0-0.0","0","0","69495","","null","","","null","44","","","","","","","","","","","","","","","",""
"","ITI","","html-keyboard-response","300","438664","0.0-1.0-405.0","0","0","69495","","null","","","null","44","","","","","","","","","","","","","","","NaN",""
"","S1","","html-keyboard-response","301","438936","0.0-1.0-407.0","0","0","69495","","null","","","null","45","","","","","","","","","","","","","","","",""
"","ISI","","html-keyboard-response","302","439958","0.0-1.0-408.0","0","0","69495","","null","","","null","45","NaN","","","","","","","","","","","","","","",""
"","S2","","html-keyboard-response","303","440233","0.0-1.0-409.0","0","0","69495","","null","","","null","45","","NaN","","","","","","","","","","","","","",""
"","response","","html-keyboard-response","304","440548","0.0-1.0-410.0-0.0","0","0","69495","","299","","","68","45","","","1","45","training","adjacent","ED","5","4","Q.jpg","N.jpg","0","0","1","",""
"","feedback","","html-keyboard-response","305","441569","0.0-1.0-411.0-0.0","0","0","69495","","null","","","null","45","","","","","","","","","","","","","","","",""
"","ITI","","html-keyboard-response","306","442588","0.0-1.0-414.0","0","0","69495","","null","","","null","45","","","","","","","","","","","","","","","NaN",""
"","S1","","html-keyboard-response","307","442854","0.0-1.0-416.0","0","0","69495","","null","","","null","46","","","","","","","","","","","","","","","",""
"","ISI","","html-keyboard-response","308","443871","0.0-1.0-417.0","0","0","69495","","null","","","null","46","NaN","","","","","","","","","","","","","","",""
"","S2","","html-keyboard-response","309","444143","0.0-1.0-418.0","0","0","69495","","null","","","null","46","","NaN","","","","","","","","","","","","","",""
"","response","","html-keyboard-response","310","444452","0.0-1.0-419.0-0.0","0","0","69495","","292","","","75","46","","","1","46","training","adjacent","EF","5","6","Q.jpg","P.jpg","1","1","1","",""
"","feedback","","html-keyboard-response","311","445473","0.0-1.0-420.0-0.0","0","0","69495","","null","","","null","46","","","","","","","","","","","","","","","",""
"","ITI","","html-keyboard-response","312","446496","0.0-1.0-423.0","0","0","69495","","null","","","null","46","","","","","","","","","","","","","","","NaN",""
"","S1","","html-keyboard-response","313","446768","0.0-1.0-425.0","0","0","69495","","null","","","null","47","","","","","","","","","","","","","","","",""
"","ISI","","html-keyboard-response","314","447790","0.0-1.0-426.0","0","0","69495","","null","","","null","47","NaN","","","","","","","","","","","","","","",""
"","S2","","html-keyboard-response","315","448062","0.0-1.0-427.0","0","0","69495","","null","","","null","47","","NaN","","","","","","","","","","","","","",""
"","response","","html-keyboard-response","316","448411","0.0-1.0-428.0-0.0","0","0","69495","","339","","","75","47","","","1","47","training","adjacent","FE","6","5","P.jpg","Q.jpg","1","0","0","",""
"","feedback","","html-keyboard-response","317","449431","0.0-1.0-429.0-0.0","0","0","69495","","null","","","null","47","","","","","","","","","","","","","","","",""
"","time_out","","html-keyboard-response","318","451457","0.0-1.0-431.0-0.0","0","0","69495","","null","","","null","47","","","","","","","","","","","","","","","",""
"","ITI","","html-keyboard-response","319","452479","0.0-1.0-432.0","0","0","69495","","null","","","null","47","","","","","","","","","","","","","","","NaN",""
"","block_over","","html-keyboard-response","320","459985","0.0-1.0-433.0-0.0","0","0","69495","","7488","","","32","47","","","","","","","","","","","","","","","",""
"","S1","","html-keyboard-response","321","460256","0.0-1.0-434.0","0","0","69495","","null","","","null","48","","","","","","","","","","","","","","","",""
"","ISI","","html-keyboard-response","322","461279","0.0-1.0-435.0","0","0","69495","","null","","","null","48","NaN","","","","","","","","","","","","","","",""
"","S2","","html-keyboard-response","323","461551","0.0-1.0-436.0","0","0","69495","","null","","","null","48","","NaN","","","","","","","","","","","","","",""
"","response","","html-keyboard-response","324","462128","0.0-1.0-437.0-0.0","0","0","69495","","563","","","75","48","","","2","48","training","adjacent","EF","5","6","Q.jpg","P.jpg","1","1","1","",""
"","feedback","","html-keyboard-response","325","463154","0.0-1.0-438.0-0.0","0","0","69495","","null","","","null","48","","","","","","","","","","","","","","","",""
"","ITI","","html-keyboard-response","326","464176","0.0-1.0-441.0","0","0","69495","","null","","","null","48","","","","","","","","","","","","","","","NaN",""
"","S1","","html-keyboard-response","327","464447","0.0-1.0-443.0","0","0","69495","","null","","","null","49","","","","","","","","","","","","","","","",""
"","ISI","","html-keyboard-response","328","465462","0.0-1.0-444.0","0","0","69495","","null","","","null","49","NaN","","","","","","","","","","","","","","",""
"","S2","","html-keyboard-response","329","465735","0.0-1.0-445.0","0","0","69495","","null","","","null","49","","NaN","","","","","","","","","","","","","",""
"","response","","html-keyboard-response","330","466443","0.0-1.0-446.0-0.0","0","0","69495","","691","","","68","49","","","2","49","training","adjacent","BA","2","1","L.jpg","R.jpg","0","0","1","",""
"","feedback","","html-keyboard-response","331","467463","0.0-1.0-447.0-0.0","0","0","69495","","null","","","null","49","","","","","","","","","","","","","","","",""
"","ITI","","html-keyboard-response","332","468487","0.0-1.0-450.0","0","0","69495","","null","","","null","49","","","","","","","","","","","","","","","NaN",""
"","S1","","html-keyboard-response","333","468761","0.0-1.0-452.0","0","0","69495","","null","","","null","50","","","","","","","","","","","","","","","",""
"","ISI","","html-keyboard-response","334","469782","0.0-1.0-453.0","0","0","69495","","null","","","null","50","NaN","","","","","","","","","","","","","","",""
"","S2","","html-keyboard-response","335","470055","0.0-1.0-454.0","0","0","69495","","null","","","null","50","","NaN","","","","","","","","","","","","","",""
"","response","","html-keyboard-response","336","470546","0.0-1.0-455.0-0.0","0","0","69495","","476","","","68","50","","","2","50","training","adjacent","GF","7","6","M.jpg","P.jpg","0","0","1","",""
"","feedback","","html-keyboard-response","337","471566","0.0-1.0-456.0-0.0","0","0","69495","","null","","","null","50","","","","","","","","","","","","","","","",""
"","ITI","","html-keyboard-response","338","472598","0.0-1.0-459.0","0","0","69495","","null","","","null","50","","","","","","","","","","","","","","","NaN",""
"","S1","","html-keyboard-response","339","472872","0.0-1.0-461.0","0","0","69495","","null","","","null","51","","","","","","","","","","","","","","","",""
"","ISI","","html-keyboard-response","340","473895","0.0-1.0-462.0","0","0","69495","","null","","","null","51","NaN","","","","","","","","","","","","","","",""
"","S2","","html-keyboard-response","341","474165","0.0-1.0-463.0","0","0","69495","","null","","","null","51","","NaN","","","","","","","","","","","","","",""
"","response","","html-keyboard-response","342","474586","0.0-1.0-464.0-0.0","0","0","69495","","404","","","75","51","","","2","51","training","adjacent","AB","1","2","R.jpg","L.jpg","1","1","1","",""
"","feedback","","html-keyboard-response","343","475607","0.0-1.0-465.0-0.0","0","0","69495","","null","","","null","51","","","","","","","","","","","","","","","",""
"","ITI","","html-keyboard-response","344","476629","0.0-1.0-468.0","0","0","69495","","null","","","null","51","","","","","","","","","","","","","","","NaN",""
"","S1","","html-keyboard-response","345","476904","0.0-1.0-470.0","0","0","69495","","null","","","null","52","","","","","","","","","","","","","","","",""
"","ISI","","html-keyboard-response","346","477926","0.0-1.0-471.0","0","0","69495","","null","","","null","52","NaN","","","","","","","","","","","","","","",""
"","S2","","html-keyboard-response","347","478197","0.0-1.0-472.0","0","0","69495","","null","","","null","52","","NaN","","","","","","","","","","","","","",""
"","response","","html-keyboard-response","348","478885","0.0-1.0-473.0-0.0","0","0","69495","","672","","","68","52","","","2","52","training","adjacent","BA","2","1","L.jpg","R.jpg","0","0","1","",""
"","feedback","","html-keyboard-response","349","479907","0.0-1.0-474.0-0.0","0","0","69495","","null","","","null","52","","","","","","","","","","","","","","","",""
"","ITI","","html-keyboard-response","350","480928","0.0-1.0-477.0","0","0","69495","","null","","","null","52","","","","","","","","","","","","","","","NaN",""
"","S1","","html-keyboard-response","351","481199","0.0-1.0-479.0","0","0","69495","","null","","","null","53","","","","","","","","","","","","","","","",""
"","ISI","","html-keyboard-response","352","482223","0.0-1.0-480.0","0","0","69495","","null","","","null","53","NaN","","","","","","","","","","","","","","",""
"","S2","","html-keyboard-response","353","482494","0.0-1.0-481.0","0","0","69495","","null","","","null","53","","NaN","","","","","","","","","","","","","",""
"","response","","html-keyboard-response","354","482949","0.0-1.0-482.0-0.0","0","0","69495","","438","","","68","53","","","2","53","training","adjacent","CD","3","4","O.jpg","N.jpg","0","1","0","",""
"","feedback","","html-keyboard-response","355","483966","0.0-1.0-483.0-0.0","0","0","69495","","null","","","null","53","","","","","","","","","","","","","","","",""
"","time_out","","html-keyboard-response","356","485991","0.0-1.0-485.0-0.0","0","0","69495","","null","","","null","53","","","","","","","","","","","","","","","",""
"","ITI","","html-keyboard-response","357","487005","0.0-1.0-486.0","0","0","69495","","null","","","null","53","","","","","","","","","","","","","","","NaN",""
"","S1","","html-keyboard-response","358","487278","0.0-1.0-488.0","0","0","69495","","null","","","null","54","","","","","","","","","","","","","","","",""
"","ISI","","html-keyboard-response","359","488294","0.0-1.0-489.0","0","0","69495","","null","","","null","54","NaN","","","","","","","","","","","","","","",""
"","S2","","html-keyboard-response","360","488568","0.0-1.0-490.0","0","0","69495","","null","","","null","54","","NaN","","","","","","","","","","","","","",""
"","response","","html-keyboard-response","361","488837","0.0-1.0-491.0-0.0","0","0","69495","","253","","","75","54","","","2","54","training","adjacent","FE","6","5","P.jpg","Q.jpg","1","0","0","",""
"","feedback","","html-keyboard-response","362","489856","0.0-1.0-492.0-0.0","0","0","69495","","null","","","null","54","","","","","","","","","","","","","","","",""
"","time_out","","html-keyboard-response","363","491880","0.0-1.0-494.0-0.0","0","0","69495","","null","","","null","54","","","","","","","","","","","","","","","",""
"","ITI","","html-keyboard-response","364","492902","0.0-1.0-495.0","0","0","69495","","null","","","null","54","","","","","","","","","","","","","","","NaN",""
"","S1","","html-keyboard-response","365","493175","0.0-1.0-497.0","0","0","69495","","null","","","null","55","","","","","","","","","","","","","","","",""
"","ISI","","html-keyboard-response","366","494192","0.0-1.0-498.0","0","0","69495","","null","","","null","55","NaN","","","","","","","","","","","","","","",""
"","S2","","html-keyboard-response","367","494463","0.0-1.0-499.0","0","0","69495","","null","","","null","55","","NaN","","","","","","","","","","","","","",""
"","response","","html-keyboard-response","368","494858","0.0-1.0-500.0-0.0","0","0","69495","","379","","","75","55","","","2","55","training","adjacent","FG","6","7","P.jpg","M.jpg","1","1","1","",""
"","feedback","","html-keyboard-response","369","495879","0.0-1.0-501.0-0.0","0","0","69495","","null","","","null","55","","","","","","","","","","","","","","","",""
"","ITI","","html-keyboard-response","370","496902","0.0-1.0-504.0","0","0","69495","","null","","","null","55","","","","","","","","","","","","","","","NaN",""
"","S1","","html-keyboard-response","371","497175","0.0-1.0-506.0","0","0","69495","","null","","","null","56","","","","","","","","","","","","","","","",""
"","ISI","","html-keyboard-response","372","498198","0.0-1.0-507.0","0","0","69495","","null","","","null","56","NaN","","","","","","","","","","","","","","",""
"","S2","","html-keyboard-response","373","498472","0.0-1.0-508.0","0","0","69495","","null","","","null","56","","NaN","","","","","","","","","","","","","",""
"","response","","html-keyboard-response","374","499173","0.0-1.0-509.0-0.0","0","0","69495","","684","","","75","56","","","2","56","training","adjacent","CB","3","2","O.jpg","L.jpg","1","0","0","",""
"","feedback","","html-keyboard-response","375","500191","0.0-1.0-510.0-0.0","0","0","69495","","null","","","null","56","","","","","","","","","","","","","","","",""
"","time_out","","html-keyboard-response","376","502215","0.0-1.0-512.0-0.0","0","0","69495","","null","","","null","56","","","","","","","","","","","","","","","",""
"","ITI","","html-keyboard-response","377","503233","0.0-1.0-513.0","0","0","69495","","null","","","null","56","","","","","","","","","","","","","","","NaN",""
"","S1","","html-keyboard-response","378","503502","0.0-1.0-515.0","0","0","69495","","null","","","null","57","","","","","","","","","","","","","","","",""
"","ISI","","html-keyboard-response","379","504519","0.0-1.0-516.0","0","0","69495","","null","","","null","57","NaN","","","","","","","","","","","","","","",""
"","S2","","html-keyboard-response","380","504790","0.0-1.0-517.0","0","0","69495","","null","","","null","57","","NaN","","","","","","","","","","","","","",""
"","response","","html-keyboard-response","381","505234","0.0-1.0-518.0-0.0","0","0","69495","","429","","","68","57","","","2","57","training","adjacent","EF","5","6","Q.jpg","P.jpg","0","1","0","",""
"","feedback","","html-keyboard-response","382","506255","0.0-1.0-519.0-0.0","0","0","69495","","null","","","null","57","","","","","","","","","","","","","","","",""
"","time_out","","html-keyboard-response","383","508281","0.0-1.0-521.0-0.0","0","0","69495","","null","","","null","57","","","","","","","","","","","","","","","",""
"","ITI","","html-keyboard-response","384","509303","0.0-1.0-522.0","0","0","69495","","null","","","null","57","","","","","","","","","","","","","","","NaN",""
"","S1","","html-keyboard-response","385","509576","0.0-1.0-524.0","0","0","69495","","null","","","null","58","","","","","","","","","","","","","","","",""
"","ISI","","html-keyboard-response","386","510599","0.0-1.0-525.0","0","0","69495","","null","","","null","58","NaN","","","","","","","","","","","","","","",""
"","S2","","html-keyboard-response","387","510871","0.0-1.0-526.0","0","0","69495","","null","","","null","58","","NaN","","","","","","","","","","","","","",""
"","response","","html-keyboard-response","388","511308","0.0-1.0-527.0-0.0","0","0","69495","","427","","","75","58","","","2","58","training","adjacent","DC","4","3","N.jpg","O.jpg","1","0","0","",""
"","feedback","","html-keyboard-response","389","512327","0.0-1.0-528.0-0.0","0","0","69495","","null","","","null","58","","","","","","","","","","","","","","","",""
"","time_out","","html-keyboard-response","390","514351","0.0-1.0-530.0-0.0","0","0","69495","","null","","","null","58","","","","","","","","","","","","","","","",""
"","ITI","","html-keyboard-response","391","515367","0.0-1.0-531.0","0","0","69495","","null","","","null","58","","","","","","","","","","","","","","","NaN",""
"","S1","","html-keyboard-response","392","515640","0.0-1.0-533.0","0","0","69495","","null","","","null","59","","","","","","","","","","","","","","","",""
"","ISI","","html-keyboard-response","393","516664","0.0-1.0-534.0","0","0","69495","","null","","","null","59","NaN","","","","","","","","","","","","","","",""
"","S2","","html-keyboard-response","394","516935","0.0-1.0-535.0","0","0","69495","","null","","","null","59","","NaN","","","","","","","","","","","","","",""
"","response","","html-keyboard-response","395","517816","0.0-1.0-536.0-0.0","0","0","69495","","867","","","75","59","","","2","59","training","adjacent","EF","5","6","Q.jpg","P.jpg","1","1","1","",""
"","feedback","","html-keyboard-response","396","518839","0.0-1.0-537.0-0.0","0","0","69495","","null","","","null","59","","","","","","","","","","","","","","","",""
"","ITI","","html-keyboard-response","397","519865","0.0-1.0-540.0","0","0","69495","","null","","","null","59","","","","","","","","","","","","","","","NaN",""
"","S1","","html-keyboard-response","398","520134","0.0-1.0-542.0","0","0","69495","","null","","","null","60","","","","","","","","","","","","","","","",""
"","ISI","","html-keyboard-response","399","521150","0.0-1.0-543.0","0","0","69495","","null","","","null","60","NaN","","","","","","","","","","","","","","",""
"","S2","","html-keyboard-response","400","521422","0.0-1.0-544.0","0","0","69495","","null","","","null","60","","NaN","","","","","","","","","","","","","",""
"","response","","html-keyboard-response","401","521941","0.0-1.0-545.0-0.0","0","0","69495","","504","","","68","60","","","2","60","training","adjacent","BC","2","3","L.jpg","O.jpg","0","1","0","",""
"","feedback","","html-keyboard-response","402","522960","0.0-1.0-546.0-0.0","0","0","69495","","null","","","null","60","","","","","","","","","","","","","","","",""
"","time_out","","html-keyboard-response","403","524984","0.0-1.0-548.0-0.0","0","0","69495","","null","","","null","60","","","","","","","","","","","","","","","",""
"","ITI","","html-keyboard-response","404","526008","0.0-1.0-549.0","0","0","69495","","null","","","null","60","","","","","","","","","","","","","","","NaN",""
"","S1","","html-keyboard-response","405","526280","0.0-1.0-551.0","0","0","69495","","null","","","null","61","","","","","","","","","","","","","","","",""
"","ISI","","html-keyboard-response","406","527303","0.0-1.0-552.0","0","0","69495","","null","","","null","61","NaN","","","","","","","","","","","","","","",""
"","S2","","html-keyboard-response","407","527574","0.0-1.0-553.0","0","0","69495","","null","","","null","61","","NaN","","","","","","","","","","","","","",""
"","response","","html-keyboard-response","408","528196","0.0-1.0-554.0-0.0","0","0","69495","","605","","","68","61","","","2","61","training","adjacent","DE","4","5","N.jpg","Q.jpg","0","1","0","",""
"","feedback","","html-keyboard-response","409","529213","0.0-1.0-555.0-0.0","0","0","69495","","null","","","null","61","","","","","","","","","","","","","","","",""
"","time_out","","html-keyboard-response","410","531231","0.0-1.0-557.0-0.0","0","0","69495","","null","","","null","61","","","","","","","","","","","","","","","",""
"","ITI","","html-keyboard-response","411","532256","0.0-1.0-558.0","0","0","69495","","null","","","null","61","","","","","","","","","","","","","","","NaN",""
"","S1","","html-keyboard-response","412","532517","0.0-1.0-560.0","0","0","69495","","null","","","null","62","","","","","","","","","","","","","","","",""
"","ISI","","html-keyboard-response","413","533536","0.0-1.0-561.0","0","0","69495","","null","","","null","62","NaN","","","","","","","","","","","","","","",""
"","S2","","html-keyboard-response","414","533807","0.0-1.0-562.0","0","0","69495","","null","","","null","62","","NaN","","","","","","","","","","","","","",""
"","response","","html-keyboard-response","415","534260","0.0-1.0-563.0-0.0","0","0","69495","","436","","","75","62","","","2","62","training","adjacent","BA","2","1","L.jpg","R.jpg","1","0","0","",""
"","feedback","","html-keyboard-response","416","535281","0.0-1.0-564.0-0.0","0","0","69495","","null","","","null","62","","","","","","","","","","","","","","","",""
"","time_out","","html-keyboard-response","417","537304","0.0-1.0-566.0-0.0","0","0","69495","","null","","","null","62","","","","","","","","","","","","","","","",""
"","ITI","","html-keyboard-response","418","538328","0.0-1.0-567.0","0","0","69495","","null","","","null","62","","","","","","","","","","","","","","","NaN",""
"","S1","","html-keyboard-response","419","538600","0.0-1.0-569.0","0","0","69495","","null","","","null","63","","","","","","","","","","","","","","","",""
"","ISI","","html-keyboard-response","420","539621","0.0-1.0-570.0","0","0","69495","","null","","","null","63","NaN","","","","","","","","","","","","","","",""
"","S2","","html-keyboard-response","421","539900","0.0-1.0-571.0","0","0","69495","","null","","","null","63","","NaN","","","","","","","","","","","","","",""
"","response","","html-keyboard-response","422","540539","0.0-1.0-572.0-0.0","0","0","69495","","626","","","75","63","","","2","63","training","adjacent","BA","2","1","L.jpg","R.jpg","1","0","0","",""
"","feedback","","html-keyboard-response","423","541559","0.0-1.0-573.0-0.0","0","0","69495","","null","","","null","63","","","","","","","","","","","","","","","",""
"","time_out","","html-keyboard-response","424","543582","0.0-1.0-575.0-0.0","0","0","69495","","null","","","null","63","","","","","","","","","","","","","","","",""
"","ITI","","html-keyboard-response","425","544598","0.0-1.0-576.0","0","0","69495","","null","","","null","63","","","","","","","","","","","","","","","NaN",""
"","S1","","html-keyboard-response","426","544869","0.0-1.0-578.0","0","0","69495","","null","","","null","64","","","","","","","","","","","","","","","",""
"","ISI","","html-keyboard-response","427","545886","0.0-1.0-579.0","0","0","69495","","null","","","null","64","NaN","","","","","","","","","","","","","","",""
"","S2","","html-keyboard-response","428","546158","0.0-1.0-580.0","0","0","69495","","null","","","null","64","","NaN","","","","","","","","","","","","","",""
"","response","","html-keyboard-response","429","546752","0.0-1.0-581.0-0.0","0","0","69495","","581","","","68","64","","","2","64","training","adjacent","CD","3","4","O.jpg","N.jpg","0","1","0","",""
"","feedback","","html-keyboard-response","430","547776","0.0-1.0-582.0-0.0","0","0","69495","","null","","","null","64","","","","","","","","","","","","","","","",""
"","time_out","","html-keyboard-response","431","549800","0.0-1.0-584.0-0.0","0","0","69495","","null","","","null","64","","","","","","","","","","","","","","","",""
"","ITI","","html-keyboard-response","432","550821","0.0-1.0-585.0","0","0","69495","","null","","","null","64","","","","","","","","","","","","","","","NaN",""
"","S1","","html-keyboard-response","433","551095","0.0-1.0-587.0","0","0","69495","","null","","","null","65","","","","","","","","","","","","","","","",""
"","ISI","","html-keyboard-response","434","552111","0.0-1.0-588.0","0","0","69495","","null","","","null","65","NaN","","","","","","","","","","","","","","",""
"","S2","","html-keyboard-response","435","552383","0.0-1.0-589.0","0","0","69495","","null","","","null","65","","NaN","","","","","","","","","","","","","",""
"","response","","html-keyboard-response","436","552849","0.0-1.0-590.0-0.0","0","0","69495","","452","","","75","65","","","2","65","training","adjacent","DC","4","3","N.jpg","O.jpg","1","0","0","",""
"","feedback","","html-keyboard-response","437","553873","0.0-1.0-591.0-0.0","0","0","69495","","null","","","null","65","","","","","","","","","","","","","","","",""
"","time_out","","html-keyboard-response","438","555895","0.0-1.0-593.0-0.0","0","0","69495","","null","","","null","65","","","","","","","","","","","","","","","",""
"","ITI","","html-keyboard-response","439","556918","0.0-1.0-594.0","0","0","69495","","null","","","null","65","","","","","","","","","","","","","","","NaN",""
"","S1","","html-keyboard-response","440","557190","0.0-1.0-596.0","0","0","69495","","null","","","null","66","","","","","","","","","","","","","","","",""
"","ISI","","html-keyboard-response","441","558206","0.0-1.0-597.0","0","0","69495","","null","","","null","66","NaN","","","","","","","","","","","","","","",""
"","S2","","html-keyboard-response","442","558478","0.0-1.0-598.0","0","0","69495","","null","","","null","66","","NaN","","","","","","","","","","","","","",""
"","response","","html-keyboard-response","443","559069","0.0-1.0-599.0-0.0","0","0","69495","","575","","","68","66","","","2","66","training","adjacent","GF","7","6","M.jpg","P.jpg","0","0","1","",""
"","feedback","","html-keyboard-response","444","560088","0.0-1.0-600.0-0.0","0","0","69495","","null","","","null","66","","","","","","","","","","","","","","","",""
"","ITI","","html-keyboard-response","445","561101","0.0-1.0-603.0","0","0","69495","","null","","","null","66","","","","","","","","","","","","","","","NaN",""
"","S1","","html-keyboard-response","446","561357","0.0-1.0-605.0","0","0","69495","","null","","","null","67","","","","","","","","","","","","","","","",""
"","ISI","","html-keyboard-response","447","562366","0.0-1.0-606.0","0","0","69495","","null","","","null","67","NaN","","","","","","","","","","","","","","",""
"","S2","","html-keyboard-response","448","562621","0.0-1.0-607.0","0","0","69495","","null","","","null","67","","NaN","","","","","","","","","","","","","",""
"","response","","html-keyboard-response","449","562698","0.0-1.0-608.0-0.0","0","0","69495","","73","","","75","67","","","2","67","training","adjacent","FE","6","5","P.jpg","Q.jpg","1","0","0","",""
"","feedback","","html-keyboard-response","450","563709","0.0-1.0-609.0-0.0","0","0","69495","","null","","","null","67","","","","","","","","","","","","","","","",""
"","time_out","","html-keyboard-response","451","565717","0.0-1.0-611.0-0.0","0","0","69495","","null","","","null","67","","","","","","","","","","","","","","","",""
"","ITI","","html-keyboard-response","452","566726","0.0-1.0-612.0","0","0","69495","","null","","","null","67","","","","","","","","","","","","","","","NaN",""
"","S1","","html-keyboard-response","453","566990","0.0-1.0-614.0","0","0","69495","","null","","","null","68","","","","","","","","","","","","","","","",""
"","ISI","","html-keyboard-response","454","567998","0.0-1.0-615.0","0","0","69495","","null","","","null","68","NaN","","","","","","","","","","","","","","",""
"","S2","","html-keyboard-response","455","568253","0.0-1.0-616.0","0","0","69495","","null","","","null","68","","NaN","","","","","","","","","","","","","",""
"","response","","html-keyboard-response","456","568556","0.0-1.0-617.0-0.0","0","0","69495","","298","","","75","68","","","2","68","training","adjacent","DE","4","5","N.jpg","Q.jpg","1","1","1","",""
"","feedback","","html-keyboard-response","457","569566","0.0-1.0-618.0-0.0","0","0","69495","","null","","","null","68","","","","","","","","","","","","","","","",""
"","ITI","","html-keyboard-response","458","570573","0.0-1.0-621.0","0","0","69495","","null","","","null","68","","","","","","","","","","","","","","","NaN",""
"","S1","","html-keyboard-response","459","570829","0.0-1.0-623.0","0","0","69495","","null","","","null","69","","","","","","","","","","","","","","","",""
"","ISI","","html-keyboard-response","460","571837","0.0-1.0-624.0","0","0","69495","","null","","","null","69","NaN","","","","","","","","","","","","","","",""
"","S2","","html-keyboard-response","461","572093","0.0-1.0-625.0","0","0","69495","","null","","","null","69","","NaN","","","","","","","","","","","","","",""
"","response","","html-keyboard-response","462","572713","0.0-1.0-626.0-0.0","0","0","69495","","615","","","68","69","","","2","69","training","adjacent","CB","3","2","O.jpg","L.jpg","0","0","1","",""
"","feedback","","html-keyboard-response","463","573725","0.0-1.0-627.0-0.0","0","0","69495","","null","","","null","69","","","","","","","","","","","","","","","",""
"","ITI","","html-keyboard-response","464","574733","0.0-1.0-630.0","0","0","69495","","null","","","null","69","","","","","","","","","","","","","","","NaN",""
"","S1","","html-keyboard-response","465","574989","0.0-1.0-632.0","0","0","69495","","null","","","null","70","","","","","","","","","","","","","","","",""
"","ISI","","html-keyboard-response","466","575997","0.0-1.0-633.0","0","0","69495","","null","","","null","70","NaN","","","","","","","","","","","","","","",""
"","S2","","html-keyboard-response","467","576253","0.0-1.0-634.0","0","0","69495","","null","","","null","70","","NaN","","","","","","","","","","","","","",""
"","response","","html-keyboard-response","468","576626","0.0-1.0-635.0-0.0","0","0","69495","","370","","","68","70","","","2","70","training","adjacent","FG","6","7","P.jpg","M.jpg","0","1","0","",""
"","feedback","","html-keyboard-response","469","577637","0.0-1.0-636.0-0.0","0","0","69495","","null","","","null","70","","","","","","","","","","","","","","","",""
"","time_out","","html-keyboard-response","470","579645","0.0-1.0-638.0-0.0","0","0","69495","","null","","","null","70","","","","","","","","","","","","","","","",""
"","ITI","","html-keyboard-response","471","580654","0.0-1.0-639.0","0","0","69495","","null","","","null","70","","","","","","","","","","","","","","","NaN",""
"","S1","","html-keyboard-response","472","580909","0.0-1.0-641.0","0","0","69495","","null","","","null","71","","","","","","","","","","","","","","","",""
"","ISI","","html-keyboard-response","473","581917","0.0-1.0-642.0","0","0","69495","","null","","","null","71","NaN","","","","","","","","","","","","","","",""
"","S2","","html-keyboard-response","474","582174","0.0-1.0-643.0","0","0","69495","","null","","","null","71","","NaN","","","","","","","","","","","","","",""
"","response","","html-keyboard-response","475","583050","0.0-1.0-644.0-0.0","0","0","69495","","871","","","75","71","","","2","71","training","adjacent","BC","2","3","L.jpg","O.jpg","1","1","1","",""
"","feedback","","html-keyboard-response","476","584061","0.0-1.0-645.0-0.0","0","0","69495","","null","","","null","71","","","","","","","","","","","","","","","",""
"","ITI","","html-keyboard-response","477","585069","0.0-1.0-648.0","0","0","69495","","null","","","null","71","","","","","","","","","","","","","","","NaN",""
"","S1","","html-keyboard-response","478","585325","0.0-1.0-650.0","0","0","69495","","null","","","null","72","","","","","","","","","","","","","","","",""
"","ISI","","html-keyboard-response","479","586334","0.0-1.0-651.0","0","0","69495","","null","","","null","72","NaN","","","","","","","","","","","","","","",""
"","S2","","html-keyboard-response","480","586589","0.0-1.0-652.0","0","0","69495","","null","","","null","72","","NaN","","","","","","","","","","","","","",""
"","response","","html-keyboard-response","481","587060","0.0-1.0-653.0-0.0","0","0","69495","","466","","","68","72","","","2","72","training","adjacent","ED","5","4","Q.jpg","N.jpg","0","0","1","",""
"","feedback","","html-keyboard-response","482","588070","0.0-1.0-654.0-0.0","0","0","69495","","null","","","null","72","","","","","","","","","","","","","","","",""
"","ITI","","html-keyboard-response","483","589077","0.0-1.0-657.0","0","0","69495","","null","","","null","72","","","","","","","","","","","","","","","NaN",""
"","S1","","html-keyboard-response","484","589334","0.0-1.0-659.0","0","0","69495","","null","","","null","73","","","","","","","","","","","","","","","",""
"","ISI","","html-keyboard-response","485","590342","0.0-1.0-660.0","0","0","69495","","null","","","null","73","NaN","","","","","","","","","","","","","","",""
"","S2","","html-keyboard-response","486","590605","0.0-1.0-661.0","0","0","69495","","null","","","null","73","","NaN","","","","","","","","","","","","","",""
"","response","","html-keyboard-response","487","591154","0.0-1.0-662.0-0.0","0","0","69495","","545","","","75","73","","","2","73","training","adjacent","DE","4","5","N.jpg","Q.jpg","1","1","1","",""
"","feedback","","html-keyboard-response","488","592166","0.0-1.0-663.0-0.0","0","0","69495","","null","","","null","73","","","","","","","","","","","","","","","",""
"","ITI","","html-keyboard-response","489","593174","0.0-1.0-666.0","0","0","69495","","null","","","null","73","","","","","","","","","","","","","","","NaN",""
"","S1","","html-keyboard-response","490","593429","0.0-1.0-668.0","0","0","69495","","null","","","null","74","","","","","","","","","","","","","","","",""
"","ISI","","html-keyboard-response","491","594437","0.0-1.0-669.0","0","0","69495","","null","","","null","74","NaN","","","","","","","","","","","","","","",""
"","S2","","html-keyboard-response","492","594693","0.0-1.0-670.0","0","0","69495","","null","","","null","74","","NaN","","","","","","","","","","","","","",""
"","response","","html-keyboard-response","493","595266","0.0-1.0-671.0-0.0","0","0","69495","","567","","","68","74","","","2","74","training","adjacent","GF","7","6","M.jpg","P.jpg","0","0","1","",""
"","feedback","","html-keyboard-response","494","596277","0.0-1.0-672.0-0.0","0","0","69495","","null","","","null","74","","","","","","","","","","","","","","","",""
"","ITI","","html-keyboard-response","495","597285","0.0-1.0-675.0","0","0","69495","","null","","","null","74","","","","","","","","","","","","","","","NaN",""
"","S1","","html-keyboard-response","496","597541","0.0-1.0-677.0","0","0","69495","","null","","","null","75","","","","","","","","","","","","","","","",""
"","ISI","","html-keyboard-response","497","598549","0.0-1.0-678.0","0","0","69495","","null","","","null","75","NaN","","","","","","","","","","","","","","",""
"","S2","","html-keyboard-response","498","598805","0.0-1.0-679.0","0","0","69495","","null","","","null","75","","NaN","","","","","","","","","","","","","",""
"","response","","html-keyboard-response","499","599578","0.0-1.0-680.0-0.0","0","0","69495","","769","","","68","75","","","2","75","training","adjacent","AB","1","2","R.jpg","L.jpg","0","1","0","",""
"","feedback","","html-keyboard-response","500","600589","0.0-1.0-681.0-0.0","0","0","69495","","null","","","null","75","","","","","","","","","","","","","","","",""
"","time_out","","html-keyboard-response","501","602597","0.0-1.0-683.0-0.0","0","0","69495","","null","","","null","75","","","","","","","","","","","","","","","",""
"","ITI","","html-keyboard-response","502","603606","0.0-1.0-684.0","0","0","69495","","null","","","null","75","","","","","","","","","","","","","","","NaN",""
"","S1","","html-keyboard-response","503","603862","0.0-1.0-686.0","0","0","69495","","null","","","null","76","","","","","","","","","","","","","","","",""
"","ISI","","html-keyboard-response","504","604870","0.0-1.0-687.0","0","0","69495","","null","","","null","76","NaN","","","","","","","","","","","","","","",""
"","S2","","html-keyboard-response","505","605125","0.0-1.0-688.0","0","0","69495","","null","","","null","76","","NaN","","","","","","","","","","","","","",""
"","response","","html-keyboard-response","506","605606","0.0-1.0-689.0-0.0","0","0","69495","","476","","","68","76","","","2","76","training","adjacent","CB","3","2","O.jpg","L.jpg","0","0","1","",""
"","feedback","","html-keyboard-response","507","606614","0.0-1.0-690.0-0.0","0","0","69495","","null","","","null","76","","","","","","","","","","","","","","","",""
"","ITI","","html-keyboard-response","508","607621","0.0-1.0-693.0","0","0","69495","","null","","","null","76","","","","","","","","","","","","","","","NaN",""
"","S1","","html-keyboard-response","509","607877","0.0-1.0-695.0","0","0","69495","","null","","","null","77","","","","","","","","","","","","","","","",""
"","ISI","","html-keyboard-response","510","608885","0.0-1.0-696.0","0","0","69495","","null","","","null","77","NaN","","","","","","","","","","","","","","",""
"","S2","","html-keyboard-response","511","609142","0.0-1.0-697.0","0","0","69495","","null","","","null","77","","NaN","","","","","","","","","","","","","",""
"","response","","html-keyboard-response","512","609803","0.0-1.0-698.0-0.0","0","0","69495","","656","","","68","77","","","2","77","training","adjacent","AB","1","2","R.jpg","L.jpg","0","1","0","",""
"","feedback","","html-keyboard-response","513","610814","0.0-1.0-699.0-0.0","0","0","69495","","null","","","null","77","","","","","","","","","","","","","","","",""
"","time_out","","html-keyboard-response","514","612821","0.0-1.0-701.0-0.0","0","0","69495","","null","","","null","77","","","","","","","","","","","","","","","",""
"","ITI","","html-keyboard-response","515","613830","0.0-1.0-702.0","0","0","69495","","null","","","null","77","","","","","","","","","","","","","","","NaN",""
"","S1","","html-keyboard-response","516","614093","0.0-1.0-704.0","0","0","69495","","null","","","null","78","","","","","","","","","","","","","","","",""
"","ISI","","html-keyboard-response","517","615101","0.0-1.0-705.0","0","0","69495","","null","","","null","78","NaN","","","","","","","","","","","","","","",""
"","S2","","html-keyboard-response","518","615357","0.0-1.0-706.0","0","0","69495","","null","","","null","78","","NaN","","","","","","","","","","","","","",""
"","response","","html-keyboard-response","519","615674","0.0-1.0-707.0-0.0","0","0","69495","","312","","","68","78","","","2","78","training","adjacent","BC","2","3","L.jpg","O.jpg","0","1","0","",""
"","feedback","","html-keyboard-response","520","616685","0.0-1.0-708.0-0.0","0","0","69495","","null","","","null","78","","","","","","","","","","","","","","","",""
"","time_out","","html-keyboard-response","521","618693","0.0-1.0-710.0-0.0","0","0","69495","","null","","","null","78","","","","","","","","","","","","","","","",""
"","ITI","","html-keyboard-response","522","619701","0.0-1.0-711.0","0","0","69495","","null","","","null","78","","","","","","","","","","","","","","","NaN",""
"","S1","","html-keyboard-response","523","619959","0.0-1.0-713.0","0","0","69495","","null","","","null","79","","","","","","","","","","","","","","","",""
"","ISI","","html-keyboard-response","524","620966","0.0-1.0-714.0","0","0","69495","","null","","","null","79","NaN","","","","","","","","","","","","","","",""
"","S2","","html-keyboard-response","525","621229","0.0-1.0-715.0","0","0","69495","","null","","","null","79","","NaN","","","","","","","","","","","","","",""
"","response","","html-keyboard-response","526","621418","0.0-1.0-716.0-0.0","0","0","69495","","184","","","68","79","","","2","79","training","adjacent","GF","7","6","M.jpg","P.jpg","0","0","1","",""
"","feedback","","html-keyboard-response","527","622429","0.0-1.0-717.0-0.0","0","0","69495","","null","","","null","79","","","","","","","","","","","","","","","",""
"","ITI","","html-keyboard-response","528","623437","0.0-1.0-720.0","0","0","69495","","null","","","null","79","","","","","","","","","","","","","","","NaN",""
"","S1","","html-keyboard-response","529","623693","0.0-1.0-722.0","0","0","69495","","null","","","null","80","","","","","","","","","","","","","","","",""
"","ISI","","html-keyboard-response","530","624701","0.0-1.0-723.0","0","0","69495","","null","","","null","80","NaN","","","","","","","","","","","","","","",""
"","S2","","html-keyboard-response","531","624957","0.0-1.0-724.0","0","0","69495","","null","","","null","80","","NaN","","","","","","","","","","","","","",""
"","response","","html-keyboard-response","532","625314","0.0-1.0-725.0-0.0","0","0","69495","","352","","","75","80","","","2","80","training","adjacent","BC","2","3","L.jpg","O.jpg","1","1","1","",""
"","feedback","","html-keyboard-response","533","626326","0.0-1.0-726.0-0.0","0","0","69495","","null","","","null","80","","","","","","","","","","","","","","","",""
"","ITI","","html-keyboard-response","534","627333","0.0-1.0-729.0","0","0","69495","","null","","","null","80","","","","","","","","","","","","","","","NaN",""
"","S1","","html-keyboard-response","535","627589","0.0-1.0-731.0","0","0","69495","","null","","","null","81","","","","","","","","","","","","","","","",""
"","ISI","","html-keyboard-response","536","628597","0.0-1.0-732.0","0","0","69495","","null","","","null","81","NaN","","","","","","","","","","","","","","",""
"","S2","","html-keyboard-response","537","628853","0.0-1.0-733.0","0","0","69495","","null","","","null","81","","NaN","","","","","","","","","","","","","",""
"","response","","html-keyboard-response","538","629379","0.0-1.0-734.0-0.0","0","0","69495","","520","","","75","81","","","2","81","training","adjacent","FE","6","5","P.jpg","Q.jpg","1","0","0","",""
"","feedback","","html-keyboard-response","539","630390","0.0-1.0-735.0-0.0","0","0","69495","","null","","","null","81","","","","","","","","","","","","","","","",""
"","time_out","","html-keyboard-response","540","632397","0.0-1.0-737.0-0.0","0","0","69495","","null","","","null","81","","","","","","","","","","","","","","","",""
"","ITI","","html-keyboard-response","541","633406","0.0-1.0-738.0","0","0","69495","","null","","","null","81","","","","","","","","","","","","","","","NaN",""
"","S1","","html-keyboard-response","542","633661","0.0-1.0-740.0","0","0","69495","","null","","","null","82","","","","","","","","","","","","","","","",""
"","ISI","","html-keyboard-response","543","634670","0.0-1.0-741.0","0","0","69495","","null","","","null","82","NaN","","","","","","","","","","","","","","",""
"","S2","","html-keyboard-response","544","634926","0.0-1.0-742.0","0","0","69495","","null","","","null","82","","NaN","","","","","","","","","","","","","",""
"","response","","html-keyboard-response","545","635041","0.0-1.0-743.0-0.0","0","0","69495","","112","","","68","82","","","2","82","training","adjacent","EF","5","6","Q.jpg","P.jpg","0","1","0","",""
"","feedback","","html-keyboard-response","546","636053","0.0-1.0-744.0-0.0","0","0","69495","","null","","","null","82","","","","","","","","","","","","","","","",""
"","time_out","","html-keyboard-response","547","638061","0.0-1.0-746.0-0.0","0","0","69495","","null","","","null","82","","","","","","","","","","","","","","","",""
"","ITI","","html-keyboard-response","548","639069","0.0-1.0-747.0","0","0","69495","","null","","","null","82","","","","","","","","","","","","","","","NaN",""
"","S1","","html-keyboard-response","549","639325","0.0-1.0-749.0","0","0","69495","","null","","","null","83","","","","","","","","","","","","","","","",""
"","ISI","","html-keyboard-response","550","640333","0.0-1.0-750.0","0","0","69495","","null","","","null","83","NaN","","","","","","","","","","","","","","",""
"","S2","","html-keyboard-response","551","640589","0.0-1.0-751.0","0","0","69495","","null","","","null","83","","NaN","","","","","","","","","","","","","",""
"","response","","html-keyboard-response","552","640737","0.0-1.0-752.0-0.0","0","0","69495","","144","","","75","83","","","2","83","training","adjacent","DE","4","5","N.jpg","Q.jpg","1","1","1","",""
"","feedback","","html-keyboard-response","553","641750","0.0-1.0-753.0-0.0","0","0","69495","","null","","","null","83","","","","","","","","","","","","","","","",""
"","ITI","","html-keyboard-response","554","642759","0.0-1.0-756.0","0","0","69495","","null","","","null","83","","","","","","","","","","","","","","","NaN",""
"","S1","","html-keyboard-response","555","643021","0.0-1.0-758.0","0","0","69495","","null","","","null","84","","","","","","","","","","","","","","","",""
"","ISI","","html-keyboard-response","556","644029","0.0-1.0-759.0","0","0","69495","","null","","","null","84","NaN","","","","","","","","","","","","","","",""
"","S2","","html-keyboard-response","557","644285","0.0-1.0-760.0","0","0","69495","","null","","","null","84","","NaN","","","","","","","","","","","","","",""
"","response","","html-keyboard-response","558","644449","0.0-1.0-761.0-0.0","0","0","69495","","160","","","68","84","","","2","84","training","adjacent","CD","3","4","O.jpg","N.jpg","0","1","0","",""
"","feedback","","html-keyboard-response","559","645462","0.0-1.0-762.0-0.0","0","0","69495","","null","","","null","84","","","","","","","","","","","","","","","",""
"","time_out","","html-keyboard-response","560","647469","0.0-1.0-764.0-0.0","0","0","69495","","null","","","null","84","","","","","","","","","","","","","","","",""
"","ITI","","html-keyboard-response","561","648477","0.0-1.0-765.0","0","0","69495","","null","","","null","84","","","","","","","","","","","","","","","NaN",""
"","S1","","html-keyboard-response","562","648733","0.0-1.0-767.0","0","0","69495","","null","","","null","85","","","","","","","","","","","","","","","",""
"","ISI","","html-keyboard-response","563","649741","0.0-1.0-768.0","0","0","69495","","null","","","null","85","NaN","","","","","","","","","","","","","","",""
"","S2","","html-keyboard-response","564","649997","0.0-1.0-769.0","0","0","69495","","null","","","null","85","","NaN","","","","","","","","","","","","","",""
"","response","","html-keyboard-response","565","650049","0.0-1.0-770.0-0.0","0","0","69495","","47","","","75","85","","","2","85","training","adjacent","FE","6","5","P.jpg","Q.jpg","1","0","0","",""
"","feedback","","html-keyboard-response","566","651062","0.0-1.0-771.0-0.0","0","0","69495","","null","","","null","85","","","","","","","","","","","","","","","",""
"","time_out","","html-keyboard-response","567","653069","0.0-1.0-773.0-0.0","0","0","69495","","null","","","null","85","","","","","","","","","","","","","","","",""
"","ITI","","html-keyboard-response","568","654077","0.0-1.0-774.0","0","0","69495","","null","","","null","85","","","","","","","","","","","","","","","NaN",""
"","S1","","html-keyboard-response","569","654333","0.0-1.0-776.0","0","0","69495","","null","","","null","86","","","","","","","","","","","","","","","",""
"","ISI","","html-keyboard-response","570","655341","0.0-1.0-777.0","0","0","69495","","null","","","null","86","NaN","","","","","","","","","","","","","","",""
"","S2","","html-keyboard-response","571","655597","0.0-1.0-778.0","0","0","69495","","null","","","null","86","","NaN","","","","","","","","","","","","","",""
"","response","","html-keyboard-response","572","655621","0.0-1.0-779.0-0.0","0","0","69495","","19","","","75","86","","","2","86","training","adjacent","CD","3","4","O.jpg","N.jpg","1","1","1","",""
"","feedback","","html-keyboard-response","573","656629","0.0-1.0-780.0-0.0","0","0","69495","","null","","","null","86","","","","","","","","","","","","","","","",""
"","ITI","","html-keyboard-response","574","657637","0.0-1.0-783.0","0","0","69495","","null","","","null","86","","","","","","","","","","","","","","","NaN",""
"","S1","","html-keyboard-response","575","657894","0.0-1.0-785.0","0","0","69495","","null","","","null","87","","","","","","","","","","","","","","","",""
"","ISI","","html-keyboard-response","576","658902","0.0-1.0-786.0","0","0","69495","","null","","","null","87","NaN","","","","","","","","","","","","","","",""
"","S2","","html-keyboard-response","577","659165","0.0-1.0-787.0","0","0","69495","","null","","","null","87","","NaN","","","","","","","","","","","","","",""
"","response","","html-keyboard-response","578","659372","0.0-1.0-788.0-0.0","0","0","69495","","203","","","68","87","","","2","87","training","adjacent","AB","1","2","R.jpg","L.jpg","0","1","0","",""
"","feedback","","html-keyboard-response","579","660382","0.0-1.0-789.0-0.0","0","0","69495","","null","","","null","87","","","","","","","","","","","","","","","",""
"","time_out","","html-keyboard-response","580","662389","0.0-1.0-791.0-0.0","0","0","69495","","null","","","null","87","","","","","","","","","","","","","","","",""
"","ITI","","html-keyboard-response","581","663399","0.0-1.0-792.0","0","0","69495","","null","","","null","87","","","","","","","","","","","","","","","NaN",""
"","S1","","html-keyboard-response","582","663661","0.0-1.0-794.0","0","0","69495","","null","","","null","88","","","","","","","","","","","","","","","",""
