"success","ttype","start_time","trial_type","trial_index","time_elapsed","internal_node_id","warning","missed_checkup","PID","view_history","rt","responses","repeat_instructions","key_press","index","keypress_isi","keypress_S2","block","trial_num","phase","group_type","pair_type","S1_stim","S2_stim","S1_img","S2_img","S1_chosen","S1_higher","accuracy","keypress_iti","total_bonus_tally"
"true","full_screen","d04062023hr2159","fullscreen","0","14693","0.0-0.0","0","0","19623","","","","","","","","","","","","","","","","","","","","","",""
"","instructions","","instructions","1","41437","0.0-1.0-0.0-0.0","0","0","19623","[{""page_index"":0,""viewing_time"":3714},{""page_index"":1,""viewing_time"":12520},{""page_index"":2,""viewing_time"":6262},{""page_index"":3,""viewing_time"":4244}]","26741","","","","","","","","","","","","","","","","","","","",""
"","comprehension_check","","survey-multi-choice","2","76743","0.0-1.0-0.0-1.0","0","0","19623","","35300","{""Q0"":""True"",""Q1"":""K"",""Q2"":""Only while the second image is shown"",""Q3"":""Green mark"",""Q4"":""either D or K""}","1","","","","","","","","","","","","","","","","","",""
"","missed_instruction_checkup","","html-keyboard-response","3","78710","0.0-1.0-0.0-2.0-0.0","0","1","19623","","1962","","","32","","","","","","","","","","","","","","","","",""
"","instructions","","instructions","4","97103","0.0-1.0-0.1-0.1","0","0","19623","[{""page_index"":0,""viewing_time"":2749},{""page_index"":1,""viewing_time"":13514},{""page_index"":2,""viewing_time"":1090},{""page_index"":3,""viewing_time"":1038}]","18391","","","","","","","","","","","","","","","","","","","",""
"","comprehension_check","","survey-multi-choice","5","112341","0.0-1.0-0.1-1.1","0","0","19623","","15233","{""Q0"":""True"",""Q1"":""K"",""Q2"":""Once the second image appears and while the screen 'MAKE A CHOICE' is shown"",""Q3"":""Green mark"",""Q4"":""either D or K""}","0","","","","","","","","","","","","","","","","","",""
"","start_exp","","html-keyboard-response","6","114385","0.0-1.0-1.0","0","0","19623","","2041","","","32","","","","","","","","","","","","","","","","",""
"","S1","","html-keyboard-response","7","114541","0.0-1.0-2.0","0","0","19623","","null","","","null","0","","","","","","","","","","","","","","","",""
"","ISI","","html-keyboard-response","8","116551","0.0-1.0-3.0","0","0","19623","","null","","","null","0","NaN","","","","","","","","","","","","","","",""
"","S2","","html-keyboard-response","9","116710","0.0-1.0-4.0","0","0","19623","","null","","","null","0","","NaN","","","","","","","","","","","","","",""
"","response","","html-keyboard-response","10","118573","0.0-1.0-5.0-0.0","0","0","19623","","null","","","null","0","","","1","0","training","adjacent","CB","3","2","Q.jpg","P.jpg","NaN","0","0","",""
"","too_slow_prompt","","html-keyboard-response","11","119583","0.0-1.0-7.0-0.0","1","0","19623","","null","","","null","","","","","","","","","","","","","","","","",""
"","time_out","","html-keyboard-response","12","121590","0.0-1.0-8.0-0.0","0","0","19623","","null","","","null","0","","","","","","","","","","","","","","","",""
"","ITI","","html-keyboard-response","13","122599","0.0-1.0-9.0","0","0","19623","","null","","","null","0","","","","","","","","","","","","","","","NaN",""
"","S1","","html-keyboard-response","14","122758","0.0-1.0-11.0","0","0","19623","","null","","","null","1","","","","","","","","","","","","","","","",""
"","ISI","","html-keyboard-response","15","124767","0.0-1.0-12.0","0","0","19623","","null","","","null","1","NaN","","","","","","","","","","","","","","",""
"","S2","","html-keyboard-response","16","124927","0.0-1.0-13.0","0","0","19623","","null","","","null","1","","NaN","","","","","","","","","","","","","",""
"","response","","html-keyboard-response","17","125442","0.0-1.0-14.0-0.0","0","0","19623","","512","","","68","1","","","1","1","training","adjacent","CB","3","2","Q.jpg","P.jpg","0","0","1","",""
"","feedback","","html-keyboard-response","18","126451","0.0-1.0-15.0-0.0","0","0","19623","","null","","","null","1","","","","","","","","","","","","","","","",""
"","ITI","","html-keyboard-response","19","127460","0.0-1.0-18.0","0","0","19623","","null","","","null","1","","","","","","","","","","","","","","","NaN",""
"","S1","","html-keyboard-response","20","127623","0.0-1.0-20.0","0","0","19623","","null","","","null","2","","","","","","","","","","","","","","","",""
"","ISI","","html-keyboard-response","21","129629","0.0-1.0-21.0","0","0","19623","","null","","","null","2","NaN","","","","","","","","","","","","","","",""
"","S2","","html-keyboard-response","22","129789","0.0-1.0-22.0","0","0","19623","","null","","","null","2","","NaN","","","","","","","","","","","","","",""
"","response","","html-keyboard-response","23","130595","0.0-1.0-23.0-0.0","0","0","19623","","805","","","75","2","","","1","2","training","adjacent","GF","7","6","M.jpg","N.jpg","1","0","0","",""
"","feedback","","html-keyboard-response","24","131605","0.0-1.0-24.0-0.0","0","0","19623","","null","","","null","2","","","","","","","","","","","","","","","",""
"","time_out","","html-keyboard-response","25","133614","0.0-1.0-26.0-0.0","0","0","19623","","null","","","null","2","","","","","","","","","","","","","","","",""
"","ITI","","html-keyboard-response","26","134621","0.0-1.0-27.0","0","0","19623","","null","","","null","2","","","","","","","","","","","","","","","NaN",""
"","S1","","html-keyboard-response","27","134781","0.0-1.0-29.0","0","0","19623","","null","","","null","3","","","","","","","","","","","","","","","",""
"","ISI","","html-keyboard-response","28","136790","0.0-1.0-30.0","0","0","19623","","null","","","null","3","NaN","","","","","","","","","","","","","","",""
"","S2","","html-keyboard-response","29","136950","0.0-1.0-31.0","0","0","19623","","null","","","null","3","","NaN","","","","","","","","","","","","","",""
"","response","","html-keyboard-response","30","138107","0.0-1.0-32.0-0.0","0","0","19623","","1155","","","68","3","","","1","3","training","adjacent","ED","5","4","R.jpg","L.jpg","0","0","1","",""
"","feedback","","html-keyboard-response","31","139117","0.0-1.0-33.0-0.0","0","0","19623","","null","","","null","3","","","","","","","","","","","","","","","",""
"","ITI","","html-keyboard-response","32","140127","0.0-1.0-36.0","0","0","19623","","null","","","null","3","","","","","","","","","","","","","","","NaN",""
"","S1","","html-keyboard-response","33","140287","0.0-1.0-38.0","0","0","19623","","null","","","null","4","","","","","","","","","","","","","","","",""
"","ISI","","html-keyboard-response","34","142293","0.0-1.0-39.0","0","0","19623","","null","","","null","4","NaN","","","","","","","","","","","","","","",""
"","S2","","html-keyboard-response","35","142455","0.0-1.0-40.0","0","0","19623","","null","","","null","4","","NaN","","","","","","","","","","","","","",""
"","response","","html-keyboard-response","36","143610","0.0-1.0-41.0-0.0","0","0","19623","","1153","","","68","4","","","1","4","training","adjacent","FG","6","7","N.jpg","M.jpg","0","1","0","",""
"","feedback","","html-keyboard-response","37","144620","0.0-1.0-42.0-0.0","0","0","19623","","null","","","null","4","","","","","","","","","","","","","","","",""
"","time_out","","html-keyboard-response","38","146629","0.0-1.0-44.0-0.0","0","0","19623","","null","","","null","4","","","","","","","","","","","","","","","",""
"","ITI","","html-keyboard-response","39","147638","0.0-1.0-45.0","0","0","19623","","null","","","null","4","","","","","","","","","","","","","","","NaN",""
"","S1","","html-keyboard-response","40","147799","0.0-1.0-47.0","0","0","19623","","null","","","null","5","","","","","","","","","","","","","","","",""
"","ISI","","html-keyboard-response","41","149808","0.0-1.0-48.0","0","0","19623","","null","","","null","5","NaN","","","","","","","","","","","","","","",""
"","S2","","html-keyboard-response","42","149966","0.0-1.0-49.0","0","0","19623","","null","","","null","5","","NaN","","","","","","","","","","","","","",""
"","response","","html-keyboard-response","43","150820","0.0-1.0-50.0-0.0","0","0","19623","","852","","","75","5","","","1","5","training","adjacent","FG","6","7","N.jpg","M.jpg","1","1","1","",""
"","feedback","","html-keyboard-response","44","151830","0.0-1.0-51.0-0.0","0","0","19623","","null","","","null","5","","","","","","","","","","","","","","","",""
"","ITI","","html-keyboard-response","45","152838","0.0-1.0-54.0","0","0","19623","","null","","","null","5","","","","","","","","","","","","","","","NaN",""
"","S1","","html-keyboard-response","46","152997","0.0-1.0-56.0","0","0","19623","","null","","","null","6","","","","","","","","","","","","","","","",""
"","ISI","","html-keyboard-response","47","155006","0.0-1.0-57.0","0","0","19623","","null","","","null","6","NaN","","","","","","","","","","","","","","",""
"","S2","","html-keyboard-response","48","155166","0.0-1.0-58.0","0","0","19623","","null","","","null","6","","NaN","","","","","","","","","","","","","",""
"","response","","html-keyboard-response","49","155675","0.0-1.0-59.0-0.0","0","0","19623","","506","","","75","6","","","1","6","training","adjacent","BC","2","3","P.jpg","Q.jpg","1","1","1","",""
"","feedback","","html-keyboard-response","50","156686","0.0-1.0-60.0-0.0","0","0","19623","","null","","","null","6","","","","","","","","","","","","","","","",""
"","ITI","","html-keyboard-response","51","157693","0.0-1.0-63.0","0","0","19623","","null","","","null","6","","","","","","","","","","","","","","","NaN",""
"","S1","","html-keyboard-response","52","157853","0.0-1.0-65.0","0","0","19623","","null","","","null","7","","","","","","","","","","","","","","","",""
"","ISI","","html-keyboard-response","53","159862","0.0-1.0-66.0","0","0","19623","","null","","","null","7","NaN","","","","","","","","","","","","","","",""
"","S2","","html-keyboard-response","54","160021","0.0-1.0-67.0","0","0","19623","","null","","","null","7","","NaN","","","","","","","","","","","","","",""
"","response","","html-keyboard-response","55","160602","0.0-1.0-68.0-0.0","0","0","19623","","578","","","75","7","","","1","7","training","adjacent","BC","2","3","P.jpg","Q.jpg","1","1","1","",""
"","feedback","","html-keyboard-response","56","161615","0.0-1.0-69.0-0.0","0","0","19623","","null","","","null","7","","","","","","","","","","","","","","","",""
"","ITI","","html-keyboard-response","57","162621","0.0-1.0-72.0","0","0","19623","","null","","","null","7","","","","","","","","","","","","","","","NaN",""
"","S1","","html-keyboard-response","58","162781","0.0-1.0-74.0","0","0","19623","","null","","","null","8","","","","","","","","","","","","","","","",""
"","ISI","","html-keyboard-response","59","164790","0.0-1.0-75.0","0","0","19623","","null","","","null","8","NaN","","","","","","","","","","","","","","",""
"","S2","","html-keyboard-response","60","164949","0.0-1.0-76.0","0","0","19623","","null","","","null","8","","NaN","","","","","","","","","","","","","",""
"","response","","html-keyboard-response","61","165255","0.0-1.0-77.0-0.0","0","0","19623","","303","","","75","8","","","1","8","training","adjacent","DE","4","5","L.jpg","R.jpg","1","1","1","",""
"","feedback","","html-keyboard-response","62","166262","0.0-1.0-78.0-0.0","0","0","19623","","null","","","null","8","","","","","","","","","","","","","","","",""
"","ITI","","html-keyboard-response","63","167272","0.0-1.0-81.0","0","0","19623","","null","","","null","8","","","","","","","","","","","","","","","NaN",""
"","S1","","html-keyboard-response","64","167432","0.0-1.0-83.0","0","0","19623","","null","","","null","9","","","","","","","","","","","","","","","",""
"","ISI","","html-keyboard-response","65","169436","0.0-1.0-84.0","0","0","19623","","null","","","null","9","NaN","","","","","","","","","","","","","","",""
"","S2","","html-keyboard-response","66","169598","0.0-1.0-85.0","0","0","19623","","null","","","null","9","","NaN","","","","","","","","","","","","","",""
"","response","","html-keyboard-response","67","170727","0.0-1.0-86.0-0.0","0","0","19623","","1126","","","68","9","","","1","9","training","adjacent","FG","6","7","N.jpg","M.jpg","0","1","0","",""
"","feedback","","html-keyboard-response","68","171736","0.0-1.0-87.0-0.0","0","0","19623","","null","","","null","9","","","","","","","","","","","","","","","",""
"","time_out","","html-keyboard-response","69","173741","0.0-1.0-89.0-0.0","0","0","19623","","null","","","null","9","","","","","","","","","","","","","","","",""
"","ITI","","html-keyboard-response","70","174752","0.0-1.0-90.0","0","0","19623","","null","","","null","9","","","","","","","","","","","","","","","NaN",""
"","S1","","html-keyboard-response","71","174911","0.0-1.0-92.0","0","0","19623","","null","","","null","10","","","","","","","","","","","","","","","",""
"","ISI","","html-keyboard-response","72","176919","0.0-1.0-93.0","0","0","19623","","null","","","null","10","NaN","","","","","","","","","","","","","","",""
"","S2","","html-keyboard-response","73","177079","0.0-1.0-94.0","0","0","19623","","null","","","null","10","","NaN","","","","","","","","","","","","","",""
"","response","","html-keyboard-response","74","178643","0.0-1.0-95.0-0.0","0","0","19623","","1561","","","75","10","","","1","10","training","adjacent","BA","2","1","P.jpg","O.jpg","1","0","0","",""
"","feedback","","html-keyboard-response","75","179653","0.0-1.0-96.0-0.0","0","0","19623","","null","","","null","10","","","","","","","","","","","","","","","",""
"","time_out","","html-keyboard-response","76","181662","0.0-1.0-98.0-0.0","0","0","19623","","null","","","null","10","","","","","","","","","","","","","","","",""
"","ITI","","html-keyboard-response","77","182668","0.0-1.0-99.0","0","0","19623","","null","","","null","10","","","","","","","","","","","","","","","NaN",""
"","S1","","html-keyboard-response","78","182829","0.0-1.0-101.0","0","0","19623","","null","","","null","11","","","","","","","","","","","","","","","",""
"","ISI","","html-keyboard-response","79","184838","0.0-1.0-102.0","0","0","19623","","null","","","null","11","NaN","","","","","","","","","","","","","","",""
"","S2","","html-keyboard-response","80","184998","0.0-1.0-103.0","0","0","19623","","null","","","null","11","","NaN","","","","","","","","","","","","","",""
"","response","","html-keyboard-response","81","185534","0.0-1.0-104.0-0.0","0","0","19623","","535","","","68","11","","","1","11","training","adjacent","ED","5","4","R.jpg","L.jpg","0","0","1","",""
"","feedback","","html-keyboard-response","82","186542","0.0-1.0-105.0-0.0","0","0","19623","","null","","","null","11","","","","","","","","","","","","","","","",""
"","ITI","","html-keyboard-response","83","187552","0.0-1.0-108.0","0","0","19623","","null","","","null","11","","","","","","","","","","","","","","","NaN",""
"","S1","","html-keyboard-response","84","187711","0.0-1.0-110.0","0","0","19623","","null","","","null","12","","","","","","","","","","","","","","","",""
"","ISI","","html-keyboard-response","85","189719","0.0-1.0-111.0","0","0","19623","","null","","","null","12","NaN","","","","","","","","","","","","","","",""
"","S2","","html-keyboard-response","86","189880","0.0-1.0-112.0","0","0","19623","","null","","","null","12","","NaN","","","","","","","","","","","","","",""
"","response","","html-keyboard-response","87","190681","0.0-1.0-113.0-0.0","0","0","19623","","799","","","68","12","","","1","12","training","adjacent","AB","1","2","O.jpg","P.jpg","0","1","0","",""
"","feedback","","html-keyboard-response","88","191693","0.0-1.0-114.0-0.0","0","0","19623","","null","","","null","12","","","","","","","","","","","","","","","",""
"","time_out","","html-keyboard-response","89","193701","0.0-1.0-116.0-0.0","0","0","19623","","null","","","null","12","","","","","","","","","","","","","","","",""
"","ITI","","html-keyboard-response","90","194711","0.0-1.0-117.0","0","0","19623","","null","","","null","12","","","","","","","","","","","","","","","NaN",""
"","S1","","html-keyboard-response","91","194867","0.0-1.0-119.0","0","0","19623","","null","","","null","13","","","","","","","","","","","","","","","",""
"","ISI","","html-keyboard-response","92","196877","0.0-1.0-120.0","0","0","19623","","null","","","null","13","NaN","","","","","","","","","","","","","","",""
"","S2","","html-keyboard-response","93","197039","0.0-1.0-121.0","0","0","19623","","null","","","null","13","","NaN","","","","","","","","","","","","","",""
"","response","","html-keyboard-response","94","198476","0.0-1.0-122.0-0.0","0","0","19623","","1435","","","75","13","","","1","13","training","adjacent","EF","5","6","R.jpg","N.jpg","1","1","1","",""
"","feedback","","html-keyboard-response","95","199487","0.0-1.0-123.0-0.0","0","0","19623","","null","","","null","13","","","","","","","","","","","","","","","",""
"","ITI","","html-keyboard-response","96","200493","0.0-1.0-126.0","0","0","19623","","null","","","null","13","","","","","","","","","","","","","","","NaN",""
"","S1","","html-keyboard-response","97","200654","0.0-1.0-128.0","0","0","19623","","null","","","null","14","","","","","","","","","","","","","","","",""
"","ISI","","html-keyboard-response","98","202662","0.0-1.0-129.0","0","0","19623","","null","","","null","14","NaN","","","","","","","","","","","","","","",""
"","S2","","html-keyboard-response","99","202821","0.0-1.0-130.0","0","0","19623","","null","","","null","14","","NaN","","","","","","","","","","","","","",""
"","response","","html-keyboard-response","100","203074","0.0-1.0-131.0-0.0","0","0","19623","","251","","","68","14","","","1","14","training","adjacent","CB","3","2","Q.jpg","P.jpg","0","0","1","",""
"","feedback","","html-keyboard-response","101","204087","0.0-1.0-132.0-0.0","0","0","19623","","null","","","null","14","","","","","","","","","","","","","","","",""
"","ITI","","html-keyboard-response","102","205095","0.0-1.0-135.0","0","0","19623","","null","","","null","14","","","","","","","","","","","","","","","NaN",""
"","S1","","html-keyboard-response","103","205253","0.0-1.0-137.0","0","0","19623","","null","","","null","15","","","","","","","","","","","","","","","",""
"","ISI","","html-keyboard-response","104","207262","0.0-1.0-138.0","0","0","19623","","null","","","null","15","NaN","","","","","","","","","","","","","","",""
"","S2","","html-keyboard-response","105","207422","0.0-1.0-139.0","0","0","19623","","null","","","null","15","","NaN","","","","","","","","","","","","","",""
"","response","","html-keyboard-response","106","208306","0.0-1.0-140.0-0.0","0","0","19623","","882","","","68","15","","","1","15","training","adjacent","FE","6","5","N.jpg","R.jpg","0","0","1","",""
"","feedback","","html-keyboard-response","107","209317","0.0-1.0-141.0-0.0","0","0","19623","","null","","","null","15","","","","","","","","","","","","","","","",""
"","ITI","","html-keyboard-response","108","210327","0.0-1.0-144.0","0","0","19623","","null","","","null","15","","","","","","","","","","","","","","","NaN",""
"","S1","","html-keyboard-response","109","210487","0.0-1.0-146.0","0","0","19623","","null","","","null","16","","","","","","","","","","","","","","","",""
"","ISI","","html-keyboard-response","110","212496","0.0-1.0-147.0","0","0","19623","","null","","","null","16","NaN","","","","","","","","","","","","","","",""
"","S2","","html-keyboard-response","111","212655","0.0-1.0-148.0","0","0","19623","","null","","","null","16","","NaN","","","","","","","","","","","","","",""
"","response","","html-keyboard-response","112","213736","0.0-1.0-149.0-0.0","0","0","19623","","1080","","","75","16","","","1","16","training","adjacent","AB","1","2","O.jpg","P.jpg","1","1","1","",""
"","feedback","","html-keyboard-response","113","214751","0.0-1.0-150.0-0.0","0","0","19623","","null","","","null","16","","","","","","","","","","","","","","","",""
"","ITI","","html-keyboard-response","114","215758","0.0-1.0-153.0","0","0","19623","","null","","","null","16","","","","","","","","","","","","","","","NaN",""
"","S1","","html-keyboard-response","115","215918","0.0-1.0-155.0","0","0","19623","","null","","","null","17","","","","","","","","","","","","","","","",""
"","ISI","","html-keyboard-response","116","217926","0.0-1.0-156.0","0","0","19623","","null","","","null","17","NaN","","","","","","","","","","","","","","",""
"","S2","","html-keyboard-response","117","218086","0.0-1.0-157.0","0","0","19623","","null","","","null","17","","NaN","","","","","","","","","","","","","",""
"","response","","html-keyboard-response","118","218303","0.0-1.0-158.0-0.0","0","0","19623","","216","","","68","17","","","1","17","training","adjacent","CD","3","4","Q.jpg","L.jpg","0","1","0","",""
"","feedback","","html-keyboard-response","119","219311","0.0-1.0-159.0-0.0","0","0","19623","","null","","","null","17","","","","","","","","","","","","","","","",""
"","time_out","","html-keyboard-response","120","221320","0.0-1.0-161.0-0.0","0","0","19623","","null","","","null","17","","","","","","","","","","","","","","","",""
"","ITI","","html-keyboard-response","121","222326","0.0-1.0-162.0","0","0","19623","","null","","","null","17","","","","","","","","","","","","","","","NaN",""
"","S1","","html-keyboard-response","122","222486","0.0-1.0-164.0","0","0","19623","","null","","","null","18","","","","","","","","","","","","","","","",""
"","ISI","","html-keyboard-response","123","224495","0.0-1.0-165.0","0","0","19623","","null","","","null","18","NaN","","","","","","","","","","","","","","",""
"","S2","","html-keyboard-response","124","224654","0.0-1.0-166.0","0","0","19623","","null","","","null","18","","NaN","","","","","","","","","","","","","",""
"","response","","html-keyboard-response","125","225763","0.0-1.0-167.0-0.0","0","0","19623","","1106","","","68","18","","","1","18","training","adjacent","EF","5","6","R.jpg","N.jpg","0","1","0","",""
"","feedback","","html-keyboard-response","126","226772","0.0-1.0-168.0-0.0","0","0","19623","","null","","","null","18","","","","","","","","","","","","","","","",""
"","time_out","","html-keyboard-response","127","228781","0.0-1.0-170.0-0.0","0","0","19623","","null","","","null","18","","","","","","","","","","","","","","","",""
"","ITI","","html-keyboard-response","128","229791","0.0-1.0-171.0","0","0","19623","","null","","","null","18","","","","","","","","","","","","","","","NaN",""
"","S1","","html-keyboard-response","129","229951","0.0-1.0-173.0","0","0","19623","","null","","","null","19","","","","","","","","","","","","","","","",""
"","ISI","","html-keyboard-response","130","231957","0.0-1.0-174.0","0","0","19623","","null","","","null","19","NaN","","","","","","","","","","","","","","",""
"","S2","","html-keyboard-response","131","232118","0.0-1.0-175.0","0","0","19623","","null","","","null","19","","NaN","","","","","","","","","","","","","",""
"","response","","html-keyboard-response","132","233526","0.0-1.0-176.0-0.0","0","0","19623","","1405","","","75","19","","","1","19","training","adjacent","FE","6","5","N.jpg","R.jpg","1","0","0","",""
"","feedback","","html-keyboard-response","133","234534","0.0-1.0-177.0-0.0","0","0","19623","","null","","","null","19","","","","","","","","","","","","","","","",""
"","time_out","","html-keyboard-response","134","236543","0.0-1.0-179.0-0.0","0","0","19623","","null","","","null","19","","","","","","","","","","","","","","","",""
"","ITI","","html-keyboard-response","135","237550","0.0-1.0-180.0","0","0","19623","","null","","","null","19","","","","","","","","","","","","","","","NaN",""
"","S1","","html-keyboard-response","136","237710","0.0-1.0-182.0","0","0","19623","","null","","","null","20","","","","","","","","","","","","","","","",""
"","ISI","","html-keyboard-response","137","239716","0.0-1.0-183.0","0","0","19623","","null","","","null","20","NaN","","","","","","","","","","","","","","",""
"","S2","","html-keyboard-response","138","239878","0.0-1.0-184.0","0","0","19623","","null","","","null","20","","NaN","","","","","","","","","","","","","",""
"","response","","html-keyboard-response","139","241111","0.0-1.0-185.0-0.0","0","0","19623","","1230","","","75","20","","","1","20","training","adjacent","GF","7","6","M.jpg","N.jpg","1","0","0","",""
"","feedback","","html-keyboard-response","140","242119","0.0-1.0-186.0-0.0","0","0","19623","","null","","","null","20","","","","","","","","","","","","","","","",""
"","time_out","","html-keyboard-response","141","244127","0.0-1.0-188.0-0.0","0","0","19623","","null","","","null","20","","","","","","","","","","","","","","","",""
"","ITI","","html-keyboard-response","142","245134","0.0-1.0-189.0","0","0","19623","","null","","","null","20","","","","","","","","","","","","","","","NaN",""
"","S1","","html-keyboard-response","143","245294","0.0-1.0-191.0","0","0","19623","","null","","","null","21","","","","","","","","","","","","","","","",""
"","ISI","","html-keyboard-response","144","247303","0.0-1.0-192.0","0","0","19623","","null","","","null","21","NaN","","","","","","","","","","","","","","",""
"","S2","","html-keyboard-response","145","247462","0.0-1.0-193.0","0","0","19623","","null","","","null","21","","NaN","","","","","","","","","","","","","",""
"","response","","html-keyboard-response","146","248724","0.0-1.0-194.0-0.0","0","0","19623","","1259","","","75","21","","","1","21","training","adjacent","FG","6","7","N.jpg","M.jpg","1","1","1","",""
"","feedback","","html-keyboard-response","147","249735","0.0-1.0-195.0-0.0","0","0","19623","","null","","","null","21","","","","","","","","","","","","","","","",""
"","ITI","","html-keyboard-response","148","250742","0.0-1.0-198.0","0","0","19623","","null","","","null","21","","","","","","","","","","","","","","","NaN",""
"","S1","","html-keyboard-response","149","250902","0.0-1.0-200.0","0","0","19623","","null","","","null","22","","","","","","","","","","","","","","","",""
"","ISI","","html-keyboard-response","150","252910","0.0-1.0-201.0","0","0","19623","","null","","","null","22","NaN","","","","","","","","","","","","","","",""
"","S2","","html-keyboard-response","151","253070","0.0-1.0-202.0","0","0","19623","","null","","","null","22","","NaN","","","","","","","","","","","","","",""
"","response","","html-keyboard-response","152","254277","0.0-1.0-203.0-0.0","0","0","19623","","1205","","","75","22","","","1","22","training","adjacent","EF","5","6","R.jpg","N.jpg","1","1","1","",""
"","feedback","","html-keyboard-response","153","255287","0.0-1.0-204.0-0.0","0","0","19623","","null","","","null","22","","","","","","","","","","","","","","","",""
"","ITI","","html-keyboard-response","154","256295","0.0-1.0-207.0","0","0","19623","","null","","","null","22","","","","","","","","","","","","","","","NaN",""
"","S1","","html-keyboard-response","155","256454","0.0-1.0-209.0","0","0","19623","","null","","","null","23","","","","","","","","","","","","","","","",""
"","ISI","","html-keyboard-response","156","258462","0.0-1.0-210.0","0","0","19623","","null","","","null","23","NaN","","","","","","","","","","","","","","",""
"","S2","","html-keyboard-response","157","258622","0.0-1.0-211.0","0","0","19623","","null","","","null","23","","NaN","","","","","","","","","","","","","",""
"","response","","html-keyboard-response","158","258832","0.0-1.0-212.0-0.0","0","0","19623","","207","","","68","23","","","1","23","training","adjacent","CD","3","4","Q.jpg","L.jpg","0","1","0","",""
"","feedback","","html-keyboard-response","159","259838","0.0-1.0-213.0-0.0","0","0","19623","","null","","","null","23","","","","","","","","","","","","","","","",""
"","time_out","","html-keyboard-response","160","261847","0.0-1.0-215.0-0.0","0","0","19623","","null","","","null","23","","","","","","","","","","","","","","","",""
"","ITI","","html-keyboard-response","161","262854","0.0-1.0-216.0","0","0","19623","","null","","","null","23","","","","","","","","","","","","","","","NaN",""
"","S1","","html-keyboard-response","162","263014","0.0-1.0-218.0","0","0","19623","","null","","","null","24","","","","","","","","","","","","","","","",""
"","ISI","","html-keyboard-response","163","265022","0.0-1.0-219.0","0","0","19623","","null","","","null","24","NaN","","","","","","","","","","","","","","",""
"","S2","","html-keyboard-response","164","265182","0.0-1.0-220.0","0","0","19623","","null","","","null","24","","NaN","","","","","","","","","","","","","",""
"","response","","html-keyboard-response","165","265820","0.0-1.0-221.0-0.0","0","0","19623","","635","","","75","24","","","1","24","training","adjacent","DC","4","3","L.jpg","Q.jpg","1","0","0","",""
"","feedback","","html-keyboard-response","166","266831","0.0-1.0-222.0-0.0","0","0","19623","","null","","","null","24","","","","","","","","","","","","","","","",""
"","time_out","","html-keyboard-response","167","268839","0.0-1.0-224.0-0.0","0","0","19623","","null","","","null","24","","","","","","","","","","","","","","","",""
"","ITI","","html-keyboard-response","168","269846","0.0-1.0-225.0","0","0","19623","","null","","","null","24","","","","","","","","","","","","","","","NaN",""
"","S1","","html-keyboard-response","169","270006","0.0-1.0-227.0","0","0","19623","","null","","","null","25","","","","","","","","","","","","","","","",""
"","ISI","","html-keyboard-response","170","272015","0.0-1.0-228.0","0","0","19623","","null","","","null","25","NaN","","","","","","","","","","","","","","",""
"","S2","","html-keyboard-response","171","272174","0.0-1.0-229.0","0","0","19623","","null","","","null","25","","NaN","","","","","","","","","","","","","",""
"","response","","html-keyboard-response","172","273386","0.0-1.0-230.0-0.0","0","0","19623","","1210","","","68","25","","","1","25","training","adjacent","ED","5","4","R.jpg","L.jpg","0","0","1","",""
"","feedback","","html-keyboard-response","173","274397","0.0-1.0-231.0-0.0","0","0","19623","","null","","","null","25","","","","","","","","","","","","","","","",""
"","ITI","","html-keyboard-response","174","275407","0.0-1.0-234.0","0","0","19623","","null","","","null","25","","","","","","","","","","","","","","","NaN",""
"","S1","","html-keyboard-response","175","275567","0.0-1.0-236.0","0","0","19623","","null","","","null","26","","","","","","","","","","","","","","","",""
"","ISI","","html-keyboard-response","176","277575","0.0-1.0-237.0","0","0","19623","","null","","","null","26","NaN","","","","","","","","","","","","","","",""
"","S2","","html-keyboard-response","177","277735","0.0-1.0-238.0","0","0","19623","","null","","","null","26","","NaN","","","","","","","","","","","","","",""
"","response","","html-keyboard-response","178","279550","0.0-1.0-239.0-0.0","0","0","19623","","1813","","","75","26","","","1","26","training","adjacent","BC","2","3","P.jpg","Q.jpg","1","1","1","",""
"","feedback","","html-keyboard-response","179","280559","0.0-1.0-240.0-0.0","0","0","19623","","null","","","null","26","","","","","","","","","","","","","","","",""
"","ITI","","html-keyboard-response","180","281566","0.0-1.0-243.0","0","0","19623","","null","","","null","26","","","","","","","","","","","","","","","NaN",""
"","S1","","html-keyboard-response","181","281726","0.0-1.0-245.0","0","0","19623","","null","","","null","27","","","","","","","","","","","","","","","",""
"","ISI","","html-keyboard-response","182","283735","0.0-1.0-246.0","0","0","19623","","null","","","null","27","NaN","","","","","","","","","","","","","","",""
"","S2","","html-keyboard-response","183","283894","0.0-1.0-247.0","0","0","19623","","null","","","null","27","","NaN","","","","","","","","","","","","","",""
"","response","","html-keyboard-response","184","284433","0.0-1.0-248.0-0.0","0","0","19623","","537","","","68","27","","","1","27","training","adjacent","CB","3","2","Q.jpg","P.jpg","0","0","1","",""
"","feedback","","html-keyboard-response","185","285447","0.0-1.0-249.0-0.0","0","0","19623","","null","","","null","27","","","","","","","","","","","","","","","",""
"","ITI","","html-keyboard-response","186","286454","0.0-1.0-252.0","0","0","19623","","null","","","null","27","","","","","","","","","","","","","","","NaN",""
"","S1","","html-keyboard-response","187","286614","0.0-1.0-254.0","0","0","19623","","null","","","null","28","","","","","","","","","","","","","","","",""
"","ISI","","html-keyboard-response","188","288623","0.0-1.0-255.0","0","0","19623","","null","","","null","28","NaN","","","","","","","","","","","","","","",""
"","S2","","html-keyboard-response","189","288782","0.0-1.0-256.0","0","0","19623","","null","","","null","28","","NaN","","","","","","","","","","","","","",""
"","response","","html-keyboard-response","190","289399","0.0-1.0-257.0-0.0","0","0","19623","","614","","","75","28","","","1","28","training","adjacent","BC","2","3","P.jpg","Q.jpg","1","1","1","",""
"","feedback","","html-keyboard-response","191","290407","0.0-1.0-258.0-0.0","0","0","19623","","null","","","null","28","","","","","","","","","","","","","","","",""
"","ITI","","html-keyboard-response","192","291415","0.0-1.0-261.0","0","0","19623","","null","","","null","28","","","","","","","","","","","","","","","NaN",""
"","S1","","html-keyboard-response","193","291574","0.0-1.0-263.0","0","0","19623","","null","","","null","29","","","","","","","","","","","","","","","",""
"","ISI","","html-keyboard-response","194","293582","0.0-1.0-264.0","0","0","19623","","null","","","null","29","NaN","","","","","","","","","","","","","","",""
"","S2","","html-keyboard-response","195","293743","0.0-1.0-265.0","0","0","19623","","null","","","null","29","","NaN","","","","","","","","","","","","","",""
"","response","","html-keyboard-response","196","294818","0.0-1.0-266.0-0.0","0","0","19623","","1074","","","68","29","","","1","29","training","adjacent","BA","2","1","P.jpg","O.jpg","0","0","1","",""
"","feedback","","html-keyboard-response","197","295829","0.0-1.0-267.0-0.0","0","0","19623","","null","","","null","29","","","","","","","","","","","","","","","",""
"","ITI","","html-keyboard-response","198","296839","0.0-1.0-270.0","0","0","19623","","null","","","null","29","","","","","","","","","","","","","","","NaN",""
"","S1","","html-keyboard-response","199","296999","0.0-1.0-272.0","0","0","19623","","null","","","null","30","","","","","","","","","","","","","","","",""
"","ISI","","html-keyboard-response","200","299008","0.0-1.0-273.0","0","0","19623","","null","","","null","30","NaN","","","","","","","","","","","","","","",""
"","S2","","html-keyboard-response","201","299167","0.0-1.0-274.0","0","0","19623","","null","","","null","30","","NaN","","","","","","","","","","","","","",""
"","response","","html-keyboard-response","202","299687","0.0-1.0-275.0-0.0","0","0","19623","","517","","","68","30","","","1","30","training","adjacent","CD","3","4","Q.jpg","L.jpg","0","1","0","",""
"","feedback","","html-keyboard-response","203","300694","0.0-1.0-276.0-0.0","0","0","19623","","null","","","null","30","","","","","","","","","","","","","","","",""
"","time_out","","html-keyboard-response","204","302702","0.0-1.0-278.0-0.0","0","0","19623","","null","","","null","30","","","","","","","","","","","","","","","",""
"","ITI","","html-keyboard-response","205","303710","0.0-1.0-279.0","0","0","19623","","null","","","null","30","","","","","","","","","","","","","","","NaN",""
"","S1","","html-keyboard-response","206","303868","0.0-1.0-281.0","0","0","19623","","null","","","null","31","","","","","","","","","","","","","","","",""
"","ISI","","html-keyboard-response","207","305878","0.0-1.0-282.0","0","0","19623","","null","","","null","31","NaN","","","","","","","","","","","","","","",""
"","S2","","html-keyboard-response","208","306040","0.0-1.0-283.0","0","0","19623","","null","","","null","31","","NaN","","","","","","","","","","","","","",""
"","response","","html-keyboard-response","209","307230","0.0-1.0-284.0-0.0","0","0","19623","","1188","","","75","31","","","1","31","training","adjacent","DE","4","5","L.jpg","R.jpg","1","1","1","",""
"","feedback","","html-keyboard-response","210","308238","0.0-1.0-285.0-0.0","0","0","19623","","null","","","null","31","","","","","","","","","","","","","","","",""
"","ITI","","html-keyboard-response","211","309248","0.0-1.0-288.0","0","0","19623","","null","","","null","31","","","","","","","","","","","","","","","NaN",""
"","S1","","html-keyboard-response","212","309407","0.0-1.0-290.0","0","0","19623","","null","","","null","32","","","","","","","","","","","","","","","",""
"","ISI","","html-keyboard-response","213","311414","0.0-1.0-291.0","0","0","19623","","null","","","null","32","NaN","","","","","","","","","","","","","","",""
"","S2","","html-keyboard-response","214","311575","0.0-1.0-292.0","0","0","19623","","null","","","null","32","","NaN","","","","","","","","","","","","","",""
"","response","","html-keyboard-response","215","312737","0.0-1.0-293.0-0.0","0","0","19623","","1159","","","75","32","","","1","32","training","adjacent","DC","4","3","L.jpg","Q.jpg","1","0","0","",""
"","feedback","","html-keyboard-response","216","313749","0.0-1.0-294.0-0.0","0","0","19623","","null","","","null","32","","","","","","","","","","","","","","","",""
"","time_out","","html-keyboard-response","217","315758","0.0-1.0-296.0-0.0","0","0","19623","","null","","","null","32","","","","","","","","","","","","","","","",""
"","ITI","","html-keyboard-response","218","316768","0.0-1.0-297.0","0","0","19623","","null","","","null","32","","","","","","","","","","","","","","","NaN",""
"","S1","","html-keyboard-response","219","316928","0.0-1.0-299.0","0","0","19623","","null","","","null","33","","","","","","","","","","","","","","","",""
"","ISI","","html-keyboard-response","220","318933","0.0-1.0-300.0","0","0","19623","","null","","","null","33","NaN","","","","","","","","","","","","","","",""
"","S2","","html-keyboard-response","221","319094","0.0-1.0-301.0","0","0","19623","","null","","","null","33","","NaN","","","","","","","","","","","","","",""
"","response","","html-keyboard-response","222","319697","0.0-1.0-302.0-0.0","0","0","19623","","601","","","68","33","","","1","33","training","adjacent","ED","5","4","R.jpg","L.jpg","0","0","1","",""
"","feedback","","html-keyboard-response","223","320708","0.0-1.0-303.0-0.0","0","0","19623","","null","","","null","33","","","","","","","","","","","","","","","",""
"","ITI","","html-keyboard-response","224","321720","0.0-1.0-306.0","0","0","19623","","null","","","null","33","","","","","","","","","","","","","","","NaN",""
"","S1","","html-keyboard-response","225","321880","0.0-1.0-308.0","0","0","19623","","null","","","null","34","","","","","","","","","","","","","","","",""
"","ISI","","html-keyboard-response","226","323887","0.0-1.0-309.0","0","0","19623","","null","","","null","34","NaN","","","","","","","","","","","","","","",""
"","S2","","html-keyboard-response","227","324047","0.0-1.0-310.0","0","0","19623","","null","","","null","34","","NaN","","","","","","","","","","","","","",""
"","response","","html-keyboard-response","228","324788","0.0-1.0-311.0-0.0","0","0","19623","","738","","","68","34","","","1","34","training","adjacent","BA","2","1","P.jpg","O.jpg","0","0","1","",""
"","feedback","","html-keyboard-response","229","325798","0.0-1.0-312.0-0.0","0","0","19623","","null","","","null","34","","","","","","","","","","","","","","","",""
"","ITI","","html-keyboard-response","230","326808","0.0-1.0-315.0","0","0","19623","","null","","","null","34","","","","","","","","","","","","","","","NaN",""
"","S1","","html-keyboard-response","231","326967","0.0-1.0-317.0","0","0","19623","","null","","","null","35","","","","","","","","","","","","","","","",""
"","ISI","","html-keyboard-response","232","328976","0.0-1.0-318.0","0","0","19623","","null","","","null","35","NaN","","","","","","","","","","","","","","",""
"","S2","","html-keyboard-response","233","329136","0.0-1.0-319.0","0","0","19623","","null","","","null","35","","NaN","","","","","","","","","","","","","",""
"","response","","html-keyboard-response","234","329245","0.0-1.0-320.0-0.0","0","0","19623","","108","","","75","35","","","1","35","training","adjacent","AB","1","2","O.jpg","P.jpg","1","1","1","",""
"","feedback","","html-keyboard-response","235","330256","0.0-1.0-321.0-0.0","0","0","19623","","null","","","null","35","","","","","","","","","","","","","","","",""
"","ITI","","html-keyboard-response","236","331272","0.0-1.0-324.0","0","0","19623","","null","","","null","35","","","","","","","","","","","","","","","NaN",""
"","S1","","html-keyboard-response","237","331431","0.0-1.0-326.0","0","0","19623","","null","","","null","36","","","","","","","","","","","","","","","",""
"","ISI","","html-keyboard-response","238","333439","0.0-1.0-327.0","0","0","19623","","null","","","null","36","NaN","","","","","","","","","","","","","","",""
"","S2","","html-keyboard-response","239","333600","0.0-1.0-328.0","0","0","19623","","null","","","null","36","","NaN","","","","","","","","","","","","","",""
"","response","","html-keyboard-response","240","334530","0.0-1.0-329.0-0.0","0","0","19623","","929","","","75","36","","","1","36","training","adjacent","DE","4","5","L.jpg","R.jpg","1","1","1","",""
"","feedback","","html-keyboard-response","241","335541","0.0-1.0-330.0-0.0","0","0","19623","","null","","","null","36","","","","","","","","","","","","","","","",""
"","ITI","","html-keyboard-response","242","336551","0.0-1.0-333.0","0","0","19623","","null","","","null","36","","","","","","","","","","","","","","","NaN",""
"","S1","","html-keyboard-response","243","336711","0.0-1.0-335.0","0","0","19623","","null","","","null","37","","","","","","","","","","","","","","","",""
"","ISI","","html-keyboard-response","244","338720","0.0-1.0-336.0","0","0","19623","","null","","","null","37","NaN","","","","","","","","","","","","","","",""
"","S2","","html-keyboard-response","245","338879","0.0-1.0-337.0","0","0","19623","","null","","","null","37","","NaN","","","","","","","","","","","","","",""
"","response","","html-keyboard-response","246","339863","0.0-1.0-338.0-0.0","0","0","19623","","982","","","68","37","","","1","37","training","adjacent","CD","3","4","Q.jpg","L.jpg","0","1","0","",""
"","feedback","","html-keyboard-response","247","340870","0.0-1.0-339.0-0.0","0","0","19623","","null","","","null","37","","","","","","","","","","","","","","","",""
"","time_out","","html-keyboard-response","248","342879","0.0-1.0-341.0-0.0","0","0","19623","","null","","","null","37","","","","","","","","","","","","","","","",""
"","ITI","","html-keyboard-response","249","343887","0.0-1.0-342.0","0","0","19623","","null","","","null","37","","","","","","","","","","","","","","","NaN",""
"","S1","","html-keyboard-response","250","344046","0.0-1.0-344.0","0","0","19623","","null","","","null","38","","","","","","","","","","","","","","","",""
"","ISI","","html-keyboard-response","251","346054","0.0-1.0-345.0","0","0","19623","","null","","","null","38","NaN","","","","","","","","","","","","","","",""
"","S2","","html-keyboard-response","252","346214","0.0-1.0-346.0","0","0","19623","","null","","","null","38","","NaN","","","","","","","","","","","","","",""
"","response","","html-keyboard-response","253","347197","0.0-1.0-347.0-0.0","0","0","19623","","981","","","68","38","","","1","38","training","adjacent","EF","5","6","R.jpg","N.jpg","0","1","0","",""
"","feedback","","html-keyboard-response","254","348208","0.0-1.0-348.0-0.0","0","0","19623","","null","","","null","38","","","","","","","","","","","","","","","",""
"","time_out","","html-keyboard-response","255","350216","0.0-1.0-350.0-0.0","0","0","19623","","null","","","null","38","","","","","","","","","","","","","","","",""
"","ITI","","html-keyboard-response","256","351224","0.0-1.0-351.0","0","0","19623","","null","","","null","38","","","","","","","","","","","","","","","NaN",""
"","S1","","html-keyboard-response","257","351383","0.0-1.0-353.0","0","0","19623","","null","","","null","39","","","","","","","","","","","","","","","",""
"","ISI","","html-keyboard-response","258","353392","0.0-1.0-354.0","0","0","19623","","null","","","null","39","NaN","","","","","","","","","","","","","","",""
"","S2","","html-keyboard-response","259","353552","0.0-1.0-355.0","0","0","19623","","null","","","null","39","","NaN","","","","","","","","","","","","","",""
"","response","","html-keyboard-response","260","354544","0.0-1.0-356.0-0.0","0","0","19623","","989","","","68","39","","","1","39","training","adjacent","FE","6","5","N.jpg","R.jpg","0","0","1","",""
"","feedback","","html-keyboard-response","261","355551","0.0-1.0-357.0-0.0","0","0","19623","","null","","","null","39","","","","","","","","","","","","","","","",""
"","ITI","","html-keyboard-response","262","356558","0.0-1.0-360.0","0","0","19623","","null","","","null","39","","","","","","","","","","","","","","","NaN",""
"","S1","","html-keyboard-response","263","356718","0.0-1.0-362.0","0","0","19623","","null","","","null","40","","","","","","","","","","","","","","","",""
"","ISI","","html-keyboard-response","264","358726","0.0-1.0-363.0","0","0","19623","","null","","","null","40","NaN","","","","","","","","","","","","","","",""
"","S2","","html-keyboard-response","265","358886","0.0-1.0-364.0","0","0","19623","","null","","","null","40","","NaN","","","","","","","","","","","","","",""
"","response","","html-keyboard-response","266","359580","0.0-1.0-365.0-0.0","0","0","19623","","691","","","75","40","","","1","40","training","adjacent","DE","4","5","L.jpg","R.jpg","1","1","1","",""
"","feedback","","html-keyboard-response","267","360590","0.0-1.0-366.0-0.0","0","0","19623","","null","","","null","40","","","","","","","","","","","","","","","",""
"","ITI","","html-keyboard-response","268","361600","0.0-1.0-369.0","0","0","19623","","null","","","null","40","","","","","","","","","","","","","","","NaN",""
"","S1","","html-keyboard-response","269","361757","0.0-1.0-371.0","0","0","19623","","null","","","null","41","","","","","","","","","","","","","","","",""
"","ISI","","html-keyboard-response","270","363765","0.0-1.0-372.0","0","0","19623","","null","","","null","41","NaN","","","","","","","","","","","","","","",""
"","S2","","html-keyboard-response","271","363927","0.0-1.0-373.0","0","0","19623","","null","","","null","41","","NaN","","","","","","","","","","","","","",""
"","response","","html-keyboard-response","272","364519","0.0-1.0-374.0-0.0","0","0","19623","","589","","","68","41","","","1","41","training","adjacent","BA","2","1","P.jpg","O.jpg","0","0","1","",""
"","feedback","","html-keyboard-response","273","365527","0.0-1.0-375.0-0.0","0","0","19623","","null","","","null","41","","","","","","","","","","","","","","","",""
"","ITI","","html-keyboard-response","274","366534","0.0-1.0-378.0","0","0","19623","","null","","","null","41","","","","","","","","","","","","","","","NaN",""
"","S1","","html-keyboard-response","275","366695","0.0-1.0-380.0","0","0","19623","","null","","","null","42","","","","","","","","","","","","","","","",""
"","ISI","","html-keyboard-response","276","368702","0.0-1.0-381.0","0","0","19623","","null","","","null","42","NaN","","","","","","","","","","","","","","",""
"","S2","","html-keyboard-response","277","368862","0.0-1.0-382.0","0","0","19623","","null","","","null","42","","NaN","","","","","","","","","","","","","",""
"","response","","html-keyboard-response","278","369101","0.0-1.0-383.0-0.0","0","0","19623","","236","","","75","42","","","1","42","training","adjacent","DC","4","3","L.jpg","Q.jpg","1","0","0","",""
"","feedback","","html-keyboard-response","279","370110","0.0-1.0-384.0-0.0","0","0","19623","","null","","","null","42","","","","","","","","","","","","","","","",""
"","time_out","","html-keyboard-response","280","372119","0.0-1.0-386.0-0.0","0","0","19623","","null","","","null","42","","","","","","","","","","","","","","","",""
"","ITI","","html-keyboard-response","281","373126","0.0-1.0-387.0","0","0","19623","","null","","","null","42","","","","","","","","","","","","","","","NaN",""
"","S1","","html-keyboard-response","282","373285","0.0-1.0-389.0","0","0","19623","","null","","","null","43","","","","","","","","","","","","","","","",""
"","ISI","","html-keyboard-response","283","375294","0.0-1.0-390.0","0","0","19623","","null","","","null","43","NaN","","","","","","","","","","","","","","",""
"","S2","","html-keyboard-response","284","375454","0.0-1.0-391.0","0","0","19623","","null","","","null","43","","NaN","","","","","","","","","","","","","",""
"","response","","html-keyboard-response","285","376000","0.0-1.0-392.0-0.0","0","0","19623","","543","","","68","43","","","1","43","training","adjacent","GF","7","6","M.jpg","N.jpg","0","0","1","",""
"","feedback","","html-keyboard-response","286","377006","0.0-1.0-393.0-0.0","0","0","19623","","null","","","null","43","","","","","","","","","","","","","","","",""
"","ITI","","html-keyboard-response","287","378014","0.0-1.0-396.0","0","0","19623","","null","","","null","43","","","","","","","","","","","","","","","NaN",""
"","S1","","html-keyboard-response","288","378173","0.0-1.0-398.0","0","0","19623","","null","","","null","44","","","","","","","","","","","","","","","",""
"","ISI","","html-keyboard-response","289","380182","0.0-1.0-399.0","0","0","19623","","null","","","null","44","NaN","","","","","","","","","","","","","","",""
"","S2","","html-keyboard-response","290","380344","0.0-1.0-400.0","0","0","19623","","null","","","null","44","","NaN","","","","","","","","","","","","","",""
"","response","","html-keyboard-response","291","380570","0.0-1.0-401.0-0.0","0","0","19623","","223","","","68","44","","","1","44","training","adjacent","GF","7","6","M.jpg","N.jpg","0","0","1","",""
"","feedback","","html-keyboard-response","292","381584","0.0-1.0-402.0-0.0","0","0","19623","","null","","","null","44","","","","","","","","","","","","","","","",""
"","ITI","","html-keyboard-response","293","382591","0.0-1.0-405.0","0","0","19623","","null","","","null","44","","","","","","","","","","","","","","","NaN",""
"","S1","","html-keyboard-response","294","382751","0.0-1.0-407.0","0","0","19623","","null","","","null","45","","","","","","","","","","","","","","","",""
"","ISI","","html-keyboard-response","295","384759","0.0-1.0-408.0","0","0","19623","","null","","","null","45","NaN","","","","","","","","","","","","","","",""
"","S2","","html-keyboard-response","296","384919","0.0-1.0-409.0","0","0","19623","","null","","","null","45","","NaN","","","","","","","","","","","","","",""
"","response","","html-keyboard-response","297","385553","0.0-1.0-410.0-0.0","0","0","19623","","633","","","75","45","","","1","45","training","adjacent","AB","1","2","O.jpg","P.jpg","1","1","1","",""
"","feedback","","html-keyboard-response","298","386566","0.0-1.0-411.0-0.0","0","0","19623","","null","","","null","45","","","","","","","","","","","","","","","",""
"","ITI","","html-keyboard-response","299","387575","0.0-1.0-414.0","0","0","19623","","0","","","68","45","","","","","","","","","","","","","","","d",""
"","S1","","html-keyboard-response","300","387734","0.0-1.0-416.0","0","0","19623","","null","","","null","46","","","","","","","","","","","","","","","",""
"","ISI","","html-keyboard-response","301","389743","0.0-1.0-417.0","0","0","19623","","null","","","null","46","NaN","","","","","","","","","","","","","","",""
"","S2","","html-keyboard-response","302","389902","0.0-1.0-418.0","0","0","19623","","null","","","null","46","","NaN","","","","","","","","","","","","","",""
"","response","","html-keyboard-response","303","391481","0.0-1.0-419.0-0.0","0","0","19623","","1577","","","75","46","","","1","46","training","adjacent","DC","4","3","L.jpg","Q.jpg","1","0","0","",""
"","feedback","","html-keyboard-response","304","392495","0.0-1.0-420.0-0.0","0","0","19623","","null","","","null","46","","","","","","","","","","","","","","","",""
"","time_out","","html-keyboard-response","305","394501","0.0-1.0-422.0-0.0","0","0","19623","","null","","","null","46","","","","","","","","","","","","","","","",""
"","ITI","","html-keyboard-response","306","395509","0.0-1.0-423.0","0","0","19623","","null","","","null","46","","","","","","","","","","","","","","","NaN",""
"","S1","","html-keyboard-response","307","395670","0.0-1.0-425.0","0","0","19623","","null","","","null","47","","","","","","","","","","","","","","","",""
"","ISI","","html-keyboard-response","308","397678","0.0-1.0-426.0","0","0","19623","","null","","","null","47","NaN","","","","","","","","","","","","","","",""
"","S2","","html-keyboard-response","309","397838","0.0-1.0-427.0","0","0","19623","","null","","","null","47","","NaN","","","","","","","","","","","","","",""
"","response","","html-keyboard-response","310","399147","0.0-1.0-428.0-0.0","0","0","19623","","1307","","","75","47","","","1","47","training","adjacent","FE","6","5","N.jpg","R.jpg","1","0","0","",""
"","feedback","","html-keyboard-response","311","400160","0.0-1.0-429.0-0.0","0","0","19623","","null","","","null","47","","","","","","","","","","","","","","","",""
"","time_out","","html-keyboard-response","312","402165","0.0-1.0-431.0-0.0","0","0","19623","","null","","","null","47","","","","","","","","","","","","","","","",""
"","ITI","","html-keyboard-response","313","403175","0.0-1.0-432.0","0","0","19623","","null","","","null","47","","","","","","","","","","","","","","","NaN",""
"","block_over","","html-keyboard-response","314","419818","0.0-1.0-433.0-0.0","0","0","19623","","16640","","","32","47","","","","","","","","","","","","","","","",""
"","S1","","html-keyboard-response","315","419975","0.0-1.0-434.0","0","0","19623","","null","","","null","48","","","","","","","","","","","","","","","",""
"","ISI","","html-keyboard-response","316","421982","0.0-1.0-435.0","0","0","19623","","null","","","null","48","NaN","","","","","","","","","","","","","","",""
"","S2","","html-keyboard-response","317","422144","0.0-1.0-436.0","0","0","19623","","null","","","null","48","","NaN","","","","","","","","","","","","","",""
"","response","","html-keyboard-response","318","422582","0.0-1.0-437.0-0.0","0","0","19623","","435","","","75","48","","","2","48","training","adjacent","BC","2","3","P.jpg","Q.jpg","1","1","1","",""
"","feedback","","html-keyboard-response","319","423591","0.0-1.0-438.0-0.0","0","0","19623","","null","","","null","48","","","","","","","","","","","","","","","",""
"","ITI","","html-keyboard-response","320","424598","0.0-1.0-441.0","0","0","19623","","null","","","null","48","","","","","","","","","","","","","","","NaN",""
"","S1","","html-keyboard-response","321","424758","0.0-1.0-443.0","0","0","19623","","null","","","null","49","","","","","","","","","","","","","","","",""
"","ISI","","html-keyboard-response","322","426767","0.0-1.0-444.0","0","0","19623","","null","","","null","49","NaN","","","","","","","","","","","","","","",""
"","S2","","html-keyboard-response","323","426926","0.0-1.0-445.0","0","0","19623","","null","","","null","49","","NaN","","","","","","","","","","","","","",""
"","response","","html-keyboard-response","324","427681","0.0-1.0-446.0-0.0","0","0","19623","","752","","","75","49","","","2","49","training","adjacent","BC","2","3","P.jpg","Q.jpg","1","1","1","",""
"","feedback","","html-keyboard-response","325","428694","0.0-1.0-447.0-0.0","0","0","19623","","null","","","null","49","","","","","","","","","","","","","","","",""
"","ITI","","html-keyboard-response","326","429704","0.0-1.0-450.0","0","0","19623","","null","","","null","49","","","","","","","","","","","","","","","NaN",""
"","S1","","html-keyboard-response","327","429864","0.0-1.0-452.0","0","0","19623","","null","","","null","50","","","","","","","","","","","","","","","",""
"","ISI","","html-keyboard-response","328","431868","0.0-1.0-453.0","0","0","19623","","null","","","null","50","NaN","","","","","","","","","","","","","","",""
"","S2","","html-keyboard-response","329","432032","0.0-1.0-454.0","0","0","19623","","null","","","null","50","","NaN","","","","","","","","","","","","","",""
"","response","","html-keyboard-response","330","432280","0.0-1.0-455.0-0.0","0","0","19623","","245","","","75","50","","","2","50","training","adjacent","BC","2","3","P.jpg","Q.jpg","1","1","1","",""
"","feedback","","html-keyboard-response","331","433286","0.0-1.0-456.0-0.0","0","0","19623","","null","","","null","50","","","","","","","","","","","","","","","",""
"","ITI","","html-keyboard-response","332","434295","0.0-1.0-459.0","0","0","19623","","null","","","null","50","","","","","","","","","","","","","","","NaN",""
"","S1","","html-keyboard-response","333","434456","0.0-1.0-461.0","0","0","19623","","null","","","null","51","","","","","","","","","","","","","","","",""
"","ISI","","html-keyboard-response","334","436461","0.0-1.0-462.0","0","0","19623","","null","","","null","51","NaN","","","","","","","","","","","","","","",""
"","S2","","html-keyboard-response","335","436624","0.0-1.0-463.0","0","0","19623","","null","","","null","51","","NaN","","","","","","","","","","","","","",""
"","response","","html-keyboard-response","336","437287","0.0-1.0-464.0-0.0","0","0","19623","","660","","","68","51","","","2","51","training","adjacent","FG","6","7","N.jpg","M.jpg","0","1","0","",""
"","feedback","","html-keyboard-response","337","438296","0.0-1.0-465.0-0.0","0","0","19623","","null","","","null","51","","","","","","","","","","","","","","","",""
"","time_out","","html-keyboard-response","338","440303","0.0-1.0-467.0-0.0","0","0","19623","","null","","","null","51","","","","","","","","","","","","","","","",""
"","ITI","","html-keyboard-response","339","441312","0.0-1.0-468.0","0","0","19623","","null","","","null","51","","","","","","","","","","","","","","","NaN",""
"","S1","","html-keyboard-response","340","441471","0.0-1.0-470.0","0","0","19623","","null","","","null","52","","","","","","","","","","","","","","","",""
"","ISI","","html-keyboard-response","341","443480","0.0-1.0-471.0","0","0","19623","","null","","","null","52","NaN","","","","","","","","","","","","","","",""
"","S2","","html-keyboard-response","342","443640","0.0-1.0-472.0","0","0","19623","","null","","","null","52","","NaN","","","","","","","","","","","","","",""
"","response","","html-keyboard-response","343","444830","0.0-1.0-473.0-0.0","0","0","19623","","1188","","","75","52","","","2","52","training","adjacent","EF","5","6","R.jpg","N.jpg","1","1","1","",""
"","feedback","","html-keyboard-response","344","445840","0.0-1.0-474.0-0.0","0","0","19623","","null","","","null","52","","","","","","","","","","","","","","","",""
"","ITI","","html-keyboard-response","345","446846","0.0-1.0-477.0","0","0","19623","","null","","","null","52","","","","","","","","","","","","","","","NaN",""
"","S1","","html-keyboard-response","346","447006","0.0-1.0-479.0","0","0","19623","","null","","","null","53","","","","","","","","","","","","","","","",""
"","ISI","","html-keyboard-response","347","449015","0.0-1.0-480.0","0","0","19623","","null","","","null","53","NaN","","","","","","","","","","","","","","",""
"","S2","","html-keyboard-response","348","449174","0.0-1.0-481.0","0","0","19623","","null","","","null","53","","NaN","","","","","","","","","","","","","",""
"","response","","html-keyboard-response","349","450231","0.0-1.0-482.0-0.0","0","0","19623","","1054","","","75","53","","","2","53","training","adjacent","DE","4","5","L.jpg","R.jpg","1","1","1","",""
"","feedback","","html-keyboard-response","350","451238","0.0-1.0-483.0-0.0","0","0","19623","","null","","","null","53","","","","","","","","","","","","","","","",""
"","ITI","","html-keyboard-response","351","452249","0.0-1.0-486.0","0","0","19623","","null","","","null","53","","","","","","","","","","","","","","","NaN",""
"","S1","","html-keyboard-response","352","452406","0.0-1.0-488.0","0","0","19623","","null","","","null","54","","","","","","","","","","","","","","","",""
"","ISI","","html-keyboard-response","353","454415","0.0-1.0-489.0","0","0","19623","","null","","","null","54","NaN","","","","","","","","","","","","","","",""
"","S2","","html-keyboard-response","354","454575","0.0-1.0-490.0","0","0","19623","","null","","","null","54","","NaN","","","","","","","","","","","","","",""
"","response","","html-keyboard-response","355","455531","0.0-1.0-491.0-0.0","0","0","19623","","954","","","68","54","","","2","54","training","adjacent","BA","2","1","P.jpg","O.jpg","0","0","1","",""
"","feedback","","html-keyboard-response","356","456543","0.0-1.0-492.0-0.0","0","0","19623","","null","","","null","54","","","","","","","","","","","","","","","",""
"","ITI","","html-keyboard-response","357","457550","0.0-1.0-495.0","0","0","19623","","null","","","null","54","","","","","","","","","","","","","","","NaN",""
"","S1","","html-keyboard-response","358","457711","0.0-1.0-497.0","0","0","19623","","null","","","null","55","","","","","","","","","","","","","","","",""
"","ISI","","html-keyboard-response","359","459719","0.0-1.0-498.0","0","0","19623","","null","","","null","55","NaN","","","","","","","","","","","","","","",""
"","S2","","html-keyboard-response","360","459879","0.0-1.0-499.0","0","0","19623","","null","","","null","55","","NaN","","","","","","","","","","","","","",""
"","response","","html-keyboard-response","361","461274","0.0-1.0-500.0-0.0","0","0","19623","","1392","","","75","55","","","2","55","training","adjacent","CB","3","2","Q.jpg","P.jpg","1","0","0","",""
"","feedback","","html-keyboard-response","362","462287","0.0-1.0-501.0-0.0","0","0","19623","","null","","","null","55","","","","","","","","","","","","","","","",""
"","time_out","","html-keyboard-response","363","464296","0.0-1.0-503.0-0.0","0","0","19623","","null","","","null","55","","","","","","","","","","","","","","","",""
"","ITI","","html-keyboard-response","364","465304","0.0-1.0-504.0","0","0","19623","","null","","","null","55","","","","","","","","","","","","","","","NaN",""
"","S1","","html-keyboard-response","365","465463","0.0-1.0-506.0","0","0","19623","","null","","","null","56","","","","","","","","","","","","","","","",""
"","ISI","","html-keyboard-response","366","467471","0.0-1.0-507.0","0","0","19623","","null","","","null","56","NaN","","","","","","","","","","","","","","",""
"","S2","","html-keyboard-response","367","467631","0.0-1.0-508.0","0","0","19623","","null","","","null","56","","NaN","","","","","","","","","","","","","",""
"","response","","html-keyboard-response","368","468475","0.0-1.0-509.0-0.0","0","0","19623","","842","","","75","56","","","2","56","training","adjacent","BC","2","3","P.jpg","Q.jpg","1","1","1","",""
"","feedback","","html-keyboard-response","369","469486","0.0-1.0-510.0-0.0","0","0","19623","","null","","","null","56","","","","","","","","","","","","","","","",""
"","ITI","","html-keyboard-response","370","470496","0.0-1.0-513.0","0","0","19623","","581","","","75","56","","","","","","","","","","","","","","","k",""
"","S1","","html-keyboard-response","371","470656","0.0-1.0-515.0","0","0","19623","","null","","","null","57","","","","","","","","","","","","","","","",""
"","ISI","","html-keyboard-response","372","472665","0.0-1.0-516.0","0","0","19623","","null","","","null","57","NaN","","","","","","","","","","","","","","",""
"","S2","","html-keyboard-response","373","472823","0.0-1.0-517.0","0","0","19623","","null","","","null","57","","NaN","","","","","","","","","","","","","",""
"","response","","html-keyboard-response","374","474179","0.0-1.0-518.0-0.0","0","0","19623","","1354","","","68","57","","","2","57","training","adjacent","FG","6","7","N.jpg","M.jpg","0","1","0","",""
"","feedback","","html-keyboard-response","375","475192","0.0-1.0-519.0-0.0","0","0","19623","","null","","","null","57","","","","","","","","","","","","","","","",""
"","time_out","","html-keyboard-response","376","477199","0.0-1.0-521.0-0.0","0","0","19623","","null","","","null","57","","","","","","","","","","","","","","","",""
"","ITI","","html-keyboard-response","377","478208","0.0-1.0-522.0","0","0","19623","","null","","","null","57","","","","","","","","","","","","","","","NaN",""
"","S1","","html-keyboard-response","378","478368","0.0-1.0-524.0","0","0","19623","","null","","","null","58","","","","","","","","","","","","","","","",""
"","ISI","","html-keyboard-response","379","480376","0.0-1.0-525.0","0","0","19623","","null","","","null","58","NaN","","","","","","","","","","","","","","",""
"","S2","","html-keyboard-response","380","480536","0.0-1.0-526.0","0","0","19623","","null","","","null","58","","NaN","","","","","","","","","","","","","",""
"","response","","html-keyboard-response","381","481260","0.0-1.0-527.0-0.0","0","0","19623","","722","","","75","58","","","2","58","training","adjacent","GF","7","6","M.jpg","N.jpg","1","0","0","",""
"","feedback","","html-keyboard-response","382","482272","0.0-1.0-528.0-0.0","0","0","19623","","null","","","null","58","","","","","","","","","","","","","","","",""
"","time_out","","html-keyboard-response","383","484280","0.0-1.0-530.0-0.0","0","0","19623","","null","","","null","58","","","","","","","","","","","","","","","",""
"","ITI","","html-keyboard-response","384","485287","0.0-1.0-531.0","0","0","19623","","null","","","null","58","","","","","","","","","","","","","","","NaN",""
"","S1","","html-keyboard-response","385","485447","0.0-1.0-533.0","0","0","19623","","null","","","null","59","","","","","","","","","","","","","","","",""
"","ISI","","html-keyboard-response","386","487455","0.0-1.0-534.0","0","0","19623","","null","","","null","59","NaN","","","","","","","","","","","","","","",""
"","S2","","html-keyboard-response","387","487615","0.0-1.0-535.0","0","0","19623","","null","","","null","59","","NaN","","","","","","","","","","","","","",""
"","response","","html-keyboard-response","388","488749","0.0-1.0-536.0-0.0","0","0","19623","","1132","","","75","59","","","2","59","training","adjacent","FG","6","7","N.jpg","M.jpg","1","1","1","",""
"","feedback","","html-keyboard-response","389","489760","0.0-1.0-537.0-0.0","0","0","19623","","null","","","null","59","","","","","","","","","","","","","","","",""
"","ITI","","html-keyboard-response","390","490776","0.0-1.0-540.0","0","0","19623","","null","","","null","59","","","","","","","","","","","","","","","NaN",""
"","S1","","html-keyboard-response","391","490935","0.0-1.0-542.0","0","0","19623","","null","","","null","60","","","","","","","","","","","","","","","",""
"","ISI","","html-keyboard-response","392","492944","0.0-1.0-543.0","0","0","19623","","null","","","null","60","NaN","","","","","","","","","","","","","","",""
"","S2","","html-keyboard-response","393","493104","0.0-1.0-544.0","0","0","19623","","null","","","null","60","","NaN","","","","","","","","","","","","","",""
"","response","","html-keyboard-response","394","494505","0.0-1.0-545.0-0.0","0","0","19623","","1399","","","68","60","","","2","60","training","adjacent","ED","5","4","R.jpg","L.jpg","0","0","1","",""
"","feedback","","html-keyboard-response","395","495519","0.0-1.0-546.0-0.0","0","0","19623","","null","","","null","60","","","","","","","","","","","","","","","",""
"","ITI","","html-keyboard-response","396","496525","0.0-1.0-549.0","0","0","19623","","null","","","null","60","","","","","","","","","","","","","","","NaN",""
"","S1","","html-keyboard-response","397","496688","0.0-1.0-551.0","0","0","19623","","null","","","null","61","","","","","","","","","","","","","","","",""
"","ISI","","html-keyboard-response","398","498697","0.0-1.0-552.0","0","0","19623","","null","","","null","61","NaN","","","","","","","","","","","","","","",""
"","S2","","html-keyboard-response","399","498853","0.0-1.0-553.0","0","0","19623","","null","","","null","61","","NaN","","","","","","","","","","","","","",""
"","response","","html-keyboard-response","400","499948","0.0-1.0-554.0-0.0","0","0","19623","","1092","","","68","61","","","2","61","training","adjacent","FE","6","5","N.jpg","R.jpg","0","0","1","",""
"","feedback","","html-keyboard-response","401","500959","0.0-1.0-555.0-0.0","0","0","19623","","null","","","null","61","","","","","","","","","","","","","","","",""
"","ITI","","html-keyboard-response","402","501967","0.0-1.0-558.0","0","0","19623","","null","","","null","61","","","","","","","","","","","","","","","NaN",""
"","S1","","html-keyboard-response","403","502128","0.0-1.0-560.0","0","0","19623","","null","","","null","62","","","","","","","","","","","","","","","",""
"","ISI","","html-keyboard-response","404","504136","0.0-1.0-561.0","0","0","19623","","null","","","null","62","NaN","","","","","","","","","","","","","","",""
"","S2","","html-keyboard-response","405","504296","0.0-1.0-562.0","0","0","19623","","null","","","null","62","","NaN","","","","","","","","","","","","","",""
"","response","","html-keyboard-response","406","504907","0.0-1.0-563.0-0.0","0","0","19623","","609","","","75","62","","","2","62","training","adjacent","AB","1","2","O.jpg","P.jpg","1","1","1","",""
"","feedback","","html-keyboard-response","407","505918","0.0-1.0-564.0-0.0","0","0","19623","","null","","","null","62","","","","","","","","","","","","","","","",""
"","ITI","","html-keyboard-response","408","506927","0.0-1.0-567.0","0","0","19623","","null","","","null","62","","","","","","","","","","","","","","","NaN",""
"","S1","","html-keyboard-response","409","507088","0.0-1.0-569.0","0","0","19623","","null","","","null","63","","","","","","","","","","","","","","","",""
"","ISI","","html-keyboard-response","410","509097","0.0-1.0-570.0","0","0","19623","","null","","","null","63","NaN","","","","","","","","","","","","","","",""
"","S2","","html-keyboard-response","411","509256","0.0-1.0-571.0","0","0","19623","","null","","","null","63","","NaN","","","","","","","","","","","","","",""
"","response","","html-keyboard-response","412","510150","0.0-1.0-572.0-0.0","0","0","19623","","891","","","68","63","","","2","63","training","adjacent","FE","6","5","N.jpg","R.jpg","0","0","1","",""
"","feedback","","html-keyboard-response","413","511160","0.0-1.0-573.0-0.0","0","0","19623","","null","","","null","63","","","","","","","","","","","","","","","",""
"","ITI","","html-keyboard-response","414","512168","0.0-1.0-576.0","0","0","19623","","null","","","null","63","","","","","","","","","","","","","","","NaN",""
"","S1","","html-keyboard-response","415","512327","0.0-1.0-578.0","0","0","19623","","null","","","null","64","","","","","","","","","","","","","","","",""
"","ISI","","html-keyboard-response","416","514336","0.0-1.0-579.0","0","0","19623","","null","","","null","64","NaN","","","","","","","","","","","","","","",""
"","S2","","html-keyboard-response","417","514496","0.0-1.0-580.0","0","0","19623","","null","","","null","64","","NaN","","","","","","","","","","","","","",""
"","response","","html-keyboard-response","418","514851","0.0-1.0-581.0-0.0","0","0","19623","","352","","","68","64","","","2","64","training","adjacent","CD","3","4","Q.jpg","L.jpg","0","1","0","",""
"","feedback","","html-keyboard-response","419","515862","0.0-1.0-582.0-0.0","0","0","19623","","null","","","null","64","","","","","","","","","","","","","","","",""
"","time_out","","html-keyboard-response","420","517870","0.0-1.0-584.0-0.0","0","0","19623","","null","","","null","64","","","","","","","","","","","","","","","",""
"","ITI","","html-keyboard-response","421","518880","0.0-1.0-585.0","0","0","19623","","null","","","null","64","","","","","","","","","","","","","","","NaN",""
"","S1","","html-keyboard-response","422","519037","0.0-1.0-587.0","0","0","19623","","null","","","null","65","","","","","","","","","","","","","","","",""
"","ISI","","html-keyboard-response","423","521046","0.0-1.0-588.0","0","0","19623","","1224","","","75","65","k","","","","","","","","","","","","","","",""
"","S2","","html-keyboard-response","424","521209","0.0-1.0-589.0","0","0","19623","","null","","","null","65","","NaN","","","","","","","","","","","","","",""
"","response","","html-keyboard-response","425","521387","0.0-1.0-590.0-0.0","0","0","19623","","176","","","75","65","","","2","65","training","adjacent","GF","7","6","M.jpg","N.jpg","1","0","0","",""
"","feedback","","html-keyboard-response","426","522399","0.0-1.0-591.0-0.0","0","0","19623","","null","","","null","65","","","","","","","","","","","","","","","",""
"","time_out","","html-keyboard-response","427","524407","0.0-1.0-593.0-0.0","0","0","19623","","null","","","null","65","","","","","","","","","","","","","","","",""
"","ITI","","html-keyboard-response","428","525415","0.0-1.0-594.0","0","0","19623","","null","","","null","65","","","","","","","","","","","","","","","NaN",""
"","S1","","html-keyboard-response","429","525574","0.0-1.0-596.0","0","0","19623","","null","","","null","66","","","","","","","","","","","","","","","",""
"","ISI","","html-keyboard-response","430","527582","0.0-1.0-597.0","0","0","19623","","832","","","75","66","k","","","","","","","","","","","","","","",""
"","S2","","html-keyboard-response","431","527741","0.0-1.0-598.0","0","0","19623","","null","","","null","66","","NaN","","","","","","","","","","","","","",""
"","response","","html-keyboard-response","432","528137","0.0-1.0-599.0-0.0","0","0","19623","","393","","","75","66","","","2","66","training","adjacent","DE","4","5","L.jpg","R.jpg","1","1","1","",""
"","feedback","","html-keyboard-response","433","529150","0.0-1.0-600.0-0.0","0","0","19623","","null","","","null","66","","","","","","","","","","","","","","","",""
"","ITI","","html-keyboard-response","434","530159","0.0-1.0-603.0","0","0","19623","","null","","","null","66","","","","","","","","","","","","","","","NaN",""
"","S1","","html-keyboard-response","435","530319","0.0-1.0-605.0","0","0","19623","","null","","","null","67","","","","","","","","","","","","","","","",""
"","ISI","","html-keyboard-response","436","532329","0.0-1.0-606.0","0","0","19623","","null","","","null","67","NaN","","","","","","","","","","","","","","",""
"","S2","","html-keyboard-response","437","532487","0.0-1.0-607.0","0","0","19623","","null","","","null","67","","NaN","","","","","","","","","","","","","",""
"","response","","html-keyboard-response","438","532874","0.0-1.0-608.0-0.0","0","0","19623","","384","","","68","67","","","2","67","training","adjacent","GF","7","6","M.jpg","N.jpg","0","0","1","",""
"","feedback","","html-keyboard-response","439","533887","0.0-1.0-609.0-0.0","0","0","19623","","null","","","null","67","","","","","","","","","","","","","","","",""
"","ITI","","html-keyboard-response","440","534895","0.0-1.0-612.0","0","0","19623","","null","","","null","67","","","","","","","","","","","","","","","NaN",""
"","S1","","html-keyboard-response","441","535056","0.0-1.0-614.0","0","0","19623","","null","","","null","68","","","","","","","","","","","","","","","",""
"","ISI","","html-keyboard-response","442","537062","0.0-1.0-615.0","0","0","19623","","null","","","null","68","NaN","","","","","","","","","","","","","","",""
"","S2","","html-keyboard-response","443","537225","0.0-1.0-616.0","0","0","19623","","null","","","null","68","","NaN","","","","","","","","","","","","","",""
"","response","","html-keyboard-response","444","537746","0.0-1.0-617.0-0.0","0","0","19623","","519","","","75","68","","","2","68","training","adjacent","FE","6","5","N.jpg","R.jpg","1","0","0","",""
"","feedback","","html-keyboard-response","445","538761","0.0-1.0-618.0-0.0","0","0","19623","","null","","","null","68","","","","","","","","","","","","","","","",""
"","time_out","","html-keyboard-response","446","540774","0.0-1.0-620.0-0.0","0","0","19623","","null","","","null","68","","","","","","","","","","","","","","","",""
"","ITI","","html-keyboard-response","447","541785","0.0-1.0-621.0","0","0","19623","","null","","","null","68","","","","","","","","","","","","","","","NaN",""
"","S1","","html-keyboard-response","448","541944","0.0-1.0-623.0","0","0","19623","","null","","","null","69","","","","","","","","","","","","","","","",""
"","ISI","","html-keyboard-response","449","543951","0.0-1.0-624.0","0","0","19623","","null","","","null","69","NaN","","","","","","","","","","","","","","",""
"","S2","","html-keyboard-response","450","544112","0.0-1.0-625.0","0","0","19623","","null","","","null","69","","NaN","","","","","","","","","","","","","",""
"","response","","html-keyboard-response","451","545397","0.0-1.0-626.0-0.0","0","0","19623","","1282","","","68","69","","","2","69","training","adjacent","CD","3","4","Q.jpg","L.jpg","0","1","0","",""
"","feedback","","html-keyboard-response","452","546408","0.0-1.0-627.0-0.0","0","0","19623","","null","","","null","69","","","","","","","","","","","","","","","",""
"","time_out","","html-keyboard-response","453","548417","0.0-1.0-629.0-0.0","0","0","19623","","null","","","null","69","","","","","","","","","","","","","","","",""
"","ITI","","html-keyboard-response","454","549424","0.0-1.0-630.0","0","0","19623","","null","","","null","69","","","","","","","","","","","","","","","NaN",""
"","S1","","html-keyboard-response","455","549583","0.0-1.0-632.0","0","0","19623","","null","","","null","70","","","","","","","","","","","","","","","",""
"","ISI","","html-keyboard-response","456","551592","0.0-1.0-633.0","0","0","19623","","null","","","null","70","NaN","","","","","","","","","","","","","","",""
"","S2","","html-keyboard-response","457","551752","0.0-1.0-634.0","0","0","19623","","null","","","null","70","","NaN","","","","","","","","","","","","","",""
"","response","","html-keyboard-response","458","552574","0.0-1.0-635.0-0.0","0","0","19623","","819","","","75","70","","","2","70","training","adjacent","GF","7","6","M.jpg","N.jpg","1","0","0","",""
"","feedback","","html-keyboard-response","459","553583","0.0-1.0-636.0-0.0","0","0","19623","","null","","","null","70","","","","","","","","","","","","","","","",""
"","time_out","","html-keyboard-response","460","555591","0.0-1.0-638.0-0.0","0","0","19623","","null","","","null","70","","","","","","","","","","","","","","","",""
"","ITI","","html-keyboard-response","461","556599","0.0-1.0-639.0","0","0","19623","","null","","","null","70","","","","","","","","","","","","","","","NaN",""
"","S1","","html-keyboard-response","462","556758","0.0-1.0-641.0","0","0","19623","","null","","","null","71","","","","","","","","","","","","","","","",""
"","ISI","","html-keyboard-response","463","558767","0.0-1.0-642.0","0","0","19623","","null","","","null","71","NaN","","","","","","","","","","","","","","",""
"","S2","","html-keyboard-response","464","558927","0.0-1.0-643.0","0","0","19623","","null","","","null","71","","NaN","","","","","","","","","","","","","",""
"","response","","html-keyboard-response","465","560475","0.0-1.0-644.0-0.0","0","0","19623","","1545","","","68","71","","","2","71","training","adjacent","CD","3","4","Q.jpg","L.jpg","0","1","0","",""
"","feedback","","html-keyboard-response","466","561487","0.0-1.0-645.0-0.0","0","0","19623","","null","","","null","71","","","","","","","","","","","","","","","",""
"","time_out","","html-keyboard-response","467","563496","0.0-1.0-647.0-0.0","0","0","19623","","null","","","null","71","","","","","","","","","","","","","","","",""
"","ITI","","html-keyboard-response","468","564502","0.0-1.0-648.0","0","0","19623","","null","","","null","71","","","","","","","","","","","","","","","NaN",""
"","S1","","html-keyboard-response","469","564665","0.0-1.0-650.0","0","0","19623","","null","","","null","72","","","","","","","","","","","","","","","",""
"","ISI","","html-keyboard-response","470","566669","0.0-1.0-651.0","0","0","19623","","null","","","null","72","NaN","","","","","","","","","","","","","","",""
"","S2","","html-keyboard-response","471","566830","0.0-1.0-652.0","0","0","19623","","null","","","null","72","","NaN","","","","","","","","","","","","","",""
"","response","","html-keyboard-response","472","567675","0.0-1.0-653.0-0.0","0","0","19623","","842","","","68","72","","","2","72","training","adjacent","BA","2","1","P.jpg","O.jpg","0","0","1","",""
"","feedback","","html-keyboard-response","473","568688","0.0-1.0-654.0-0.0","0","0","19623","","null","","","null","72","","","","","","","","","","","","","","","",""
"","ITI","","html-keyboard-response","474","569695","0.0-1.0-657.0","0","0","19623","","null","","","null","72","","","","","","","","","","","","","","","NaN",""
"","S1","","html-keyboard-response","475","569855","0.0-1.0-659.0","0","0","19623","","null","","","null","73","","","","","","","","","","","","","","","",""
"","ISI","","html-keyboard-response","476","571863","0.0-1.0-660.0","0","0","19623","","null","","","null","73","NaN","","","","","","","","","","","","","","",""
"","S2","","html-keyboard-response","477","572023","0.0-1.0-661.0","0","0","19623","","null","","","null","73","","NaN","","","","","","","","","","","","","",""
"","response","","html-keyboard-response","478","573747","0.0-1.0-662.0-0.0","0","0","19623","","1722","","","68","73","","","2","73","training","adjacent","CB","3","2","Q.jpg","P.jpg","0","0","1","",""
"","feedback","","html-keyboard-response","479","574759","0.0-1.0-663.0-0.0","0","0","19623","","null","","","null","73","","","","","","","","","","","","","","","",""
"","ITI","","html-keyboard-response","480","575767","0.0-1.0-666.0","0","0","19623","","null","","","null","73","","","","","","","","","","","","","","","NaN",""
"","S1","","html-keyboard-response","481","575926","0.0-1.0-668.0","0","0","19623","","null","","","null","74","","","","","","","","","","","","","","","",""
"","ISI","","html-keyboard-response","482","577935","0.0-1.0-669.0","0","0","19623","","null","","","null","74","NaN","","","","","","","","","","","","","","",""
"","S2","","html-keyboard-response","483","578095","0.0-1.0-670.0","0","0","19623","","null","","","null","74","","NaN","","","","","","","","","","","","","",""
"","response","","html-keyboard-response","484","579365","0.0-1.0-671.0-0.0","0","0","19623","","1266","","","75","74","","","2","74","training","adjacent","DC","4","3","L.jpg","Q.jpg","1","0","0","",""
"","feedback","","html-keyboard-response","485","580376","0.0-1.0-672.0-0.0","0","0","19623","","null","","","null","74","","","","","","","","","","","","","","","",""
"","time_out","","html-keyboard-response","486","582382","0.0-1.0-674.0-0.0","0","0","19623","","null","","","null","74","","","","","","","","","","","","","","","",""
"","ITI","","html-keyboard-response","487","583392","0.0-1.0-675.0","0","0","19623","","null","","","null","74","","","","","","","","","","","","","","","NaN",""
"","S1","","html-keyboard-response","488","583552","0.0-1.0-677.0","0","0","19623","","null","","","null","75","","","","","","","","","","","","","","","",""
"","ISI","","html-keyboard-response","489","585560","0.0-1.0-678.0","0","0","19623","","null","","","null","75","NaN","","","","","","","","","","","","","","",""
"","S2","","html-keyboard-response","490","585719","0.0-1.0-679.0","0","0","19623","","null","","","null","75","","NaN","","","","","","","","","","","","","",""
"","response","","html-keyboard-response","491","586525","0.0-1.0-680.0-0.0","0","0","19623","","804","","","75","75","","","2","75","training","adjacent","DC","4","3","L.jpg","Q.jpg","1","0","0","",""
"","feedback","","html-keyboard-response","492","587537","0.0-1.0-681.0-0.0","0","0","19623","","null","","","null","75","","","","","","","","","","","","","","","",""
"","time_out","","html-keyboard-response","493","589551","0.0-1.0-683.0-0.0","0","0","19623","","null","","","null","75","","","","","","","","","","","","","","","",""
"","ITI","","html-keyboard-response","494","590560","0.0-1.0-684.0","0","0","19623","","null","","","null","75","","","","","","","","","","","","","","","NaN",""
"","S1","","html-keyboard-response","495","590721","0.0-1.0-686.0","0","0","19623","","null","","","null","76","","","","","","","","","","","","","","","",""
"","ISI","","html-keyboard-response","496","592735","0.0-1.0-687.0","0","0","19623","","609","","","75","76","k","","","","","","","","","","","","","","",""
"","S2","","html-keyboard-response","497","592895","0.0-1.0-688.0","0","0","19623","","null","","","null","76","","NaN","","","","","","","","","","","","","",""
"","response","","html-keyboard-response","498","593058","0.0-1.0-689.0-0.0","0","0","19623","","162","","","75","76","","","2","76","training","adjacent","EF","5","6","R.jpg","N.jpg","1","1","1","",""
"","feedback","","html-keyboard-response","499","594072","0.0-1.0-690.0-0.0","0","0","19623","","null","","","null","76","","","","","","","","","","","","","","","",""
"","ITI","","html-keyboard-response","500","595079","0.0-1.0-693.0","0","0","19623","","null","","","null","76","","","","","","","","","","","","","","","NaN",""
"","S1","","html-keyboard-response","501","595240","0.0-1.0-695.0","0","0","19623","","null","","","null","77","","","","","","","","","","","","","","","",""
"","ISI","","html-keyboard-response","502","597248","0.0-1.0-696.0","0","0","19623","","null","","","null","77","NaN","","","","","","","","","","","","","","",""
"","S2","","html-keyboard-response","503","597408","0.0-1.0-697.0","0","0","19623","","null","","","null","77","","NaN","","","","","","","","","","","","","",""
"","response","","html-keyboard-response","504","598072","0.0-1.0-698.0-0.0","0","0","19623","","661","","","68","77","","","2","77","training","adjacent","ED","5","4","R.jpg","L.jpg","0","0","1","",""
"","feedback","","html-keyboard-response","505","599080","0.0-1.0-699.0-0.0","0","0","19623","","null","","","null","77","","","","","","","","","","","","","","","",""
"","ITI","","html-keyboard-response","506","600086","0.0-1.0-702.0","0","0","19623","","null","","","null","77","","","","","","","","","","","","","","","NaN",""
"","S1","","html-keyboard-response","507","600247","0.0-1.0-704.0","0","0","19623","","null","","","null","78","","","","","","","","","","","","","","","",""
"","ISI","","html-keyboard-response","508","602256","0.0-1.0-705.0","0","0","19623","","null","","","null","78","NaN","","","","","","","","","","","","","","",""
"","S2","","html-keyboard-response","509","602415","0.0-1.0-706.0","0","0","19623","","null","","","null","78","","NaN","","","","","","","","","","","","","",""
"","response","","html-keyboard-response","510","602690","0.0-1.0-707.0-0.0","0","0","19623","","273","","","75","78","","","2","78","training","adjacent","FE","6","5","N.jpg","R.jpg","1","0","0","",""
"","feedback","","html-keyboard-response","511","603704","0.0-1.0-708.0-0.0","0","0","19623","","null","","","null","78","","","","","","","","","","","","","","","",""
"","time_out","","html-keyboard-response","512","605712","0.0-1.0-710.0-0.0","0","0","19623","","null","","","null","78","","","","","","","","","","","","","","","",""
"","ITI","","html-keyboard-response","513","606720","0.0-1.0-711.0","0","0","19623","","null","","","null","78","","","","","","","","","","","","","","","NaN",""
"","S1","","html-keyboard-response","514","606879","0.0-1.0-713.0","0","0","19623","","null","","","null","79","","","","","","","","","","","","","","","",""
"","ISI","","html-keyboard-response","515","608887","0.0-1.0-714.0","0","0","19623","","null","","","null","79","NaN","","","","","","","","","","","","","","",""
"","S2","","html-keyboard-response","516","609047","0.0-1.0-715.0","0","0","19623","","null","","","null","79","","NaN","","","","","","","","","","","","","",""
"","response","","html-keyboard-response","517","609230","0.0-1.0-716.0-0.0","0","0","19623","","181","","","75","79","","","2","79","training","adjacent","CB","3","2","Q.jpg","P.jpg","1","0","0","",""
"","feedback","","html-keyboard-response","518","610240","0.0-1.0-717.0-0.0","0","0","19623","","null","","","null","79","","","","","","","","","","","","","","","",""
"","time_out","","html-keyboard-response","519","612247","0.0-1.0-719.0-0.0","0","0","19623","","null","","","null","79","","","","","","","","","","","","","","","",""
"","ITI","","html-keyboard-response","520","613256","0.0-1.0-720.0","0","0","19623","","null","","","null","79","","","","","","","","","","","","","","","NaN",""
"","S1","","html-keyboard-response","521","613415","0.0-1.0-722.0","0","0","19623","","null","","","null","80","","","","","","","","","","","","","","","",""
"","ISI","","html-keyboard-response","522","615424","0.0-1.0-723.0","0","0","19623","","null","","","null","80","NaN","","","","","","","","","","","","","","",""
"","S2","","html-keyboard-response","523","615584","0.0-1.0-724.0","0","0","19623","","null","","","null","80","","NaN","","","","","","","","","","","","","",""
"","response","","html-keyboard-response","524","615847","0.0-1.0-725.0-0.0","0","0","19623","","260","","","68","80","","","2","80","training","adjacent","CD","3","4","Q.jpg","L.jpg","0","1","0","",""
"","feedback","","html-keyboard-response","525","616855","0.0-1.0-726.0-0.0","0","0","19623","","null","","","null","80","","","","","","","","","","","","","","","",""
"","time_out","","html-keyboard-response","526","618864","0.0-1.0-728.0-0.0","0","0","19623","","null","","","null","80","","","","","","","","","","","","","","","",""
"","ITI","","html-keyboard-response","527","619871","0.0-1.0-729.0","0","0","19623","","null","","","null","80","","","","","","","","","","","","","","","NaN",""
"","S1","","html-keyboard-response","528","620033","0.0-1.0-731.0","0","0","19623","","null","","","null","81","","","","","","","","","","","","","","","",""
"","ISI","","html-keyboard-response","529","622039","0.0-1.0-732.0","0","0","19623","","null","","","null","81","NaN","","","","","","","","","","","","","","",""
"","S2","","html-keyboard-response","530","622198","0.0-1.0-733.0","0","0","19623","","null","","","null","81","","NaN","","","","","","","","","","","","","",""
"","response","","html-keyboard-response","531","622687","0.0-1.0-734.0-0.0","0","0","19623","","486","","","68","81","","","2","81","training","adjacent","EF","5","6","R.jpg","N.jpg","0","1","0","",""
"","feedback","","html-keyboard-response","532","623695","0.0-1.0-735.0-0.0","0","0","19623","","null","","","null","81","","","","","","","","","","","","","","","",""
"","time_out","","html-keyboard-response","533","625704","0.0-1.0-737.0-0.0","0","0","19623","","null","","","null","81","","","","","","","","","","","","","","","",""
"","ITI","","html-keyboard-response","534","626712","0.0-1.0-738.0","0","0","19623","","null","","","null","81","","","","","","","","","","","","","","","NaN",""
"","S1","","html-keyboard-response","535","626871","0.0-1.0-740.0","0","0","19623","","null","","","null","82","","","","","","","","","","","","","","","",""
"","ISI","","html-keyboard-response","536","628879","0.0-1.0-741.0","0","0","19623","","null","","","null","82","NaN","","","","","","","","","","","","","","",""
"","S2","","html-keyboard-response","537","629040","0.0-1.0-742.0","0","0","19623","","null","","","null","82","","NaN","","","","","","","","","","","","","",""
"","response","","html-keyboard-response","538","629514","0.0-1.0-743.0-0.0","0","0","19623","","471","","","68","82","","","2","82","training","adjacent","FG","6","7","N.jpg","M.jpg","0","1","0","",""
"","feedback","","html-keyboard-response","539","630528","0.0-1.0-744.0-0.0","0","0","19623","","null","","","null","82","","","","","","","","","","","","","","","",""
"","time_out","","html-keyboard-response","540","632537","0.0-1.0-746.0-0.0","0","0","19623","","null","","","null","82","","","","","","","","","","","","","","","",""
"","ITI","","html-keyboard-response","541","633545","0.0-1.0-747.0","0","0","19623","","null","","","null","82","","","","","","","","","","","","","","","NaN",""
"","S1","","html-keyboard-response","542","633703","0.0-1.0-749.0","0","0","19623","","null","","","null","83","","","","","","","","","","","","","","","",""
"","ISI","","html-keyboard-response","543","635712","0.0-1.0-750.0","0","0","19623","","null","","","null","83","NaN","","","","","","","","","","","","","","",""
"","S2","","html-keyboard-response","544","635872","0.0-1.0-751.0","0","0","19623","","null","","","null","83","","NaN","","","","","","","","","","","","","",""
"","response","","html-keyboard-response","545","637736","0.0-1.0-752.0-0.0","0","0","19623","","null","","","null","83","","","2","83","training","adjacent","DC","4","3","L.jpg","Q.jpg","NaN","0","0","",""
"","too_slow_prompt","","html-keyboard-response","546","638743","0.0-1.0-754.0-0.0","1","0","19623","","null","","","null","","","","","","","","","","","","","","","","",""
"","time_out","","html-keyboard-response","547","640751","0.0-1.0-755.0-0.0","0","0","19623","","null","","","null","83","","","","","","","","","","","","","","","",""
"","ITI","","html-keyboard-response","548","641761","0.0-1.0-756.0","0","0","19623","","null","","","null","83","","","","","","","","","","","","","","","NaN",""
"","S1","","html-keyboard-response","549","641921","0.0-1.0-758.0","0","0","19623","","null","","","null","84","","","","","","","","","","","","","","","",""
"","ISI","","html-keyboard-response","550","643926","0.0-1.0-759.0","0","0","19623","","null","","","null","84","NaN","","","","","","","","","","","","","","",""
"","S2","","html-keyboard-response","551","644089","0.0-1.0-760.0","0","0","19623","","null","","","null","84","","NaN","","","","","","","","","","","","","",""
"","response","","html-keyboard-response","552","645177","0.0-1.0-761.0-0.0","0","0","19623","","1087","","","75","84","","","2","84","training","adjacent","BA","2","1","P.jpg","O.jpg","1","0","0","",""
"","feedback","","html-keyboard-response","553","646190","0.0-1.0-762.0-0.0","0","0","19623","","null","","","null","84","","","","","","","","","","","","","","","",""
"","time_out","","html-keyboard-response","554","648198","0.0-1.0-764.0-0.0","0","0","19623","","null","","","null","84","","","","","","","","","","","","","","","",""
"","ITI","","html-keyboard-response","555","649209","0.0-1.0-765.0","0","0","19623","","null","","","null","84","","","","","","","","","","","","","","","NaN",""
"","S1","","html-keyboard-response","556","649368","0.0-1.0-767.0","0","0","19623","","null","","","null","85","","","","","","","","","","","","","","","",""
"","ISI","","html-keyboard-response","557","651374","0.0-1.0-768.0","0","0","19623","","null","","","null","85","NaN","","","","","","","","","","","","","","",""
"","S2","","html-keyboard-response","558","651537","0.0-1.0-769.0","0","0","19623","","null","","","null","85","","NaN","","","","","","","","","","","","","",""
"","response","","html-keyboard-response","559","652413","0.0-1.0-770.0-0.0","0","0","19623","","873","","","75","85","","","2","85","training","adjacent","AB","1","2","O.jpg","P.jpg","1","1","1","",""
"","feedback","","html-keyboard-response","560","653423","0.0-1.0-771.0-0.0","0","0","19623","","null","","","null","85","","","","","","","","","","","","","","","",""
"","ITI","","html-keyboard-response","561","654431","0.0-1.0-774.0","0","0","19623","","null","","","null","85","","","","","","","","","","","","","","","NaN",""
"","S1","","html-keyboard-response","562","654590","0.0-1.0-776.0","0","0","19623","","null","","","null","86","","","","","","","","","","","","","","","",""
"","ISI","","html-keyboard-response","563","656599","0.0-1.0-777.0","0","0","19623","","null","","","null","86","NaN","","","","","","","","","","","","","","",""
"","S2","","html-keyboard-response","564","656761","0.0-1.0-778.0","0","0","19623","","null","","","null","86","","NaN","","","","","","","","","","","","","",""
"","response","","html-keyboard-response","565","657576","0.0-1.0-779.0-0.0","0","0","19623","","812","","","75","86","","","2","86","training","adjacent","AB","1","2","O.jpg","P.jpg","1","1","1","",""
"","feedback","","html-keyboard-response","566","658584","0.0-1.0-780.0-0.0","0","0","19623","","null","","","null","86","","","","","","","","","","","","","","","",""
"","ITI","","html-keyboard-response","567","659592","0.0-1.0-783.0","0","0","19623","","null","","","null","86","","","","","","","","","","","","","","","NaN",""
"","S1","","html-keyboard-response","568","659751","0.0-1.0-785.0","0","0","19623","","null","","","null","87","","","","","","","","","","","","","","","",""
"","ISI","","html-keyboard-response","569","661759","0.0-1.0-786.0","0","0","19623","","null","","","null","87","NaN","","","","","","","","","","","","","","",""
"","S2","","html-keyboard-response","570","661919","0.0-1.0-787.0","0","0","19623","","null","","","null","87","","NaN","","","","","","","","","","","","","",""
"","response","","html-keyboard-response","571","663231","0.0-1.0-788.0-0.0","0","0","19623","","1310","","","75","87","","","2","87","training","adjacent","DC","4","3","L.jpg","Q.jpg","1","0","0","",""
"","feedback","","html-keyboard-response","572","664238","0.0-1.0-789.0-0.0","0","0","19623","","null","","","null","87","","","","","","","","","","","","","","","",""
"","time_out","","html-keyboard-response","573","666247","0.0-1.0-791.0-0.0","0","0","19623","","null","","","null","87","","","","","","","","","","","","","","","",""
"","ITI","","html-keyboard-response","574","667257","0.0-1.0-792.0","0","0","19623","","null","","","null","87","","","","","","","","","","","","","","","NaN",""
"","S1","","html-keyboard-response","575","667417","0.0-1.0-794.0","0","0","19623","","null","","","null","88","","","","","","","","","","","","","","","",""
"","ISI","","html-keyboard-response","576","669422","0.0-1.0-795.0","0","0","19623","","null","","","null","88","NaN","","","","","","","","","","","","","","",""
"","S2","","html-keyboard-response","577","669585","0.0-1.0-796.0","0","0","19623","","null","","","null","88","","NaN","","","","","","","","","","","","","",""
"","response","","html-keyboard-response","578","670291","0.0-1.0-797.0-0.0","0","0","19623","","705","","","68","88","","","2","88","training","adjacent","CB","3","2","Q.jpg","P.jpg","0","0","1","",""
"","feedback","","html-keyboard-response","579","671303","0.0-1.0-798.0-0.0","0","0","19623","","null","","","null","88","","","","","","","","","","","","","","","",""
"","ITI","","html-keyboard-response","580","672313","0.0-1.0-801.0","0","0","19623","","null","","","null","88","","","","","","","","","","","","","","","NaN",""
