"success","ttype","start_time","trial_type","trial_index","time_elapsed","internal_node_id","warning","missed_checkup","PID","view_history","rt","responses","repeat_instructions","key_press","index","keypress_isi","keypress_S2","block","trial_num","phase","group_type","pair_type","S1_stim","S2_stim","S1_img","S2_img","S1_chosen","S1_higher","accuracy","keypress_iti","total_bonus_tally"
"true","full_screen","d04132023hr1835","fullscreen","0","6198","0.0-0.0","0","0","53053","","","","","","","","","","","","","","","","","","","","","",""
"","instructions","","instructions","1","46424","0.0-1.0-0.0-0.0","0","0","53053","[{""page_index"":0,""viewing_time"":4463},{""page_index"":1,""viewing_time"":22329},{""page_index"":2,""viewing_time"":11532},{""page_index"":3,""viewing_time"":1899}]","40224","","","","","","","","","","","","","","","","","","","",""
"","comprehension_check","","survey-multi-choice","2","75213","0.0-1.0-0.0-1.0","0","0","53053","","28786","{""Q0"":""True"",""Q1"":""K"",""Q2"":""Only when the screen 'MAKE A CHOICE' is shown"",""Q3"":""Green mark"",""Q4"":""either D or K""}","1","","","","","","","","","","","","","","","","","",""
"","missed_instruction_checkup","","html-keyboard-response","3","77679","0.0-1.0-0.0-2.0-0.0","0","1","53053","","2463","","","32","","","","","","","","","","","","","","","","",""
"","instructions","","instructions","4","85568","0.0-1.0-0.1-0.1","0","0","53053","[{""page_index"":0,""viewing_time"":1433},{""page_index"":1,""viewing_time"":4502},{""page_index"":2,""viewing_time"":817},{""page_index"":3,""viewing_time"":1131}]","7883","","","","","","","","","","","","","","","","","","","",""
"","comprehension_check","","survey-multi-choice","5","95450","0.0-1.0-0.1-1.1","0","0","53053","","9877","{""Q0"":""True"",""Q1"":""K"",""Q2"":""Once the second image appears and while the screen 'MAKE A CHOICE' is shown"",""Q3"":""Green mark"",""Q4"":""either D or K""}","0","","","","","","","","","","","","","","","","","",""
"","start_exp","","html-keyboard-response","6","120374","0.0-1.0-1.0","0","0","53053","","24922","","","32","","","","","","","","","","","","","","","","",""
"","S1","","html-keyboard-response","7","120634","0.0-1.0-2.0","0","0","53053","","null","","","null","0","","","","","","","","","","","","","","","",""
"","ISI","","html-keyboard-response","8","121642","0.0-1.0-3.0","0","0","53053","","null","","","null","0","NaN","","","","","","","","","","","","","","",""
"","S2","","html-keyboard-response","9","121915","0.0-1.0-4.0","0","0","53053","","null","","","null","0","","NaN","","","","","","","","","","","","","",""
"","response","","html-keyboard-response","10","123674","0.0-1.0-5.0-0.0","0","0","53053","","null","","","null","0","","","1","0","training","adjacent","EF","5","6","Q.jpg","O.jpg","NaN","1","0","",""
"","too_slow_prompt","","html-keyboard-response","11","124682","0.0-1.0-7.0-0.0","1","0","53053","","null","","","null","","","","","","","","","","","","","","","","",""
"","time_out","","html-keyboard-response","12","126691","0.0-1.0-8.0-0.0","0","0","53053","","null","","","null","0","","","","","","","","","","","","","","","",""
"","ITI","","html-keyboard-response","13","127703","0.0-1.0-9.0","0","0","53053","","null","","","null","0","","","","","","","","","","","","","","","NaN",""
"","S1","","html-keyboard-response","14","127964","0.0-1.0-11.0","0","0","53053","","null","","","null","1","","","","","","","","","","","","","","","",""
"","ISI","","html-keyboard-response","15","128969","0.0-1.0-12.0","0","0","53053","","null","","","null","1","NaN","","","","","","","","","","","","","","",""
"","S2","","html-keyboard-response","16","129225","0.0-1.0-13.0","0","0","53053","","null","","","null","1","","NaN","","","","","","","","","","","","","",""
"","response","","html-keyboard-response","17","129599","0.0-1.0-14.0-0.0","0","0","53053","","373","","","75","1","","","1","1","training","adjacent","CD","3","4","M.jpg","L.jpg","1","1","1","",""
"","feedback","","html-keyboard-response","18","130607","0.0-1.0-15.0-0.0","0","0","53053","","null","","","null","1","","","","","","","","","","","","","","","",""
"","ITI","","html-keyboard-response","19","131616","0.0-1.0-18.0","0","0","53053","","null","","","null","1","","","","","","","","","","","","","","","NaN",""
"","S1","","html-keyboard-response","20","131874","0.0-1.0-20.0","0","0","53053","","null","","","null","2","","","","","","","","","","","","","","","",""
"","ISI","","html-keyboard-response","21","132884","0.0-1.0-21.0","0","0","53053","","null","","","null","2","NaN","","","","","","","","","","","","","","",""
"","S2","","html-keyboard-response","22","133148","0.0-1.0-22.0","0","0","53053","","null","","","null","2","","NaN","","","","","","","","","","","","","",""
"","response","","html-keyboard-response","23","133569","0.0-1.0-23.0-0.0","0","0","53053","","420","","","75","2","","","1","2","training","adjacent","BA","2","1","P.jpg","R.jpg","1","0","0","",""
"","feedback","","html-keyboard-response","24","134575","0.0-1.0-24.0-0.0","0","0","53053","","null","","","null","2","","","","","","","","","","","","","","","",""
"","time_out","","html-keyboard-response","25","136587","0.0-1.0-26.0-0.0","0","0","53053","","null","","","null","2","","","","","","","","","","","","","","","",""
"","ITI","","html-keyboard-response","26","137594","0.0-1.0-27.0","0","0","53053","","null","","","null","2","","","","","","","","","","","","","","","NaN",""
"","S1","","html-keyboard-response","27","137848","0.0-1.0-29.0","0","0","53053","","null","","","null","3","","","","","","","","","","","","","","","",""
"","ISI","","html-keyboard-response","28","138857","0.0-1.0-30.0","0","0","53053","","null","","","null","3","NaN","","","","","","","","","","","","","","",""
"","S2","","html-keyboard-response","29","139115","0.0-1.0-31.0","0","0","53053","","null","","","null","3","","NaN","","","","","","","","","","","","","",""
"","response","","html-keyboard-response","30","139359","0.0-1.0-32.0-0.0","0","0","53053","","243","","","75","3","","","1","3","training","adjacent","GF","7","6","N.jpg","O.jpg","1","0","0","",""
"","feedback","","html-keyboard-response","31","140372","0.0-1.0-33.0-0.0","0","0","53053","","null","","","null","3","","","","","","","","","","","","","","","",""
"","time_out","","html-keyboard-response","32","142377","0.0-1.0-35.0-0.0","0","0","53053","","null","","","null","3","","","","","","","","","","","","","","","",""
"","ITI","","html-keyboard-response","33","143385","0.0-1.0-36.0","0","0","53053","","null","","","null","3","","","","","","","","","","","","","","","NaN",""
"","S1","","html-keyboard-response","34","143642","0.0-1.0-38.0","0","0","53053","","null","","","null","4","","","","","","","","","","","","","","","",""
"","ISI","","html-keyboard-response","35","144651","0.0-1.0-39.0","0","0","53053","","null","","","null","4","NaN","","","","","","","","","","","","","","",""
"","S2","","html-keyboard-response","36","144911","0.0-1.0-40.0","0","0","53053","","null","","","null","4","","NaN","","","","","","","","","","","","","",""
"","response","","html-keyboard-response","37","145405","0.0-1.0-41.0-0.0","0","0","53053","","493","","","68","4","","","1","4","training","adjacent","ED","5","4","Q.jpg","L.jpg","0","0","1","",""
"","feedback","","html-keyboard-response","38","146430","0.0-1.0-42.0-0.0","0","0","53053","","null","","","null","4","","","","","","","","","","","","","","","",""
"","ITI","","html-keyboard-response","39","147434","0.0-1.0-45.0","0","0","53053","","null","","","null","4","","","","","","","","","","","","","","","NaN",""
"","S1","","html-keyboard-response","40","147690","0.0-1.0-47.0","0","0","53053","","null","","","null","5","","","","","","","","","","","","","","","",""
"","ISI","","html-keyboard-response","41","148698","0.0-1.0-48.0","0","0","53053","","null","","","null","5","NaN","","","","","","","","","","","","","","",""
"","S2","","html-keyboard-response","42","148997","0.0-1.0-49.0","0","0","53053","","null","","","null","5","","NaN","","","","","","","","","","","","","",""
"","response","","html-keyboard-response","43","149504","0.0-1.0-50.0-0.0","0","0","53053","","505","","","75","5","","","1","5","training","adjacent","CB","3","2","M.jpg","P.jpg","1","0","0","",""
"","feedback","","html-keyboard-response","44","150510","0.0-1.0-51.0-0.0","0","0","53053","","null","","","null","5","","","","","","","","","","","","","","","",""
"","time_out","","html-keyboard-response","45","152519","0.0-1.0-53.0-0.0","0","0","53053","","null","","","null","5","","","","","","","","","","","","","","","",""
"","ITI","","html-keyboard-response","46","153529","0.0-1.0-54.0","0","0","53053","","null","","","null","5","","","","","","","","","","","","","","","NaN",""
"","S1","","html-keyboard-response","47","153784","0.0-1.0-56.0","0","0","53053","","null","","","null","6","","","","","","","","","","","","","","","",""
"","ISI","","html-keyboard-response","48","154793","0.0-1.0-57.0","0","0","53053","","null","","","null","6","NaN","","","","","","","","","","","","","","",""
"","S2","","html-keyboard-response","49","155053","0.0-1.0-58.0","0","0","53053","","null","","","null","6","","NaN","","","","","","","","","","","","","",""
"","response","","html-keyboard-response","50","155650","0.0-1.0-59.0-0.0","0","0","53053","","596","","","68","6","","","1","6","training","adjacent","ED","5","4","Q.jpg","L.jpg","0","0","1","",""
"","feedback","","html-keyboard-response","51","156654","0.0-1.0-60.0-0.0","0","0","53053","","null","","","null","6","","","","","","","","","","","","","","","",""
"","ITI","","html-keyboard-response","52","157665","0.0-1.0-63.0","0","0","53053","","null","","","null","6","","","","","","","","","","","","","","","NaN",""
"","S1","","html-keyboard-response","53","157921","0.0-1.0-65.0","0","0","53053","","null","","","null","7","","","","","","","","","","","","","","","",""
"","ISI","","html-keyboard-response","54","158927","0.0-1.0-66.0","0","0","53053","","null","","","null","7","NaN","","","","","","","","","","","","","","",""
"","S2","","html-keyboard-response","55","159183","0.0-1.0-67.0","0","0","53053","","null","","","null","7","","NaN","","","","","","","","","","","","","",""
"","response","","html-keyboard-response","56","159616","0.0-1.0-68.0-0.0","0","0","53053","","432","","","75","7","","","1","7","training","adjacent","CB","3","2","M.jpg","P.jpg","1","0","0","",""
"","feedback","","html-keyboard-response","57","160627","0.0-1.0-69.0-0.0","0","0","53053","","null","","","null","7","","","","","","","","","","","","","","","",""
"","time_out","","html-keyboard-response","58","162632","0.0-1.0-71.0-0.0","0","0","53053","","null","","","null","7","","","","","","","","","","","","","","","",""
"","ITI","","html-keyboard-response","59","163640","0.0-1.0-72.0","0","0","53053","","null","","","null","7","","","","","","","","","","","","","","","NaN",""
"","S1","","html-keyboard-response","60","163896","0.0-1.0-74.0","0","0","53053","","null","","","null","8","","","","","","","","","","","","","","","",""
"","ISI","","html-keyboard-response","61","164903","0.0-1.0-75.0","0","0","53053","","null","","","null","8","NaN","","","","","","","","","","","","","","",""
"","S2","","html-keyboard-response","62","165163","0.0-1.0-76.0","0","0","53053","","null","","","null","8","","NaN","","","","","","","","","","","","","",""
"","response","","html-keyboard-response","63","165671","0.0-1.0-77.0-0.0","0","0","53053","","502","","","68","8","","","1","8","training","adjacent","FG","6","7","O.jpg","N.jpg","0","1","0","",""
"","feedback","","html-keyboard-response","64","166712","0.0-1.0-78.0-0.0","0","0","53053","","null","","","null","8","","","","","","","","","","","","","","","",""
"","time_out","","html-keyboard-response","65","168718","0.0-1.0-80.0-0.0","0","0","53053","","null","","","null","8","","","","","","","","","","","","","","","",""
"","ITI","","html-keyboard-response","66","169726","0.0-1.0-81.0","0","0","53053","","null","","","null","8","","","","","","","","","","","","","","","NaN",""
"","S1","","html-keyboard-response","67","169983","0.0-1.0-83.0","0","0","53053","","null","","","null","9","","","","","","","","","","","","","","","",""
"","ISI","","html-keyboard-response","68","170991","0.0-1.0-84.0","0","0","53053","","null","","","null","9","NaN","","","","","","","","","","","","","","",""
"","S2","","html-keyboard-response","69","171192","0.0-1.0-85.0","0","0","53053","","200","","","68","9","","d","1","9","training","adjacent","FG","6","7","O.jpg","N.jpg","0","1","0","",""
"","feedback","","html-keyboard-response","70","172201","0.0-1.0-87.0-0.0","0","0","53053","","null","","","null","9","","","","","","","","","","","","","","","",""
"","time_out","","html-keyboard-response","71","174207","0.0-1.0-89.0-0.0","0","0","53053","","null","","","null","9","","","","","","","","","","","","","","","",""
"","ITI","","html-keyboard-response","72","175868","0.0-1.0-90.0","0","0","53053","","null","","","null","9","","","","","","","","","","","","","","","NaN",""
"","S1","","html-keyboard-response","73","176914","0.0-1.0-92.0","0","0","53053","","null","","","null","10","","","","","","","","","","","","","","","",""
"","ISI","","html-keyboard-response","74","179486","0.0-1.0-93.0","0","0","53053","","null","","","null","10","NaN","","","","","","","","","","","","","","",""
"","S2","","html-keyboard-response","75","181192","0.0-1.0-94.0","0","0","53053","","null","","","null","10","","NaN","","","","","","","","","","","","","",""
"","response","","html-keyboard-response","76","182952","0.0-1.0-95.0-0.0","0","0","53053","","null","","","null","10","","","1","10","training","adjacent","DE","4","5","L.jpg","Q.jpg","NaN","1","0","",""
"","too_slow_prompt","","html-keyboard-response","77","183960","0.0-1.0-97.0-0.0","1","0","53053","","null","","","null","","","","","","","","","","","","","","","","",""
"","time_out","","html-keyboard-response","78","185966","0.0-1.0-98.0-0.0","0","0","53053","","null","","","null","10","","","","","","","","","","","","","","","",""
"","ITI","","html-keyboard-response","79","186976","0.0-1.0-99.0","0","0","53053","","null","","","null","10","","","","","","","","","","","","","","","NaN",""
"","S1","","html-keyboard-response","80","187232","0.0-1.0-101.0","0","0","53053","","null","","","null","11","","","","","","","","","","","","","","","",""
"","ISI","","html-keyboard-response","81","188237","0.0-1.0-102.0","0","0","53053","","null","","","null","11","NaN","","","","","","","","","","","","","","",""
"","S2","","html-keyboard-response","82","188496","0.0-1.0-103.0","0","0","53053","","null","","","null","11","","NaN","","","","","","","","","","","","","",""
"","response","","html-keyboard-response","83","188901","0.0-1.0-104.0-0.0","0","0","53053","","404","","","68","11","","","1","11","training","adjacent","FE","6","5","O.jpg","Q.jpg","0","0","1","",""
"","feedback","","html-keyboard-response","84","189913","0.0-1.0-105.0-0.0","0","0","53053","","null","","","null","11","","","","","","","","","","","","","","","",""
"","ITI","","html-keyboard-response","85","190919","0.0-1.0-108.0","0","0","53053","","null","","","null","11","","","","","","","","","","","","","","","NaN",""
"","S1","","html-keyboard-response","86","191190","0.0-1.0-110.0","0","0","53053","","null","","","null","12","","","","","","","","","","","","","","","",""
"","ISI","","html-keyboard-response","87","192199","0.0-1.0-111.0","0","0","53053","","null","","","null","12","NaN","","","","","","","","","","","","","","",""
"","S2","","html-keyboard-response","88","192472","0.0-1.0-112.0","0","0","53053","","null","","","null","12","","NaN","","","","","","","","","","","","","",""
"","response","","html-keyboard-response","89","193222","0.0-1.0-113.0-0.0","0","0","53053","","748","","","75","12","","","1","12","training","adjacent","ED","5","4","Q.jpg","L.jpg","1","0","0","",""
"","feedback","","html-keyboard-response","90","194233","0.0-1.0-114.0-0.0","0","0","53053","","null","","","null","12","","","","","","","","","","","","","","","",""
"","time_out","","html-keyboard-response","91","196240","0.0-1.0-116.0-0.0","0","0","53053","","null","","","null","12","","","","","","","","","","","","","","","",""
"","ITI","","html-keyboard-response","92","197264","0.0-1.0-117.0","0","0","53053","","null","","","null","12","","","","","","","","","","","","","","","NaN",""
"","S1","","html-keyboard-response","93","197521","0.0-1.0-119.0","0","0","53053","","null","","","null","13","","","","","","","","","","","","","","","",""
"","ISI","","html-keyboard-response","94","198525","0.0-1.0-120.0","0","0","53053","","null","","","null","13","NaN","","","","","","","","","","","","","","",""
"","S2","","html-keyboard-response","95","198819","0.0-1.0-121.0","0","0","53053","","null","","","null","13","","NaN","","","","","","","","","","","","","",""
"","response","","html-keyboard-response","96","198941","0.0-1.0-122.0-0.0","0","0","53053","","121","","","68","13","","","1","13","training","adjacent","FE","6","5","O.jpg","Q.jpg","0","0","1","",""
"","feedback","","html-keyboard-response","97","199953","0.0-1.0-123.0-0.0","0","0","53053","","null","","","null","13","","","","","","","","","","","","","","","",""
"","ITI","","html-keyboard-response","98","200956","0.0-1.0-126.0","0","0","53053","","null","","","null","13","","","","","","","","","","","","","","","NaN",""
"","S1","","html-keyboard-response","99","201212","0.0-1.0-128.0","0","0","53053","","null","","","null","14","","","","","","","","","","","","","","","",""
"","ISI","","html-keyboard-response","100","202220","0.0-1.0-129.0","0","0","53053","","null","","","null","14","NaN","","","","","","","","","","","","","","",""
"","S2","","html-keyboard-response","101","202479","0.0-1.0-130.0","0","0","53053","","null","","","null","14","","NaN","","","","","","","","","","","","","",""
"","response","","html-keyboard-response","102","202549","0.0-1.0-131.0-0.0","0","0","53053","","69","","","68","14","","","1","14","training","adjacent","ED","5","4","Q.jpg","L.jpg","0","0","1","",""
"","feedback","","html-keyboard-response","103","203557","0.0-1.0-132.0-0.0","0","0","53053","","null","","","null","14","","","","","","","","","","","","","","","",""
"","ITI","","html-keyboard-response","104","204576","0.0-1.0-135.0","0","0","53053","","null","","","null","14","","","","","","","","","","","","","","","NaN",""
"","S1","","html-keyboard-response","105","204833","0.0-1.0-137.0","0","0","53053","","null","","","null","15","","","","","","","","","","","","","","","",""
"","ISI","","html-keyboard-response","106","205839","0.0-1.0-138.0","0","0","53053","","null","","","null","15","NaN","","","","","","","","","","","","","","",""
"","S2","","html-keyboard-response","107","206092","0.0-1.0-139.0","0","0","53053","","null","","","null","15","","NaN","","","","","","","","","","","","","",""
"","response","","html-keyboard-response","108","206197","0.0-1.0-140.0-0.0","0","0","53053","","104","","","75","15","","","1","15","training","adjacent","DC","4","3","L.jpg","M.jpg","1","0","0","",""
"","feedback","","html-keyboard-response","109","207206","0.0-1.0-141.0-0.0","0","0","53053","","null","","","null","15","","","","","","","","","","","","","","","",""
"","time_out","","html-keyboard-response","110","209212","0.0-1.0-143.0-0.0","0","0","53053","","null","","","null","15","","","","","","","","","","","","","","","",""
"","ITI","","html-keyboard-response","111","210234","0.0-1.0-144.0","0","0","53053","","null","","","null","15","","","","","","","","","","","","","","","NaN",""
"","S1","","html-keyboard-response","112","210496","0.0-1.0-146.0","0","0","53053","","null","","","null","16","","","","","","","","","","","","","","","",""
"","ISI","","html-keyboard-response","113","211500","0.0-1.0-147.0","0","0","53053","","null","","","null","16","NaN","","","","","","","","","","","","","","",""
"","S2","","html-keyboard-response","114","211774","0.0-1.0-148.0","0","0","53053","","null","","","null","16","","NaN","","","","","","","","","","","","","",""
"","response","","html-keyboard-response","115","212357","0.0-1.0-149.0-0.0","0","0","53053","","581","","","75","16","","","1","16","training","adjacent","AB","1","2","R.jpg","P.jpg","1","1","1","",""
"","feedback","","html-keyboard-response","116","213366","0.0-1.0-150.0-0.0","0","0","53053","","null","","","null","16","","","","","","","","","","","","","","","",""
"","ITI","","html-keyboard-response","117","214374","0.0-1.0-153.0","0","0","53053","","null","","","null","16","","","","","","","","","","","","","","","NaN",""
"","S1","","html-keyboard-response","118","214632","0.0-1.0-155.0","0","0","53053","","null","","","null","17","","","","","","","","","","","","","","","",""
"","ISI","","html-keyboard-response","119","215638","0.0-1.0-156.0","0","0","53053","","null","","","null","17","NaN","","","","","","","","","","","","","","",""
"","S2","","html-keyboard-response","120","215894","0.0-1.0-157.0","0","0","53053","","null","","","null","17","","NaN","","","","","","","","","","","","","",""
"","response","","html-keyboard-response","121","216543","0.0-1.0-158.0-0.0","0","0","53053","","647","","","75","17","","","1","17","training","adjacent","BC","2","3","P.jpg","M.jpg","1","1","1","",""
"","feedback","","html-keyboard-response","122","217550","0.0-1.0-159.0-0.0","0","0","53053","","null","","","null","17","","","","","","","","","","","","","","","",""
"","ITI","","html-keyboard-response","123","218555","0.0-1.0-162.0","0","0","53053","","null","","","null","17","","","","","","","","","","","","","","","NaN",""
"","S1","","html-keyboard-response","124","218812","0.0-1.0-164.0","0","0","53053","","null","","","null","18","","","","","","","","","","","","","","","",""
"","ISI","","html-keyboard-response","125","219820","0.0-1.0-165.0","0","0","53053","","null","","","null","18","NaN","","","","","","","","","","","","","","",""
"","S2","","html-keyboard-response","126","220076","0.0-1.0-166.0","0","0","53053","","null","","","null","18","","NaN","","","","","","","","","","","","","",""
"","response","","html-keyboard-response","127","220214","0.0-1.0-167.0-0.0","0","0","53053","","136","","","75","18","","","1","18","training","adjacent","GF","7","6","N.jpg","O.jpg","1","0","0","",""
"","feedback","","html-keyboard-response","128","221220","0.0-1.0-168.0-0.0","0","0","53053","","null","","","null","18","","","","","","","","","","","","","","","",""
"","time_out","","html-keyboard-response","129","223232","0.0-1.0-170.0-0.0","0","0","53053","","null","","","null","18","","","","","","","","","","","","","","","",""
"","ITI","","html-keyboard-response","130","224235","0.0-1.0-171.0","0","0","53053","","null","","","null","18","","","","","","","","","","","","","","","NaN",""
"","S1","","html-keyboard-response","131","224496","0.0-1.0-173.0","0","0","53053","","null","","","null","19","","","","","","","","","","","","","","","",""
"","ISI","","html-keyboard-response","132","225499","0.0-1.0-174.0","0","0","53053","","null","","","null","19","NaN","","","","","","","","","","","","","","",""
"","S2","","html-keyboard-response","133","225758","0.0-1.0-175.0","0","0","53053","","null","","","null","19","","NaN","","","","","","","","","","","","","",""
"","response","","html-keyboard-response","134","226321","0.0-1.0-176.0-0.0","0","0","53053","","562","","","68","19","","","1","19","training","adjacent","GF","7","6","N.jpg","O.jpg","0","0","1","",""
"","feedback","","html-keyboard-response","135","227327","0.0-1.0-177.0-0.0","0","0","53053","","null","","","null","19","","","","","","","","","","","","","","","",""
"","ITI","","html-keyboard-response","136","228333","0.0-1.0-180.0","0","0","53053","","null","","","null","19","","","","","","","","","","","","","","","NaN",""
"","S1","","html-keyboard-response","137","228592","0.0-1.0-182.0","0","0","53053","","null","","","null","20","","","","","","","","","","","","","","","",""
"","ISI","","html-keyboard-response","138","229600","0.0-1.0-183.0","0","0","53053","","null","","","null","20","NaN","","","","","","","","","","","","","","",""
"","S2","","html-keyboard-response","139","229861","0.0-1.0-184.0","0","0","53053","","null","","","null","20","","NaN","","","","","","","","","","","","","",""
"","response","","html-keyboard-response","140","230067","0.0-1.0-185.0-0.0","0","0","53053","","204","","","75","20","","","1","20","training","adjacent","CD","3","4","M.jpg","L.jpg","1","1","1","",""
"","feedback","","html-keyboard-response","141","231077","0.0-1.0-186.0-0.0","0","0","53053","","null","","","null","20","","","","","","","","","","","","","","","",""
"","ITI","","html-keyboard-response","142","232086","0.0-1.0-189.0","0","0","53053","","null","","","null","20","","","","","","","","","","","","","","","NaN",""
"","S1","","html-keyboard-response","143","232342","0.0-1.0-191.0","0","0","53053","","null","","","null","21","","","","","","","","","","","","","","","",""
"","ISI","","html-keyboard-response","144","233352","0.0-1.0-192.0","0","0","53053","","null","","","null","21","NaN","","","","","","","","","","","","","","",""
"","S2","","html-keyboard-response","145","233611","0.0-1.0-193.0","0","0","53053","","null","","","null","21","","NaN","","","","","","","","","","","","","",""
"","response","","html-keyboard-response","146","233988","0.0-1.0-194.0-0.0","0","0","53053","","376","","","68","21","","","1","21","training","adjacent","DE","4","5","L.jpg","Q.jpg","0","1","0","",""
"","feedback","","html-keyboard-response","147","234996","0.0-1.0-195.0-0.0","0","0","53053","","null","","","null","21","","","","","","","","","","","","","","","",""
"","time_out","","html-keyboard-response","148","237007","0.0-1.0-197.0-0.0","0","0","53053","","null","","","null","21","","","","","","","","","","","","","","","",""
"","ITI","","html-keyboard-response","149","238013","0.0-1.0-198.0","0","0","53053","","null","","","null","21","","","","","","","","","","","","","","","NaN",""
"","S1","","html-keyboard-response","150","238268","0.0-1.0-200.0","0","0","53053","","null","","","null","22","","","","","","","","","","","","","","","",""
"","ISI","","html-keyboard-response","151","239276","0.0-1.0-201.0","0","0","53053","","null","","","null","22","NaN","","","","","","","","","","","","","","",""
"","S2","","html-keyboard-response","152","239530","0.0-1.0-202.0","0","0","53053","","null","","","null","22","","NaN","","","","","","","","","","","","","",""
"","response","","html-keyboard-response","153","239549","0.0-1.0-203.0-0.0","0","0","53053","","17","","","75","22","","","1","22","training","adjacent","BA","2","1","P.jpg","R.jpg","1","0","0","",""
"","feedback","","html-keyboard-response","154","240559","0.0-1.0-204.0-0.0","0","0","53053","","null","","","null","22","","","","","","","","","","","","","","","",""
"","time_out","","html-keyboard-response","155","242565","0.0-1.0-206.0-0.0","0","0","53053","","null","","","null","22","","","","","","","","","","","","","","","",""
"","ITI","","html-keyboard-response","156","243573","0.0-1.0-207.0","0","0","53053","","null","","","null","22","","","","","","","","","","","","","","","NaN",""
"","S1","","html-keyboard-response","157","243828","0.0-1.0-209.0","0","0","53053","","null","","","null","23","","","","","","","","","","","","","","","",""
"","ISI","","html-keyboard-response","158","244835","0.0-1.0-210.0","0","0","53053","","null","","","null","23","NaN","","","","","","","","","","","","","","",""
"","S2","","html-keyboard-response","159","245031","0.0-1.0-211.0","0","0","53053","","194","","","68","23","","d","1","23","training","adjacent","BC","2","3","P.jpg","M.jpg","0","1","0","",""
"","feedback","","html-keyboard-response","160","246035","0.0-1.0-213.0-0.0","0","0","53053","","null","","","null","23","","","","","","","","","","","","","","","",""
"","time_out","","html-keyboard-response","161","248042","0.0-1.0-215.0-0.0","0","0","53053","","null","","","null","23","","","","","","","","","","","","","","","",""
"","ITI","","html-keyboard-response","162","249055","0.0-1.0-216.0","0","0","53053","","null","","","null","23","","","","","","","","","","","","","","","NaN",""
"","S1","","html-keyboard-response","163","249317","0.0-1.0-218.0","0","0","53053","","null","","","null","24","","","","","","","","","","","","","","","",""
"","ISI","","html-keyboard-response","164","250324","0.0-1.0-219.0","0","0","53053","","984","","","75","24","k","","","","","","","","","","","","","","",""
"","S2","","html-keyboard-response","165","250583","0.0-1.0-220.0","0","0","53053","","null","","","null","24","","NaN","","","","","","","","","","","","","",""
"","response","","html-keyboard-response","166","252360","0.0-1.0-221.0-0.0","0","0","53053","","null","","","null","24","","","1","24","training","adjacent","BA","2","1","P.jpg","R.jpg","NaN","0","0","",""
"","too_slow_prompt","","html-keyboard-response","167","253375","0.0-1.0-223.0-0.0","1","0","53053","","null","","","null","","","","","","","","","","","","","","","","",""
"","time_out","","html-keyboard-response","168","255383","0.0-1.0-224.0-0.0","0","0","53053","","null","","","null","24","","","","","","","","","","","","","","","",""
"","ITI","","html-keyboard-response","169","256387","0.0-1.0-225.0","0","0","53053","","null","","","null","24","","","","","","","","","","","","","","","NaN",""
"","S1","","html-keyboard-response","170","256646","0.0-1.0-227.0","0","0","53053","","null","","","null","25","","","","","","","","","","","","","","","",""
"","ISI","","html-keyboard-response","171","257650","0.0-1.0-228.0","0","0","53053","","null","","","null","25","NaN","","","","","","","","","","","","","","",""
"","S2","","html-keyboard-response","172","257910","0.0-1.0-229.0","0","0","53053","","null","","","null","25","","NaN","","","","","","","","","","","","","",""
"","response","","html-keyboard-response","173","258392","0.0-1.0-230.0-0.0","0","0","53053","","462","","","75","25","","","1","25","training","adjacent","EF","5","6","Q.jpg","O.jpg","1","1","1","",""
"","feedback","","html-keyboard-response","174","259402","0.0-1.0-231.0-0.0","0","0","53053","","null","","","null","25","","","","","","","","","","","","","","","",""
"","ITI","","html-keyboard-response","175","260416","0.0-1.0-234.0","0","0","53053","","null","","","null","25","","","","","","","","","","","","","","","NaN",""
"","S1","","html-keyboard-response","176","260676","0.0-1.0-236.0","0","0","53053","","null","","","null","26","","","","","","","","","","","","","","","",""
"","ISI","","html-keyboard-response","177","261685","0.0-1.0-237.0","0","0","53053","","null","","","null","26","NaN","","","","","","","","","","","","","","",""
"","S2","","html-keyboard-response","178","261940","0.0-1.0-238.0","0","0","53053","","null","","","null","26","","NaN","","","","","","","","","","","","","",""
"","response","","html-keyboard-response","179","262346","0.0-1.0-239.0-0.0","0","0","53053","","404","","","68","26","","","1","26","training","adjacent","FE","6","5","O.jpg","Q.jpg","0","0","1","",""
"","feedback","","html-keyboard-response","180","263384","0.0-1.0-240.0-0.0","0","0","53053","","null","","","null","26","","","","","","","","","","","","","","","",""
"","ITI","","html-keyboard-response","181","264394","0.0-1.0-243.0","0","0","53053","","null","","","null","26","","","","","","","","","","","","","","","NaN",""
"","S1","","html-keyboard-response","182","264650","0.0-1.0-245.0","0","0","53053","","null","","","null","27","","","","","","","","","","","","","","","",""
"","ISI","","html-keyboard-response","183","265660","0.0-1.0-246.0","0","0","53053","","null","","","null","27","NaN","","","","","","","","","","","","","","",""
"","S2","","html-keyboard-response","184","265918","0.0-1.0-247.0","0","0","53053","","null","","","null","27","","NaN","","","","","","","","","","","","","",""
"","response","","html-keyboard-response","185","266019","0.0-1.0-248.0-0.0","0","0","53053","","89","","","75","27","","","1","27","training","adjacent","DC","4","3","L.jpg","M.jpg","1","0","0","",""
"","feedback","","html-keyboard-response","186","267028","0.0-1.0-249.0-0.0","0","0","53053","","null","","","null","27","","","","","","","","","","","","","","","",""
"","time_out","","html-keyboard-response","187","269035","0.0-1.0-251.0-0.0","0","0","53053","","null","","","null","27","","","","","","","","","","","","","","","",""
"","ITI","","html-keyboard-response","188","270044","0.0-1.0-252.0","0","0","53053","","null","","","null","27","","","","","","","","","","","","","","","NaN",""
"","S1","","html-keyboard-response","189","270297","0.0-1.0-254.0","0","0","53053","","null","","","null","28","","","","","","","","","","","","","","","",""
"","ISI","","html-keyboard-response","190","271309","0.0-1.0-255.0","0","0","53053","","null","","","null","28","NaN","","","","","","","","","","","","","","",""
"","S2","","html-keyboard-response","191","271442","0.0-1.0-256.0","0","0","53053","","131","","","68","28","","d","1","28","training","adjacent","AB","1","2","R.jpg","P.jpg","0","1","0","",""
"","feedback","","html-keyboard-response","192","272453","0.0-1.0-258.0-0.0","0","0","53053","","null","","","null","28","","","","","","","","","","","","","","","",""
"","time_out","","html-keyboard-response","193","274462","0.0-1.0-260.0-0.0","0","0","53053","","null","","","null","28","","","","","","","","","","","","","","","",""
"","ITI","","html-keyboard-response","194","275467","0.0-1.0-261.0","0","0","53053","","null","","","null","28","","","","","","","","","","","","","","","NaN",""
"","S1","","html-keyboard-response","195","275721","0.0-1.0-263.0","0","0","53053","","null","","","null","29","","","","","","","","","","","","","","","",""
"","ISI","","html-keyboard-response","196","276746","0.0-1.0-264.0","0","0","53053","","987","","","75","29","k","","","","","","","","","","","","","","",""
"","S2","","html-keyboard-response","197","277020","0.0-1.0-265.0","0","0","53053","","null","","","null","29","","NaN","","","","","","","","","","","","","",""
"","response","","html-keyboard-response","198","277242","0.0-1.0-266.0-0.0","0","0","53053","","221","","","75","29","","","1","29","training","adjacent","DC","4","3","L.jpg","M.jpg","1","0","0","",""
"","feedback","","html-keyboard-response","199","278254","0.0-1.0-267.0-0.0","0","0","53053","","null","","","null","29","","","","","","","","","","","","","","","",""
"","time_out","","html-keyboard-response","200","280259","0.0-1.0-269.0-0.0","0","0","53053","","null","","","null","29","","","","","","","","","","","","","","","",""
"","ITI","","html-keyboard-response","201","281270","0.0-1.0-270.0","0","0","53053","","null","","","null","29","","","","","","","","","","","","","","","NaN",""
"","S1","","html-keyboard-response","202","281534","0.0-1.0-272.0","0","0","53053","","null","","","null","30","","","","","","","","","","","","","","","",""
"","ISI","","html-keyboard-response","203","282537","0.0-1.0-273.0","0","0","53053","","null","","","null","30","NaN","","","","","","","","","","","","","","",""
"","S2","","html-keyboard-response","204","282798","0.0-1.0-274.0","0","0","53053","","null","","","null","30","","NaN","","","","","","","","","","","","","",""
"","response","","html-keyboard-response","205","282805","0.0-1.0-275.0-0.0","0","0","53053","","6","","","68","30","","","1","30","training","adjacent","AB","1","2","R.jpg","P.jpg","0","1","0","",""
"","feedback","","html-keyboard-response","206","283809","0.0-1.0-276.0-0.0","0","0","53053","","null","","","null","30","","","","","","","","","","","","","","","",""
"","time_out","","html-keyboard-response","207","285853","0.0-1.0-278.0-0.0","0","0","53053","","null","","","null","30","","","","","","","","","","","","","","","",""
"","ITI","","html-keyboard-response","208","286857","0.0-1.0-279.0","0","0","53053","","null","","","null","30","","","","","","","","","","","","","","","NaN",""
"","S1","","html-keyboard-response","209","287114","0.0-1.0-281.0","0","0","53053","","null","","","null","31","","","","","","","","","","","","","","","",""
"","ISI","","html-keyboard-response","210","288121","0.0-1.0-282.0","0","0","53053","","286","","","75","31","k","","","","","","","","","","","","","","",""
"","S2","","html-keyboard-response","211","288371","0.0-1.0-283.0","0","0","53053","","249","","","75","31","","k","1","31","training","adjacent","GF","7","6","N.jpg","O.jpg","1","0","0","",""
"","feedback","","html-keyboard-response","212","289388","0.0-1.0-285.0-0.0","0","0","53053","","null","","","null","31","","","","","","","","","","","","","","","",""
"","time_out","","html-keyboard-response","213","291395","0.0-1.0-287.0-0.0","0","0","53053","","null","","","null","31","","","","","","","","","","","","","","","",""
"","ITI","","html-keyboard-response","214","292427","0.0-1.0-288.0","0","0","53053","","null","","","null","31","","","","","","","","","","","","","","","NaN",""
"","S1","","html-keyboard-response","215","292681","0.0-1.0-290.0","0","0","53053","","null","","","null","32","","","","","","","","","","","","","","","",""
"","ISI","","html-keyboard-response","216","293688","0.0-1.0-291.0","0","0","53053","","null","","","null","32","NaN","","","","","","","","","","","","","","",""
"","S2","","html-keyboard-response","217","293951","0.0-1.0-292.0","0","0","53053","","null","","","null","32","","NaN","","","","","","","","","","","","","",""
"","response","","html-keyboard-response","218","294709","0.0-1.0-293.0-0.0","0","0","53053","","757","","","68","32","","","1","32","training","adjacent","CD","3","4","M.jpg","L.jpg","0","1","0","",""
"","feedback","","html-keyboard-response","219","295715","0.0-1.0-294.0-0.0","0","0","53053","","null","","","null","32","","","","","","","","","","","","","","","",""
"","time_out","","html-keyboard-response","220","297721","0.0-1.0-296.0-0.0","0","0","53053","","null","","","null","32","","","","","","","","","","","","","","","",""
"","ITI","","html-keyboard-response","221","298733","0.0-1.0-297.0","0","0","53053","","null","","","null","32","","","","","","","","","","","","","","","NaN",""
"","S1","","html-keyboard-response","222","298997","0.0-1.0-299.0","0","0","53053","","null","","","null","33","","","","","","","","","","","","","","","",""
"","ISI","","html-keyboard-response","223","300005","0.0-1.0-300.0","0","0","53053","","null","","","null","33","NaN","","","","","","","","","","","","","","",""
"","S2","","html-keyboard-response","224","300260","0.0-1.0-301.0","0","0","53053","","254","","","75","33","","k","1","33","training","adjacent","EF","5","6","Q.jpg","O.jpg","1","1","1","",""
"","feedback","","html-keyboard-response","225","301267","0.0-1.0-303.0-0.0","0","0","53053","","null","","","null","33","","","","","","","","","","","","","","","",""
"","ITI","","html-keyboard-response","226","302274","0.0-1.0-306.0","0","0","53053","","null","","","null","33","","","","","","","","","","","","","","","NaN",""
"","S1","","html-keyboard-response","227","302530","0.0-1.0-308.0","0","0","53053","","null","","","null","34","","","","","","","","","","","","","","","",""
"","ISI","","html-keyboard-response","228","303540","0.0-1.0-309.0","0","0","53053","","null","","","null","34","NaN","","","","","","","","","","","","","","",""
"","S2","","html-keyboard-response","229","303797","0.0-1.0-310.0","0","0","53053","","null","","","null","34","","NaN","","","","","","","","","","","","","",""
"","response","","html-keyboard-response","230","303882","0.0-1.0-311.0-0.0","0","0","53053","","84","","","75","34","","","1","34","training","adjacent","FG","6","7","O.jpg","N.jpg","1","1","1","",""
"","feedback","","html-keyboard-response","231","304889","0.0-1.0-312.0-0.0","0","0","53053","","null","","","null","34","","","","","","","","","","","","","","","",""
"","ITI","","html-keyboard-response","232","305897","0.0-1.0-315.0","0","0","53053","","null","","","null","34","","","","","","","","","","","","","","","NaN",""
"","S1","","html-keyboard-response","233","306152","0.0-1.0-317.0","0","0","53053","","null","","","null","35","","","","","","","","","","","","","","","",""
"","ISI","","html-keyboard-response","234","307164","0.0-1.0-318.0","0","0","53053","","null","","","null","35","NaN","","","","","","","","","","","","","","",""
"","S2","","html-keyboard-response","235","307427","0.0-1.0-319.0","0","0","53053","","null","","","null","35","","NaN","","","","","","","","","","","","","",""
"","response","","html-keyboard-response","236","307523","0.0-1.0-320.0-0.0","0","0","53053","","94","","","68","35","","","1","35","training","adjacent","CB","3","2","M.jpg","P.jpg","0","0","1","",""
"","feedback","","html-keyboard-response","237","308532","0.0-1.0-321.0-0.0","0","0","53053","","null","","","null","35","","","","","","","","","","","","","","","",""
"","ITI","","html-keyboard-response","238","309536","0.0-1.0-324.0","0","0","53053","","null","","","null","35","","","","","","","","","","","","","","","NaN",""
"","S1","","html-keyboard-response","239","309797","0.0-1.0-326.0","0","0","53053","","null","","","null","36","","","","","","","","","","","","","","","",""
"","ISI","","html-keyboard-response","240","310822","0.0-1.0-327.0","0","0","53053","","null","","","null","36","NaN","","","","","","","","","","","","","","",""
"","S2","","html-keyboard-response","241","311075","0.0-1.0-328.0","0","0","53053","","252","","","68","36","","d","1","36","training","adjacent","FE","6","5","O.jpg","Q.jpg","0","0","1","",""
"","feedback","","html-keyboard-response","242","312114","0.0-1.0-330.0-0.0","0","0","53053","","null","","","null","36","","","","","","","","","","","","","","","",""
"","ITI","","html-keyboard-response","243","313122","0.0-1.0-333.0","0","0","53053","","null","","","null","36","","","","","","","","","","","","","","","NaN",""
"","S1","","html-keyboard-response","244","313375","0.0-1.0-335.0","0","0","53053","","null","","","null","37","","","","","","","","","","","","","","","",""
"","ISI","","html-keyboard-response","245","314395","0.0-1.0-336.0","0","0","53053","","null","","","null","37","NaN","","","","","","","","","","","","","","",""
"","S2","","html-keyboard-response","246","314648","0.0-1.0-337.0","0","0","53053","","null","","","null","37","","NaN","","","","","","","","","","","","","",""
"","response","","html-keyboard-response","247","314861","0.0-1.0-338.0-0.0","0","0","53053","","211","","","75","37","","","1","37","training","adjacent","EF","5","6","Q.jpg","O.jpg","1","1","1","",""
"","feedback","","html-keyboard-response","248","315864","0.0-1.0-339.0-0.0","0","0","53053","","null","","","null","37","","","","","","","","","","","","","","","",""
"","ITI","","html-keyboard-response","249","316875","0.0-1.0-342.0","0","0","53053","","null","","","null","37","","","","","","","","","","","","","","","NaN",""
"","S1","","html-keyboard-response","250","317127","0.0-1.0-344.0","0","0","53053","","null","","","null","38","","","","","","","","","","","","","","","",""
"","ISI","","html-keyboard-response","251","318140","0.0-1.0-345.0","0","0","53053","","null","","","null","38","NaN","","","","","","","","","","","","","","",""
"","S2","","html-keyboard-response","252","318401","0.0-1.0-346.0","0","0","53053","","null","","","null","38","","NaN","","","","","","","","","","","","","",""
"","response","","html-keyboard-response","253","318951","0.0-1.0-347.0-0.0","0","0","53053","","548","","","75","38","","","1","38","training","adjacent","DC","4","3","L.jpg","M.jpg","1","0","0","",""
"","feedback","","html-keyboard-response","254","319964","0.0-1.0-348.0-0.0","0","0","53053","","null","","","null","38","","","","","","","","","","","","","","","",""
"","time_out","","html-keyboard-response","255","321969","0.0-1.0-350.0-0.0","0","0","53053","","null","","","null","38","","","","","","","","","","","","","","","",""
"","ITI","","html-keyboard-response","256","322979","0.0-1.0-351.0","0","0","53053","","912","","","75","38","","","","","","","","","","","","","","","k",""
"","S1","","html-keyboard-response","257","323234","0.0-1.0-353.0","0","0","53053","","null","","","null","39","","","","","","","","","","","","","","","",""
"","ISI","","html-keyboard-response","258","324240","0.0-1.0-354.0","0","0","53053","","82","","","75","39","k","","","","","","","","","","","","","","",""
"","S2","","html-keyboard-response","259","324380","0.0-1.0-355.0","0","0","53053","","138","","","75","39","","k","1","39","training","adjacent","DE","4","5","L.jpg","Q.jpg","1","1","1","",""
"","feedback","","html-keyboard-response","260","325389","0.0-1.0-357.0-0.0","0","0","53053","","null","","","null","39","","","","","","","","","","","","","","","",""
"","ITI","","html-keyboard-response","261","326392","0.0-1.0-360.0","0","0","53053","","null","","","null","39","","","","","","","","","","","","","","","NaN",""
"","S1","","html-keyboard-response","262","326652","0.0-1.0-362.0","0","0","53053","","null","","","null","40","","","","","","","","","","","","","","","",""
"","ISI","","html-keyboard-response","263","327657","0.0-1.0-363.0","0","0","53053","","null","","","null","40","NaN","","","","","","","","","","","","","","",""
"","S2","","html-keyboard-response","264","327916","0.0-1.0-364.0","0","0","53053","","null","","","null","40","","NaN","","","","","","","","","","","","","",""
"","response","","html-keyboard-response","265","328292","0.0-1.0-365.0-0.0","0","0","53053","","375","","","68","40","","","1","40","training","adjacent","BC","2","3","P.jpg","M.jpg","0","1","0","",""
"","feedback","","html-keyboard-response","266","329295","0.0-1.0-366.0-0.0","0","0","53053","","null","","","null","40","","","","","","","","","","","","","","","",""
"","time_out","","html-keyboard-response","267","331307","0.0-1.0-368.0-0.0","0","0","53053","","null","","","null","40","","","","","","","","","","","","","","","",""
"","ITI","","html-keyboard-response","268","332311","0.0-1.0-369.0","0","0","53053","","null","","","null","40","","","","","","","","","","","","","","","NaN",""
"","S1","","html-keyboard-response","269","332569","0.0-1.0-371.0","0","0","53053","","null","","","null","41","","","","","","","","","","","","","","","",""
"","ISI","","html-keyboard-response","270","333575","0.0-1.0-372.0","0","0","53053","","null","","","null","41","NaN","","","","","","","","","","","","","","",""
"","S2","","html-keyboard-response","271","333832","0.0-1.0-373.0","0","0","53053","","null","","","null","41","","NaN","","","","","","","","","","","","","",""
"","response","","html-keyboard-response","272","333837","0.0-1.0-374.0-0.0","0","0","53053","","3","","","75","41","","","1","41","training","adjacent","BA","2","1","P.jpg","R.jpg","1","0","0","",""
"","feedback","","html-keyboard-response","273","334843","0.0-1.0-375.0-0.0","0","0","53053","","null","","","null","41","","","","","","","","","","","","","","","",""
"","time_out","","html-keyboard-response","274","336851","0.0-1.0-377.0-0.0","0","0","53053","","null","","","null","41","","","","","","","","","","","","","","","",""
"","ITI","","html-keyboard-response","275","337857","0.0-1.0-378.0","0","0","53053","","null","","","null","41","","","","","","","","","","","","","","","NaN",""
"","S1","","html-keyboard-response","276","338111","0.0-1.0-380.0","0","0","53053","","null","","","null","42","","","","","","","","","","","","","","","",""
"","ISI","","html-keyboard-response","277","339133","0.0-1.0-381.0","0","0","53053","","134","","","68","42","d","","","","","","","","","","","","","","",""
"","S2","","html-keyboard-response","278","339395","0.0-1.0-382.0","0","0","53053","","null","","","null","42","","NaN","","","","","","","","","","","","","",""
"","response","","html-keyboard-response","279","339407","0.0-1.0-383.0-0.0","0","0","53053","","11","","","68","42","","","1","42","training","adjacent","CD","3","4","M.jpg","L.jpg","0","1","0","",""
"","feedback","","html-keyboard-response","280","340417","0.0-1.0-384.0-0.0","0","0","53053","","null","","","null","42","","","","","","","","","","","","","","","",""
"","time_out","","html-keyboard-response","281","342422","0.0-1.0-386.0-0.0","0","0","53053","","null","","","null","42","","","","","","","","","","","","","","","",""
"","ITI","","html-keyboard-response","282","343430","0.0-1.0-387.0","0","0","53053","","597","","","68","42","","","","","","","","","","","","","","","d",""
"","S1","","html-keyboard-response","283","343686","0.0-1.0-389.0","0","0","53053","","null","","","null","43","","","","","","","","","","","","","","","",""
"","ISI","","html-keyboard-response","284","344697","0.0-1.0-390.0","0","0","53053","","196","","","68","43","d","","","","","","","","","","","","","","",""
"","S2","","html-keyboard-response","285","344720","0.0-1.0-391.0","0","0","53053","","21","","","68","43","","d","1","43","training","adjacent","AB","1","2","R.jpg","P.jpg","0","1","0","",""
"","feedback","","html-keyboard-response","286","345728","0.0-1.0-393.0-0.0","0","0","53053","","null","","","null","43","","","","","","","","","","","","","","","",""
"","time_out","","html-keyboard-response","287","347739","0.0-1.0-395.0-0.0","0","0","53053","","null","","","null","43","","","","","","","","","","","","","","","",""
"","ITI","","html-keyboard-response","288","348742","0.0-1.0-396.0","0","0","53053","","null","","","null","43","","","","","","","","","","","","","","","NaN",""
"","S1","","html-keyboard-response","289","348999","0.0-1.0-398.0","0","0","53053","","null","","","null","44","","","","","","","","","","","","","","","",""
"","ISI","","html-keyboard-response","290","350006","0.0-1.0-399.0","0","0","53053","","null","","","null","44","NaN","","","","","","","","","","","","","","",""
"","S2","","html-keyboard-response","291","350262","0.0-1.0-400.0","0","0","53053","","null","","","null","44","","NaN","","","","","","","","","","","","","",""
"","response","","html-keyboard-response","292","350392","0.0-1.0-401.0-0.0","0","0","53053","","128","","","75","44","","","1","44","training","adjacent","CB","3","2","M.jpg","P.jpg","1","0","0","",""
"","feedback","","html-keyboard-response","293","351403","0.0-1.0-402.0-0.0","0","0","53053","","null","","","null","44","","","","","","","","","","","","","","","",""
"","time_out","","html-keyboard-response","294","353409","0.0-1.0-404.0-0.0","0","0","53053","","null","","","null","44","","","","","","","","","","","","","","","",""
"","ITI","","html-keyboard-response","295","354414","0.0-1.0-405.0","0","0","53053","","null","","","null","44","","","","","","","","","","","","","","","NaN",""
"","S1","","html-keyboard-response","296","354672","0.0-1.0-407.0","0","0","53053","","null","","","null","45","","","","","","","","","","","","","","","",""
"","ISI","","html-keyboard-response","297","355678","0.0-1.0-408.0","0","0","53053","","null","","","null","45","NaN","","","","","","","","","","","","","","",""
"","S2","","html-keyboard-response","298","355936","0.0-1.0-409.0","0","0","53053","","null","","","null","45","","NaN","","","","","","","","","","","","","",""
"","response","","html-keyboard-response","299","356033","0.0-1.0-410.0-0.0","0","0","53053","","96","","","75","45","","","1","45","training","adjacent","FG","6","7","O.jpg","N.jpg","1","1","1","",""
"","feedback","","html-keyboard-response","300","357041","0.0-1.0-411.0-0.0","0","0","53053","","null","","","null","45","","","","","","","","","","","","","","","",""
"","ITI","","html-keyboard-response","301","358048","0.0-1.0-414.0","0","0","53053","","null","","","null","45","","","","","","","","","","","","","","","NaN",""
"","S1","","html-keyboard-response","302","358306","0.0-1.0-416.0","0","0","53053","","null","","","null","46","","","","","","","","","","","","","","","",""
"","ISI","","html-keyboard-response","303","359312","0.0-1.0-417.0","0","0","53053","","null","","","null","46","NaN","","","","","","","","","","","","","","",""
"","S2","","html-keyboard-response","304","359568","0.0-1.0-418.0","0","0","53053","","null","","","null","46","","NaN","","","","","","","","","","","","","",""
"","response","","html-keyboard-response","305","359887","0.0-1.0-419.0-0.0","0","0","53053","","317","","","68","46","","","1","46","training","adjacent","BC","2","3","P.jpg","M.jpg","0","1","0","",""
"","feedback","","html-keyboard-response","306","360896","0.0-1.0-420.0-0.0","0","0","53053","","null","","","null","46","","","","","","","","","","","","","","","",""
"","time_out","","html-keyboard-response","307","362906","0.0-1.0-422.0-0.0","0","0","53053","","null","","","null","46","","","","","","","","","","","","","","","",""
"","ITI","","html-keyboard-response","308","363912","0.0-1.0-423.0","0","0","53053","","null","","","null","46","","","","","","","","","","","","","","","NaN",""
"","S1","","html-keyboard-response","309","364168","0.0-1.0-425.0","0","0","53053","","null","","","null","47","","","","","","","","","","","","","","","",""
"","ISI","","html-keyboard-response","310","365173","0.0-1.0-426.0","0","0","53053","","null","","","null","47","NaN","","","","","","","","","","","","","","",""
"","S2","","html-keyboard-response","311","365430","0.0-1.0-427.0","0","0","53053","","null","","","null","47","","NaN","","","","","","","","","","","","","",""
"","response","","html-keyboard-response","312","365543","0.0-1.0-428.0-0.0","0","0","53053","","112","","","68","47","","","1","47","training","adjacent","DE","4","5","L.jpg","Q.jpg","0","1","0","",""
"","feedback","","html-keyboard-response","313","366553","0.0-1.0-429.0-0.0","0","0","53053","","null","","","null","47","","","","","","","","","","","","","","","",""
"","time_out","","html-keyboard-response","314","368560","0.0-1.0-431.0-0.0","0","0","53053","","null","","","null","47","","","","","","","","","","","","","","","",""
"","ITI","","html-keyboard-response","315","369568","0.0-1.0-432.0","0","0","53053","","null","","","null","47","","","","","","","","","","","","","","","NaN",""
"","block_over","","html-keyboard-response","316","379729","0.0-1.0-433.0-0.0","0","0","53053","","10159","","","32","47","","","","","","","","","","","","","","","",""
"","S1","","html-keyboard-response","317","379989","0.0-1.0-434.0","0","0","53053","","null","","","null","48","","","","","","","","","","","","","","","",""
"","ISI","","html-keyboard-response","318","381001","0.0-1.0-435.0","0","0","53053","","null","","","null","48","NaN","","","","","","","","","","","","","","",""
"","S2","","html-keyboard-response","319","381265","0.0-1.0-436.0","0","0","53053","","null","","","null","48","","NaN","","","","","","","","","","","","","",""
"","response","","html-keyboard-response","320","383022","0.0-1.0-437.0-0.0","0","0","53053","","null","","","null","48","","","2","48","training","adjacent","FE","6","5","O.jpg","Q.jpg","NaN","0","0","",""
"","too_slow_prompt","","html-keyboard-response","321","384031","0.0-1.0-439.0-0.0","1","0","53053","","null","","","null","","","","","","","","","","","","","","","","",""
"","time_out","","html-keyboard-response","322","386041","0.0-1.0-440.0-0.0","0","0","53053","","null","","","null","48","","","","","","","","","","","","","","","",""
"","ITI","","html-keyboard-response","323","387071","0.0-1.0-441.0","0","0","53053","","null","","","null","48","","","","","","","","","","","","","","","NaN",""
"","S1","","html-keyboard-response","324","387327","0.0-1.0-443.0","0","0","53053","","null","","","null","49","","","","","","","","","","","","","","","",""
"","ISI","","html-keyboard-response","325","388335","0.0-1.0-444.0","0","0","53053","","null","","","null","49","NaN","","","","","","","","","","","","","","",""
"","S2","","html-keyboard-response","326","388591","0.0-1.0-445.0","0","0","53053","","null","","","null","49","","NaN","","","","","","","","","","","","","",""
"","response","","html-keyboard-response","327","388851","0.0-1.0-446.0-0.0","0","0","53053","","258","","","75","49","","","2","49","training","adjacent","FG","6","7","O.jpg","N.jpg","1","1","1","",""
"","feedback","","html-keyboard-response","328","389863","0.0-1.0-447.0-0.0","0","0","53053","","null","","","null","49","","","","","","","","","","","","","","","",""
"","ITI","","html-keyboard-response","329","390869","0.0-1.0-450.0","0","0","53053","","null","","","null","49","","","","","","","","","","","","","","","NaN",""
"","S1","","html-keyboard-response","330","391129","0.0-1.0-452.0","0","0","53053","","null","","","null","50","","","","","","","","","","","","","","","",""
"","ISI","","html-keyboard-response","331","392137","0.0-1.0-453.0","0","0","53053","","null","","","null","50","NaN","","","","","","","","","","","","","","",""
"","S2","","html-keyboard-response","332","392401","0.0-1.0-454.0","0","0","53053","","null","","","null","50","","NaN","","","","","","","","","","","","","",""
"","response","","html-keyboard-response","333","392646","0.0-1.0-455.0-0.0","0","0","53053","","244","","","75","50","","","2","50","training","adjacent","BA","2","1","P.jpg","R.jpg","1","0","0","",""
"","feedback","","html-keyboard-response","334","393652","0.0-1.0-456.0-0.0","0","0","53053","","null","","","null","50","","","","","","","","","","","","","","","",""
"","time_out","","html-keyboard-response","335","395663","0.0-1.0-458.0-0.0","0","0","53053","","null","","","null","50","","","","","","","","","","","","","","","",""
"","ITI","","html-keyboard-response","336","396669","0.0-1.0-459.0","0","0","53053","","null","","","null","50","","","","","","","","","","","","","","","NaN",""
"","S1","","html-keyboard-response","337","396925","0.0-1.0-461.0","0","0","53053","","null","","","null","51","","","","","","","","","","","","","","","",""
"","ISI","","html-keyboard-response","338","397935","0.0-1.0-462.0","0","0","53053","","null","","","null","51","NaN","","","","","","","","","","","","","","",""
"","S2","","html-keyboard-response","339","398200","0.0-1.0-463.0","0","0","53053","","null","","","null","51","","NaN","","","","","","","","","","","","","",""
"","response","","html-keyboard-response","340","398287","0.0-1.0-464.0-0.0","0","0","53053","","84","","","68","51","","","2","51","training","adjacent","DC","4","3","L.jpg","M.jpg","0","0","1","",""
"","feedback","","html-keyboard-response","341","399292","0.0-1.0-465.0-0.0","0","0","53053","","null","","","null","51","","","","","","","","","","","","","","","",""
"","ITI","","html-keyboard-response","342","400310","0.0-1.0-468.0","0","0","53053","","null","","","null","51","","","","","","","","","","","","","","","NaN",""
"","S1","","html-keyboard-response","343","400566","0.0-1.0-470.0","0","0","53053","","null","","","null","52","","","","","","","","","","","","","","","",""
"","ISI","","html-keyboard-response","344","401574","0.0-1.0-471.0","0","0","53053","","null","","","null","52","NaN","","","","","","","","","","","","","","",""
"","S2","","html-keyboard-response","345","401828","0.0-1.0-472.0","0","0","53053","","null","","","null","52","","NaN","","","","","","","","","","","","","",""
"","response","","html-keyboard-response","346","402038","0.0-1.0-473.0-0.0","0","0","53053","","208","","","75","52","","","2","52","training","adjacent","CB","3","2","M.jpg","P.jpg","1","0","0","",""
"","feedback","","html-keyboard-response","347","403049","0.0-1.0-474.0-0.0","0","0","53053","","null","","","null","52","","","","","","","","","","","","","","","",""
"","time_out","","html-keyboard-response","348","405054","0.0-1.0-476.0-0.0","0","0","53053","","null","","","null","52","","","","","","","","","","","","","","","",""
"","ITI","","html-keyboard-response","349","406104","0.0-1.0-477.0","0","0","53053","","null","","","null","52","","","","","","","","","","","","","","","NaN",""
"","S1","","html-keyboard-response","350","406366","0.0-1.0-479.0","0","0","53053","","null","","","null","53","","","","","","","","","","","","","","","",""
"","ISI","","html-keyboard-response","351","407376","0.0-1.0-480.0","0","0","53053","","125","","","68","53","d","","","","","","","","","","","","","","",""
"","S2","","html-keyboard-response","352","407601","0.0-1.0-481.0","0","0","53053","","223","","","68","53","","d","2","53","training","adjacent","FG","6","7","O.jpg","N.jpg","0","1","0","",""
"","feedback","","html-keyboard-response","353","408604","0.0-1.0-483.0-0.0","0","0","53053","","null","","","null","53","","","","","","","","","","","","","","","",""
"","time_out","","html-keyboard-response","354","410616","0.0-1.0-485.0-0.0","0","0","53053","","null","","","null","53","","","","","","","","","","","","","","","",""
"","ITI","","html-keyboard-response","355","411619","0.0-1.0-486.0","0","0","53053","","null","","","null","53","","","","","","","","","","","","","","","NaN",""
"","S1","","html-keyboard-response","356","411876","0.0-1.0-488.0","0","0","53053","","null","","","null","54","","","","","","","","","","","","","","","",""
"","ISI","","html-keyboard-response","357","412887","0.0-1.0-489.0","0","0","53053","","null","","","null","54","NaN","","","","","","","","","","","","","","",""
"","S2","","html-keyboard-response","358","413144","0.0-1.0-490.0","0","0","53053","","null","","","null","54","","NaN","","","","","","","","","","","","","",""
"","response","","html-keyboard-response","359","413618","0.0-1.0-491.0-0.0","0","0","53053","","473","","","75","54","","","2","54","training","adjacent","AB","1","2","R.jpg","P.jpg","1","1","1","",""
"","feedback","","html-keyboard-response","360","414628","0.0-1.0-492.0-0.0","0","0","53053","","null","","","null","54","","","","","","","","","","","","","","","",""
"","ITI","","html-keyboard-response","361","415639","0.0-1.0-495.0","0","0","53053","","null","","","null","54","","","","","","","","","","","","","","","NaN",""
"","S1","","html-keyboard-response","362","415902","0.0-1.0-497.0","0","0","53053","","null","","","null","55","","","","","","","","","","","","","","","",""
"","ISI","","html-keyboard-response","363","416910","0.0-1.0-498.0","0","0","53053","","183","","","68","55","d","","","","","","","","","","","","","","",""
"","S2","","html-keyboard-response","364","417061","0.0-1.0-499.0","0","0","53053","","148","","","75","55","","k","2","55","training","adjacent","AB","1","2","R.jpg","P.jpg","1","1","1","",""
"","feedback","","html-keyboard-response","365","418065","0.0-1.0-501.0-0.0","0","0","53053","","null","","","null","55","","","","","","","","","","","","","","","",""
"","ITI","","html-keyboard-response","366","419080","0.0-1.0-504.0","0","0","53053","","6","","","68","55","","","","","","","","","","","","","","","d",""
"","S1","","html-keyboard-response","367","419340","0.0-1.0-506.0","0","0","53053","","null","","","null","56","","","","","","","","","","","","","","","",""
"","ISI","","html-keyboard-response","368","420347","0.0-1.0-507.0","0","0","53053","","1","","","68","56","d","","","","","","","","","","","","","","",""
"","S2","","html-keyboard-response","369","420385","0.0-1.0-508.0","0","0","53053","","36","","","68","56","","d","2","56","training","adjacent","BC","2","3","P.jpg","M.jpg","0","1","0","",""
"","feedback","","html-keyboard-response","370","421389","0.0-1.0-510.0-0.0","0","0","53053","","null","","","null","56","","","","","","","","","","","","","","","",""
"","time_out","","html-keyboard-response","371","423401","0.0-1.0-512.0-0.0","0","0","53053","","null","","","null","56","","","","","","","","","","","","","","","",""
"","ITI","","html-keyboard-response","372","424403","0.0-1.0-513.0","0","0","53053","","20","","","68","56","","","","","","","","","","","","","","","d",""
"","S1","","html-keyboard-response","373","424664","0.0-1.0-515.0","0","0","53053","","null","","","null","57","","","","","","","","","","","","","","","",""
"","ISI","","html-keyboard-response","374","425668","0.0-1.0-516.0","0","0","53053","","91","","","75","57","k","","","","","","","","","","","","","","",""
"","S2","","html-keyboard-response","375","425751","0.0-1.0-517.0","0","0","53053","","80","","","68","57","","d","2","57","training","adjacent","BA","2","1","P.jpg","R.jpg","0","0","1","",""
"","feedback","","html-keyboard-response","376","426755","0.0-1.0-519.0-0.0","0","0","53053","","null","","","null","57","","","","","","","","","","","","","","","",""
"","ITI","","html-keyboard-response","377","427762","0.0-1.0-522.0","0","0","53053","","31","","","68","57","","","","","","","","","","","","","","","d",""
"","S1","","html-keyboard-response","378","428017","0.0-1.0-524.0","0","0","53053","","null","","","null","58","","","","","","","","","","","","","","","",""
"","ISI","","html-keyboard-response","379","429028","0.0-1.0-525.0","0","0","53053","","80","","","68","58","d","","","","","","","","","","","","","","",""
"","S2","","html-keyboard-response","380","429043","0.0-1.0-526.0","0","0","53053","","14","","","75","58","","k","2","58","training","adjacent","EF","5","6","Q.jpg","O.jpg","1","1","1","",""
"","feedback","","html-keyboard-response","381","430055","0.0-1.0-528.0-0.0","0","0","53053","","null","","","null","58","","","","","","","","","","","","","","","",""
"","ITI","","html-keyboard-response","382","431059","0.0-1.0-531.0","0","0","53053","","10","","","68","58","","","","","","","","","","","","","","","d",""
"","S1","","html-keyboard-response","383","431313","0.0-1.0-533.0","0","0","53053","","null","","","null","59","","","","","","","","","","","","","","","",""
"","ISI","","html-keyboard-response","384","432316","0.0-1.0-534.0","0","0","53053","","110","","","68","59","d","","","","","","","","","","","","","","",""
"","S2","","html-keyboard-response","385","432361","0.0-1.0-535.0","0","0","53053","","43","","","75","59","","k","2","59","training","adjacent","EF","5","6","Q.jpg","O.jpg","1","1","1","",""
"","feedback","","html-keyboard-response","386","433363","0.0-1.0-537.0-0.0","0","0","53053","","null","","","null","59","","","","","","","","","","","","","","","",""
"","ITI","","html-keyboard-response","387","434370","0.0-1.0-540.0","0","0","53053","","72","","","75","59","","","","","","","","","","","","","","","k",""
"","S1","","html-keyboard-response","388","434623","0.0-1.0-542.0","0","0","53053","","null","","","null","60","","","","","","","","","","","","","","","",""
"","ISI","","html-keyboard-response","389","435628","0.0-1.0-543.0","0","0","53053","","89","","","75","60","k","","","","","","","","","","","","","","",""
"","S2","","html-keyboard-response","390","435630","0.0-1.0-544.0","0","0","53053","","0","","","75","60","","k","2","60","training","adjacent","DC","4","3","L.jpg","M.jpg","1","0","0","",""
"","feedback","","html-keyboard-response","391","436638","0.0-1.0-546.0-0.0","0","0","53053","","null","","","null","60","","","","","","","","","","","","","","","",""
"","time_out","","html-keyboard-response","392","438643","0.0-1.0-548.0-0.0","0","0","53053","","null","","","null","60","","","","","","","","","","","","","","","",""
"","ITI","","html-keyboard-response","393","439659","0.0-1.0-549.0","0","0","53053","","36","","","75","60","","","","","","","","","","","","","","","k",""
"","S1","","html-keyboard-response","394","439915","0.0-1.0-551.0","0","0","53053","","null","","","null","61","","","","","","","","","","","","","","","",""
"","ISI","","html-keyboard-response","395","440924","0.0-1.0-552.0","0","0","53053","","17","","","68","61","d","","","","","","","","","","","","","","",""
"","S2","","html-keyboard-response","396","440974","0.0-1.0-553.0","0","0","53053","","48","","","75","61","","k","2","61","training","adjacent","GF","7","6","N.jpg","O.jpg","1","0","0","",""
"","feedback","","html-keyboard-response","397","441980","0.0-1.0-555.0-0.0","0","0","53053","","null","","","null","61","","","","","","","","","","","","","","","",""
"","time_out","","html-keyboard-response","398","443991","0.0-1.0-557.0-0.0","0","0","53053","","null","","","null","61","","","","","","","","","","","","","","","",""
"","ITI","","html-keyboard-response","399","444996","0.0-1.0-558.0","0","0","53053","","136","","","68","61","","","","","","","","","","","","","","","d",""
"","S1","","html-keyboard-response","400","445252","0.0-1.0-560.0","0","0","53053","","null","","","null","62","","","","","","","","","","","","","","","",""
"","ISI","","html-keyboard-response","401","446259","0.0-1.0-561.0","0","0","53053","","1","","","75","62","k","","","","","","","","","","","","","","",""
"","S2","","html-keyboard-response","402","446301","0.0-1.0-562.0","0","0","53053","","40","","","68","62","","d","2","62","training","adjacent","DE","4","5","L.jpg","Q.jpg","0","1","0","",""
"","feedback","","html-keyboard-response","403","447309","0.0-1.0-564.0-0.0","0","0","53053","","null","","","null","62","","","","","","","","","","","","","","","",""
"","time_out","","html-keyboard-response","404","449312","0.0-1.0-566.0-0.0","0","0","53053","","null","","","null","62","","","","","","","","","","","","","","","",""
"","ITI","","html-keyboard-response","405","450315","0.0-1.0-567.0","0","0","53053","","86","","","75","62","","","","","","","","","","","","","","","k",""
"","S1","","html-keyboard-response","406","450574","0.0-1.0-569.0","0","0","53053","","null","","","null","63","","","","","","","","","","","","","","","",""
"","ISI","","html-keyboard-response","407","451597","0.0-1.0-570.0","0","0","53053","","23","","","68","63","d","","","","","","","","","","","","","","",""
"","S2","","html-keyboard-response","408","451844","0.0-1.0-571.0","0","0","53053","","245","","","68","63","","d","2","63","training","adjacent","EF","5","6","Q.jpg","O.jpg","0","1","0","",""
"","feedback","","html-keyboard-response","409","452850","0.0-1.0-573.0-0.0","0","0","53053","","null","","","null","63","","","","","","","","","","","","","","","",""
"","time_out","","html-keyboard-response","410","454860","0.0-1.0-575.0-0.0","0","0","53053","","null","","","null","63","","","","","","","","","","","","","","","",""
"","ITI","","html-keyboard-response","411","455868","0.0-1.0-576.0","0","0","53053","","97","","","75","63","","","","","","","","","","","","","","","k",""
"","S1","","html-keyboard-response","412","456120","0.0-1.0-578.0","0","0","53053","","null","","","null","64","","","","","","","","","","","","","","","",""
"","ISI","","html-keyboard-response","413","457121","0.0-1.0-579.0","0","0","53053","","197","","","75","64","k","","","","","","","","","","","","","","",""
"","S2","","html-keyboard-response","414","457136","0.0-1.0-580.0","0","0","53053","","12","","","68","64","","d","2","64","training","adjacent","BA","2","1","P.jpg","R.jpg","0","0","1","",""
"","feedback","","html-keyboard-response","415","458145","0.0-1.0-582.0-0.0","0","0","53053","","null","","","null","64","","","","","","","","","","","","","","","",""
"","ITI","","html-keyboard-response","416","459158","0.0-1.0-585.0","0","0","53053","","50","","","68","64","","","","","","","","","","","","","","","d",""
"","S1","","html-keyboard-response","417","459418","0.0-1.0-587.0","0","0","53053","","null","","","null","65","","","","","","","","","","","","","","","",""
"","ISI","","html-keyboard-response","418","460420","0.0-1.0-588.0","0","0","53053","","74","","","68","65","d","","","","","","","","","","","","","","",""
"","S2","","html-keyboard-response","419","460438","0.0-1.0-589.0","0","0","53053","","15","","","75","65","","k","2","65","training","adjacent","GF","7","6","N.jpg","O.jpg","1","0","0","",""
"","feedback","","html-keyboard-response","420","461441","0.0-1.0-591.0-0.0","0","0","53053","","null","","","null","65","","","","","","","","","","","","","","","",""
"","time_out","","html-keyboard-response","421","463451","0.0-1.0-593.0-0.0","0","0","53053","","null","","","null","65","","","","","","","","","","","","","","","",""
"","ITI","","html-keyboard-response","422","464463","0.0-1.0-594.0","0","0","53053","","93","","","68","65","","","","","","","","","","","","","","","d",""
"","S1","","html-keyboard-response","423","464722","0.0-1.0-596.0","0","0","53053","","null","","","null","66","","","","","","","","","","","","","","","",""
"","ISI","","html-keyboard-response","424","465729","0.0-1.0-597.0","0","0","53053","","2","","","75","66","k","","","","","","","","","","","","","","",""
"","S2","","html-keyboard-response","425","465791","0.0-1.0-598.0","0","0","53053","","60","","","75","66","","k","2","66","training","adjacent","BC","2","3","P.jpg","M.jpg","1","1","1","",""
"","feedback","","html-keyboard-response","426","466801","0.0-1.0-600.0-0.0","0","0","53053","","null","","","null","66","","","","","","","","","","","","","","","",""
"","ITI","","html-keyboard-response","427","467809","0.0-1.0-603.0","0","0","53053","","11","","","68","66","","","","","","","","","","","","","","","d",""
"","S1","","html-keyboard-response","428","468065","0.0-1.0-605.0","0","0","53053","","null","","","null","67","","","","","","","","","","","","","","","",""
"","ISI","","html-keyboard-response","429","469086","0.0-1.0-606.0","0","0","53053","","83","","","75","67","k","","","","","","","","","","","","","","",""
"","S2","","html-keyboard-response","430","469132","0.0-1.0-607.0","0","0","53053","","45","","","68","67","","d","2","67","training","adjacent","BA","2","1","P.jpg","R.jpg","0","0","1","",""
"","feedback","","html-keyboard-response","431","470139","0.0-1.0-609.0-0.0","0","0","53053","","null","","","null","67","","","","","","","","","","","","","","","",""
"","ITI","","html-keyboard-response","432","471146","0.0-1.0-612.0","0","0","53053","","8","","","75","67","","","","","","","","","","","","","","","k",""
"","S1","","html-keyboard-response","433","471404","0.0-1.0-614.0","0","0","53053","","null","","","null","68","","","","","","","","","","","","","","","",""
"","ISI","","html-keyboard-response","434","472413","0.0-1.0-615.0","0","0","53053","","15","","","75","68","k","","","","","","","","","","","","","","",""
"","S2","","html-keyboard-response","435","472423","0.0-1.0-616.0","0","0","53053","","7","","","75","68","","k","2","68","training","adjacent","ED","5","4","Q.jpg","L.jpg","1","0","0","",""
"","feedback","","html-keyboard-response","436","473425","0.0-1.0-618.0-0.0","0","0","53053","","null","","","null","68","","","","","","","","","","","","","","","",""
"","time_out","","html-keyboard-response","437","475436","0.0-1.0-620.0-0.0","0","0","53053","","null","","","null","68","","","","","","","","","","","","","","","",""
"","ITI","","html-keyboard-response","438","476443","0.0-1.0-621.0","0","0","53053","","11","","","68","68","","","","","","","","","","","","","","","d",""
"","S1","","html-keyboard-response","439","476699","0.0-1.0-623.0","0","0","53053","","null","","","null","69","","","","","","","","","","","","","","","",""
"","ISI","","html-keyboard-response","440","477707","0.0-1.0-624.0","0","0","53053","","1","","","68","69","d","","","","","","","","","","","","","","",""
"","S2","","html-keyboard-response","441","477750","0.0-1.0-625.0","0","0","53053","","41","","","75","69","","k","2","69","training","adjacent","DE","4","5","L.jpg","Q.jpg","1","1","1","",""
"","feedback","","html-keyboard-response","442","478756","0.0-1.0-627.0-0.0","0","0","53053","","null","","","null","69","","","","","","","","","","","","","","","",""
"","ITI","","html-keyboard-response","443","479760","0.0-1.0-630.0","0","0","53053","","99","","","75","69","","","","","","","","","","","","","","","k",""
"","S1","","html-keyboard-response","444","480017","0.0-1.0-632.0","0","0","53053","","null","","","null","70","","","","","","","","","","","","","","","",""
"","ISI","","html-keyboard-response","445","481026","0.0-1.0-633.0","0","0","53053","","106","","","75","70","k","","","","","","","","","","","","","","",""
"","S2","","html-keyboard-response","446","481054","0.0-1.0-634.0","0","0","53053","","27","","","75","70","","k","2","70","training","adjacent","CD","3","4","M.jpg","L.jpg","1","1","1","",""
"","feedback","","html-keyboard-response","447","482059","0.0-1.0-636.0-0.0","0","0","53053","","null","","","null","70","","","","","","","","","","","","","","","",""
"","ITI","","html-keyboard-response","448","483061","0.0-1.0-639.0","0","0","53053","","53","","","68","70","","","","","","","","","","","","","","","d",""
"","S1","","html-keyboard-response","449","483318","0.0-1.0-641.0","0","0","53053","","null","","","null","71","","","","","","","","","","","","","","","",""
"","ISI","","html-keyboard-response","450","484325","0.0-1.0-642.0","0","0","53053","","135","","","75","71","k","","","","","","","","","","","","","","",""
"","S2","","html-keyboard-response","451","484370","0.0-1.0-643.0","0","0","53053","","43","","","75","71","","k","2","71","training","adjacent","BC","2","3","P.jpg","M.jpg","1","1","1","",""
"","feedback","","html-keyboard-response","452","485381","0.0-1.0-645.0-0.0","0","0","53053","","null","","","null","71","","","","","","","","","","","","","","","",""
"","ITI","","html-keyboard-response","453","486407","0.0-1.0-648.0","0","0","53053","","8","","","75","71","","","","","","","","","","","","","","","k",""
"","S1","","html-keyboard-response","454","486667","0.0-1.0-650.0","0","0","53053","","null","","","null","72","","","","","","","","","","","","","","","",""
"","ISI","","html-keyboard-response","455","487689","0.0-1.0-651.0","0","0","53053","","1","","","75","72","k","","","","","","","","","","","","","","",""
"","S2","","html-keyboard-response","456","487697","0.0-1.0-652.0","0","0","53053","","3","","","75","72","","k","2","72","training","adjacent","FE","6","5","O.jpg","Q.jpg","1","0","0","",""
"","feedback","","html-keyboard-response","457","488704","0.0-1.0-654.0-0.0","0","0","53053","","null","","","null","72","","","","","","","","","","","","","","","",""
"","time_out","","html-keyboard-response","458","490713","0.0-1.0-656.0-0.0","0","0","53053","","null","","","null","72","","","","","","","","","","","","","","","",""
"","ITI","","html-keyboard-response","459","491723","0.0-1.0-657.0","0","0","53053","","30","","","68","72","","","","","","","","","","","","","","","d",""
"","S1","","html-keyboard-response","460","491981","0.0-1.0-659.0","0","0","53053","","null","","","null","73","","","","","","","","","","","","","","","",""
"","ISI","","html-keyboard-response","461","492986","0.0-1.0-660.0","0","0","53053","","215","","","75","73","k","","","","","","","","","","","","","","",""
"","S2","","html-keyboard-response","462","493104","0.0-1.0-661.0","0","0","53053","","117","","","75","73","","k","2","73","training","adjacent","AB","1","2","R.jpg","P.jpg","1","1","1","",""
"","feedback","","html-keyboard-response","463","494169","0.0-1.0-663.0-0.0","0","0","53053","","null","","","null","73","","","","","","","","","","","","","","","",""
"","ITI","","html-keyboard-response","464","495190","0.0-1.0-666.0","0","0","53053","","17","","","75","73","","","","","","","","","","","","","","","k",""
"","S1","","html-keyboard-response","465","495445","0.0-1.0-668.0","0","0","53053","","null","","","null","74","","","","","","","","","","","","","","","",""
"","ISI","","html-keyboard-response","466","496448","0.0-1.0-669.0","0","0","53053","","50","","","75","74","k","","","","","","","","","","","","","","",""
"","S2","","html-keyboard-response","467","496549","0.0-1.0-670.0","0","0","53053","","99","","","68","74","","d","2","74","training","adjacent","CD","3","4","M.jpg","L.jpg","0","1","0","",""
"","feedback","","html-keyboard-response","468","497552","0.0-1.0-672.0-0.0","0","0","53053","","null","","","null","74","","","","","","","","","","","","","","","",""
"","time_out","","html-keyboard-response","469","499560","0.0-1.0-674.0-0.0","0","0","53053","","null","","","null","74","","","","","","","","","","","","","","","",""
"","ITI","","html-keyboard-response","470","500576","0.0-1.0-675.0","0","0","53053","","29","","","75","74","","","","","","","","","","","","","","","k",""
"","S1","","html-keyboard-response","471","500836","0.0-1.0-677.0","0","0","53053","","null","","","null","75","","","","","","","","","","","","","","","",""
"","ISI","","html-keyboard-response","472","501843","0.0-1.0-678.0","0","0","53053","","26","","","75","75","k","","","","","","","","","","","","","","",""
"","S2","","html-keyboard-response","473","501850","0.0-1.0-679.0","0","0","53053","","5","","","68","75","","d","2","75","training","adjacent","CB","3","2","M.jpg","P.jpg","0","0","1","",""
"","feedback","","html-keyboard-response","474","502864","0.0-1.0-681.0-0.0","0","0","53053","","null","","","null","75","","","","","","","","","","","","","","","",""
"","ITI","","html-keyboard-response","475","503875","0.0-1.0-684.0","0","0","53053","","377","","","68","75","","","","","","","","","","","","","","","d",""
"","S1","","html-keyboard-response","476","504128","0.0-1.0-686.0","0","0","53053","","null","","","null","76","","","","","","","","","","","","","","","",""
"","ISI","","html-keyboard-response","477","505135","0.0-1.0-687.0","0","0","53053","","217","","","75","76","k","","","","","","","","","","","","","","",""
"","S2","","html-keyboard-response","478","505168","0.0-1.0-688.0","0","0","53053","","31","","","68","76","","d","2","76","training","adjacent","CB","3","2","M.jpg","P.jpg","0","0","1","",""
"","feedback","","html-keyboard-response","479","506177","0.0-1.0-690.0-0.0","0","0","53053","","null","","","null","76","","","","","","","","","","","","","","","",""
"","ITI","","html-keyboard-response","480","507185","0.0-1.0-693.0","0","0","53053","","30","","","75","76","","","","","","","","","","","","","","","k",""
"","S1","","html-keyboard-response","481","507444","0.0-1.0-695.0","0","0","53053","","null","","","null","77","","","","","","","","","","","","","","","",""
"","ISI","","html-keyboard-response","482","508466","0.0-1.0-696.0","0","0","53053","","126","","","75","77","k","","","","","","","","","","","","","","",""
"","S2","","html-keyboard-response","483","508498","0.0-1.0-697.0","0","0","53053","","30","","","75","77","","k","2","77","training","adjacent","DC","4","3","L.jpg","M.jpg","1","0","0","",""
"","feedback","","html-keyboard-response","484","509503","0.0-1.0-699.0-0.0","0","0","53053","","null","","","null","77","","","","","","","","","","","","","","","",""
"","time_out","","html-keyboard-response","485","511513","0.0-1.0-701.0-0.0","0","0","53053","","null","","","null","77","","","","","","","","","","","","","","","",""
"","ITI","","html-keyboard-response","486","512525","0.0-1.0-702.0","0","0","53053","","146","","","68","77","","","","","","","","","","","","","","","d",""
"","S1","","html-keyboard-response","487","512789","0.0-1.0-704.0","0","0","53053","","null","","","null","78","","","","","","","","","","","","","","","",""
"","ISI","","html-keyboard-response","488","513792","0.0-1.0-705.0","0","0","53053","","3","","","75","78","k","","","","","","","","","","","","","","",""
"","S2","","html-keyboard-response","489","513827","0.0-1.0-706.0","0","0","53053","","33","","","75","78","","k","2","78","training","adjacent","FG","6","7","O.jpg","N.jpg","1","1","1","",""
"","feedback","","html-keyboard-response","490","514834","0.0-1.0-708.0-0.0","0","0","53053","","null","","","null","78","","","","","","","","","","","","","","","",""
"","ITI","","html-keyboard-response","491","515844","0.0-1.0-711.0","0","0","53053","","157","","","75","78","","","","","","","","","","","","","","","k",""
"","S1","","html-keyboard-response","492","516106","0.0-1.0-713.0","0","0","53053","","null","","","null","79","","","","","","","","","","","","","","","",""
"","ISI","","html-keyboard-response","493","517114","0.0-1.0-714.0","0","0","53053","","70","","","75","79","k","","","","","","","","","","","","","","",""
"","S2","","html-keyboard-response","494","517123","0.0-1.0-715.0","0","0","53053","","8","","","68","79","","d","2","79","training","adjacent","GF","7","6","N.jpg","O.jpg","0","0","1","",""
"","feedback","","html-keyboard-response","495","518127","0.0-1.0-717.0-0.0","0","0","53053","","null","","","null","79","","","","","","","","","","","","","","","",""
"","ITI","","html-keyboard-response","496","519138","0.0-1.0-720.0","0","0","53053","","856","","","68","79","","","","","","","","","","","","","","","d",""
"","S1","","html-keyboard-response","497","519399","0.0-1.0-722.0","0","0","53053","","null","","","null","80","","","","","","","","","","","","","","","",""
"","ISI","","html-keyboard-response","498","520411","0.0-1.0-723.0","0","0","53053","","111","","","75","80","k","","","","","","","","","","","","","","",""
"","S2","","html-keyboard-response","499","520442","0.0-1.0-724.0","0","0","53053","","28","","","75","80","","k","2","80","training","adjacent","DE","4","5","L.jpg","Q.jpg","1","1","1","",""
"","feedback","","html-keyboard-response","500","521449","0.0-1.0-726.0-0.0","0","0","53053","","null","","","null","80","","","","","","","","","","","","","","","",""
"","ITI","","html-keyboard-response","501","522459","0.0-1.0-729.0","0","0","53053","","140","","","75","80","","","","","","","","","","","","","","","k",""
"","S1","","html-keyboard-response","502","522722","0.0-1.0-731.0","0","0","53053","","null","","","null","81","","","","","","","","","","","","","","","",""
"","ISI","","html-keyboard-response","503","523731","0.0-1.0-732.0","0","0","53053","","9","","","75","81","k","","","","","","","","","","","","","","",""
"","S2","","html-keyboard-response","504","523736","0.0-1.0-733.0","0","0","53053","","3","","","75","81","","k","2","81","training","adjacent","AB","1","2","R.jpg","P.jpg","1","1","1","",""
"","feedback","","html-keyboard-response","505","524745","0.0-1.0-735.0-0.0","0","0","53053","","null","","","null","81","","","","","","","","","","","","","","","",""
"","ITI","","html-keyboard-response","506","525753","0.0-1.0-738.0","0","0","53053","","57","","","68","81","","","","","","","","","","","","","","","d",""
"","S1","","html-keyboard-response","507","526009","0.0-1.0-740.0","0","0","53053","","null","","","null","82","","","","","","","","","","","","","","","",""
"","ISI","","html-keyboard-response","508","527024","0.0-1.0-741.0","0","0","53053","","0","","","68","82","d","","","","","","","","","","","","","","",""
"","S2","","html-keyboard-response","509","527037","0.0-1.0-742.0","0","0","53053","","12","","","68","82","","d","2","82","training","adjacent","FE","6","5","O.jpg","Q.jpg","0","0","1","",""
"","feedback","","html-keyboard-response","510","528048","0.0-1.0-744.0-0.0","0","0","53053","","null","","","null","82","","","","","","","","","","","","","","","",""
"","ITI","","html-keyboard-response","511","529055","0.0-1.0-747.0","0","0","53053","","3","","","75","82","","","","","","","","","","","","","","","k",""
"","S1","","html-keyboard-response","512","529311","0.0-1.0-749.0","0","0","53053","","null","","","null","83","","","","","","","","","","","","","","","",""
"","ISI","","html-keyboard-response","513","530328","0.0-1.0-750.0","0","0","53053","","157","","","75","83","k","","","","","","","","","","","","","","",""
"","S2","","html-keyboard-response","514","530466","0.0-1.0-751.0","0","0","53053","","123","","","75","83","","k","2","83","training","adjacent","CD","3","4","M.jpg","L.jpg","1","1","1","",""
"","feedback","","html-keyboard-response","515","531473","0.0-1.0-753.0-0.0","0","0","53053","","null","","","null","83","","","","","","","","","","","","","","","",""
"","ITI","","html-keyboard-response","516","532479","0.0-1.0-756.0","0","0","53053","","65","","","68","83","","","","","","","","","","","","","","","d",""
"","S1","","html-keyboard-response","517","532739","0.0-1.0-758.0","0","0","53053","","null","","","null","84","","","","","","","","","","","","","","","",""
"","ISI","","html-keyboard-response","518","533746","0.0-1.0-759.0","0","0","53053","","93","","","68","84","d","","","","","","","","","","","","","","",""
"","S2","","html-keyboard-response","519","533927","0.0-1.0-760.0","0","0","53053","","180","","","75","84","","k","2","84","training","adjacent","DC","4","3","L.jpg","M.jpg","1","0","0","",""
"","feedback","","html-keyboard-response","520","534936","0.0-1.0-762.0-0.0","0","0","53053","","null","","","null","84","","","","","","","","","","","","","","","",""
"","time_out","","html-keyboard-response","521","536947","0.0-1.0-764.0-0.0","0","0","53053","","null","","","null","84","","","","","","","","","","","","","","","",""
"","ITI","","html-keyboard-response","522","537950","0.0-1.0-765.0","0","0","53053","","159","","","75","84","","","","","","","","","","","","","","","k",""
"","S1","","html-keyboard-response","523","538205","0.0-1.0-767.0","0","0","53053","","null","","","null","85","","","","","","","","","","","","","","","",""
"","ISI","","html-keyboard-response","524","539211","0.0-1.0-768.0","0","0","53053","","37","","","75","85","k","","","","","","","","","","","","","","",""
"","S2","","html-keyboard-response","525","539329","0.0-1.0-769.0","0","0","53053","","116","","","68","85","","d","2","85","training","adjacent","EF","5","6","Q.jpg","O.jpg","0","1","0","",""
"","feedback","","html-keyboard-response","526","540337","0.0-1.0-771.0-0.0","0","0","53053","","null","","","null","85","","","","","","","","","","","","","","","",""
"","time_out","","html-keyboard-response","527","542345","0.0-1.0-773.0-0.0","0","0","53053","","null","","","null","85","","","","","","","","","","","","","","","",""
"","ITI","","html-keyboard-response","528","543351","0.0-1.0-774.0","0","0","53053","","88","","","68","85","","","","","","","","","","","","","","","d",""
"","S1","","html-keyboard-response","529","543610","0.0-1.0-776.0","0","0","53053","","null","","","null","86","","","","","","","","","","","","","","","",""
"","ISI","","html-keyboard-response","530","544614","0.0-1.0-777.0","0","0","53053","","21","","","75","86","k","","","","","","","","","","","","","","",""
"","S2","","html-keyboard-response","531","544713","0.0-1.0-778.0","0","0","53053","","97","","","68","86","","d","2","86","training","adjacent","CB","3","2","M.jpg","P.jpg","0","0","1","",""
"","feedback","","html-keyboard-response","532","545721","0.0-1.0-780.0-0.0","0","0","53053","","null","","","null","86","","","","","","","","","","","","","","","",""
"","ITI","","html-keyboard-response","533","546727","0.0-1.0-783.0","0","0","53053","","83","","","68","86","","","","","","","","","","","","","","","d",""
"","S1","","html-keyboard-response","534","546985","0.0-1.0-785.0","0","0","53053","","null","","","null","87","","","","","","","","","","","","","","","",""
"","ISI","","html-keyboard-response","535","547992","0.0-1.0-786.0","0","0","53053","","99","","","75","87","k","","","","","","","","","","","","","","",""
"","S2","","html-keyboard-response","536","548003","0.0-1.0-787.0","0","0","53053","","10","","","68","87","","d","2","87","training","adjacent","ED","5","4","Q.jpg","L.jpg","0","0","1","",""
"","feedback","","html-keyboard-response","537","549008","0.0-1.0-789.0-0.0","0","0","53053","","null","","","null","87","","","","","","","","","","","","","","","",""
"","ITI","","html-keyboard-response","538","550014","0.0-1.0-792.0","0","0","53053","","38","","","68","87","","","","","","","","","","","","","","","d",""
"","S1","","html-keyboard-response","539","550274","0.0-1.0-794.0","0","0","53053","","null","","","null","88","","","","","","","","","","","","","","","",""
"","ISI","","html-keyboard-response","540","551278","0.0-1.0-795.0","0","0","53053","","23","","","68","88","d","","","","","","","","","","","","","","",""
"","S2","","html-keyboard-response","541","551300","0.0-1.0-796.0","0","0","53053","","14","","","68","88","","d","2","88","training","adjacent","CD","3","4","M.jpg","L.jpg","0","1","0","",""
"","feedback","","html-keyboard-response","542","552312","0.0-1.0-798.0-0.0","0","0","53053","","null","","","null","88","","","","","","","","","","","","","","","",""
"","time_out","","html-keyboard-response","543","554319","0.0-1.0-800.0-0.0","0","0","53053","","null","","","null","88","","","","","","","","","","","","","","","",""
"","ITI","","html-keyboard-response","544","555325","0.0-1.0-801.0","0","0","53053","","6","","","68","88","","","","","","","","","","","","","","","d",""
"","S1","","html-keyboard-response","545","555586","0.0-1.0-803.0","0","0","53053","","null","","","null","89","","","","","","","","","","","","","","","",""
"","ISI","","html-keyboard-response","546","556604","0.0-1.0-804.0","0","0","53053","","7","","","75","89","k","","","","","","","","","","","","","","",""
"","S2","","html-keyboard-response","547","556620","0.0-1.0-805.0","0","0","53053","","13","","","68","89","","d","2","89","training","adjacent","GF","7","6","N.jpg","O.jpg","0","0","1","",""
"","feedback","","html-keyboard-response","548","557626","0.0-1.0-807.0-0.0","0","0","53053","","null","","","null","89","","","","","","","","","","","","","","","",""
"","ITI","","html-keyboard-response","549","558633","0.0-1.0-810.0","0","0","53053","","null","","","null","89","","","","","","","","","","","","","","","NaN",""
"","S1","","html-keyboard-response","550","558897","0.0-1.0-812.0","0","0","53053","","null","","","null","90","","","","","","","","","","","","","","","",""
"","ISI","","html-keyboard-response","551","559901","0.0-1.0-813.0","0","0","53053","","186","","","68","90","d","","","","","","","","","","","","","","",""
"","S2","","html-keyboard-response","552","559944","0.0-1.0-814.0","0","0","53053","","41","","","68","90","","d","2","90","training","adjacent","ED","5","4","Q.jpg","L.jpg","0","0","1","",""
"","feedback","","html-keyboard-response","553","560952","0.0-1.0-816.0-0.0","0","0","53053","","null","","","null","90","","","","","","","","","","","","","","","",""
"","ITI","","html-keyboard-response","554","561959","0.0-1.0-819.0","0","0","53053","","32","","","75","90","","","","","","","","","","","","","","","k",""
"","S1","","html-keyboard-response","555","562218","0.0-1.0-821.0","0","0","53053","","null","","","null","91","","","","","","","","","","","","","","","",""
"","ISI","","html-keyboard-response","556","563231","0.0-1.0-822.0","0","0","53053","","32","","","68","91","d","","","","","","","","","","","","","","",""
"","S2","","html-keyboard-response","557","563240","0.0-1.0-823.0","0","0","53053","","6","","","68","91","","d","2","91","training","adjacent","DE","4","5","L.jpg","Q.jpg","0","1","0","",""
"","feedback","","html-keyboard-response","558","564249","0.0-1.0-825.0-0.0","0","0","53053","","null","","","null","91","","","","","","","","","","","","","","","",""
"","time_out","","html-keyboard-response","559","566254","0.0-1.0-827.0-0.0","0","0","53053","","null","","","null","91","","","","","","","","","","","","","","","",""
"","ITI","","html-keyboard-response","560","567266","0.0-1.0-828.0","0","0","53053","","45","","","75","91","","","","","","","","","","","","","","","k",""
"","S1","","html-keyboard-response","561","567526","0.0-1.0-830.0","0","0","53053","","null","","","null","92","","","","","","","","","","","","","","","",""
"","ISI","","html-keyboard-response","562","568536","0.0-1.0-831.0","0","0","53053","","11","","","68","92","d","","","","","","","","","","","","","","",""
"","S2","","html-keyboard-response","563","568552","0.0-1.0-832.0","0","0","53053","","14","","","75","92","","k","2","92","training","adjacent","FE","6","5","O.jpg","Q.jpg","1","0","0","",""
"","feedback","","html-keyboard-response","564","569567","0.0-1.0-834.0-0.0","0","0","53053","","null","","","null","92","","","","","","","","","","","","","","","",""
"","time_out","","html-keyboard-response","565","571575","0.0-1.0-836.0-0.0","0","0","53053","","null","","","null","92","","","","","","","","","","","","","","","",""
"","ITI","","html-keyboard-response","566","572583","0.0-1.0-837.0","0","0","53053","","57","","","75","92","","","","","","","","","","","","","","","k",""
"","S1","","html-keyboard-response","567","572839","0.0-1.0-839.0","0","0","53053","","null","","","null","93","","","","","","","","","","","","","","","",""
"","ISI","","html-keyboard-response","568","573847","0.0-1.0-840.0","0","0","53053","","44","","","75","93","k","","","","","","","","","","","","","","",""
"","S2","","html-keyboard-response","569","573848","0.0-1.0-841.0","0","0","53053","","0","","","75","93","","k","2","93","training","adjacent","BC","2","3","P.jpg","M.jpg","1","1","1","",""
"","feedback","","html-keyboard-response","570","574855","0.0-1.0-843.0-0.0","0","0","53053","","null","","","null","93","","","","","","","","","","","","","","","",""
"","ITI","","html-keyboard-response","571","575863","0.0-1.0-846.0","0","0","53053","","102","","","68","93","","","","","","","","","","","","","","","d",""
"","S1","","html-keyboard-response","572","576119","0.0-1.0-848.0","0","0","53053","","null","","","null","94","","","","","","","","","","","","","","","",""
"","ISI","","html-keyboard-response","573","577126","0.0-1.0-849.0","0","0","53053","","0","","","68","94","d","","","","","","","","","","","","","","",""
"","S2","","html-keyboard-response","574","577154","0.0-1.0-850.0","0","0","53053","","26","","","68","94","","d","2","94","training","adjacent","ED","5","4","Q.jpg","L.jpg","0","0","1","",""
"","feedback","","html-keyboard-response","575","578159","0.0-1.0-852.0-0.0","0","0","53053","","null","","","null","94","","","","","","","","","","","","","","","",""
"","ITI","","html-keyboard-response","576","579162","0.0-1.0-855.0","0","0","53053","","9","","","75","94","","","","","","","","","","","","","","","k",""
"","S1","","html-keyboard-response","577","579421","0.0-1.0-857.0","0","0","53053","","null","","","null","95","","","","","","","","","","","","","","","",""
"","ISI","","html-keyboard-response","578","580433","0.0-1.0-858.0","0","0","53053","","42","","","68","95","d","","","","","","","","","","","","","","",""
"","S2","","html-keyboard-response","579","580505","0.0-1.0-859.0","0","0","53053","","70","","","75","95","","k","2","95","training","adjacent","FG","6","7","O.jpg","N.jpg","1","1","1","",""
"","feedback","","html-keyboard-response","580","581511","0.0-1.0-861.0-0.0","0","0","53053","","null","","","null","95","","","","","","","","","","","","","","","",""
"","ITI","","html-keyboard-response","581","582539","0.0-1.0-864.0","0","0","53053","","20","","","68","95","","","","","","","","","","","","","","","d",""
"","block_over","","html-keyboard-response","582","588071","0.0-1.0-865.0-0.0","0","0","53053","","5530","","","32","95","","","","","","","","","","","","","","","",""
"","S1","","html-keyboard-response","583","588331","0.0-1.0-866.0","0","0","53053","","null","","","null","96","","","","","","","","","","","","","","","",""
"","ISI","","html-keyboard-response","584","589340","0.0-1.0-867.0","0","0","53053","","681","","","74","96","j","","","","","","","","","","","","","","",""
