"success","ttype","start_time","trial_type","trial_index","time_elapsed","internal_node_id","warning","missed_checkup","PID","view_history","rt","responses","repeat_instructions","key_press","index","keypress_isi","keypress_S2","block","trial_num","phase","group_type","pair_type","S1_stim","S2_stim","S1_img","S2_img","S1_chosen","S1_higher","accuracy","keypress_iti","total_bonus_tally"
"true","full_screen","d04142023hr1552","fullscreen","0","9085","0.0-0.0","0","0","93197","","","","","","","","","","","","","","","","","","","","","",""
"","instructions","","instructions","1","77961","0.0-1.0-0.0-0.0","0","0","93197","[{""page_index"":0,""viewing_time"":5718},{""page_index"":1,""viewing_time"":44265},{""page_index"":2,""viewing_time"":15125},{""page_index"":3,""viewing_time"":3765}]","68874","","","","","","","","","","","","","","","","","","","",""
"","comprehension_check","","survey-multi-choice","2","131561","0.0-1.0-0.0-1.0","0","0","93197","","53595","{""Q0"":""False"",""Q1"":""K"",""Q2"":""Only when the screen 'MAKE A CHOICE' is shown"",""Q3"":""Green mark"",""Q4"":""either D or K""}","1","","","","","","","","","","","","","","","","","",""
"","missed_instruction_checkup","","html-keyboard-response","3","134964","0.0-1.0-0.0-2.0-0.0","0","1","93197","","3398","","","32","","","","","","","","","","","","","","","","",""
"","instructions","","instructions","4","156748","0.0-1.0-0.1-0.1","0","0","93197","[{""page_index"":0,""viewing_time"":3969},{""page_index"":1,""viewing_time"":11029},{""page_index"":2,""viewing_time"":4695},{""page_index"":3,""viewing_time"":2088}]","21782","","","","","","","","","","","","","","","","","","","",""
"","comprehension_check","","survey-multi-choice","5","201824","0.0-1.0-0.1-1.1","0","0","93197","","45072","{""Q0"":""True"",""Q1"":""K"",""Q2"":""Once the second image appears and while the screen 'MAKE A CHOICE' is shown"",""Q3"":""Green mark"",""Q4"":""either D or K""}","0","","","","","","","","","","","","","","","","","",""
"","start_exp","","html-keyboard-response","6","203548","0.0-1.0-1.0","0","0","93197","","1721","","","32","","","","","","","","","","","","","","","","",""
"","S1","","html-keyboard-response","7","203802","0.0-1.0-2.0","0","0","93197","","null","","","null","0","","","","","","","","","","","","","","","",""
"","ISI","","html-keyboard-response","8","204805","0.0-1.0-3.0","0","0","93197","","null","","","null","0","NaN","","","","","","","","","","","","","","",""
"","S2","","html-keyboard-response","9","205059","0.0-1.0-4.0","0","0","93197","","null","","","null","0","","NaN","","","","","","","","","","","","","",""
"","response","","html-keyboard-response","10","206812","0.0-1.0-5.0-0.0","0","0","93197","","null","","","null","0","","","1","0","training","adjacent","BA","2","1","N.jpg","Q.jpg","NaN","0","0","",""
"","too_slow_prompt","","html-keyboard-response","11","207816","0.0-1.0-7.0-0.0","1","0","93197","","null","","","null","","","","","","","","","","","","","","","","",""
"","time_out","","html-keyboard-response","12","209820","0.0-1.0-8.0-0.0","0","0","93197","","null","","","null","0","","","","","","","","","","","","","","","",""
"","ITI","","html-keyboard-response","13","210823","0.0-1.0-9.0","0","0","93197","","null","","","null","0","","","","","","","","","","","","","","","NaN",""
"","S1","","html-keyboard-response","14","211076","0.0-1.0-11.0","0","0","93197","","null","","","null","1","","","","","","","","","","","","","","","",""
"","ISI","","html-keyboard-response","15","212079","0.0-1.0-12.0","0","0","93197","","null","","","null","1","NaN","","","","","","","","","","","","","","",""
"","S2","","html-keyboard-response","16","212332","0.0-1.0-13.0","0","0","93197","","null","","","null","1","","NaN","","","","","","","","","","","","","",""
"","response","","html-keyboard-response","17","214085","0.0-1.0-14.0-0.0","0","0","93197","","null","","","null","1","","","1","1","training","adjacent","EF","5","6","R.jpg","O.jpg","NaN","1","0","",""
"","too_slow_prompt","","html-keyboard-response","18","215088","0.0-1.0-16.0-0.0","1","0","93197","","null","","","null","","","","","","","","","","","","","","","","",""
"","time_out","","html-keyboard-response","19","217090","0.0-1.0-17.0-0.0","0","0","93197","","null","","","null","1","","","","","","","","","","","","","","","",""
"","ITI","","html-keyboard-response","20","218093","0.0-1.0-18.0","0","0","93197","","264","","","68","1","","","","","","","","","","","","","","","d",""
"","S1","","html-keyboard-response","21","218361","0.0-1.0-20.0","0","0","93197","","null","","","null","2","","","","","","","","","","","","","","","",""
"","ISI","","html-keyboard-response","22","219364","0.0-1.0-21.0","0","0","93197","","866","","","75","2","k","","","","","","","","","","","","","","",""
"","S2","","html-keyboard-response","23","219618","0.0-1.0-22.0","0","0","93197","","null","","","null","2","","NaN","","","","","","","","","","","","","",""
"","response","","html-keyboard-response","24","221233","0.0-1.0-23.0-0.0","0","0","93197","","1614","","","75","2","","","1","2","training","adjacent","AB","1","2","Q.jpg","N.jpg","1","1","1","",""
"","feedback","","html-keyboard-response","25","222237","0.0-1.0-24.0-0.0","0","0","93197","","null","","","null","2","","","","","","","","","","","","","","","",""
"","ITI","","html-keyboard-response","26","223241","0.0-1.0-27.0","0","0","93197","","null","","","null","2","","","","","","","","","","","","","","","NaN",""
"","S1","","html-keyboard-response","27","223493","0.0-1.0-29.0","0","0","93197","","null","","","null","3","","","","","","","","","","","","","","","",""
"","ISI","","html-keyboard-response","28","224495","0.0-1.0-30.0","0","0","93197","","null","","","null","3","NaN","","","","","","","","","","","","","","",""
"","S2","","html-keyboard-response","29","224759","0.0-1.0-31.0","0","0","93197","","null","","","null","3","","NaN","","","","","","","","","","","","","",""
"","response","","html-keyboard-response","30","226512","0.0-1.0-32.0-0.0","0","0","93197","","null","","","null","3","","","1","3","training","adjacent","FG","6","7","O.jpg","L.jpg","NaN","1","0","",""
"","too_slow_prompt","","html-keyboard-response","31","227514","0.0-1.0-34.0-0.0","1","0","93197","","null","","","null","","","","","","","","","","","","","","","","",""
"","time_out","","html-keyboard-response","32","229516","0.0-1.0-35.0-0.0","0","0","93197","","null","","","null","3","","","","","","","","","","","","","","","",""
"","ITI","","html-keyboard-response","33","230518","0.0-1.0-36.0","0","0","93197","","980","","","68","3","","","","","","","","","","","","","","","d",""
"","S1","","html-keyboard-response","34","230772","0.0-1.0-38.0","0","0","93197","","null","","","null","4","","","","","","","","","","","","","","","",""
"","ISI","","html-keyboard-response","35","231775","0.0-1.0-39.0","0","0","93197","","null","","","null","4","NaN","","","","","","","","","","","","","","",""
"","S2","","html-keyboard-response","36","232030","0.0-1.0-40.0","0","0","93197","","null","","","null","4","","NaN","","","","","","","","","","","","","",""
"","response","","html-keyboard-response","37","232152","0.0-1.0-41.0-0.0","0","0","93197","","119","","","75","4","","","1","4","training","adjacent","AB","1","2","Q.jpg","N.jpg","1","1","1","",""
"","feedback","","html-keyboard-response","38","233155","0.0-1.0-42.0-0.0","0","0","93197","","null","","","null","4","","","","","","","","","","","","","","","",""
"","ITI","","html-keyboard-response","39","234159","0.0-1.0-45.0","0","0","93197","","null","","","null","4","","","","","","","","","","","","","","","NaN",""
"","S1","","html-keyboard-response","40","234423","0.0-1.0-47.0","0","0","93197","","null","","","null","5","","","","","","","","","","","","","","","",""
"","ISI","","html-keyboard-response","41","235426","0.0-1.0-48.0","0","0","93197","","null","","","null","5","NaN","","","","","","","","","","","","","","",""
"","S2","","html-keyboard-response","42","235688","0.0-1.0-49.0","0","0","93197","","null","","","null","5","","NaN","","","","","","","","","","","","","",""
"","response","","html-keyboard-response","43","237441","0.0-1.0-50.0-0.0","0","0","93197","","null","","","null","5","","","1","5","training","adjacent","FE","6","5","O.jpg","R.jpg","NaN","0","0","",""
"","too_slow_prompt","","html-keyboard-response","44","238444","0.0-1.0-52.0-0.0","1","0","93197","","null","","","null","","","","","","","","","","","","","","","","",""
"","time_out","","html-keyboard-response","45","240447","0.0-1.0-53.0-0.0","0","0","93197","","null","","","null","5","","","","","","","","","","","","","","","",""
"","ITI","","html-keyboard-response","46","241450","0.0-1.0-54.0","0","0","93197","","887","","","68","5","","","","","","","","","","","","","","","d",""
"","S1","","html-keyboard-response","47","241703","0.0-1.0-56.0","0","0","93197","","null","","","null","6","","","","","","","","","","","","","","","",""
"","ISI","","html-keyboard-response","48","242706","0.0-1.0-57.0","0","0","93197","","null","","","null","6","NaN","","","","","","","","","","","","","","",""
"","S2","","html-keyboard-response","49","242893","0.0-1.0-58.0","0","0","93197","","185","","","68","6","","d","1","6","training","adjacent","BC","2","3","N.jpg","M.jpg","0","1","0","",""
"","feedback","","html-keyboard-response","50","243896","0.0-1.0-60.0-0.0","0","0","93197","","null","","","null","6","","","","","","","","","","","","","","","",""
"","time_out","","html-keyboard-response","51","245902","0.0-1.0-62.0-0.0","0","0","93197","","null","","","null","6","","","","","","","","","","","","","","","",""
"","ITI","","html-keyboard-response","52","246905","0.0-1.0-63.0","0","0","93197","","null","","","null","6","","","","","","","","","","","","","","","NaN",""
"","S1","","html-keyboard-response","53","247158","0.0-1.0-65.0","0","0","93197","","null","","","null","7","","","","","","","","","","","","","","","",""
"","ISI","","html-keyboard-response","54","248161","0.0-1.0-66.0","0","0","93197","","null","","","null","7","NaN","","","","","","","","","","","","","","",""
"","S2","","html-keyboard-response","55","248428","0.0-1.0-67.0","0","0","93197","","null","","","null","7","","NaN","","","","","","","","","","","","","",""
"","response","","html-keyboard-response","56","250181","0.0-1.0-68.0-0.0","0","0","93197","","null","","","null","7","","","1","7","training","adjacent","BC","2","3","N.jpg","M.jpg","NaN","1","0","",""
"","too_slow_prompt","","html-keyboard-response","57","251184","0.0-1.0-70.0-0.0","1","0","93197","","null","","","null","","","","","","","","","","","","","","","","",""
"","time_out","","html-keyboard-response","58","253186","0.0-1.0-71.0-0.0","0","0","93197","","null","","","null","7","","","","","","","","","","","","","","","",""
"","ITI","","html-keyboard-response","59","254188","0.0-1.0-72.0","0","0","93197","","217","","","75","7","","","","","","","","","","","","","","","k",""
"","S1","","html-keyboard-response","60","254441","0.0-1.0-74.0","0","0","93197","","null","","","null","8","","","","","","","","","","","","","","","",""
"","ISI","","html-keyboard-response","61","255443","0.0-1.0-75.0","0","0","93197","","755","","","68","8","d","","","","","","","","","","","","","","",""
"","S2","","html-keyboard-response","62","255697","0.0-1.0-76.0","0","0","93197","","null","","","null","8","","NaN","","","","","","","","","","","","","",""
"","response","","html-keyboard-response","63","256137","0.0-1.0-77.0-0.0","0","0","93197","","438","","","68","8","","","1","8","training","adjacent","BA","2","1","N.jpg","Q.jpg","0","0","1","",""
"","feedback","","html-keyboard-response","64","257140","0.0-1.0-78.0-0.0","0","0","93197","","null","","","null","8","","","","","","","","","","","","","","","",""
"","ITI","","html-keyboard-response","65","258142","0.0-1.0-81.0","0","0","93197","","null","","","null","8","","","","","","","","","","","","","","","NaN",""
"","S1","","html-keyboard-response","66","258395","0.0-1.0-83.0","0","0","93197","","null","","","null","9","","","","","","","","","","","","","","","",""
"","ISI","","html-keyboard-response","67","259397","0.0-1.0-84.0","0","0","93197","","null","","","null","9","NaN","","","","","","","","","","","","","","",""
"","S2","","html-keyboard-response","68","259650","0.0-1.0-85.0","0","0","93197","","null","","","null","9","","NaN","","","","","","","","","","","","","",""
"","response","","html-keyboard-response","69","261404","0.0-1.0-86.0-0.0","0","0","93197","","null","","","null","9","","","1","9","training","adjacent","EF","5","6","R.jpg","O.jpg","NaN","1","0","",""
"","too_slow_prompt","","html-keyboard-response","70","262407","0.0-1.0-88.0-0.0","1","0","93197","","null","","","null","","","","","","","","","","","","","","","","",""
"","time_out","","html-keyboard-response","71","264410","0.0-1.0-89.0-0.0","0","0","93197","","null","","","null","9","","","","","","","","","","","","","","","",""
"","ITI","","html-keyboard-response","72","265413","0.0-1.0-90.0","0","0","93197","","null","","","null","9","","","","","","","","","","","","","","","NaN",""
"","S1","","html-keyboard-response","73","265665","0.0-1.0-92.0","0","0","93197","","null","","","null","10","","","","","","","","","","","","","","","",""
"","ISI","","html-keyboard-response","74","266668","0.0-1.0-93.0","0","0","93197","","null","","","null","10","NaN","","","","","","","","","","","","","","",""
"","S2","","html-keyboard-response","75","266922","0.0-1.0-94.0","0","0","93197","","null","","","null","10","","NaN","","","","","","","","","","","","","",""
"","response","","html-keyboard-response","76","268590","0.0-1.0-95.0-0.0","0","0","93197","","1664","","","75","10","","","1","10","training","adjacent","DE","4","5","P.jpg","R.jpg","1","1","1","",""
"","feedback","","html-keyboard-response","77","269592","0.0-1.0-96.0-0.0","0","0","93197","","null","","","null","10","","","","","","","","","","","","","","","",""
"","ITI","","html-keyboard-response","78","270595","0.0-1.0-99.0","0","0","93197","","null","","","null","10","","","","","","","","","","","","","","","NaN",""
"","S1","","html-keyboard-response","79","270849","0.0-1.0-101.0","0","0","93197","","null","","","null","11","","","","","","","","","","","","","","","",""
"","ISI","","html-keyboard-response","80","271852","0.0-1.0-102.0","0","0","93197","","null","","","null","11","NaN","","","","","","","","","","","","","","",""
"","S2","","html-keyboard-response","81","272105","0.0-1.0-103.0","0","0","93197","","null","","","null","11","","NaN","","","","","","","","","","","","","",""
"","response","","html-keyboard-response","82","273858","0.0-1.0-104.0-0.0","0","0","93197","","null","","","null","11","","","1","11","training","adjacent","ED","5","4","R.jpg","P.jpg","NaN","0","0","",""
"","too_slow_prompt","","html-keyboard-response","83","274865","0.0-1.0-106.0-0.0","1","0","93197","","null","","","null","","","","","","","","","","","","","","","","",""
"","time_out","","html-keyboard-response","84","276867","0.0-1.0-107.0-0.0","0","0","93197","","null","","","null","11","","","","","","","","","","","","","","","",""
"","ITI","","html-keyboard-response","85","277870","0.0-1.0-108.0","0","0","93197","","null","","","null","11","","","","","","","","","","","","","","","NaN",""
"","S1","","html-keyboard-response","86","278124","0.0-1.0-110.0","0","0","93197","","null","","","null","12","","","","","","","","","","","","","","","",""
"","ISI","","html-keyboard-response","87","279128","0.0-1.0-111.0","0","0","93197","","700","","","75","12","k","","","","","","","","","","","","","","",""
"","S2","","html-keyboard-response","88","279381","0.0-1.0-112.0","0","0","93197","","null","","","null","12","","NaN","","","","","","","","","","","","","",""
"","response","","html-keyboard-response","89","279715","0.0-1.0-113.0-0.0","0","0","93197","","331","","","75","12","","","1","12","training","adjacent","FG","6","7","O.jpg","L.jpg","1","1","1","",""
"","feedback","","html-keyboard-response","90","280718","0.0-1.0-114.0-0.0","0","0","93197","","null","","","null","12","","","","","","","","","","","","","","","",""
"","ITI","","html-keyboard-response","91","281721","0.0-1.0-117.0","0","0","93197","","null","","","null","12","","","","","","","","","","","","","","","NaN",""
"","S1","","html-keyboard-response","92","281974","0.0-1.0-119.0","0","0","93197","","null","","","null","13","","","","","","","","","","","","","","","",""
"","ISI","","html-keyboard-response","93","282976","0.0-1.0-120.0","0","0","93197","","null","","","null","13","NaN","","","","","","","","","","","","","","",""
"","S2","","html-keyboard-response","94","283230","0.0-1.0-121.0","0","0","93197","","null","","","null","13","","NaN","","","","","","","","","","","","","",""
"","response","","html-keyboard-response","95","284982","0.0-1.0-122.0-0.0","0","0","93197","","null","","","null","13","","","1","13","training","adjacent","CD","3","4","M.jpg","P.jpg","NaN","1","0","",""
"","too_slow_prompt","","html-keyboard-response","96","285985","0.0-1.0-124.0-0.0","1","0","93197","","null","","","null","","","","","","","","","","","","","","","","",""
"","time_out","","html-keyboard-response","97","287988","0.0-1.0-125.0-0.0","0","0","93197","","null","","","null","13","","","","","","","","","","","","","","","",""
"","ITI","","html-keyboard-response","98","288990","0.0-1.0-126.0","0","0","93197","","null","","","null","13","","","","","","","","","","","","","","","NaN",""
"","S1","","html-keyboard-response","99","289243","0.0-1.0-128.0","0","0","93197","","null","","","null","14","","","","","","","","","","","","","","","",""
"","ISI","","html-keyboard-response","100","290249","0.0-1.0-129.0","0","0","93197","","null","","","null","14","NaN","","","","","","","","","","","","","","",""
"","S2","","html-keyboard-response","101","290504","0.0-1.0-130.0","0","0","93197","","null","","","null","14","","NaN","","","","","","","","","","","","","",""
"","response","","html-keyboard-response","102","290619","0.0-1.0-131.0-0.0","0","0","93197","","113","","","75","14","","","1","14","training","adjacent","DE","4","5","P.jpg","R.jpg","1","1","1","",""
"","feedback","","html-keyboard-response","103","291623","0.0-1.0-132.0-0.0","0","0","93197","","null","","","null","14","","","","","","","","","","","","","","","",""
"","ITI","","html-keyboard-response","104","292625","0.0-1.0-135.0","0","0","93197","","536","","","75","14","","","","","","","","","","","","","","","k",""
"","S1","","html-keyboard-response","105","292878","0.0-1.0-137.0","0","0","93197","","null","","","null","15","","","","","","","","","","","","","","","",""
"","ISI","","html-keyboard-response","106","293880","0.0-1.0-138.0","0","0","93197","","690","","","75","15","k","","","","","","","","","","","","","","",""
"","S2","","html-keyboard-response","107","294134","0.0-1.0-139.0","0","0","93197","","null","","","null","15","","NaN","","","","","","","","","","","","","",""
"","response","","html-keyboard-response","108","295886","0.0-1.0-140.0-0.0","0","0","93197","","null","","","null","15","","","1","15","training","adjacent","DE","4","5","P.jpg","R.jpg","NaN","1","0","",""
"","too_slow_prompt","","html-keyboard-response","109","296890","0.0-1.0-142.0-0.0","1","0","93197","","null","","","null","","","","","","","","","","","","","","","","",""
"","time_out","","html-keyboard-response","110","298892","0.0-1.0-143.0-0.0","0","0","93197","","null","","","null","15","","","","","","","","","","","","","","","",""
"","ITI","","html-keyboard-response","111","299894","0.0-1.0-144.0","0","0","93197","","null","","","null","15","","","","","","","","","","","","","","","NaN",""
"","S1","","html-keyboard-response","112","300148","0.0-1.0-146.0","0","0","93197","","null","","","null","16","","","","","","","","","","","","","","","",""
"","ISI","","html-keyboard-response","113","301151","0.0-1.0-147.0","0","0","93197","","null","","","null","16","NaN","","","","","","","","","","","","","","",""
"","S2","","html-keyboard-response","114","301405","0.0-1.0-148.0","0","0","93197","","null","","","null","16","","NaN","","","","","","","","","","","","","",""
"","response","","html-keyboard-response","115","303159","0.0-1.0-149.0-0.0","0","0","93197","","null","","","null","16","","","1","16","training","adjacent","BA","2","1","N.jpg","Q.jpg","NaN","0","0","",""
"","too_slow_prompt","","html-keyboard-response","116","304161","0.0-1.0-151.0-0.0","1","0","93197","","null","","","null","","","","","","","","","","","","","","","","",""
"","time_out","","html-keyboard-response","117","306163","0.0-1.0-152.0-0.0","0","0","93197","","null","","","null","16","","","","","","","","","","","","","","","",""
"","ITI","","html-keyboard-response","118","307167","0.0-1.0-153.0","0","0","93197","","259","","","75","16","","","","","","","","","","","","","","","k",""
"","S1","","html-keyboard-response","119","307419","0.0-1.0-155.0","0","0","93197","","null","","","null","17","","","","","","","","","","","","","","","",""
"","ISI","","html-keyboard-response","120","308421","0.0-1.0-156.0","0","0","93197","","796","","","75","17","k","","","","","","","","","","","","","","",""
"","S2","","html-keyboard-response","121","308675","0.0-1.0-157.0","0","0","93197","","null","","","null","17","","NaN","","","","","","","","","","","","","",""
"","response","","html-keyboard-response","122","309028","0.0-1.0-158.0-0.0","0","0","93197","","351","","","75","17","","","1","17","training","adjacent","FE","6","5","O.jpg","R.jpg","1","0","0","",""
"","feedback","","html-keyboard-response","123","310032","0.0-1.0-159.0-0.0","0","0","93197","","null","","","null","17","","","","","","","","","","","","","","","",""
"","time_out","","html-keyboard-response","124","312035","0.0-1.0-161.0-0.0","0","0","93197","","null","","","null","17","","","","","","","","","","","","","","","",""
"","ITI","","html-keyboard-response","125","313037","0.0-1.0-162.0","0","0","93197","","480","","","68","17","","","","","","","","","","","","","","","d",""
"","S1","","html-keyboard-response","126","313290","0.0-1.0-164.0","0","0","93197","","null","","","null","18","","","","","","","","","","","","","","","",""
"","ISI","","html-keyboard-response","127","314292","0.0-1.0-165.0","0","0","93197","","126","","","68","18","d","","","","","","","","","","","","","","",""
"","S2","","html-keyboard-response","128","314546","0.0-1.0-166.0","0","0","93197","","null","","","null","18","","NaN","","","","","","","","","","","","","",""
"","response","","html-keyboard-response","129","315144","0.0-1.0-167.0-0.0","0","0","93197","","596","","","75","18","","","1","18","training","adjacent","AB","1","2","Q.jpg","N.jpg","1","1","1","",""
"","feedback","","html-keyboard-response","130","316148","0.0-1.0-168.0-0.0","0","0","93197","","null","","","null","18","","","","","","","","","","","","","","","",""
"","ITI","","html-keyboard-response","131","317151","0.0-1.0-171.0","0","0","93197","","null","","","null","18","","","","","","","","","","","","","","","NaN",""
"","S1","","html-keyboard-response","132","317404","0.0-1.0-173.0","0","0","93197","","null","","","null","19","","","","","","","","","","","","","","","",""
"","ISI","","html-keyboard-response","133","318420","0.0-1.0-174.0","0","0","93197","","null","","","null","19","NaN","","","","","","","","","","","","","","",""
"","S2","","html-keyboard-response","134","318673","0.0-1.0-175.0","0","0","93197","","null","","","null","19","","NaN","","","","","","","","","","","","","",""
"","response","","html-keyboard-response","135","320427","0.0-1.0-176.0-0.0","0","0","93197","","null","","","null","19","","","1","19","training","adjacent","DC","4","3","P.jpg","M.jpg","NaN","0","0","",""
"","too_slow_prompt","","html-keyboard-response","136","321429","0.0-1.0-178.0-0.0","1","0","93197","","null","","","null","","","","","","","","","","","","","","","","",""
"","time_out","","html-keyboard-response","137","323432","0.0-1.0-179.0-0.0","0","0","93197","","null","","","null","19","","","","","","","","","","","","","","","",""
"","ITI","","html-keyboard-response","138","324435","0.0-1.0-180.0","0","0","93197","","152","","","68","19","","","","","","","","","","","","","","","d",""
"","S1","","html-keyboard-response","139","324688","0.0-1.0-182.0","0","0","93197","","null","","","null","20","","","","","","","","","","","","","","","",""
"","ISI","","html-keyboard-response","140","325691","0.0-1.0-183.0","0","0","93197","","326","","","68","20","d","","","","","","","","","","","","","","",""
"","S2","","html-keyboard-response","141","325957","0.0-1.0-184.0","0","0","93197","","null","","","null","20","","NaN","","","","","","","","","","","","","",""
"","response","","html-keyboard-response","142","326299","0.0-1.0-185.0-0.0","0","0","93197","","339","","","68","20","","","1","20","training","adjacent","GF","7","6","L.jpg","O.jpg","0","0","1","",""
"","feedback","","html-keyboard-response","143","327302","0.0-1.0-186.0-0.0","0","0","93197","","null","","","null","20","","","","","","","","","","","","","","","",""
"","ITI","","html-keyboard-response","144","328305","0.0-1.0-189.0","0","0","93197","","null","","","null","20","","","","","","","","","","","","","","","NaN",""
"","S1","","html-keyboard-response","145","328558","0.0-1.0-191.0","0","0","93197","","null","","","null","21","","","","","","","","","","","","","","","",""
"","ISI","","html-keyboard-response","146","329561","0.0-1.0-192.0","0","0","93197","","497","","","68","21","d","","","","","","","","","","","","","","",""
"","S2","","html-keyboard-response","147","329635","0.0-1.0-193.0","0","0","93197","","71","","","68","21","","d","1","21","training","adjacent","CB","3","2","M.jpg","N.jpg","0","0","1","",""
"","feedback","","html-keyboard-response","148","330638","0.0-1.0-195.0-0.0","0","0","93197","","null","","","null","21","","","","","","","","","","","","","","","",""
"","ITI","","html-keyboard-response","149","331640","0.0-1.0-198.0","0","0","93197","","272","","","68","21","","","","","","","","","","","","","","","d",""
"","S1","","html-keyboard-response","150","331893","0.0-1.0-200.0","0","0","93197","","null","","","null","22","","","","","","","","","","","","","","","",""
"","ISI","","html-keyboard-response","151","332895","0.0-1.0-201.0","0","0","93197","","159","","","68","22","d","","","","","","","","","","","","","","",""
"","S2","","html-keyboard-response","152","333087","0.0-1.0-202.0","0","0","93197","","188","","","75","22","","k","1","22","training","adjacent","FG","6","7","O.jpg","L.jpg","1","1","1","",""
"","feedback","","html-keyboard-response","153","334090","0.0-1.0-204.0-0.0","0","0","93197","","null","","","null","22","","","","","","","","","","","","","","","",""
"","ITI","","html-keyboard-response","154","335092","0.0-1.0-207.0","0","0","93197","","174","","","68","22","","","","","","","","","","","","","","","d",""
"","S1","","html-keyboard-response","155","335345","0.0-1.0-209.0","0","0","93197","","null","","","null","23","","","","","","","","","","","","","","","",""
"","ISI","","html-keyboard-response","156","336348","0.0-1.0-210.0","0","0","93197","","165","","","68","23","d","","","","","","","","","","","","","","",""
"","S2","","html-keyboard-response","157","336428","0.0-1.0-211.0","0","0","93197","","78","","","75","23","","k","1","23","training","adjacent","DC","4","3","P.jpg","M.jpg","1","0","0","",""
"","feedback","","html-keyboard-response","158","337433","0.0-1.0-213.0-0.0","0","0","93197","","null","","","null","23","","","","","","","","","","","","","","","",""
"","time_out","","html-keyboard-response","159","339435","0.0-1.0-215.0-0.0","0","0","93197","","null","","","null","23","","","","","","","","","","","","","","","",""
"","ITI","","html-keyboard-response","160","340439","0.0-1.0-216.0","0","0","93197","","113","","","75","23","","","","","","","","","","","","","","","k",""
"","S1","","html-keyboard-response","161","340692","0.0-1.0-218.0","0","0","93197","","null","","","null","24","","","","","","","","","","","","","","","",""
"","ISI","","html-keyboard-response","162","341695","0.0-1.0-219.0","0","0","93197","","78","","","75","24","k","","","","","","","","","","","","","","",""
"","S2","","html-keyboard-response","163","341709","0.0-1.0-220.0","0","0","93197","","11","","","75","24","","k","1","24","training","adjacent","FE","6","5","O.jpg","R.jpg","1","0","0","",""
"","feedback","","html-keyboard-response","164","342713","0.0-1.0-222.0-0.0","0","0","93197","","null","","","null","24","","","","","","","","","","","","","","","",""
"","time_out","","html-keyboard-response","165","344715","0.0-1.0-224.0-0.0","0","0","93197","","null","","","null","24","","","","","","","","","","","","","","","",""
"","ITI","","html-keyboard-response","166","345717","0.0-1.0-225.0","0","0","93197","","237","","","68","24","","","","","","","","","","","","","","","d",""
"","S1","","html-keyboard-response","167","345970","0.0-1.0-227.0","0","0","93197","","null","","","null","25","","","","","","","","","","","","","","","",""
"","ISI","","html-keyboard-response","168","346973","0.0-1.0-228.0","0","0","93197","","11","","","68","25","d","","","","","","","","","","","","","","",""
"","S2","","html-keyboard-response","169","347061","0.0-1.0-229.0","0","0","93197","","85","","","68","25","","d","1","25","training","adjacent","FG","6","7","O.jpg","L.jpg","0","1","0","",""
"","feedback","","html-keyboard-response","170","348065","0.0-1.0-231.0-0.0","0","0","93197","","null","","","null","25","","","","","","","","","","","","","","","",""
"","time_out","","html-keyboard-response","171","350067","0.0-1.0-233.0-0.0","0","0","93197","","null","","","null","25","","","","","","","","","","","","","","","",""
"","ITI","","html-keyboard-response","172","351070","0.0-1.0-234.0","0","0","93197","","15","","","68","25","","","","","","","","","","","","","","","d",""
"","S1","","html-keyboard-response","173","351323","0.0-1.0-236.0","0","0","93197","","null","","","null","26","","","","","","","","","","","","","","","",""
"","ISI","","html-keyboard-response","174","352325","0.0-1.0-237.0","0","0","93197","","10","","","68","26","d","","","","","","","","","","","","","","",""
"","S2","","html-keyboard-response","175","352393","0.0-1.0-238.0","0","0","93197","","65","","","68","26","","d","1","26","training","adjacent","CD","3","4","M.jpg","P.jpg","0","1","0","",""
"","feedback","","html-keyboard-response","176","353397","0.0-1.0-240.0-0.0","0","0","93197","","null","","","null","26","","","","","","","","","","","","","","","",""
"","time_out","","html-keyboard-response","177","355399","0.0-1.0-242.0-0.0","0","0","93197","","null","","","null","26","","","","","","","","","","","","","","","",""
"","ITI","","html-keyboard-response","178","356402","0.0-1.0-243.0","0","0","93197","","162","","","68","26","","","","","","","","","","","","","","","d",""
"","S1","","html-keyboard-response","179","356655","0.0-1.0-245.0","0","0","93197","","null","","","null","27","","","","","","","","","","","","","","","",""
"","ISI","","html-keyboard-response","180","357658","0.0-1.0-246.0","0","0","93197","","326","","","68","27","d","","","","","","","","","","","","","","",""
"","S2","","html-keyboard-response","181","357662","0.0-1.0-247.0","0","0","93197","","2","","","75","27","","k","1","27","training","adjacent","ED","5","4","R.jpg","P.jpg","1","0","0","",""
"","feedback","","html-keyboard-response","182","358665","0.0-1.0-249.0-0.0","0","0","93197","","null","","","null","27","","","","","","","","","","","","","","","",""
"","time_out","","html-keyboard-response","183","360668","0.0-1.0-251.0-0.0","0","0","93197","","null","","","null","27","","","","","","","","","","","","","","","",""
"","ITI","","html-keyboard-response","184","361670","0.0-1.0-252.0","0","0","93197","","135","","","68","27","","","","","","","","","","","","","","","d",""
"","S1","","html-keyboard-response","185","361923","0.0-1.0-254.0","0","0","93197","","null","","","null","28","","","","","","","","","","","","","","","",""
"","ISI","","html-keyboard-response","186","362930","0.0-1.0-255.0","0","0","93197","","126","","","68","28","d","","","","","","","","","","","","","","",""
"","S2","","html-keyboard-response","187","363084","0.0-1.0-256.0","0","0","93197","","152","","","68","28","","d","1","28","training","adjacent","BC","2","3","N.jpg","M.jpg","0","1","0","",""
"","feedback","","html-keyboard-response","188","364095","0.0-1.0-258.0-0.0","0","0","93197","","null","","","null","28","","","","","","","","","","","","","","","",""
"","time_out","","html-keyboard-response","189","366097","0.0-1.0-260.0-0.0","0","0","93197","","null","","","null","28","","","","","","","","","","","","","","","",""
"","ITI","","html-keyboard-response","190","367099","0.0-1.0-261.0","0","0","93197","","299","","","68","28","","","","","","","","","","","","","","","d",""
"","S1","","html-keyboard-response","191","367352","0.0-1.0-263.0","0","0","93197","","null","","","null","29","","","","","","","","","","","","","","","",""
"","ISI","","html-keyboard-response","192","368355","0.0-1.0-264.0","0","0","93197","","23","","","68","29","d","","","","","","","","","","","","","","",""
"","S2","","html-keyboard-response","193","368387","0.0-1.0-265.0","0","0","93197","","29","","","68","29","","d","1","29","training","adjacent","CB","3","2","M.jpg","N.jpg","0","0","1","",""
"","feedback","","html-keyboard-response","194","369390","0.0-1.0-267.0-0.0","0","0","93197","","null","","","null","29","","","","","","","","","","","","","","","",""
"","ITI","","html-keyboard-response","195","370393","0.0-1.0-270.0","0","0","93197","","76","","","68","29","","","","","","","","","","","","","","","d",""
"","S1","","html-keyboard-response","196","370646","0.0-1.0-272.0","0","0","93197","","null","","","null","30","","","","","","","","","","","","","","","",""
"","ISI","","html-keyboard-response","197","371663","0.0-1.0-273.0","0","0","93197","","75","","","68","30","d","","","","","","","","","","","","","","",""
"","S2","","html-keyboard-response","198","371737","0.0-1.0-274.0","0","0","93197","","70","","","68","30","","d","1","30","training","adjacent","DE","4","5","P.jpg","R.jpg","0","1","0","",""
"","feedback","","html-keyboard-response","199","372740","0.0-1.0-276.0-0.0","0","0","93197","","null","","","null","30","","","","","","","","","","","","","","","",""
"","time_out","","html-keyboard-response","200","374742","0.0-1.0-278.0-0.0","0","0","93197","","null","","","null","30","","","","","","","","","","","","","","","",""
"","ITI","","html-keyboard-response","201","375745","0.0-1.0-279.0","0","0","93197","","203","","","68","30","","","","","","","","","","","","","","","d",""
"","S1","","html-keyboard-response","202","375998","0.0-1.0-281.0","0","0","93197","","null","","","null","31","","","","","","","","","","","","","","","",""
"","ISI","","html-keyboard-response","203","377000","0.0-1.0-282.0","0","0","93197","","207","","","68","31","d","","","","","","","","","","","","","","",""
"","S2","","html-keyboard-response","204","377248","0.0-1.0-283.0","0","0","93197","","245","","","68","31","","d","1","31","training","adjacent","DC","4","3","P.jpg","M.jpg","0","0","1","",""
"","feedback","","html-keyboard-response","205","378252","0.0-1.0-285.0-0.0","0","0","93197","","null","","","null","31","","","","","","","","","","","","","","","",""
"","ITI","","html-keyboard-response","206","379254","0.0-1.0-288.0","0","0","93197","","13","","","68","31","","","","","","","","","","","","","","","d",""
"","S1","","html-keyboard-response","207","379507","0.0-1.0-290.0","0","0","93197","","null","","","null","32","","","","","","","","","","","","","","","",""
"","ISI","","html-keyboard-response","208","380509","0.0-1.0-291.0","0","0","93197","","42","","","68","32","d","","","","","","","","","","","","","","",""
"","S2","","html-keyboard-response","209","380589","0.0-1.0-292.0","0","0","93197","","77","","","68","32","","d","1","32","training","adjacent","GF","7","6","L.jpg","O.jpg","0","0","1","",""
"","feedback","","html-keyboard-response","210","381592","0.0-1.0-294.0-0.0","0","0","93197","","null","","","null","32","","","","","","","","","","","","","","","",""
"","ITI","","html-keyboard-response","211","382595","0.0-1.0-297.0","0","0","93197","","15","","","68","32","","","","","","","","","","","","","","","d",""
"","S1","","html-keyboard-response","212","382848","0.0-1.0-299.0","0","0","93197","","null","","","null","33","","","","","","","","","","","","","","","",""
"","ISI","","html-keyboard-response","213","383850","0.0-1.0-300.0","0","0","93197","","42","","","68","33","d","","","","","","","","","","","","","","",""
"","S2","","html-keyboard-response","214","383872","0.0-1.0-301.0","0","0","93197","","19","","","68","33","","d","1","33","training","adjacent","GF","7","6","L.jpg","O.jpg","0","0","1","",""
"","feedback","","html-keyboard-response","215","384875","0.0-1.0-303.0-0.0","0","0","93197","","null","","","null","33","","","","","","","","","","","","","","","",""
"","ITI","","html-keyboard-response","216","385878","0.0-1.0-306.0","0","0","93197","","35","","","68","33","","","","","","","","","","","","","","","d",""
"","S1","","html-keyboard-response","217","386131","0.0-1.0-308.0","0","0","93197","","null","","","null","34","","","","","","","","","","","","","","","",""
"","ISI","","html-keyboard-response","218","387134","0.0-1.0-309.0","0","0","93197","","17","","","68","34","d","","","","","","","","","","","","","","",""
"","S2","","html-keyboard-response","219","387189","0.0-1.0-310.0","0","0","93197","","52","","","68","34","","d","1","34","training","adjacent","DC","4","3","P.jpg","M.jpg","0","0","1","",""
"","feedback","","html-keyboard-response","220","388193","0.0-1.0-312.0-0.0","0","0","93197","","null","","","null","34","","","","","","","","","","","","","","","",""
"","ITI","","html-keyboard-response","221","389195","0.0-1.0-315.0","0","0","93197","","49","","","68","34","","","","","","","","","","","","","","","d",""
"","S1","","html-keyboard-response","222","389448","0.0-1.0-317.0","0","0","93197","","null","","","null","35","","","","","","","","","","","","","","","",""
"","ISI","","html-keyboard-response","223","390451","0.0-1.0-318.0","0","0","93197","","77","","","68","35","d","","","","","","","","","","","","","","",""
"","S2","","html-keyboard-response","224","390517","0.0-1.0-319.0","0","0","93197","","63","","","68","35","","d","1","35","training","adjacent","CD","3","4","M.jpg","P.jpg","0","1","0","",""
"","feedback","","html-keyboard-response","225","391520","0.0-1.0-321.0-0.0","0","0","93197","","null","","","null","35","","","","","","","","","","","","","","","",""
"","time_out","","html-keyboard-response","226","393523","0.0-1.0-323.0-0.0","0","0","93197","","null","","","null","35","","","","","","","","","","","","","","","",""
"","ITI","","html-keyboard-response","227","394526","0.0-1.0-324.0","0","0","93197","","151","","","68","35","","","","","","","","","","","","","","","d",""
"","S1","","html-keyboard-response","228","394779","0.0-1.0-326.0","0","0","93197","","null","","","null","36","","","","","","","","","","","","","","","",""
"","ISI","","html-keyboard-response","229","395782","0.0-1.0-327.0","0","0","93197","","288","","","68","36","d","","","","","","","","","","","","","","",""
"","S2","","html-keyboard-response","230","395893","0.0-1.0-328.0","0","0","93197","","107","","","68","36","","d","1","36","training","adjacent","EF","5","6","R.jpg","O.jpg","0","1","0","",""
"","feedback","","html-keyboard-response","231","396897","0.0-1.0-330.0-0.0","0","0","93197","","null","","","null","36","","","","","","","","","","","","","","","",""
"","time_out","","html-keyboard-response","232","398900","0.0-1.0-332.0-0.0","0","0","93197","","null","","","null","36","","","","","","","","","","","","","","","",""
"","ITI","","html-keyboard-response","233","399902","0.0-1.0-333.0","0","0","93197","","159","","","68","36","","","","","","","","","","","","","","","d",""
"","S1","","html-keyboard-response","234","400155","0.0-1.0-335.0","0","0","93197","","null","","","null","37","","","","","","","","","","","","","","","",""
"","ISI","","html-keyboard-response","235","401171","0.0-1.0-336.0","0","0","93197","","164","","","68","37","d","","","","","","","","","","","","","","",""
"","S2","","html-keyboard-response","236","401402","0.0-1.0-337.0","0","0","93197","","229","","","68","37","","d","1","37","training","adjacent","BC","2","3","N.jpg","M.jpg","0","1","0","",""
"","feedback","","html-keyboard-response","237","402406","0.0-1.0-339.0-0.0","0","0","93197","","null","","","null","37","","","","","","","","","","","","","","","",""
"","time_out","","html-keyboard-response","238","404410","0.0-1.0-341.0-0.0","0","0","93197","","null","","","null","37","","","","","","","","","","","","","","","",""
"","ITI","","html-keyboard-response","239","405413","0.0-1.0-342.0","0","0","93197","","182","","","68","37","","","","","","","","","","","","","","","d",""
"","S1","","html-keyboard-response","240","405667","0.0-1.0-344.0","0","0","93197","","null","","","null","38","","","","","","","","","","","","","","","",""
"","ISI","","html-keyboard-response","241","406669","0.0-1.0-345.0","0","0","93197","","2","","","68","38","d","","","","","","","","","","","","","","",""
"","S2","","html-keyboard-response","242","406728","0.0-1.0-346.0","0","0","93197","","57","","","68","38","","d","1","38","training","adjacent","CB","3","2","M.jpg","N.jpg","0","0","1","",""
"","feedback","","html-keyboard-response","243","407731","0.0-1.0-348.0-0.0","0","0","93197","","null","","","null","38","","","","","","","","","","","","","","","",""
"","ITI","","html-keyboard-response","244","408735","0.0-1.0-351.0","0","0","93197","","78","","","68","38","","","","","","","","","","","","","","","d",""
"","S1","","html-keyboard-response","245","408987","0.0-1.0-353.0","0","0","93197","","null","","","null","39","","","","","","","","","","","","","","","",""
"","ISI","","html-keyboard-response","246","409989","0.0-1.0-354.0","0","0","93197","","102","","","68","39","d","","","","","","","","","","","","","","",""
"","S2","","html-keyboard-response","247","410165","0.0-1.0-355.0","0","0","93197","","173","","","68","39","","d","1","39","training","adjacent","EF","5","6","R.jpg","O.jpg","0","1","0","",""
"","feedback","","html-keyboard-response","248","411168","0.0-1.0-357.0-0.0","0","0","93197","","null","","","null","39","","","","","","","","","","","","","","","",""
"","time_out","","html-keyboard-response","249","413171","0.0-1.0-359.0-0.0","0","0","93197","","null","","","null","39","","","","","","","","","","","","","","","",""
"","ITI","","html-keyboard-response","250","414174","0.0-1.0-360.0","0","0","93197","","80","","","68","39","","","","","","","","","","","","","","","d",""
"","S1","","html-keyboard-response","251","414436","0.0-1.0-362.0","0","0","93197","","null","","","null","40","","","","","","","","","","","","","","","",""
"","ISI","","html-keyboard-response","252","415438","0.0-1.0-363.0","0","0","93197","","98","","","68","40","d","","","","","","","","","","","","","","",""
"","S2","","html-keyboard-response","253","415490","0.0-1.0-364.0","0","0","93197","","49","","","68","40","","d","1","40","training","adjacent","FE","6","5","O.jpg","R.jpg","0","0","1","",""
"","feedback","","html-keyboard-response","254","416493","0.0-1.0-366.0-0.0","0","0","93197","","null","","","null","40","","","","","","","","","","","","","","","",""
"","ITI","","html-keyboard-response","255","417496","0.0-1.0-369.0","0","0","93197","","null","","","null","40","","","","","","","","","","","","","","","NaN",""
"","S1","","html-keyboard-response","256","417749","0.0-1.0-371.0","0","0","93197","","null","","","null","41","","","","","","","","","","","","","","","",""
"","ISI","","html-keyboard-response","257","418751","0.0-1.0-372.0","0","0","93197","","140","","","68","41","d","","","","","","","","","","","","","","",""
"","S2","","html-keyboard-response","258","418775","0.0-1.0-373.0","0","0","93197","","20","","","68","41","","d","1","41","training","adjacent","AB","1","2","Q.jpg","N.jpg","0","1","0","",""
"","feedback","","html-keyboard-response","259","419778","0.0-1.0-375.0-0.0","0","0","93197","","null","","","null","41","","","","","","","","","","","","","","","",""
"","time_out","","html-keyboard-response","260","421781","0.0-1.0-377.0-0.0","0","0","93197","","null","","","null","41","","","","","","","","","","","","","","","",""
"","ITI","","html-keyboard-response","261","422784","0.0-1.0-378.0","0","0","93197","","424","","","68","41","","","","","","","","","","","","","","","d",""
"","S1","","html-keyboard-response","262","423036","0.0-1.0-380.0","0","0","93197","","null","","","null","42","","","","","","","","","","","","","","","",""
"","ISI","","html-keyboard-response","263","424038","0.0-1.0-381.0","0","0","93197","","41","","","68","42","d","","","","","","","","","","","","","","",""
"","S2","","html-keyboard-response","264","424226","0.0-1.0-382.0","0","0","93197","","185","","","68","42","","d","1","42","training","adjacent","GF","7","6","L.jpg","O.jpg","0","0","1","",""
"","feedback","","html-keyboard-response","265","425229","0.0-1.0-384.0-0.0","0","0","93197","","null","","","null","42","","","","","","","","","","","","","","","",""
"","ITI","","html-keyboard-response","266","426233","0.0-1.0-387.0","0","0","93197","","38","","","68","42","","","","","","","","","","","","","","","d",""
"","S1","","html-keyboard-response","267","426486","0.0-1.0-389.0","0","0","93197","","null","","","null","43","","","","","","","","","","","","","","","",""
"","ISI","","html-keyboard-response","268","427488","0.0-1.0-390.0","0","0","93197","","38","","","68","43","d","","","","","","","","","","","","","","",""
"","S2","","html-keyboard-response","269","427530","0.0-1.0-391.0","0","0","93197","","40","","","68","43","","d","1","43","training","adjacent","CB","3","2","M.jpg","N.jpg","0","0","1","",""
"","feedback","","html-keyboard-response","270","428534","0.0-1.0-393.0-0.0","0","0","93197","","null","","","null","43","","","","","","","","","","","","","","","",""
"","ITI","","html-keyboard-response","271","429537","0.0-1.0-396.0","0","0","93197","","795","","","68","43","","","","","","","","","","","","","","","d",""
"","S1","","html-keyboard-response","272","429791","0.0-1.0-398.0","0","0","93197","","null","","","null","44","","","","","","","","","","","","","","","",""
"","ISI","","html-keyboard-response","273","430794","0.0-1.0-399.0","0","0","93197","","44","","","68","44","d","","","","","","","","","","","","","","",""
"","S2","","html-keyboard-response","274","430935","0.0-1.0-400.0","0","0","93197","","139","","","68","44","","d","1","44","training","adjacent","ED","5","4","R.jpg","P.jpg","0","0","1","",""
"","feedback","","html-keyboard-response","275","431939","0.0-1.0-402.0-0.0","0","0","93197","","null","","","null","44","","","","","","","","","","","","","","","",""
"","ITI","","html-keyboard-response","276","432942","0.0-1.0-405.0","0","0","93197","","163","","","68","44","","","","","","","","","","","","","","","d",""
"","S1","","html-keyboard-response","277","433196","0.0-1.0-407.0","0","0","93197","","null","","","null","45","","","","","","","","","","","","","","","",""
"","ISI","","html-keyboard-response","278","434200","0.0-1.0-408.0","0","0","93197","","null","","","null","45","NaN","","","","","","","","","","","","","","",""
"","S2","","html-keyboard-response","279","434453","0.0-1.0-409.0","0","0","93197","","null","","","null","45","","NaN","","","","","","","","","","","","","",""
"","response","","html-keyboard-response","280","436206","0.0-1.0-410.0-0.0","0","0","93197","","null","","","null","45","","","1","45","training","adjacent","CD","3","4","M.jpg","P.jpg","NaN","1","0","",""
"","too_slow_prompt","","html-keyboard-response","281","437211","0.0-1.0-412.0-0.0","1","0","93197","","null","","","null","","","","","","","","","","","","","","","","",""
"","time_out","","html-keyboard-response","282","439215","0.0-1.0-413.0-0.0","0","0","93197","","null","","","null","45","","","","","","","","","","","","","","","",""
"","ITI","","html-keyboard-response","283","440217","0.0-1.0-414.0","0","0","93197","","null","","","null","45","","","","","","","","","","","","","","","NaN",""
"","S1","","html-keyboard-response","284","440470","0.0-1.0-416.0","0","0","93197","","null","","","null","46","","","","","","","","","","","","","","","",""
"","ISI","","html-keyboard-response","285","441473","0.0-1.0-417.0","0","0","93197","","4","","","68","46","d","","","","","","","","","","","","","","",""
"","S2","","html-keyboard-response","286","441662","0.0-1.0-418.0","0","0","93197","","186","","","68","46","","d","1","46","training","adjacent","BA","2","1","N.jpg","Q.jpg","0","0","1","",""
"","feedback","","html-keyboard-response","287","442665","0.0-1.0-420.0-0.0","0","0","93197","","null","","","null","46","","","","","","","","","","","","","","","",""
"","ITI","","html-keyboard-response","288","443668","0.0-1.0-423.0","0","0","93197","","830","","","68","46","","","","","","","","","","","","","","","d",""
"","S1","","html-keyboard-response","289","443921","0.0-1.0-425.0","0","0","93197","","null","","","null","47","","","","","","","","","","","","","","","",""
"","ISI","","html-keyboard-response","290","444923","0.0-1.0-426.0","0","0","93197","","175","","","68","47","d","","","","","","","","","","","","","","",""
"","S2","","html-keyboard-response","291","445177","0.0-1.0-427.0","0","0","93197","","null","","","null","47","","NaN","","","","","","","","","","","","","",""
"","response","","html-keyboard-response","292","445262","0.0-1.0-428.0-0.0","0","0","93197","","83","","","68","47","","","1","47","training","adjacent","ED","5","4","R.jpg","P.jpg","0","0","1","",""
"","feedback","","html-keyboard-response","293","446266","0.0-1.0-429.0-0.0","0","0","93197","","null","","","null","47","","","","","","","","","","","","","","","",""
"","ITI","","html-keyboard-response","294","447270","0.0-1.0-432.0","0","0","93197","","441","","","68","47","","","","","","","","","","","","","","","d",""
"","block_over","","html-keyboard-response","295","464367","0.0-1.0-433.0-0.0","0","0","93197","","17094","","","32","47","","","","","","","","","","","","","","","",""
"","S1","","html-keyboard-response","296","464620","0.0-1.0-434.0","0","0","93197","","null","","","null","48","","","","","","","","","","","","","","","",""
"","ISI","","html-keyboard-response","297","465622","0.0-1.0-435.0","0","0","93197","","null","","","null","48","NaN","","","","","","","","","","","","","","",""
"","S2","","html-keyboard-response","298","465876","0.0-1.0-436.0","0","0","93197","","null","","","null","48","","NaN","","","","","","","","","","","","","",""
"","response","","html-keyboard-response","299","466670","0.0-1.0-437.0-0.0","0","0","93197","","792","","","68","48","","","2","48","training","adjacent","DC","4","3","P.jpg","M.jpg","0","0","1","",""
"","feedback","","html-keyboard-response","300","467673","0.0-1.0-438.0-0.0","0","0","93197","","null","","","null","48","","","","","","","","","","","","","","","",""
"","ITI","","html-keyboard-response","301","468675","0.0-1.0-441.0","0","0","93197","","410","","","68","48","","","","","","","","","","","","","","","d",""
"","S1","","html-keyboard-response","302","468928","0.0-1.0-443.0","0","0","93197","","null","","","null","49","","","","","","","","","","","","","","","",""
"","ISI","","html-keyboard-response","303","469930","0.0-1.0-444.0","0","0","93197","","326","","","68","49","d","","","","","","","","","","","","","","",""
"","S2","","html-keyboard-response","304","469933","0.0-1.0-445.0","0","0","93197","","0","","","68","49","","d","2","49","training","adjacent","CD","3","4","M.jpg","P.jpg","0","1","0","",""
"","feedback","","html-keyboard-response","305","470936","0.0-1.0-447.0-0.0","0","0","93197","","null","","","null","49","","","","","","","","","","","","","","","",""
"","time_out","","html-keyboard-response","306","472939","0.0-1.0-449.0-0.0","0","0","93197","","null","","","null","49","","","","","","","","","","","","","","","",""
"","ITI","","html-keyboard-response","307","473942","0.0-1.0-450.0","0","0","93197","","112","","","68","49","","","","","","","","","","","","","","","d",""
"","S1","","html-keyboard-response","308","474201","0.0-1.0-452.0","0","0","93197","","null","","","null","50","","","","","","","","","","","","","","","",""
"","ISI","","html-keyboard-response","309","475204","0.0-1.0-453.0","0","0","93197","","353","","","68","50","d","","","","","","","","","","","","","","",""
"","S2","","html-keyboard-response","310","475457","0.0-1.0-454.0","0","0","93197","","null","","","null","50","","NaN","","","","","","","","","","","","","",""
"","response","","html-keyboard-response","311","475675","0.0-1.0-455.0-0.0","0","0","93197","","216","","","68","50","","","2","50","training","adjacent","FG","6","7","O.jpg","L.jpg","0","1","0","",""
"","feedback","","html-keyboard-response","312","476679","0.0-1.0-456.0-0.0","0","0","93197","","null","","","null","50","","","","","","","","","","","","","","","",""
"","time_out","","html-keyboard-response","313","478682","0.0-1.0-458.0-0.0","0","0","93197","","null","","","null","50","","","","","","","","","","","","","","","",""
"","ITI","","html-keyboard-response","314","479685","0.0-1.0-459.0","0","0","93197","","289","","","68","50","","","","","","","","","","","","","","","d",""
"","S1","","html-keyboard-response","315","479938","0.0-1.0-461.0","0","0","93197","","null","","","null","51","","","","","","","","","","","","","","","",""
"","ISI","","html-keyboard-response","316","480941","0.0-1.0-462.0","0","0","93197","","324","","","68","51","d","","","","","","","","","","","","","","",""
"","S2","","html-keyboard-response","317","481122","0.0-1.0-463.0","0","0","93197","","179","","","68","51","","d","2","51","training","adjacent","FE","6","5","O.jpg","R.jpg","0","0","1","",""
"","feedback","","html-keyboard-response","318","482125","0.0-1.0-465.0-0.0","0","0","93197","","null","","","null","51","","","","","","","","","","","","","","","",""
"","ITI","","html-keyboard-response","319","483128","0.0-1.0-468.0","0","0","93197","","null","","","null","51","","","","","","","","","","","","","","","NaN",""
"","S1","","html-keyboard-response","320","483381","0.0-1.0-470.0","0","0","93197","","null","","","null","52","","","","","","","","","","","","","","","",""
"","ISI","","html-keyboard-response","321","484385","0.0-1.0-471.0","0","0","93197","","null","","","null","52","NaN","","","","","","","","","","","","","","",""
"","S2","","html-keyboard-response","322","484639","0.0-1.0-472.0","0","0","93197","","null","","","null","52","","NaN","","","","","","","","","","","","","",""
"","response","","html-keyboard-response","323","485588","0.0-1.0-473.0-0.0","0","0","93197","","947","","","75","52","","","2","52","training","adjacent","BC","2","3","N.jpg","M.jpg","1","1","1","",""
"","feedback","","html-keyboard-response","324","486592","0.0-1.0-474.0-0.0","0","0","93197","","null","","","null","52","","","","","","","","","","","","","","","",""
"","ITI","","html-keyboard-response","325","487599","0.0-1.0-477.0","0","0","93197","","88","","","75","52","","","","","","","","","","","","","","","k",""
"","S1","","html-keyboard-response","326","487852","0.0-1.0-479.0","0","0","93197","","null","","","null","53","","","","","","","","","","","","","","","",""
"","ISI","","html-keyboard-response","327","488855","0.0-1.0-480.0","0","0","93197","","669","","","75","53","k","","","","","","","","","","","","","","",""
"","S2","","html-keyboard-response","328","489017","0.0-1.0-481.0","0","0","93197","","160","","","75","53","","k","2","53","training","adjacent","BA","2","1","N.jpg","Q.jpg","1","0","0","",""
"","feedback","","html-keyboard-response","329","490020","0.0-1.0-483.0-0.0","0","0","93197","","null","","","null","53","","","","","","","","","","","","","","","",""
"","time_out","","html-keyboard-response","330","492024","0.0-1.0-485.0-0.0","0","0","93197","","null","","","null","53","","","","","","","","","","","","","","","",""
"","ITI","","html-keyboard-response","331","493026","0.0-1.0-486.0","0","0","93197","","null","","","null","53","","","","","","","","","","","","","","","NaN",""
"","S1","","html-keyboard-response","332","493279","0.0-1.0-488.0","0","0","93197","","null","","","null","54","","","","","","","","","","","","","","","",""
"","ISI","","html-keyboard-response","333","494281","0.0-1.0-489.0","0","0","93197","","null","","","null","54","NaN","","","","","","","","","","","","","","",""
"","S2","","html-keyboard-response","334","494535","0.0-1.0-490.0","0","0","93197","","null","","","null","54","","NaN","","","","","","","","","","","","","",""
"","response","","html-keyboard-response","335","495613","0.0-1.0-491.0-0.0","0","0","93197","","1076","","","75","54","","","2","54","training","adjacent","CB","3","2","M.jpg","N.jpg","1","0","0","",""
"","feedback","","html-keyboard-response","336","496617","0.0-1.0-492.0-0.0","0","0","93197","","null","","","null","54","","","","","","","","","","","","","","","",""
"","time_out","","html-keyboard-response","337","498620","0.0-1.0-494.0-0.0","0","0","93197","","null","","","null","54","","","","","","","","","","","","","","","",""
"","ITI","","html-keyboard-response","338","499623","0.0-1.0-495.0","0","0","93197","","null","","","null","54","","","","","","","","","","","","","","","NaN",""
"","S1","","html-keyboard-response","339","499877","0.0-1.0-497.0","0","0","93197","","null","","","null","55","","","","","","","","","","","","","","","",""
"","ISI","","html-keyboard-response","340","500879","0.0-1.0-498.0","0","0","93197","","null","","","null","55","NaN","","","","","","","","","","","","","","",""
"","S2","","html-keyboard-response","341","501133","0.0-1.0-499.0","0","0","93197","","null","","","null","55","","NaN","","","","","","","","","","","","","",""
"","response","","html-keyboard-response","342","502886","0.0-1.0-500.0-0.0","0","0","93197","","null","","","null","55","","","2","55","training","adjacent","CB","3","2","M.jpg","N.jpg","NaN","0","0","",""
"","too_slow_prompt","","html-keyboard-response","343","503889","0.0-1.0-502.0-0.0","1","0","93197","","null","","","null","","","","","","","","","","","","","","","","",""
"","time_out","","html-keyboard-response","344","505891","0.0-1.0-503.0-0.0","0","0","93197","","null","","","null","55","","","","","","","","","","","","","","","",""
"","ITI","","html-keyboard-response","345","506893","0.0-1.0-504.0","0","0","93197","","null","","","null","55","","","","","","","","","","","","","","","NaN",""
"","S1","","html-keyboard-response","346","507146","0.0-1.0-506.0","0","0","93197","","null","","","null","56","","","","","","","","","","","","","","","",""
"","ISI","","html-keyboard-response","347","508161","0.0-1.0-507.0","0","0","93197","","null","","","null","56","NaN","","","","","","","","","","","","","","",""
"","S2","","html-keyboard-response","348","508171","0.0-1.0-508.0","0","0","93197","","7","","","68","56","","d","2","56","training","adjacent","EF","5","6","R.jpg","O.jpg","0","1","0","",""
"","feedback","","html-keyboard-response","349","509175","0.0-1.0-510.0-0.0","0","0","93197","","null","","","null","56","","","","","","","","","","","","","","","",""
"","time_out","","html-keyboard-response","350","511177","0.0-1.0-512.0-0.0","0","0","93197","","null","","","null","56","","","","","","","","","","","","","","","",""
"","ITI","","html-keyboard-response","351","512180","0.0-1.0-513.0","0","0","93197","","null","","","null","56","","","","","","","","","","","","","","","NaN",""
"","S1","","html-keyboard-response","352","512434","0.0-1.0-515.0","0","0","93197","","null","","","null","57","","","","","","","","","","","","","","","",""
"","ISI","","html-keyboard-response","353","513436","0.0-1.0-516.0","0","0","93197","","260","","","68","57","d","","","","","","","","","","","","","","",""
"","S2","","html-keyboard-response","354","513689","0.0-1.0-517.0","0","0","93197","","null","","","null","57","","NaN","","","","","","","","","","","","","",""
"","response","","html-keyboard-response","355","513862","0.0-1.0-518.0-0.0","0","0","93197","","171","","","68","57","","","2","57","training","adjacent","DC","4","3","P.jpg","M.jpg","0","0","1","",""
"","feedback","","html-keyboard-response","356","514865","0.0-1.0-519.0-0.0","0","0","93197","","null","","","null","57","","","","","","","","","","","","","","","",""
"","ITI","","html-keyboard-response","357","515868","0.0-1.0-522.0","0","0","93197","","1","","","68","57","","","","","","","","","","","","","","","d",""
"","S1","","html-keyboard-response","358","516122","0.0-1.0-524.0","0","0","93197","","null","","","null","58","","","","","","","","","","","","","","","",""
"","ISI","","html-keyboard-response","359","517125","0.0-1.0-525.0","0","0","93197","","205","","","68","58","d","","","","","","","","","","","","","","",""
"","S2","","html-keyboard-response","360","517378","0.0-1.0-526.0","0","0","93197","","null","","","null","58","","NaN","","","","","","","","","","","","","",""
"","response","","html-keyboard-response","361","517492","0.0-1.0-527.0-0.0","0","0","93197","","112","","","68","58","","","2","58","training","adjacent","CB","3","2","M.jpg","N.jpg","0","0","1","",""
"","feedback","","html-keyboard-response","362","518501","0.0-1.0-528.0-0.0","0","0","93197","","null","","","null","58","","","","","","","","","","","","","","","",""
"","ITI","","html-keyboard-response","363","519504","0.0-1.0-531.0","0","0","93197","","71","","","68","58","","","","","","","","","","","","","","","d",""
"","S1","","html-keyboard-response","364","519757","0.0-1.0-533.0","0","0","93197","","null","","","null","59","","","","","","","","","","","","","","","",""
"","ISI","","html-keyboard-response","365","520759","0.0-1.0-534.0","0","0","93197","","128","","","68","59","d","","","","","","","","","","","","","","",""
"","S2","","html-keyboard-response","366","521013","0.0-1.0-535.0","0","0","93197","","null","","","null","59","","NaN","","","","","","","","","","","","","",""
"","response","","html-keyboard-response","367","521353","0.0-1.0-536.0-0.0","0","0","93197","","338","","","68","59","","","2","59","training","adjacent","FG","6","7","O.jpg","L.jpg","0","1","0","",""
"","feedback","","html-keyboard-response","368","522357","0.0-1.0-537.0-0.0","0","0","93197","","null","","","null","59","","","","","","","","","","","","","","","",""
"","time_out","","html-keyboard-response","369","524359","0.0-1.0-539.0-0.0","0","0","93197","","null","","","null","59","","","","","","","","","","","","","","","",""
"","ITI","","html-keyboard-response","370","525362","0.0-1.0-540.0","0","0","93197","","18","","","68","59","","","","","","","","","","","","","","","d",""
"","S1","","html-keyboard-response","371","525616","0.0-1.0-542.0","0","0","93197","","null","","","null","60","","","","","","","","","","","","","","","",""
"","ISI","","html-keyboard-response","372","526618","0.0-1.0-543.0","0","0","93197","","145","","","68","60","d","","","","","","","","","","","","","","",""
"","S2","","html-keyboard-response","373","526873","0.0-1.0-544.0","0","0","93197","","null","","","null","60","","NaN","","","","","","","","","","","","","",""
"","response","","html-keyboard-response","374","527069","0.0-1.0-545.0-0.0","0","0","93197","","194","","","68","60","","","2","60","training","adjacent","CD","3","4","M.jpg","P.jpg","0","1","0","",""
"","feedback","","html-keyboard-response","375","528074","0.0-1.0-546.0-0.0","0","0","93197","","null","","","null","60","","","","","","","","","","","","","","","",""
"","time_out","","html-keyboard-response","376","530076","0.0-1.0-548.0-0.0","0","0","93197","","null","","","null","60","","","","","","","","","","","","","","","",""
"","ITI","","html-keyboard-response","377","531079","0.0-1.0-549.0","0","0","93197","","154","","","75","60","","","","","","","","","","","","","","","k",""
"","S1","","html-keyboard-response","378","531332","0.0-1.0-551.0","0","0","93197","","null","","","null","61","","","","","","","","","","","","","","","",""
"","ISI","","html-keyboard-response","379","532335","0.0-1.0-552.0","0","0","93197","","7","","","75","61","k","","","","","","","","","","","","","","",""
"","S2","","html-keyboard-response","380","532589","0.0-1.0-553.0","0","0","93197","","null","","","null","61","","NaN","","","","","","","","","","","","","",""
"","response","","html-keyboard-response","381","532596","0.0-1.0-554.0-0.0","0","0","93197","","5","","","75","61","","","2","61","training","adjacent","GF","7","6","L.jpg","O.jpg","1","0","0","",""
"","feedback","","html-keyboard-response","382","533600","0.0-1.0-555.0-0.0","0","0","93197","","null","","","null","61","","","","","","","","","","","","","","","",""
"","time_out","","html-keyboard-response","383","535603","0.0-1.0-557.0-0.0","0","0","93197","","null","","","null","61","","","","","","","","","","","","","","","",""
"","ITI","","html-keyboard-response","384","536605","0.0-1.0-558.0","0","0","93197","","108","","","75","61","","","","","","","","","","","","","","","k",""
"","S1","","html-keyboard-response","385","536858","0.0-1.0-560.0","0","0","93197","","null","","","null","62","","","","","","","","","","","","","","","",""
"","ISI","","html-keyboard-response","386","537861","0.0-1.0-561.0","0","0","93197","","202","","","75","62","k","","","","","","","","","","","","","","",""
"","S2","","html-keyboard-response","387","538083","0.0-1.0-562.0","0","0","93197","","220","","","75","62","","k","2","62","training","adjacent","CB","3","2","M.jpg","N.jpg","1","0","0","",""
"","feedback","","html-keyboard-response","388","539086","0.0-1.0-564.0-0.0","0","0","93197","","null","","","null","62","","","","","","","","","","","","","","","",""
"","time_out","","html-keyboard-response","389","541089","0.0-1.0-566.0-0.0","0","0","93197","","null","","","null","62","","","","","","","","","","","","","","","",""
"","ITI","","html-keyboard-response","390","542091","0.0-1.0-567.0","0","0","93197","","24","","","75","62","","","","","","","","","","","","","","","k",""
"","S1","","html-keyboard-response","391","542345","0.0-1.0-569.0","0","0","93197","","null","","","null","63","","","","","","","","","","","","","","","",""
"","ISI","","html-keyboard-response","392","543347","0.0-1.0-570.0","0","0","93197","","156","","","75","63","k","","","","","","","","","","","","","","",""
"","S2","","html-keyboard-response","393","543430","0.0-1.0-571.0","0","0","93197","","79","","","75","63","","k","2","63","training","adjacent","EF","5","6","R.jpg","O.jpg","1","1","1","",""
"","feedback","","html-keyboard-response","394","544434","0.0-1.0-573.0-0.0","0","0","93197","","null","","","null","63","","","","","","","","","","","","","","","",""
"","ITI","","html-keyboard-response","395","545438","0.0-1.0-576.0","0","0","93197","","159","","","75","63","","","","","","","","","","","","","","","k",""
"","S1","","html-keyboard-response","396","545691","0.0-1.0-578.0","0","0","93197","","null","","","null","64","","","","","","","","","","","","","","","",""
"","ISI","","html-keyboard-response","397","546694","0.0-1.0-579.0","0","0","93197","","908","","","75","64","k","","","","","","","","","","","","","","",""
"","S2","","html-keyboard-response","398","546847","0.0-1.0-580.0","0","0","93197","","150","","","75","64","","k","2","64","training","adjacent","FG","6","7","O.jpg","L.jpg","1","1","1","",""
"","feedback","","html-keyboard-response","399","547850","0.0-1.0-582.0-0.0","0","0","93197","","null","","","null","64","","","","","","","","","","","","","","","",""
"","ITI","","html-keyboard-response","400","548853","0.0-1.0-585.0","0","0","93197","","3","","","75","64","","","","","","","","","","","","","","","k",""
"","S1","","html-keyboard-response","401","549106","0.0-1.0-587.0","0","0","93197","","null","","","null","65","","","","","","","","","","","","","","","",""
"","ISI","","html-keyboard-response","402","550108","0.0-1.0-588.0","0","0","93197","","228","","","75","65","k","","","","","","","","","","","","","","",""
"","S2","","html-keyboard-response","403","550272","0.0-1.0-589.0","0","0","93197","","161","","","75","65","","k","2","65","training","adjacent","DE","4","5","P.jpg","R.jpg","1","1","1","",""
"","feedback","","html-keyboard-response","404","551276","0.0-1.0-591.0-0.0","0","0","93197","","null","","","null","65","","","","","","","","","","","","","","","",""
"","ITI","","html-keyboard-response","405","552279","0.0-1.0-594.0","0","0","93197","","1","","","75","65","","","","","","","","","","","","","","","k",""
"","S1","","html-keyboard-response","406","552539","0.0-1.0-596.0","0","0","93197","","null","","","null","66","","","","","","","","","","","","","","","",""
"","ISI","","html-keyboard-response","407","553541","0.0-1.0-597.0","0","0","93197","","150","","","75","66","k","","","","","","","","","","","","","","",""
"","S2","","html-keyboard-response","408","553730","0.0-1.0-598.0","0","0","93197","","186","","","75","66","","k","2","66","training","adjacent","BA","2","1","N.jpg","Q.jpg","1","0","0","",""
"","feedback","","html-keyboard-response","409","554734","0.0-1.0-600.0-0.0","0","0","93197","","null","","","null","66","","","","","","","","","","","","","","","",""
"","time_out","","html-keyboard-response","410","556737","0.0-1.0-602.0-0.0","0","0","93197","","null","","","null","66","","","","","","","","","","","","","","","",""
"","ITI","","html-keyboard-response","411","557740","0.0-1.0-603.0","0","0","93197","","107","","","75","66","","","","","","","","","","","","","","","k",""
"","S1","","html-keyboard-response","412","557993","0.0-1.0-605.0","0","0","93197","","null","","","null","67","","","","","","","","","","","","","","","",""
"","ISI","","html-keyboard-response","413","558996","0.0-1.0-606.0","0","0","93197","","125","","","75","67","k","","","","","","","","","","","","","","",""
"","S2","","html-keyboard-response","414","559125","0.0-1.0-607.0","0","0","93197","","127","","","75","67","","k","2","67","training","adjacent","BA","2","1","N.jpg","Q.jpg","1","0","0","",""
"","feedback","","html-keyboard-response","415","560129","0.0-1.0-609.0-0.0","0","0","93197","","null","","","null","67","","","","","","","","","","","","","","","",""
"","time_out","","html-keyboard-response","416","562132","0.0-1.0-611.0-0.0","0","0","93197","","null","","","null","67","","","","","","","","","","","","","","","",""
"","ITI","","html-keyboard-response","417","563135","0.0-1.0-612.0","0","0","93197","","70","","","68","67","","","","","","","","","","","","","","","d",""
"","S1","","html-keyboard-response","418","563387","0.0-1.0-614.0","0","0","93197","","null","","","null","68","","","","","","","","","","","","","","","",""
"","ISI","","html-keyboard-response","419","564390","0.0-1.0-615.0","0","0","93197","","94","","","75","68","k","","","","","","","","","","","","","","",""
"","S2","","html-keyboard-response","420","564447","0.0-1.0-616.0","0","0","93197","","53","","","75","68","","k","2","68","training","adjacent","GF","7","6","L.jpg","O.jpg","1","0","0","",""
"","feedback","","html-keyboard-response","421","565456","0.0-1.0-618.0-0.0","0","0","93197","","null","","","null","68","","","","","","","","","","","","","","","",""
"","time_out","","html-keyboard-response","422","567459","0.0-1.0-620.0-0.0","0","0","93197","","null","","","null","68","","","","","","","","","","","","","","","",""
"","ITI","","html-keyboard-response","423","568462","0.0-1.0-621.0","0","0","93197","","130","","","68","68","","","","","","","","","","","","","","","d",""
"","S1","","html-keyboard-response","424","568715","0.0-1.0-623.0","0","0","93197","","null","","","null","69","","","","","","","","","","","","","","","",""
"","ISI","","html-keyboard-response","425","569718","0.0-1.0-624.0","0","0","93197","","65","","","68","69","d","","","","","","","","","","","","","","",""
"","S2","","html-keyboard-response","426","569815","0.0-1.0-625.0","0","0","93197","","93","","","68","69","","d","2","69","training","adjacent","GF","7","6","L.jpg","O.jpg","0","0","1","",""
"","feedback","","html-keyboard-response","427","570818","0.0-1.0-627.0-0.0","0","0","93197","","null","","","null","69","","","","","","","","","","","","","","","",""
"","ITI","","html-keyboard-response","428","571821","0.0-1.0-630.0","0","0","93197","","null","","","null","69","","","","","","","","","","","","","","","NaN",""
"","S1","","html-keyboard-response","429","572074","0.0-1.0-632.0","0","0","93197","","null","","","null","70","","","","","","","","","","","","","","","",""
"","ISI","","html-keyboard-response","430","573078","0.0-1.0-633.0","0","0","93197","","463","","","75","70","k","","","","","","","","","","","","","","",""
"","S2","","html-keyboard-response","431","573142","0.0-1.0-634.0","0","0","93197","","61","","","75","70","","k","2","70","training","adjacent","ED","5","4","R.jpg","P.jpg","1","0","0","",""
"","feedback","","html-keyboard-response","432","574145","0.0-1.0-636.0-0.0","0","0","93197","","null","","","null","70","","","","","","","","","","","","","","","",""
"","time_out","","html-keyboard-response","433","576148","0.0-1.0-638.0-0.0","0","0","93197","","null","","","null","70","","","","","","","","","","","","","","","",""
"","ITI","","html-keyboard-response","434","577151","0.0-1.0-639.0","0","0","93197","","124","","","75","70","","","","","","","","","","","","","","","k",""
"","S1","","html-keyboard-response","435","577405","0.0-1.0-641.0","0","0","93197","","null","","","null","71","","","","","","","","","","","","","","","",""
"","ISI","","html-keyboard-response","436","578407","0.0-1.0-642.0","0","0","93197","","71","","","75","71","k","","","","","","","","","","","","","","",""
"","S2","","html-keyboard-response","437","578490","0.0-1.0-643.0","0","0","93197","","80","","","75","71","","k","2","71","training","adjacent","BA","2","1","N.jpg","Q.jpg","1","0","0","",""
"","feedback","","html-keyboard-response","438","579494","0.0-1.0-645.0-0.0","0","0","93197","","null","","","null","71","","","","","","","","","","","","","","","",""
"","time_out","","html-keyboard-response","439","581497","0.0-1.0-647.0-0.0","0","0","93197","","null","","","null","71","","","","","","","","","","","","","","","",""
"","ITI","","html-keyboard-response","440","582500","0.0-1.0-648.0","0","0","93197","","276","","","68","71","","","","","","","","","","","","","","","d",""
"","S1","","html-keyboard-response","441","582753","0.0-1.0-650.0","0","0","93197","","null","","","null","72","","","","","","","","","","","","","","","",""
"","ISI","","html-keyboard-response","442","583756","0.0-1.0-651.0","0","0","93197","","63","","","68","72","d","","","","","","","","","","","","","","",""
"","S2","","html-keyboard-response","443","584010","0.0-1.0-652.0","0","0","93197","","null","","","null","72","","NaN","","","","","","","","","","","","","",""
"","response","","html-keyboard-response","444","584086","0.0-1.0-653.0-0.0","0","0","93197","","73","","","68","72","","","2","72","training","adjacent","EF","5","6","R.jpg","O.jpg","0","1","0","",""
"","feedback","","html-keyboard-response","445","585089","0.0-1.0-654.0-0.0","0","0","93197","","null","","","null","72","","","","","","","","","","","","","","","",""
"","time_out","","html-keyboard-response","446","587092","0.0-1.0-656.0-0.0","0","0","93197","","null","","","null","72","","","","","","","","","","","","","","","",""
"","ITI","","html-keyboard-response","447","588095","0.0-1.0-657.0","0","0","93197","","169","","","68","72","","","","","","","","","","","","","","","d",""
"","S1","","html-keyboard-response","448","588348","0.0-1.0-659.0","0","0","93197","","null","","","null","73","","","","","","","","","","","","","","","",""
"","ISI","","html-keyboard-response","449","589350","0.0-1.0-660.0","0","0","93197","","114","","","68","73","d","","","","","","","","","","","","","","",""
"","S2","","html-keyboard-response","450","589407","0.0-1.0-661.0","0","0","93197","","53","","","68","73","","d","2","73","training","adjacent","DE","4","5","P.jpg","R.jpg","0","1","0","",""
"","feedback","","html-keyboard-response","451","590410","0.0-1.0-663.0-0.0","0","0","93197","","null","","","null","73","","","","","","","","","","","","","","","",""
"","time_out","","html-keyboard-response","452","592413","0.0-1.0-665.0-0.0","0","0","93197","","null","","","null","73","","","","","","","","","","","","","","","",""
"","ITI","","html-keyboard-response","453","593415","0.0-1.0-666.0","0","0","93197","","141","","","68","73","","","","","","","","","","","","","","","d",""
"","S1","","html-keyboard-response","454","593669","0.0-1.0-668.0","0","0","93197","","null","","","null","74","","","","","","","","","","","","","","","",""
"","ISI","","html-keyboard-response","455","594671","0.0-1.0-669.0","0","0","93197","","682","","","68","74","d","","","","","","","","","","","","","","",""
"","S2","","html-keyboard-response","456","594926","0.0-1.0-670.0","0","0","93197","","null","","","null","74","","NaN","","","","","","","","","","","","","",""
"","response","","html-keyboard-response","457","595084","0.0-1.0-671.0-0.0","0","0","93197","","155","","","68","74","","","2","74","training","adjacent","AB","1","2","Q.jpg","N.jpg","0","1","0","",""
"","feedback","","html-keyboard-response","458","596087","0.0-1.0-672.0-0.0","0","0","93197","","null","","","null","74","","","","","","","","","","","","","","","",""
"","time_out","","html-keyboard-response","459","598089","0.0-1.0-674.0-0.0","0","0","93197","","null","","","null","74","","","","","","","","","","","","","","","",""
"","ITI","","html-keyboard-response","460","599091","0.0-1.0-675.0","0","0","93197","","103","","","68","74","","","","","","","","","","","","","","","d",""
"","S1","","html-keyboard-response","461","599345","0.0-1.0-677.0","0","0","93197","","null","","","null","75","","","","","","","","","","","","","","","",""
"","ISI","","html-keyboard-response","462","600347","0.0-1.0-678.0","0","0","93197","","291","","","68","75","d","","","","","","","","","","","","","","",""
"","S2","","html-keyboard-response","463","600406","0.0-1.0-679.0","0","0","93197","","55","","","68","75","","d","2","75","training","adjacent","EF","5","6","R.jpg","O.jpg","0","1","0","",""
"","feedback","","html-keyboard-response","464","601409","0.0-1.0-681.0-0.0","0","0","93197","","null","","","null","75","","","","","","","","","","","","","","","",""
"","time_out","","html-keyboard-response","465","603412","0.0-1.0-683.0-0.0","0","0","93197","","null","","","null","75","","","","","","","","","","","","","","","",""
"","ITI","","html-keyboard-response","466","604415","0.0-1.0-684.0","0","0","93197","","102","","","68","75","","","","","","","","","","","","","","","d",""
"","S1","","html-keyboard-response","467","604668","0.0-1.0-686.0","0","0","93197","","null","","","null","76","","","","","","","","","","","","","","","",""
"","ISI","","html-keyboard-response","468","605671","0.0-1.0-687.0","0","0","93197","","null","","","null","76","NaN","","","","","","","","","","","","","","",""
"","S2","","html-keyboard-response","469","605925","0.0-1.0-688.0","0","0","93197","","null","","","null","76","","NaN","","","","","","","","","","","","","",""
"","response","","html-keyboard-response","470","606394","0.0-1.0-689.0-0.0","0","0","93197","","467","","","75","76","","","2","76","training","adjacent","CD","3","4","M.jpg","P.jpg","1","1","1","",""
"","feedback","","html-keyboard-response","471","607397","0.0-1.0-690.0-0.0","0","0","93197","","null","","","null","76","","","","","","","","","","","","","","","",""
"","ITI","","html-keyboard-response","472","608400","0.0-1.0-693.0","0","0","93197","","null","","","null","76","","","","","","","","","","","","","","","NaN",""
"","S1","","html-keyboard-response","473","608653","0.0-1.0-695.0","0","0","93197","","null","","","null","77","","","","","","","","","","","","","","","",""
"","ISI","","html-keyboard-response","474","609655","0.0-1.0-696.0","0","0","93197","","162","","","75","77","k","","","","","","","","","","","","","","",""
"","S2","","html-keyboard-response","475","609741","0.0-1.0-697.0","0","0","93197","","83","","","75","77","","k","2","77","training","adjacent","BC","2","3","N.jpg","M.jpg","1","1","1","",""
"","feedback","","html-keyboard-response","476","610758","0.0-1.0-699.0-0.0","0","0","93197","","null","","","null","77","","","","","","","","","","","","","","","",""
"","ITI","","html-keyboard-response","477","611761","0.0-1.0-702.0","0","0","93197","","176","","","75","77","","","","","","","","","","","","","","","k",""
"","S1","","html-keyboard-response","478","612014","0.0-1.0-704.0","0","0","93197","","null","","","null","78","","","","","","","","","","","","","","","",""
"","ISI","","html-keyboard-response","479","613016","0.0-1.0-705.0","0","0","93197","","32","","","75","78","k","","","","","","","","","","","","","","",""
"","S2","","html-keyboard-response","480","613243","0.0-1.0-706.0","0","0","93197","","224","","","75","78","","k","2","78","training","adjacent","DC","4","3","P.jpg","M.jpg","1","0","0","",""
"","feedback","","html-keyboard-response","481","614247","0.0-1.0-708.0-0.0","0","0","93197","","null","","","null","78","","","","","","","","","","","","","","","",""
"","time_out","","html-keyboard-response","482","616249","0.0-1.0-710.0-0.0","0","0","93197","","null","","","null","78","","","","","","","","","","","","","","","",""
"","ITI","","html-keyboard-response","483","617252","0.0-1.0-711.0","0","0","93197","","146","","","75","78","","","","","","","","","","","","","","","k",""
"","S1","","html-keyboard-response","484","617506","0.0-1.0-713.0","0","0","93197","","null","","","null","79","","","","","","","","","","","","","","","",""
"","ISI","","html-keyboard-response","485","618508","0.0-1.0-714.0","0","0","93197","","22","","","75","79","k","","","","","","","","","","","","","","",""
"","S2","","html-keyboard-response","486","618761","0.0-1.0-715.0","0","0","93197","","null","","","null","79","","NaN","","","","","","","","","","","","","",""
"","response","","html-keyboard-response","487","618783","0.0-1.0-716.0-0.0","0","0","93197","","19","","","75","79","","","2","79","training","adjacent","CD","3","4","M.jpg","P.jpg","1","1","1","",""
"","feedback","","html-keyboard-response","488","619786","0.0-1.0-717.0-0.0","0","0","93197","","null","","","null","79","","","","","","","","","","","","","","","",""
"","ITI","","html-keyboard-response","489","620788","0.0-1.0-720.0","0","0","93197","","87","","","75","79","","","","","","","","","","","","","","","k",""
"","S1","","html-keyboard-response","490","621041","0.0-1.0-722.0","0","0","93197","","null","","","null","80","","","","","","","","","","","","","","","",""
"","ISI","","html-keyboard-response","491","622044","0.0-1.0-723.0","0","0","93197","","262","","","75","80","k","","","","","","","","","","","","","","",""
"","S2","","html-keyboard-response","492","622196","0.0-1.0-724.0","0","0","93197","","150","","","75","80","","k","2","80","training","adjacent","DE","4","5","P.jpg","R.jpg","1","1","1","",""
"","feedback","","html-keyboard-response","493","623200","0.0-1.0-726.0-0.0","0","0","93197","","null","","","null","80","","","","","","","","","","","","","","","",""
"","ITI","","html-keyboard-response","494","624204","0.0-1.0-729.0","0","0","93197","","346","","","75","80","","","","","","","","","","","","","","","k",""
"","S1","","html-keyboard-response","495","624457","0.0-1.0-731.0","0","0","93197","","null","","","null","81","","","","","","","","","","","","","","","",""
"","ISI","","html-keyboard-response","496","625460","0.0-1.0-732.0","0","0","93197","","28","","","75","81","k","","","","","","","","","","","","","","",""
"","S2","","html-keyboard-response","497","625681","0.0-1.0-733.0","0","0","93197","","218","","","75","81","","k","2","81","training","adjacent","FE","6","5","O.jpg","R.jpg","1","0","0","",""
"","feedback","","html-keyboard-response","498","626686","0.0-1.0-735.0-0.0","0","0","93197","","null","","","null","81","","","","","","","","","","","","","","","",""
"","time_out","","html-keyboard-response","499","628689","0.0-1.0-737.0-0.0","0","0","93197","","null","","","null","81","","","","","","","","","","","","","","","",""
"","ITI","","html-keyboard-response","500","629692","0.0-1.0-738.0","0","0","93197","","137","","","75","81","","","","","","","","","","","","","","","k",""
"","S1","","html-keyboard-response","501","629946","0.0-1.0-740.0","0","0","93197","","null","","","null","82","","","","","","","","","","","","","","","",""
"","ISI","","html-keyboard-response","502","630948","0.0-1.0-741.0","0","0","93197","","364","","","75","82","k","","","","","","","","","","","","","","",""
"","S2","","html-keyboard-response","503","631180","0.0-1.0-742.0","0","0","93197","","228","","","75","82","","k","2","82","training","adjacent","ED","5","4","R.jpg","P.jpg","1","0","0","",""
"","feedback","","html-keyboard-response","504","632183","0.0-1.0-744.0-0.0","0","0","93197","","null","","","null","82","","","","","","","","","","","","","","","",""
"","time_out","","html-keyboard-response","505","634186","0.0-1.0-746.0-0.0","0","0","93197","","null","","","null","82","","","","","","","","","","","","","","","",""
"","ITI","","html-keyboard-response","506","635189","0.0-1.0-747.0","0","0","93197","","null","","","null","82","","","","","","","","","","","","","","","NaN",""
"","S1","","html-keyboard-response","507","635442","0.0-1.0-749.0","0","0","93197","","null","","","null","83","","","","","","","","","","","","","","","",""
"","ISI","","html-keyboard-response","508","636445","0.0-1.0-750.0","0","0","93197","","116","","","75","83","k","","","","","","","","","","","","","","",""
"","S2","","html-keyboard-response","509","636578","0.0-1.0-751.0","0","0","93197","","129","","","75","83","","k","2","83","training","adjacent","ED","5","4","R.jpg","P.jpg","1","0","0","",""
"","feedback","","html-keyboard-response","510","637581","0.0-1.0-753.0-0.0","0","0","93197","","null","","","null","83","","","","","","","","","","","","","","","",""
"","time_out","","html-keyboard-response","511","639584","0.0-1.0-755.0-0.0","0","0","93197","","null","","","null","83","","","","","","","","","","","","","","","",""
"","ITI","","html-keyboard-response","512","640586","0.0-1.0-756.0","0","0","93197","","961","","","75","83","","","","","","","","","","","","","","","k",""
"","S1","","html-keyboard-response","513","640839","0.0-1.0-758.0","0","0","93197","","null","","","null","84","","","","","","","","","","","","","","","",""
"","ISI","","html-keyboard-response","514","641854","0.0-1.0-759.0","0","0","93197","","184","","","75","84","k","","","","","","","","","","","","","","",""
"","S2","","html-keyboard-response","515","642107","0.0-1.0-760.0","0","0","93197","","null","","","null","84","","NaN","","","","","","","","","","","","","",""
"","response","","html-keyboard-response","516","643110","0.0-1.0-761.0-0.0","0","0","93197","","999","","","75","84","","","2","84","training","adjacent","DE","4","5","P.jpg","R.jpg","1","1","1","",""
"","feedback","","html-keyboard-response","517","644123","0.0-1.0-762.0-0.0","0","0","93197","","null","","","null","84","","","","","","","","","","","","","","","",""
"","ITI","","html-keyboard-response","518","645126","0.0-1.0-765.0","0","0","93197","","null","","","null","84","","","","","","","","","","","","","","","NaN",""
"","S1","","html-keyboard-response","519","645379","0.0-1.0-767.0","0","0","93197","","null","","","null","85","","","","","","","","","","","","","","","",""
"","ISI","","html-keyboard-response","520","646382","0.0-1.0-768.0","0","0","93197","","null","","","null","85","NaN","","","","","","","","","","","","","","",""
"","S2","","html-keyboard-response","521","646636","0.0-1.0-769.0","0","0","93197","","null","","","null","85","","NaN","","","","","","","","","","","","","",""
"","response","","html-keyboard-response","522","648025","0.0-1.0-770.0-0.0","0","0","93197","","1386","","","75","85","","","2","85","training","adjacent","AB","1","2","Q.jpg","N.jpg","1","1","1","",""
"","feedback","","html-keyboard-response","523","649028","0.0-1.0-771.0-0.0","0","0","93197","","null","","","null","85","","","","","","","","","","","","","","","",""
"","ITI","","html-keyboard-response","524","650031","0.0-1.0-774.0","0","0","93197","","null","","","null","85","","","","","","","","","","","","","","","NaN",""
"","S1","","html-keyboard-response","525","650285","0.0-1.0-776.0","0","0","93197","","null","","","null","86","","","","","","","","","","","","","","","",""
"","ISI","","html-keyboard-response","526","651288","0.0-1.0-777.0","0","0","93197","","null","","","null","86","NaN","","","","","","","","","","","","","","",""
"","S2","","html-keyboard-response","527","651542","0.0-1.0-778.0","0","0","93197","","null","","","null","86","","NaN","","","","","","","","","","","","","",""
"","response","","html-keyboard-response","528","653295","0.0-1.0-779.0-0.0","0","0","93197","","null","","","null","86","","","2","86","training","adjacent","AB","1","2","Q.jpg","N.jpg","NaN","1","0","",""
"","too_slow_prompt","","html-keyboard-response","529","654298","0.0-1.0-781.0-0.0","1","0","93197","","null","","","null","","","","","","","","","","","","","","","","",""
"","time_out","","html-keyboard-response","530","656312","0.0-1.0-782.0-0.0","0","0","93197","","null","","","null","86","","","","","","","","","","","","","","","",""
"","ITI","","html-keyboard-response","531","657315","0.0-1.0-783.0","0","0","93197","","null","","","null","86","","","","","","","","","","","","","","","NaN",""
"","S1","","html-keyboard-response","532","657568","0.0-1.0-785.0","0","0","93197","","null","","","null","87","","","","","","","","","","","","","","","",""
"","ISI","","html-keyboard-response","533","658570","0.0-1.0-786.0","0","0","93197","","324","","","68","87","d","","","","","","","","","","","","","","",""
"","S2","","html-keyboard-response","534","658824","0.0-1.0-787.0","0","0","93197","","null","","","null","87","","NaN","","","","","","","","","","","","","",""
"","response","","html-keyboard-response","535","660578","0.0-1.0-788.0-0.0","0","0","93197","","null","","","null","87","","","2","87","training","adjacent","FE","6","5","O.jpg","R.jpg","NaN","0","0","",""
"","too_slow_prompt","","html-keyboard-response","536","661581","0.0-1.0-790.0-0.0","1","0","93197","","null","","","null","","","","","","","","","","","","","","","","",""
"","time_out","","html-keyboard-response","537","663584","0.0-1.0-791.0-0.0","0","0","93197","","null","","","null","87","","","","","","","","","","","","","","","",""
"","ITI","","html-keyboard-response","538","664586","0.0-1.0-792.0","0","0","93197","","null","","","null","87","","","","","","","","","","","","","","","NaN",""
"","S1","","html-keyboard-response","539","664839","0.0-1.0-794.0","0","0","93197","","null","","","null","88","","","","","","","","","","","","","","","",""
"","ISI","","html-keyboard-response","540","665842","0.0-1.0-795.0","0","0","93197","","283","","","75","88","k","","","","","","","","","","","","","","",""
"","S2","","html-keyboard-response","541","666096","0.0-1.0-796.0","0","0","93197","","null","","","null","88","","NaN","","","","","","","","","","","","","",""
"","response","","html-keyboard-response","542","666628","0.0-1.0-797.0-0.0","0","0","93197","","530","","","75","88","","","2","88","training","adjacent","GF","7","6","L.jpg","O.jpg","1","0","0","",""
"","feedback","","html-keyboard-response","543","667632","0.0-1.0-798.0-0.0","0","0","93197","","null","","","null","88","","","","","","","","","","","","","","","",""
"","time_out","","html-keyboard-response","544","669635","0.0-1.0-800.0-0.0","0","0","93197","","null","","","null","88","","","","","","","","","","","","","","","",""
"","ITI","","html-keyboard-response","545","670638","0.0-1.0-801.0","0","0","93197","","null","","","null","88","","","","","","","","","","","","","","","NaN",""
"","S1","","html-keyboard-response","546","670891","0.0-1.0-803.0","0","0","93197","","null","","","null","89","","","","","","","","","","","","","","","",""
"","ISI","","html-keyboard-response","547","671894","0.0-1.0-804.0","0","0","93197","","null","","","null","89","NaN","","","","","","","","","","","","","","",""
"","S2","","html-keyboard-response","548","672148","0.0-1.0-805.0","0","0","93197","","null","","","null","89","","NaN","","","","","","","","","","","","","",""
"","response","","html-keyboard-response","549","673900","0.0-1.0-806.0-0.0","0","0","93197","","null","","","null","89","","","2","89","training","adjacent","FE","6","5","O.jpg","R.jpg","NaN","0","0","",""
"","too_slow_prompt","","html-keyboard-response","550","674903","0.0-1.0-808.0-0.0","1","0","93197","","null","","","null","","","","","","","","","","","","","","","","",""
"","time_out","","html-keyboard-response","551","676906","0.0-1.0-809.0-0.0","0","0","93197","","null","","","null","89","","","","","","","","","","","","","","","",""
"","ITI","","html-keyboard-response","552","677910","0.0-1.0-810.0","0","0","93197","","178","","","68","89","","","","","","","","","","","","","","","d",""
"","S1","","html-keyboard-response","553","678162","0.0-1.0-812.0","0","0","93197","","null","","","null","90","","","","","","","","","","","","","","","",""
"","ISI","","html-keyboard-response","554","679165","0.0-1.0-813.0","0","0","93197","","80","","","68","90","d","","","","","","","","","","","","","","",""
"","S2","","html-keyboard-response","555","679194","0.0-1.0-814.0","0","0","93197","","26","","","68","90","","d","2","90","training","adjacent","ED","5","4","R.jpg","P.jpg","0","0","1","",""
"","feedback","","html-keyboard-response","556","680198","0.0-1.0-816.0-0.0","0","0","93197","","null","","","null","90","","","","","","","","","","","","","","","",""
"","ITI","","html-keyboard-response","557","681202","0.0-1.0-819.0","0","0","93197","","48","","","75","90","","","","","","","","","","","","","","","k",""
"","S1","","html-keyboard-response","558","681455","0.0-1.0-821.0","0","0","93197","","null","","","null","91","","","","","","","","","","","","","","","",""
"","ISI","","html-keyboard-response","559","682457","0.0-1.0-822.0","0","0","93197","","190","","","75","91","k","","","","","","","","","","","","","","",""
"","S2","","html-keyboard-response","560","682565","0.0-1.0-823.0","0","0","93197","","104","","","75","91","","k","2","91","training","adjacent","DC","4","3","P.jpg","M.jpg","1","0","0","",""
"","feedback","","html-keyboard-response","561","683568","0.0-1.0-825.0-0.0","0","0","93197","","null","","","null","91","","","","","","","","","","","","","","","",""
"","time_out","","html-keyboard-response","562","685571","0.0-1.0-827.0-0.0","0","0","93197","","null","","","null","91","","","","","","","","","","","","","","","",""
"","ITI","","html-keyboard-response","563","686574","0.0-1.0-828.0","0","0","93197","","402","","","75","91","","","","","","","","","","","","","","","k",""
"","S1","","html-keyboard-response","564","686827","0.0-1.0-830.0","0","0","93197","","null","","","null","92","","","","","","","","","","","","","","","",""
"","ISI","","html-keyboard-response","565","687829","0.0-1.0-831.0","0","0","93197","","391","","","75","92","k","","","","","","","","","","","","","","",""
"","S2","","html-keyboard-response","566","688017","0.0-1.0-832.0","0","0","93197","","184","","","75","92","","k","2","92","training","adjacent","BC","2","3","N.jpg","M.jpg","1","1","1","",""
"","feedback","","html-keyboard-response","567","689020","0.0-1.0-834.0-0.0","0","0","93197","","null","","","null","92","","","","","","","","","","","","","","","",""
"","ITI","","html-keyboard-response","568","690023","0.0-1.0-837.0","0","0","93197","","756","","","75","92","","","","","","","","","","","","","","","k",""
"","S1","","html-keyboard-response","569","690277","0.0-1.0-839.0","0","0","93197","","null","","","null","93","","","","","","","","","","","","","","","",""
"","ISI","","html-keyboard-response","570","691280","0.0-1.0-840.0","0","0","93197","","265","","","75","93","k","","","","","","","","","","","","","","",""
"","S2","","html-keyboard-response","571","691347","0.0-1.0-841.0","0","0","93197","","64","","","75","93","","k","2","93","training","adjacent","FG","6","7","O.jpg","L.jpg","1","1","1","",""
"","feedback","","html-keyboard-response","572","692351","0.0-1.0-843.0-0.0","0","0","93197","","null","","","null","93","","","","","","","","","","","","","","","",""
"","ITI","","html-keyboard-response","573","693354","0.0-1.0-846.0","0","0","93197","","23","","","75","93","","","","","","","","","","","","","","","k",""
"","S1","","html-keyboard-response","574","693607","0.0-1.0-848.0","0","0","93197","","null","","","null","94","","","","","","","","","","","","","","","",""
"","ISI","","html-keyboard-response","575","694609","0.0-1.0-849.0","0","0","93197","","195","","","75","94","k","","","","","","","","","","","","","","",""
"","S2","","html-keyboard-response","576","694800","0.0-1.0-850.0","0","0","93197","","189","","","75","94","","k","2","94","training","adjacent","BC","2","3","N.jpg","M.jpg","1","1","1","",""
"","feedback","","html-keyboard-response","577","695804","0.0-1.0-852.0-0.0","0","0","93197","","null","","","null","94","","","","","","","","","","","","","","","",""
"","ITI","","html-keyboard-response","578","696807","0.0-1.0-855.0","0","0","93197","","650","","","75","94","","","","","","","","","","","","","","","k",""
"","S1","","html-keyboard-response","579","697060","0.0-1.0-857.0","0","0","93197","","null","","","null","95","","","","","","","","","","","","","","","",""
"","ISI","","html-keyboard-response","580","698062","0.0-1.0-858.0","0","0","93197","","93","","","75","95","k","","","","","","","","","","","","","","",""
"","S2","","html-keyboard-response","581","698100","0.0-1.0-859.0","0","0","93197","","34","","","75","95","","k","2","95","training","adjacent","AB","1","2","Q.jpg","N.jpg","1","1","1","",""
"","feedback","","html-keyboard-response","582","699102","0.0-1.0-861.0-0.0","0","0","93197","","null","","","null","95","","","","","","","","","","","","","","","",""
"","ITI","","html-keyboard-response","583","700108","0.0-1.0-864.0","0","0","93197","","621","","","75","95","","","","","","","","","","","","","","","k",""
"","block_over","","html-keyboard-response","584","708620","0.0-1.0-865.0-0.0","0","0","93197","","8508","","","32","95","","","","","","","","","","","","","","","",""
"","S1","","html-keyboard-response","585","708873","0.0-1.0-866.0","0","0","93197","","null","","","null","96","","","","","","","","","","","","","","","",""
