"success","ttype","start_time","trial_type","trial_index","time_elapsed","internal_node_id","warning","missed_checkup","PID","view_history","rt","responses","repeat_instructions","key_press","index","keypress_isi","keypress_S2","block","trial_num","phase","group_type","pair_type","S1_stim","S2_stim","S1_img","S2_img","S1_chosen","S1_higher","accuracy","keypress_iti","total_bonus_tally"
"true","full_screen","d03032023hr2026","fullscreen","0","83653","0.0-0.0","0","0","15919","","","","","","","","","","","","","","","","","","","","","",""
"","instructions","","instructions","1","113515","0.0-1.0-0.0-0.0","0","0","15919","[{""page_index"":0,""viewing_time"":3729},{""page_index"":1,""viewing_time"":18307},{""page_index"":2,""viewing_time"":6226},{""page_index"":3,""viewing_time"":1599}]","29862","","","","","","","","","","","","","","","","","","","",""
"","comprehension_check","","survey-multi-choice","2","141926","0.0-1.0-0.0-1.0","0","0","15919","","28406","{""Q0"":""True"",""Q1"":""K"",""Q2"":""Once the second image appears and while the screen 'MAKE A CHOICE' is shown"",""Q3"":""Green mark"",""Q4"":""either D or K""}","0","","","","","","","","","","","","","","","","","",""
"","start_exp","","html-keyboard-response","3","143352","0.0-1.0-1.0","0","0","15919","","1424","","","32","","","","","","","","","","","","","","","","",""
"","S1","","html-keyboard-response","4","143613","0.0-1.0-2.0","0","0","15919","","null","","","null","0","","","","","","","","","","","","","","","",""
"","ISI","","html-keyboard-response","5","144124","0.0-1.0-3.0","0","0","15919","","null","","","null","0","NaN","","","","","","","","","","","","","","",""
"","S2","","html-keyboard-response","6","144376","0.0-1.0-4.0","0","0","15919","","null","","","null","0","","NaN","","","","","","","","","","","","","",""
"","response","","html-keyboard-response","7","144935","0.0-1.0-5.0-0.0","0","0","15919","","558","","","75","0","","","1","0","training","adjacent","CB","3","2","R.jpg","N.jpg","1","0","0","",""
"","feedback","","html-keyboard-response","8","145940","0.0-1.0-6.0-0.0","0","0","15919","","null","","","null","0","","","","","","","","","","","","","","","",""
"","time_out","","html-keyboard-response","9","147945","0.0-1.0-8.0-0.0","0","0","15919","","null","","","null","0","","","","","","","","","","","","","","","",""
"","ITI","","html-keyboard-response","10","148953","0.0-1.0-9.0","0","0","15919","","null","","","null","0","","","","","","","","","","","","","","","NaN",""
"","S1","","html-keyboard-response","11","149208","0.0-1.0-11.0","0","0","15919","","null","","","null","1","","","","","","","","","","","","","","","",""
"","ISI","","html-keyboard-response","12","149714","0.0-1.0-12.0","0","0","15919","","null","","","null","1","NaN","","","","","","","","","","","","","","",""
"","S2","","html-keyboard-response","13","149969","0.0-1.0-13.0","0","0","15919","","null","","","null","1","","NaN","","","","","","","","","","","","","",""
"","response","","html-keyboard-response","14","150487","0.0-1.0-14.0-0.0","0","0","15919","","517","","","68","1","","","1","1","training","adjacent","FE","6","5","P.jpg","M.jpg","0","0","1","",""
"","feedback","","html-keyboard-response","15","151497","0.0-1.0-15.0-0.0","0","0","15919","","null","","","null","1","","","","","","","","","","","","","","","",""
"","ITI","","html-keyboard-response","16","152505","0.0-1.0-18.0","0","0","15919","","null","","","null","1","","","","","","","","","","","","","","","NaN",""
"","S1","","html-keyboard-response","17","152761","0.0-1.0-20.0","0","0","15919","","null","","","null","2","","","","","","","","","","","","","","","",""
"","ISI","","html-keyboard-response","18","153266","0.0-1.0-21.0","0","0","15919","","null","","","null","2","NaN","","","","","","","","","","","","","","",""
"","S2","","html-keyboard-response","19","153521","0.0-1.0-22.0","0","0","15919","","null","","","null","2","","NaN","","","","","","","","","","","","","",""
"","response","","html-keyboard-response","20","153927","0.0-1.0-23.0-0.0","0","0","15919","","405","","","68","2","","","1","2","training","adjacent","CB","3","2","R.jpg","N.jpg","0","0","1","",""
"","feedback","","html-keyboard-response","21","154931","0.0-1.0-24.0-0.0","0","0","15919","","null","","","null","2","","","","","","","","","","","","","","","",""
"","ITI","","html-keyboard-response","22","155937","0.0-1.0-27.0","0","0","15919","","null","","","null","2","","","","","","","","","","","","","","","NaN",""
"","S1","","html-keyboard-response","23","156193","0.0-1.0-29.0","0","0","15919","","null","","","null","3","","","","","","","","","","","","","","","",""
"","ISI","","html-keyboard-response","24","156700","0.0-1.0-30.0","0","0","15919","","null","","","null","3","NaN","","","","","","","","","","","","","","",""
"","S2","","html-keyboard-response","25","156952","0.0-1.0-31.0","0","0","15919","","null","","","null","3","","NaN","","","","","","","","","","","","","",""
"","response","","html-keyboard-response","26","157319","0.0-1.0-32.0-0.0","0","0","15919","","365","","","75","3","","","1","3","training","adjacent","ED","5","4","M.jpg","O.jpg","1","0","0","",""
"","feedback","","html-keyboard-response","27","158322","0.0-1.0-33.0-0.0","0","0","15919","","null","","","null","3","","","","","","","","","","","","","","","",""
"","time_out","","html-keyboard-response","28","160331","0.0-1.0-35.0-0.0","0","0","15919","","null","","","null","3","","","","","","","","","","","","","","","",""
"","ITI","","html-keyboard-response","29","161340","0.0-1.0-36.0","0","0","15919","","null","","","null","3","","","","","","","","","","","","","","","NaN",""
"","S1","","html-keyboard-response","30","161596","0.0-1.0-38.0","0","0","15919","","null","","","null","4","","","","","","","","","","","","","","","",""
"","ISI","","html-keyboard-response","31","162107","0.0-1.0-39.0","0","0","15919","","null","","","null","4","NaN","","","","","","","","","","","","","","",""
"","S2","","html-keyboard-response","32","162362","0.0-1.0-40.0","0","0","15919","","null","","","null","4","","NaN","","","","","","","","","","","","","",""
"","response","","html-keyboard-response","33","162686","0.0-1.0-41.0-0.0","0","0","15919","","323","","","68","4","","","1","4","training","adjacent","CD","3","4","R.jpg","O.jpg","0","1","0","",""
"","feedback","","html-keyboard-response","34","163691","0.0-1.0-42.0-0.0","0","0","15919","","null","","","null","4","","","","","","","","","","","","","","","",""
"","time_out","","html-keyboard-response","35","165700","0.0-1.0-44.0-0.0","0","0","15919","","null","","","null","4","","","","","","","","","","","","","","","",""
"","ITI","","html-keyboard-response","36","166704","0.0-1.0-45.0","0","0","15919","","null","","","null","4","","","","","","","","","","","","","","","NaN",""
"","S1","","html-keyboard-response","37","166960","0.0-1.0-47.0","0","0","15919","","null","","","null","5","","","","","","","","","","","","","","","",""
"","ISI","","html-keyboard-response","38","167464","0.0-1.0-48.0","0","0","15919","","null","","","null","5","NaN","","","","","","","","","","","","","","",""
"","S2","","html-keyboard-response","39","167720","0.0-1.0-49.0","0","0","15919","","null","","","null","5","","NaN","","","","","","","","","","","","","",""
"","response","","html-keyboard-response","40","168231","0.0-1.0-50.0-0.0","0","0","15919","","510","","","68","5","","","1","5","training","adjacent","FG","6","7","P.jpg","Q.jpg","0","1","0","",""
"","feedback","","html-keyboard-response","41","169241","0.0-1.0-51.0-0.0","0","0","15919","","null","","","null","5","","","","","","","","","","","","","","","",""
"","time_out","","html-keyboard-response","42","171249","0.0-1.0-53.0-0.0","0","0","15919","","null","","","null","5","","","","","","","","","","","","","","","",""
"","ITI","","html-keyboard-response","43","172259","0.0-1.0-54.0","0","0","15919","","null","","","null","5","","","","","","","","","","","","","","","NaN",""
"","S1","","html-keyboard-response","44","172515","0.0-1.0-56.0","0","0","15919","","null","","","null","6","","","","","","","","","","","","","","","",""
"","ISI","","html-keyboard-response","45","173026","0.0-1.0-57.0","0","0","15919","","null","","","null","6","NaN","","","","","","","","","","","","","","",""
"","S2","","html-keyboard-response","46","173280","0.0-1.0-58.0","0","0","15919","","null","","","null","6","","NaN","","","","","","","","","","","","","",""
"","response","","html-keyboard-response","47","173761","0.0-1.0-59.0-0.0","0","0","15919","","480","","","75","6","","","1","6","training","adjacent","CD","3","4","R.jpg","O.jpg","1","1","1","",""
"","feedback","","html-keyboard-response","48","174769","0.0-1.0-60.0-0.0","0","0","15919","","null","","","null","6","","","","","","","","","","","","","","","",""
"","ITI","","html-keyboard-response","49","175777","0.0-1.0-63.0","0","0","15919","","null","","","null","6","","","","","","","","","","","","","","","NaN",""
"","S1","","html-keyboard-response","50","176033","0.0-1.0-65.0","0","0","15919","","null","","","null","7","","","","","","","","","","","","","","","",""
"","ISI","","html-keyboard-response","51","176537","0.0-1.0-66.0","0","0","15919","","null","","","null","7","NaN","","","","","","","","","","","","","","",""
"","S2","","html-keyboard-response","52","176793","0.0-1.0-67.0","0","0","15919","","null","","","null","7","","NaN","","","","","","","","","","","","","",""
"","response","","html-keyboard-response","53","177262","0.0-1.0-68.0-0.0","0","0","15919","","468","","","68","7","","","1","7","training","adjacent","BC","2","3","N.jpg","R.jpg","0","1","0","",""
"","feedback","","html-keyboard-response","54","178275","0.0-1.0-69.0-0.0","0","0","15919","","null","","","null","7","","","","","","","","","","","","","","","",""
"","time_out","","html-keyboard-response","55","180280","0.0-1.0-71.0-0.0","0","0","15919","","null","","","null","7","","","","","","","","","","","","","","","",""
"","ITI","","html-keyboard-response","56","181287","0.0-1.0-72.0","0","0","15919","","null","","","null","7","","","","","","","","","","","","","","","NaN",""
"","S1","","html-keyboard-response","57","181547","0.0-1.0-74.0","0","0","15919","","null","","","null","8","","","","","","","","","","","","","","","",""
"","ISI","","html-keyboard-response","58","182058","0.0-1.0-75.0","0","0","15919","","null","","","null","8","NaN","","","","","","","","","","","","","","",""
"","S2","","html-keyboard-response","59","182312","0.0-1.0-76.0","0","0","15919","","null","","","null","8","","NaN","","","","","","","","","","","","","",""
"","response","","html-keyboard-response","60","182342","0.0-1.0-77.0-0.0","0","0","15919","","28","","","75","8","","","1","8","training","adjacent","EF","5","6","M.jpg","P.jpg","1","1","1","",""
"","feedback","","html-keyboard-response","61","183346","0.0-1.0-78.0-0.0","0","0","15919","","null","","","null","8","","","","","","","","","","","","","","","",""
"","ITI","","html-keyboard-response","62","184352","0.0-1.0-81.0","0","0","15919","","null","","","null","8","","","","","","","","","","","","","","","NaN",""
"","S1","","html-keyboard-response","63","184612","0.0-1.0-83.0","0","0","15919","","null","","","null","9","","","","","","","","","","","","","","","",""
"","ISI","","html-keyboard-response","64","185123","0.0-1.0-84.0","0","0","15919","","null","","","null","9","NaN","","","","","","","","","","","","","","",""
"","S2","","html-keyboard-response","65","185378","0.0-1.0-85.0","0","0","15919","","null","","","null","9","","NaN","","","","","","","","","","","","","",""
"","response","","html-keyboard-response","66","185672","0.0-1.0-86.0-0.0","0","0","15919","","293","","","75","9","","","1","9","training","adjacent","FE","6","5","P.jpg","M.jpg","1","0","0","",""
"","feedback","","html-keyboard-response","67","186681","0.0-1.0-87.0-0.0","0","0","15919","","null","","","null","9","","","","","","","","","","","","","","","",""
"","time_out","","html-keyboard-response","68","188696","0.0-1.0-89.0-0.0","0","0","15919","","null","","","null","9","","","","","","","","","","","","","","","",""
"","ITI","","html-keyboard-response","69","189705","0.0-1.0-90.0","0","0","15919","","null","","","null","9","","","","","","","","","","","","","","","NaN",""
"","S1","","html-keyboard-response","70","189961","0.0-1.0-92.0","0","0","15919","","null","","","null","10","","","","","","","","","","","","","","","",""
"","ISI","","html-keyboard-response","71","190466","0.0-1.0-93.0","0","0","15919","","null","","","null","10","NaN","","","","","","","","","","","","","","",""
"","S2","","html-keyboard-response","72","190719","0.0-1.0-94.0","0","0","15919","","null","","","null","10","","NaN","","","","","","","","","","","","","",""
"","response","","html-keyboard-response","73","191062","0.0-1.0-95.0-0.0","0","0","15919","","342","","","68","10","","","1","10","training","adjacent","BA","2","1","N.jpg","L.jpg","0","0","1","",""
"","feedback","","html-keyboard-response","74","192072","0.0-1.0-96.0-0.0","0","0","15919","","null","","","null","10","","","","","","","","","","","","","","","",""
"","ITI","","html-keyboard-response","75","193082","0.0-1.0-99.0","0","0","15919","","null","","","null","10","","","","","","","","","","","","","","","NaN",""
"","S1","","html-keyboard-response","76","193336","0.0-1.0-101.0","0","0","15919","","null","","","null","11","","","","","","","","","","","","","","","",""
"","ISI","","html-keyboard-response","77","193841","0.0-1.0-102.0","0","0","15919","","null","","","null","11","NaN","","","","","","","","","","","","","","",""
"","S2","","html-keyboard-response","78","194097","0.0-1.0-103.0","0","0","15919","","null","","","null","11","","NaN","","","","","","","","","","","","","",""
"","response","","html-keyboard-response","79","194487","0.0-1.0-104.0-0.0","0","0","15919","","389","","","68","11","","","1","11","training","adjacent","BA","2","1","N.jpg","L.jpg","0","0","1","",""
"","feedback","","html-keyboard-response","80","195496","0.0-1.0-105.0-0.0","0","0","15919","","null","","","null","11","","","","","","","","","","","","","","","",""
"","ITI","","html-keyboard-response","81","196506","0.0-1.0-108.0","0","0","15919","","null","","","null","11","","","","","","","","","","","","","","","NaN",""
"","S1","","html-keyboard-response","82","196761","0.0-1.0-110.0","0","0","15919","","null","","","null","12","","","","","","","","","","","","","","","",""
"","ISI","","html-keyboard-response","83","197266","0.0-1.0-111.0","0","0","15919","","null","","","null","12","NaN","","","","","","","","","","","","","","",""
"","S2","","html-keyboard-response","84","197522","0.0-1.0-112.0","0","0","15919","","null","","","null","12","","NaN","","","","","","","","","","","","","",""
"","response","","html-keyboard-response","85","197861","0.0-1.0-113.0-0.0","0","0","15919","","339","","","68","12","","","1","12","training","adjacent","DE","4","5","O.jpg","M.jpg","0","1","0","",""
"","feedback","","html-keyboard-response","86","198872","0.0-1.0-114.0-0.0","0","0","15919","","null","","","null","12","","","","","","","","","","","","","","","",""
"","time_out","","html-keyboard-response","87","200884","0.0-1.0-116.0-0.0","0","0","15919","","null","","","null","12","","","","","","","","","","","","","","","",""
"","ITI","","html-keyboard-response","88","201887","0.0-1.0-117.0","0","0","15919","","null","","","null","12","","","","","","","","","","","","","","","NaN",""
"","S1","","html-keyboard-response","89","202143","0.0-1.0-119.0","0","0","15919","","null","","","null","13","","","","","","","","","","","","","","","",""
"","ISI","","html-keyboard-response","90","202647","0.0-1.0-120.0","0","0","15919","","null","","","null","13","NaN","","","","","","","","","","","","","","",""
"","S2","","html-keyboard-response","91","202903","0.0-1.0-121.0","0","0","15919","","null","","","null","13","","NaN","","","","","","","","","","","","","",""
"","response","","html-keyboard-response","92","203237","0.0-1.0-122.0-0.0","0","0","15919","","333","","","75","13","","","1","13","training","adjacent","BA","2","1","N.jpg","L.jpg","1","0","0","",""
"","feedback","","html-keyboard-response","93","204239","0.0-1.0-123.0-0.0","0","0","15919","","null","","","null","13","","","","","","","","","","","","","","","",""
"","time_out","","html-keyboard-response","94","206246","0.0-1.0-125.0-0.0","0","0","15919","","null","","","null","13","","","","","","","","","","","","","","","",""
"","ITI","","html-keyboard-response","95","207256","0.0-1.0-126.0","0","0","15919","","null","","","null","13","","","","","","","","","","","","","","","NaN",""
"","S1","","html-keyboard-response","96","207512","0.0-1.0-128.0","0","0","15919","","null","","","null","14","","","","","","","","","","","","","","","",""
"","ISI","","html-keyboard-response","97","208019","0.0-1.0-129.0","0","0","15919","","null","","","null","14","NaN","","","","","","","","","","","","","","",""
"","S2","","html-keyboard-response","98","208280","0.0-1.0-130.0","0","0","15919","","null","","","null","14","","NaN","","","","","","","","","","","","","",""
"","response","","html-keyboard-response","99","208693","0.0-1.0-131.0-0.0","0","0","15919","","412","","","68","14","","","1","14","training","adjacent","EF","5","6","M.jpg","P.jpg","0","1","0","",""
"","feedback","","html-keyboard-response","100","209706","0.0-1.0-132.0-0.0","0","0","15919","","null","","","null","14","","","","","","","","","","","","","","","",""
"","time_out","","html-keyboard-response","101","211714","0.0-1.0-134.0-0.0","0","0","15919","","null","","","null","14","","","","","","","","","","","","","","","",""
"","ITI","","html-keyboard-response","102","212718","0.0-1.0-135.0","0","0","15919","","null","","","null","14","","","","","","","","","","","","","","","NaN",""
"","S1","","html-keyboard-response","103","212975","0.0-1.0-137.0","0","0","15919","","null","","","null","15","","","","","","","","","","","","","","","",""
"","ISI","","html-keyboard-response","104","213481","0.0-1.0-138.0","0","0","15919","","null","","","null","15","NaN","","","","","","","","","","","","","","",""
"","S2","","html-keyboard-response","105","213735","0.0-1.0-139.0","0","0","15919","","null","","","null","15","","NaN","","","","","","","","","","","","","",""
"","response","","html-keyboard-response","106","214301","0.0-1.0-140.0-0.0","0","0","15919","","565","","","75","15","","","1","15","training","adjacent","DE","4","5","O.jpg","M.jpg","1","1","1","",""
"","feedback","","html-keyboard-response","107","215313","0.0-1.0-141.0-0.0","0","0","15919","","null","","","null","15","","","","","","","","","","","","","","","",""
"","ITI","","html-keyboard-response","108","216319","0.0-1.0-144.0","0","0","15919","","null","","","null","15","","","","","","","","","","","","","","","NaN",""
"","S1","","html-keyboard-response","109","216579","0.0-1.0-146.0","0","0","15919","","null","","","null","16","","","","","","","","","","","","","","","",""
"","ISI","","html-keyboard-response","110","217089","0.0-1.0-147.0","0","0","15919","","null","","","null","16","NaN","","","","","","","","","","","","","","",""
"","S2","","html-keyboard-response","111","217345","0.0-1.0-148.0","0","0","15919","","null","","","null","16","","NaN","","","","","","","","","","","","","",""
"","response","","html-keyboard-response","112","217741","0.0-1.0-149.0-0.0","0","0","15919","","395","","","75","16","","","1","16","training","adjacent","ED","5","4","M.jpg","O.jpg","1","0","0","",""
"","feedback","","html-keyboard-response","113","218750","0.0-1.0-150.0-0.0","0","0","15919","","null","","","null","16","","","","","","","","","","","","","","","",""
"","time_out","","html-keyboard-response","114","220760","0.0-1.0-152.0-0.0","0","0","15919","","null","","","null","16","","","","","","","","","","","","","","","",""
"","ITI","","html-keyboard-response","115","221769","0.0-1.0-153.0","0","0","15919","","null","","","null","16","","","","","","","","","","","","","","","NaN",""
"","S1","","html-keyboard-response","116","222023","0.0-1.0-155.0","0","0","15919","","null","","","null","17","","","","","","","","","","","","","","","",""
"","ISI","","html-keyboard-response","117","222532","0.0-1.0-156.0","0","0","15919","","null","","","null","17","NaN","","","","","","","","","","","","","","",""
"","S2","","html-keyboard-response","118","222790","0.0-1.0-157.0","0","0","15919","","null","","","null","17","","NaN","","","","","","","","","","","","","",""
"","response","","html-keyboard-response","119","223341","0.0-1.0-158.0-0.0","0","0","15919","","550","","","68","17","","","1","17","training","adjacent","CD","3","4","R.jpg","O.jpg","0","1","0","",""
"","feedback","","html-keyboard-response","120","224343","0.0-1.0-159.0-0.0","0","0","15919","","null","","","null","17","","","","","","","","","","","","","","","",""
"","time_out","","html-keyboard-response","121","226354","0.0-1.0-161.0-0.0","0","0","15919","","null","","","null","17","","","","","","","","","","","","","","","",""
"","ITI","","html-keyboard-response","122","227358","0.0-1.0-162.0","0","0","15919","","null","","","null","17","","","","","","","","","","","","","","","NaN",""
"","S1","","html-keyboard-response","123","227614","0.0-1.0-164.0","0","0","15919","","null","","","null","18","","","","","","","","","","","","","","","",""
"","ISI","","html-keyboard-response","124","228118","0.0-1.0-165.0","0","0","15919","","null","","","null","18","NaN","","","","","","","","","","","","","","",""
"","S2","","html-keyboard-response","125","228374","0.0-1.0-166.0","0","0","15919","","null","","","null","18","","NaN","","","","","","","","","","","","","",""
"","response","","html-keyboard-response","126","228820","0.0-1.0-167.0-0.0","0","0","15919","","445","","","75","18","","","1","18","training","adjacent","ED","5","4","M.jpg","O.jpg","1","0","0","",""
"","feedback","","html-keyboard-response","127","229825","0.0-1.0-168.0-0.0","0","0","15919","","null","","","null","18","","","","","","","","","","","","","","","",""
"","time_out","","html-keyboard-response","128","231834","0.0-1.0-170.0-0.0","0","0","15919","","null","","","null","18","","","","","","","","","","","","","","","",""
"","ITI","","html-keyboard-response","129","232838","0.0-1.0-171.0","0","0","15919","","null","","","null","18","","","","","","","","","","","","","","","NaN",""
"","S1","","html-keyboard-response","130","233093","0.0-1.0-173.0","0","0","15919","","null","","","null","19","","","","","","","","","","","","","","","",""
"","ISI","","html-keyboard-response","131","233601","0.0-1.0-174.0","0","0","15919","","null","","","null","19","NaN","","","","","","","","","","","","","","",""
"","S2","","html-keyboard-response","132","233854","0.0-1.0-175.0","0","0","15919","","null","","","null","19","","NaN","","","","","","","","","","","","","",""
"","response","","html-keyboard-response","133","234236","0.0-1.0-176.0-0.0","0","0","15919","","381","","","68","19","","","1","19","training","adjacent","DE","4","5","O.jpg","M.jpg","0","1","0","",""
"","feedback","","html-keyboard-response","134","235246","0.0-1.0-177.0-0.0","0","0","15919","","null","","","null","19","","","","","","","","","","","","","","","",""
"","time_out","","html-keyboard-response","135","237255","0.0-1.0-179.0-0.0","0","0","15919","","null","","","null","19","","","","","","","","","","","","","","","",""
"","ITI","","html-keyboard-response","136","238266","0.0-1.0-180.0","0","0","15919","","null","","","null","19","","","","","","","","","","","","","","","NaN",""
"","S1","","html-keyboard-response","137","238530","0.0-1.0-182.0","0","0","15919","","null","","","null","20","","","","","","","","","","","","","","","",""
"","ISI","","html-keyboard-response","138","239038","0.0-1.0-183.0","0","0","15919","","null","","","null","20","NaN","","","","","","","","","","","","","","",""
"","S2","","html-keyboard-response","139","239298","0.0-1.0-184.0","0","0","15919","","null","","","null","20","","NaN","","","","","","","","","","","","","",""
"","response","","html-keyboard-response","140","239710","0.0-1.0-185.0-0.0","0","0","15919","","411","","","75","20","","","1","20","training","adjacent","GF","7","6","Q.jpg","P.jpg","1","0","0","",""
"","feedback","","html-keyboard-response","141","240723","0.0-1.0-186.0-0.0","0","0","15919","","null","","","null","20","","","","","","","","","","","","","","","",""
"","time_out","","html-keyboard-response","142","242729","0.0-1.0-188.0-0.0","0","0","15919","","null","","","null","20","","","","","","","","","","","","","","","",""
"","ITI","","html-keyboard-response","143","243733","0.0-1.0-189.0","0","0","15919","","null","","","null","20","","","","","","","","","","","","","","","NaN",""
"","S1","","html-keyboard-response","144","243990","0.0-1.0-191.0","0","0","15919","","null","","","null","21","","","","","","","","","","","","","","","",""
"","ISI","","html-keyboard-response","145","244494","0.0-1.0-192.0","0","0","15919","","null","","","null","21","NaN","","","","","","","","","","","","","","",""
"","S2","","html-keyboard-response","146","244749","0.0-1.0-193.0","0","0","15919","","null","","","null","21","","NaN","","","","","","","","","","","","","",""
"","response","","html-keyboard-response","147","245091","0.0-1.0-194.0-0.0","0","0","15919","","341","","","75","21","","","1","21","training","adjacent","DC","4","3","O.jpg","R.jpg","1","0","0","",""
"","feedback","","html-keyboard-response","148","246095","0.0-1.0-195.0-0.0","0","0","15919","","null","","","null","21","","","","","","","","","","","","","","","",""
"","time_out","","html-keyboard-response","149","248104","0.0-1.0-197.0-0.0","0","0","15919","","null","","","null","21","","","","","","","","","","","","","","","",""
"","ITI","","html-keyboard-response","150","249109","0.0-1.0-198.0","0","0","15919","","null","","","null","21","","","","","","","","","","","","","","","NaN",""
"","S1","","html-keyboard-response","151","249365","0.0-1.0-200.0","0","0","15919","","null","","","null","22","","","","","","","","","","","","","","","",""
"","ISI","","html-keyboard-response","152","249869","0.0-1.0-201.0","0","0","15919","","null","","","null","22","NaN","","","","","","","","","","","","","","",""
"","S2","","html-keyboard-response","153","250125","0.0-1.0-202.0","0","0","15919","","null","","","null","22","","NaN","","","","","","","","","","","","","",""
"","response","","html-keyboard-response","154","250668","0.0-1.0-203.0-0.0","0","0","15919","","542","","","68","22","","","1","22","training","adjacent","AB","1","2","L.jpg","N.jpg","0","1","0","",""
"","feedback","","html-keyboard-response","155","251670","0.0-1.0-204.0-0.0","0","0","15919","","null","","","null","22","","","","","","","","","","","","","","","",""
"","time_out","","html-keyboard-response","156","253678","0.0-1.0-206.0-0.0","0","0","15919","","null","","","null","22","","","","","","","","","","","","","","","",""
"","ITI","","html-keyboard-response","157","254688","0.0-1.0-207.0","0","0","15919","","null","","","null","22","","","","","","","","","","","","","","","NaN",""
"","S1","","html-keyboard-response","158","254941","0.0-1.0-209.0","0","0","15919","","null","","","null","23","","","","","","","","","","","","","","","",""
"","ISI","","html-keyboard-response","159","255447","0.0-1.0-210.0","0","0","15919","","null","","","null","23","NaN","","","","","","","","","","","","","","",""
"","S2","","html-keyboard-response","160","255701","0.0-1.0-211.0","0","0","15919","","null","","","null","23","","NaN","","","","","","","","","","","","","",""
"","response","","html-keyboard-response","161","256083","0.0-1.0-212.0-0.0","0","0","15919","","380","","","68","23","","","1","23","training","adjacent","GF","7","6","Q.jpg","P.jpg","0","0","1","",""
"","feedback","","html-keyboard-response","162","257086","0.0-1.0-213.0-0.0","0","0","15919","","null","","","null","23","","","","","","","","","","","","","","","",""
"","ITI","","html-keyboard-response","163","258094","0.0-1.0-216.0","0","0","15919","","null","","","null","23","","","","","","","","","","","","","","","NaN",""
"","S1","","html-keyboard-response","164","258349","0.0-1.0-218.0","0","0","15919","","null","","","null","24","","","","","","","","","","","","","","","",""
"","ISI","","html-keyboard-response","165","258854","0.0-1.0-219.0","0","0","15919","","null","","","null","24","NaN","","","","","","","","","","","","","","",""
"","S2","","html-keyboard-response","166","259110","0.0-1.0-220.0","0","0","15919","","null","","","null","24","","NaN","","","","","","","","","","","","","",""
"","response","","html-keyboard-response","167","259443","0.0-1.0-221.0-0.0","0","0","15919","","331","","","75","24","","","1","24","training","adjacent","GF","7","6","Q.jpg","P.jpg","1","0","0","",""
"","feedback","","html-keyboard-response","168","260447","0.0-1.0-222.0-0.0","0","0","15919","","null","","","null","24","","","","","","","","","","","","","","","",""
"","time_out","","html-keyboard-response","169","262454","0.0-1.0-224.0-0.0","0","0","15919","","null","","","null","24","","","","","","","","","","","","","","","",""
"","ITI","","html-keyboard-response","170","263464","0.0-1.0-225.0","0","0","15919","","null","","","null","24","","","","","","","","","","","","","","","NaN",""
"","S1","","html-keyboard-response","171","263719","0.0-1.0-227.0","0","0","15919","","null","","","null","25","","","","","","","","","","","","","","","",""
"","ISI","","html-keyboard-response","172","264230","0.0-1.0-228.0","0","0","15919","","null","","","null","25","NaN","","","","","","","","","","","","","","",""
"","S2","","html-keyboard-response","173","264485","0.0-1.0-229.0","0","0","15919","","null","","","null","25","","NaN","","","","","","","","","","","","","",""
"","response","","html-keyboard-response","174","264516","0.0-1.0-230.0-0.0","0","0","15919","","29","","","75","25","","","1","25","training","adjacent","EF","5","6","M.jpg","P.jpg","1","1","1","",""
"","feedback","","html-keyboard-response","175","265524","0.0-1.0-231.0-0.0","0","0","15919","","null","","","null","25","","","","","","","","","","","","","","","",""
"","ITI","","html-keyboard-response","176","266534","0.0-1.0-234.0","0","0","15919","","null","","","null","25","","","","","","","","","","","","","","","NaN",""
"","S1","","html-keyboard-response","177","266790","0.0-1.0-236.0","0","0","15919","","null","","","null","26","","","","","","","","","","","","","","","",""
"","ISI","","html-keyboard-response","178","267294","0.0-1.0-237.0","0","0","15919","","null","","","null","26","NaN","","","","","","","","","","","","","","",""
"","S2","","html-keyboard-response","179","267550","0.0-1.0-238.0","0","0","15919","","null","","","null","26","","NaN","","","","","","","","","","","","","",""
"","response","","html-keyboard-response","180","267930","0.0-1.0-239.0-0.0","0","0","15919","","379","","","75","26","","","1","26","training","adjacent","DC","4","3","O.jpg","R.jpg","1","0","0","",""
"","feedback","","html-keyboard-response","181","268936","0.0-1.0-240.0-0.0","0","0","15919","","null","","","null","26","","","","","","","","","","","","","","","",""
"","time_out","","html-keyboard-response","182","270940","0.0-1.0-242.0-0.0","0","0","15919","","null","","","null","26","","","","","","","","","","","","","","","",""
"","ITI","","html-keyboard-response","183","271950","0.0-1.0-243.0","0","0","15919","","null","","","null","26","","","","","","","","","","","","","","","NaN",""
"","S1","","html-keyboard-response","184","272206","0.0-1.0-245.0","0","0","15919","","null","","","null","27","","","","","","","","","","","","","","","",""
"","ISI","","html-keyboard-response","185","272711","0.0-1.0-246.0","0","0","15919","","null","","","null","27","NaN","","","","","","","","","","","","","","",""
"","S2","","html-keyboard-response","186","272967","0.0-1.0-247.0","0","0","15919","","null","","","null","27","","NaN","","","","","","","","","","","","","",""
"","response","","html-keyboard-response","187","273395","0.0-1.0-248.0-0.0","0","0","15919","","427","","","68","27","","","1","27","training","adjacent","DC","4","3","O.jpg","R.jpg","0","0","1","",""
"","feedback","","html-keyboard-response","188","274406","0.0-1.0-249.0-0.0","0","0","15919","","null","","","null","27","","","","","","","","","","","","","","","",""
"","ITI","","html-keyboard-response","189","275415","0.0-1.0-252.0","0","0","15919","","null","","","null","27","","","","","","","","","","","","","","","NaN",""
"","S1","","html-keyboard-response","190","275671","0.0-1.0-254.0","0","0","15919","","null","","","null","28","","","","","","","","","","","","","","","",""
"","ISI","","html-keyboard-response","191","276182","0.0-1.0-255.0","0","0","15919","","null","","","null","28","NaN","","","","","","","","","","","","","","",""
"","S2","","html-keyboard-response","192","276438","0.0-1.0-256.0","0","0","15919","","null","","","null","28","","NaN","","","","","","","","","","","","","",""
"","response","","html-keyboard-response","193","276962","0.0-1.0-257.0-0.0","0","0","15919","","523","","","68","28","","","1","28","training","adjacent","CB","3","2","R.jpg","N.jpg","0","0","1","",""
"","feedback","","html-keyboard-response","194","277976","0.0-1.0-258.0-0.0","0","0","15919","","null","","","null","28","","","","","","","","","","","","","","","",""
"","ITI","","html-keyboard-response","195","278980","0.0-1.0-261.0","0","0","15919","","null","","","null","28","","","","","","","","","","","","","","","NaN",""
"","S1","","html-keyboard-response","196","279235","0.0-1.0-263.0","0","0","15919","","null","","","null","29","","","","","","","","","","","","","","","",""
"","ISI","","html-keyboard-response","197","279740","0.0-1.0-264.0","0","0","15919","","null","","","null","29","NaN","","","","","","","","","","","","","","",""
"","S2","","html-keyboard-response","198","279996","0.0-1.0-265.0","0","0","15919","","null","","","null","29","","NaN","","","","","","","","","","","","","",""
"","response","","html-keyboard-response","199","280378","0.0-1.0-266.0-0.0","0","0","15919","","381","","","68","29","","","1","29","training","adjacent","FE","6","5","P.jpg","M.jpg","0","0","1","",""
"","feedback","","html-keyboard-response","200","281389","0.0-1.0-267.0-0.0","0","0","15919","","null","","","null","29","","","","","","","","","","","","","","","",""
"","ITI","","html-keyboard-response","201","282399","0.0-1.0-270.0","0","0","15919","","null","","","null","29","","","","","","","","","","","","","","","NaN",""
"","S1","","html-keyboard-response","202","282655","0.0-1.0-272.0","0","0","15919","","null","","","null","30","","","","","","","","","","","","","","","",""
"","ISI","","html-keyboard-response","203","283165","0.0-1.0-273.0","0","0","15919","","null","","","null","30","NaN","","","","","","","","","","","","","","",""
"","S2","","html-keyboard-response","204","283421","0.0-1.0-274.0","0","0","15919","","null","","","null","30","","NaN","","","","","","","","","","","","","",""
"","response","","html-keyboard-response","205","283802","0.0-1.0-275.0-0.0","0","0","15919","","381","","","68","30","","","1","30","training","adjacent","AB","1","2","L.jpg","N.jpg","0","1","0","",""
"","feedback","","html-keyboard-response","206","284810","0.0-1.0-276.0-0.0","0","0","15919","","null","","","null","30","","","","","","","","","","","","","","","",""
"","time_out","","html-keyboard-response","207","286822","0.0-1.0-278.0-0.0","0","0","15919","","null","","","null","30","","","","","","","","","","","","","","","",""
"","ITI","","html-keyboard-response","208","287831","0.0-1.0-279.0","0","0","15919","","null","","","null","30","","","","","","","","","","","","","","","NaN",""
"","S1","","html-keyboard-response","209","288088","0.0-1.0-281.0","0","0","15919","","null","","","null","31","","","","","","","","","","","","","","","",""
"","ISI","","html-keyboard-response","210","288598","0.0-1.0-282.0","0","0","15919","","null","","","null","31","NaN","","","","","","","","","","","","","","",""
"","S2","","html-keyboard-response","211","288854","0.0-1.0-283.0","0","0","15919","","null","","","null","31","","NaN","","","","","","","","","","","","","",""
"","response","","html-keyboard-response","212","289273","0.0-1.0-284.0-0.0","0","0","15919","","418","","","75","31","","","1","31","training","adjacent","FG","6","7","P.jpg","Q.jpg","1","1","1","",""
"","feedback","","html-keyboard-response","213","290276","0.0-1.0-285.0-0.0","0","0","15919","","null","","","null","31","","","","","","","","","","","","","","","",""
"","ITI","","html-keyboard-response","214","291286","0.0-1.0-288.0","0","0","15919","","null","","","null","31","","","","","","","","","","","","","","","NaN",""
"","S1","","html-keyboard-response","215","291541","0.0-1.0-290.0","0","0","15919","","null","","","null","32","","","","","","","","","","","","","","","",""
"","ISI","","html-keyboard-response","216","292046","0.0-1.0-291.0","0","0","15919","","null","","","null","32","NaN","","","","","","","","","","","","","","",""
"","S2","","html-keyboard-response","217","292301","0.0-1.0-292.0","0","0","15919","","null","","","null","32","","NaN","","","","","","","","","","","","","",""
"","response","","html-keyboard-response","218","292793","0.0-1.0-293.0-0.0","0","0","15919","","490","","","75","32","","","1","32","training","adjacent","FG","6","7","P.jpg","Q.jpg","1","1","1","",""
"","feedback","","html-keyboard-response","219","293800","0.0-1.0-294.0-0.0","0","0","15919","","null","","","null","32","","","","","","","","","","","","","","","",""
"","ITI","","html-keyboard-response","220","294804","0.0-1.0-297.0","0","0","15919","","null","","","null","32","","","","","","","","","","","","","","","NaN",""
"","S1","","html-keyboard-response","221","295059","0.0-1.0-299.0","0","0","15919","","null","","","null","33","","","","","","","","","","","","","","","",""
"","ISI","","html-keyboard-response","222","295567","0.0-1.0-300.0","0","0","15919","","null","","","null","33","NaN","","","","","","","","","","","","","","",""
"","S2","","html-keyboard-response","223","295820","0.0-1.0-301.0","0","0","15919","","null","","","null","33","","NaN","","","","","","","","","","","","","",""
"","response","","html-keyboard-response","224","296345","0.0-1.0-302.0-0.0","0","0","15919","","524","","","68","33","","","1","33","training","adjacent","DC","4","3","O.jpg","R.jpg","0","0","1","",""
"","feedback","","html-keyboard-response","225","297348","0.0-1.0-303.0-0.0","0","0","15919","","null","","","null","33","","","","","","","","","","","","","","","",""
"","ITI","","html-keyboard-response","226","298356","0.0-1.0-306.0","0","0","15919","","null","","","null","33","","","","","","","","","","","","","","","NaN",""
"","S1","","html-keyboard-response","227","298612","0.0-1.0-308.0","0","0","15919","","null","","","null","34","","","","","","","","","","","","","","","",""
"","ISI","","html-keyboard-response","228","299116","0.0-1.0-309.0","0","0","15919","","null","","","null","34","NaN","","","","","","","","","","","","","","",""
"","S2","","html-keyboard-response","229","299372","0.0-1.0-310.0","0","0","15919","","null","","","null","34","","NaN","","","","","","","","","","","","","",""
"","response","","html-keyboard-response","230","299913","0.0-1.0-311.0-0.0","0","0","15919","","540","","","75","34","","","1","34","training","adjacent","AB","1","2","L.jpg","N.jpg","1","1","1","",""
"","feedback","","html-keyboard-response","231","300919","0.0-1.0-312.0-0.0","0","0","15919","","null","","","null","34","","","","","","","","","","","","","","","",""
"","ITI","","html-keyboard-response","232","301926","0.0-1.0-315.0","0","0","15919","","null","","","null","34","","","","","","","","","","","","","","","NaN",""
"","S1","","html-keyboard-response","233","302182","0.0-1.0-317.0","0","0","15919","","null","","","null","35","","","","","","","","","","","","","","","",""
"","ISI","","html-keyboard-response","234","302692","0.0-1.0-318.0","0","0","15919","","null","","","null","35","NaN","","","","","","","","","","","","","","",""
"","S2","","html-keyboard-response","235","302948","0.0-1.0-319.0","0","0","15919","","null","","","null","35","","NaN","","","","","","","","","","","","","",""
"","response","","html-keyboard-response","236","303378","0.0-1.0-320.0-0.0","0","0","15919","","429","","","68","35","","","1","35","training","adjacent","BC","2","3","N.jpg","R.jpg","0","1","0","",""
"","feedback","","html-keyboard-response","237","304388","0.0-1.0-321.0-0.0","0","0","15919","","null","","","null","35","","","","","","","","","","","","","","","",""
"","time_out","","html-keyboard-response","238","306395","0.0-1.0-323.0-0.0","0","0","15919","","null","","","null","35","","","","","","","","","","","","","","","",""
"","ITI","","html-keyboard-response","239","307406","0.0-1.0-324.0","0","0","15919","","null","","","null","35","","","","","","","","","","","","","","","NaN",""
"","S1","","html-keyboard-response","240","307661","0.0-1.0-326.0","0","0","15919","","null","","","null","36","","","","","","","","","","","","","","","",""
"","ISI","","html-keyboard-response","241","308172","0.0-1.0-327.0","0","0","15919","","null","","","null","36","NaN","","","","","","","","","","","","","","",""
"","S2","","html-keyboard-response","242","308428","0.0-1.0-328.0","0","0","15919","","null","","","null","36","","NaN","","","","","","","","","","","","","",""
"","response","","html-keyboard-response","243","308770","0.0-1.0-329.0-0.0","0","0","15919","","341","","","75","36","","","1","36","training","adjacent","EF","5","6","M.jpg","P.jpg","1","1","1","",""
"","feedback","","html-keyboard-response","244","309774","0.0-1.0-330.0-0.0","0","0","15919","","null","","","null","36","","","","","","","","","","","","","","","",""
"","ITI","","html-keyboard-response","245","310779","0.0-1.0-333.0","0","0","15919","","null","","","null","36","","","","","","","","","","","","","","","NaN",""
"","S1","","html-keyboard-response","246","311036","0.0-1.0-335.0","0","0","15919","","null","","","null","37","","","","","","","","","","","","","","","",""
"","ISI","","html-keyboard-response","247","311539","0.0-1.0-336.0","0","0","15919","","null","","","null","37","NaN","","","","","","","","","","","","","","",""
"","S2","","html-keyboard-response","248","311790","0.0-1.0-337.0","0","0","15919","","null","","","null","37","","NaN","","","","","","","","","","","","","",""
"","response","","html-keyboard-response","249","312564","0.0-1.0-338.0-0.0","0","0","15919","","772","","","75","37","","","1","37","training","adjacent","CB","3","2","R.jpg","N.jpg","1","0","0","",""
"","feedback","","html-keyboard-response","250","313572","0.0-1.0-339.0-0.0","0","0","15919","","null","","","null","37","","","","","","","","","","","","","","","",""
"","time_out","","html-keyboard-response","251","315579","0.0-1.0-341.0-0.0","0","0","15919","","null","","","null","37","","","","","","","","","","","","","","","",""
"","ITI","","html-keyboard-response","252","316589","0.0-1.0-342.0","0","0","15919","","null","","","null","37","","","","","","","","","","","","","","","NaN",""
"","S1","","html-keyboard-response","253","316844","0.0-1.0-344.0","0","0","15919","","null","","","null","38","","","","","","","","","","","","","","","",""
"","ISI","","html-keyboard-response","254","317349","0.0-1.0-345.0","0","0","15919","","null","","","null","38","NaN","","","","","","","","","","","","","","",""
"","S2","","html-keyboard-response","255","317605","0.0-1.0-346.0","0","0","15919","","null","","","null","38","","NaN","","","","","","","","","","","","","",""
"","response","","html-keyboard-response","256","317993","0.0-1.0-347.0-0.0","0","0","15919","","385","","","68","38","","","1","38","training","adjacent","BC","2","3","N.jpg","R.jpg","0","1","0","",""
"","feedback","","html-keyboard-response","257","319004","0.0-1.0-348.0-0.0","0","0","15919","","null","","","null","38","","","","","","","","","","","","","","","",""
"","time_out","","html-keyboard-response","258","321013","0.0-1.0-350.0-0.0","0","0","15919","","null","","","null","38","","","","","","","","","","","","","","","",""
"","ITI","","html-keyboard-response","259","322022","0.0-1.0-351.0","0","0","15919","","null","","","null","38","","","","","","","","","","","","","","","NaN",""
"","S1","","html-keyboard-response","260","322284","0.0-1.0-353.0","0","0","15919","","null","","","null","39","","","","","","","","","","","","","","","",""
"","ISI","","html-keyboard-response","261","322789","0.0-1.0-354.0","0","0","15919","","null","","","null","39","NaN","","","","","","","","","","","","","","",""
"","S2","","html-keyboard-response","262","323044","0.0-1.0-355.0","0","0","15919","","null","","","null","39","","NaN","","","","","","","","","","","","","",""
"","response","","html-keyboard-response","263","323897","0.0-1.0-356.0-0.0","0","0","15919","","852","","","75","39","","","1","39","training","adjacent","DE","4","5","O.jpg","M.jpg","1","1","1","",""
"","feedback","","html-keyboard-response","264","324907","0.0-1.0-357.0-0.0","0","0","15919","","null","","","null","39","","","","","","","","","","","","","","","",""
"","ITI","","html-keyboard-response","265","325917","0.0-1.0-360.0","0","0","15919","","null","","","null","39","","","","","","","","","","","","","","","NaN",""
"","S1","","html-keyboard-response","266","326175","0.0-1.0-362.0","0","0","15919","","null","","","null","40","","","","","","","","","","","","","","","",""
"","ISI","","html-keyboard-response","267","326683","0.0-1.0-363.0","0","0","15919","","null","","","null","40","NaN","","","","","","","","","","","","","","",""
"","S2","","html-keyboard-response","268","326939","0.0-1.0-364.0","0","0","15919","","null","","","null","40","","NaN","","","","","","","","","","","","","",""
"","response","","html-keyboard-response","269","327696","0.0-1.0-365.0-0.0","0","0","15919","","757","","","75","40","","","1","40","training","adjacent","FE","6","5","P.jpg","M.jpg","1","0","0","",""
"","feedback","","html-keyboard-response","270","328709","0.0-1.0-366.0-0.0","0","0","15919","","null","","","null","40","","","","","","","","","","","","","","","",""
"","time_out","","html-keyboard-response","271","330717","0.0-1.0-368.0-0.0","0","0","15919","","null","","","null","40","","","","","","","","","","","","","","","",""
"","ITI","","html-keyboard-response","272","331722","0.0-1.0-369.0","0","0","15919","","null","","","null","40","","","","","","","","","","","","","","","NaN",""
"","S1","","html-keyboard-response","273","331978","0.0-1.0-371.0","0","0","15919","","null","","","null","41","","","","","","","","","","","","","","","",""
"","ISI","","html-keyboard-response","274","332482","0.0-1.0-372.0","0","0","15919","","null","","","null","41","NaN","","","","","","","","","","","","","","",""
"","S2","","html-keyboard-response","275","332738","0.0-1.0-373.0","0","0","15919","","null","","","null","41","","NaN","","","","","","","","","","","","","",""
"","response","","html-keyboard-response","276","333145","0.0-1.0-374.0-0.0","0","0","15919","","406","","","68","41","","","1","41","training","adjacent","AB","1","2","L.jpg","N.jpg","0","1","0","",""
"","feedback","","html-keyboard-response","277","334154","0.0-1.0-375.0-0.0","0","0","15919","","null","","","null","41","","","","","","","","","","","","","","","",""
"","time_out","","html-keyboard-response","278","336164","0.0-1.0-377.0-0.0","0","0","15919","","null","","","null","41","","","","","","","","","","","","","","","",""
"","ITI","","html-keyboard-response","279","337173","0.0-1.0-378.0","0","0","15919","","null","","","null","41","","","","","","","","","","","","","","","NaN",""
"","S1","","html-keyboard-response","280","337429","0.0-1.0-380.0","0","0","15919","","null","","","null","42","","","","","","","","","","","","","","","",""
"","ISI","","html-keyboard-response","281","337933","0.0-1.0-381.0","0","0","15919","","null","","","null","42","NaN","","","","","","","","","","","","","","",""
"","S2","","html-keyboard-response","282","338187","0.0-1.0-382.0","0","0","15919","","null","","","null","42","","NaN","","","","","","","","","","","","","",""
"","response","","html-keyboard-response","283","338537","0.0-1.0-383.0-0.0","0","0","15919","","348","","","75","42","","","1","42","training","adjacent","BC","2","3","N.jpg","R.jpg","1","1","1","",""
"","feedback","","html-keyboard-response","284","339541","0.0-1.0-384.0-0.0","0","0","15919","","null","","","null","42","","","","","","","","","","","","","","","",""
"","ITI","","html-keyboard-response","285","340548","0.0-1.0-387.0","0","0","15919","","null","","","null","42","","","","","","","","","","","","","","","NaN",""
"","S1","","html-keyboard-response","286","340802","0.0-1.0-389.0","0","0","15919","","null","","","null","43","","","","","","","","","","","","","","","",""
"","ISI","","html-keyboard-response","287","341306","0.0-1.0-390.0","0","0","15919","","null","","","null","43","NaN","","","","","","","","","","","","","","",""
"","S2","","html-keyboard-response","288","341562","0.0-1.0-391.0","0","0","15919","","null","","","null","43","","NaN","","","","","","","","","","","","","",""
"","response","","html-keyboard-response","289","341967","0.0-1.0-392.0-0.0","0","0","15919","","404","","","75","43","","","1","43","training","adjacent","GF","7","6","Q.jpg","P.jpg","1","0","0","",""
"","feedback","","html-keyboard-response","290","342972","0.0-1.0-393.0-0.0","0","0","15919","","null","","","null","43","","","","","","","","","","","","","","","",""
"","time_out","","html-keyboard-response","291","344980","0.0-1.0-395.0-0.0","0","0","15919","","null","","","null","43","","","","","","","","","","","","","","","",""
"","ITI","","html-keyboard-response","292","345987","0.0-1.0-396.0","0","0","15919","","null","","","null","43","","","","","","","","","","","","","","","NaN",""
"","S1","","html-keyboard-response","293","346246","0.0-1.0-398.0","0","0","15919","","null","","","null","44","","","","","","","","","","","","","","","",""
"","ISI","","html-keyboard-response","294","346757","0.0-1.0-399.0","0","0","15919","","null","","","null","44","NaN","","","","","","","","","","","","","","",""
"","S2","","html-keyboard-response","295","347012","0.0-1.0-400.0","0","0","15919","","null","","","null","44","","NaN","","","","","","","","","","","","","",""
"","response","","html-keyboard-response","296","347066","0.0-1.0-401.0-0.0","0","0","15919","","53","","","68","44","","","1","44","training","adjacent","CD","3","4","R.jpg","O.jpg","0","1","0","",""
"","feedback","","html-keyboard-response","297","348074","0.0-1.0-402.0-0.0","0","0","15919","","null","","","null","44","","","","","","","","","","","","","","","",""
"","time_out","","html-keyboard-response","298","350082","0.0-1.0-404.0-0.0","0","0","15919","","null","","","null","44","","","","","","","","","","","","","","","",""
"","ITI","","html-keyboard-response","299","351093","0.0-1.0-405.0","0","0","15919","","null","","","null","44","","","","","","","","","","","","","","","NaN",""
"","S1","","html-keyboard-response","300","351348","0.0-1.0-407.0","0","0","15919","","null","","","null","45","","","","","","","","","","","","","","","",""
"","ISI","","html-keyboard-response","301","351859","0.0-1.0-408.0","0","0","15919","","null","","","null","45","NaN","","","","","","","","","","","","","","",""
"","S2","","html-keyboard-response","302","352114","0.0-1.0-409.0","0","0","15919","","null","","","null","45","","NaN","","","","","","","","","","","","","",""
"","response","","html-keyboard-response","303","352528","0.0-1.0-410.0-0.0","0","0","15919","","413","","","75","45","","","1","45","training","adjacent","ED","5","4","M.jpg","O.jpg","1","0","0","",""
"","feedback","","html-keyboard-response","304","353543","0.0-1.0-411.0-0.0","0","0","15919","","null","","","null","45","","","","","","","","","","","","","","","",""
"","time_out","","html-keyboard-response","305","355549","0.0-1.0-413.0-0.0","0","0","15919","","null","","","null","45","","","","","","","","","","","","","","","",""
"","ITI","","html-keyboard-response","306","356555","0.0-1.0-414.0","0","0","15919","","null","","","null","45","","","","","","","","","","","","","","","NaN",""
"","S1","","html-keyboard-response","307","356810","0.0-1.0-416.0","0","0","15919","","null","","","null","46","","","","","","","","","","","","","","","",""
"","ISI","","html-keyboard-response","308","357315","0.0-1.0-417.0","0","0","15919","","null","","","null","46","NaN","","","","","","","","","","","","","","",""
"","S2","","html-keyboard-response","309","357569","0.0-1.0-418.0","0","0","15919","","null","","","null","46","","NaN","","","","","","","","","","","","","",""
"","response","","html-keyboard-response","310","357870","0.0-1.0-419.0-0.0","0","0","15919","","300","","","68","46","","","1","46","training","adjacent","FG","6","7","P.jpg","Q.jpg","0","1","0","",""
"","feedback","","html-keyboard-response","311","358875","0.0-1.0-420.0-0.0","0","0","15919","","null","","","null","46","","","","","","","","","","","","","","","",""
"","time_out","","html-keyboard-response","312","360885","0.0-1.0-422.0-0.0","0","0","15919","","null","","","null","46","","","","","","","","","","","","","","","",""
"","ITI","","html-keyboard-response","313","361889","0.0-1.0-423.0","0","0","15919","","null","","","null","46","","","","","","","","","","","","","","","NaN",""
"","S1","","html-keyboard-response","314","362145","0.0-1.0-425.0","0","0","15919","","null","","","null","47","","","","","","","","","","","","","","","",""
"","ISI","","html-keyboard-response","315","362650","0.0-1.0-426.0","0","0","15919","","null","","","null","47","NaN","","","","","","","","","","","","","","",""
"","S2","","html-keyboard-response","316","362905","0.0-1.0-427.0","0","0","15919","","null","","","null","47","","NaN","","","","","","","","","","","","","",""
"","response","","html-keyboard-response","317","363504","0.0-1.0-428.0-0.0","0","0","15919","","597","","","68","47","","","1","47","training","adjacent","BA","2","1","N.jpg","L.jpg","0","0","1","",""
"","feedback","","html-keyboard-response","318","364513","0.0-1.0-429.0-0.0","0","0","15919","","null","","","null","47","","","","","","","","","","","","","","","",""
"","ITI","","html-keyboard-response","319","365524","0.0-1.0-432.0","0","0","15919","","null","","","null","47","","","","","","","","","","","","","","","NaN",""
"","block_over","","html-keyboard-response","320","371959","0.0-1.0-433.0-0.0","0","0","15919","","6433","","","32","47","","","","","","","","","","","","","","","",""
"","S1","","html-keyboard-response","321","372216","0.0-1.0-434.0","0","0","15919","","null","","","null","48","","","","","","","","","","","","","","","",""
"","ISI","","html-keyboard-response","322","372721","0.0-1.0-435.0","0","0","15919","","null","","","null","48","NaN","","","","","","","","","","","","","","",""
"","S2","","html-keyboard-response","323","372976","0.0-1.0-436.0","0","0","15919","","null","","","null","48","","NaN","","","","","","","","","","","","","",""
"","response","","html-keyboard-response","324","373615","0.0-1.0-437.0-0.0","0","0","15919","","637","","","75","48","","","2","48","training","adjacent","FE","6","5","P.jpg","M.jpg","1","0","0","",""
"","feedback","","html-keyboard-response","325","374625","0.0-1.0-438.0-0.0","0","0","15919","","null","","","null","48","","","","","","","","","","","","","","","",""
"","time_out","","html-keyboard-response","326","376633","0.0-1.0-440.0-0.0","0","0","15919","","null","","","null","48","","","","","","","","","","","","","","","",""
"","ITI","","html-keyboard-response","327","377643","0.0-1.0-441.0","0","0","15919","","null","","","null","48","","","","","","","","","","","","","","","NaN",""
"","S1","","html-keyboard-response","328","377899","0.0-1.0-443.0","0","0","15919","","null","","","null","49","","","","","","","","","","","","","","","",""
"","ISI","","html-keyboard-response","329","378409","0.0-1.0-444.0","0","0","15919","","null","","","null","49","NaN","","","","","","","","","","","","","","",""
"","S2","","html-keyboard-response","330","378665","0.0-1.0-445.0","0","0","15919","","null","","","null","49","","NaN","","","","","","","","","","","","","",""
"","response","","html-keyboard-response","331","379038","0.0-1.0-446.0-0.0","0","0","15919","","372","","","68","49","","","2","49","training","adjacent","ED","5","4","M.jpg","O.jpg","0","0","1","",""
"","feedback","","html-keyboard-response","332","380042","0.0-1.0-447.0-0.0","0","0","15919","","null","","","null","49","","","","","","","","","","","","","","","",""
"","ITI","","html-keyboard-response","333","381051","0.0-1.0-450.0","0","0","15919","","null","","","null","49","","","","","","","","","","","","","","","NaN",""
"","S1","","html-keyboard-response","334","381308","0.0-1.0-452.0","0","0","15919","","null","","","null","50","","","","","","","","","","","","","","","",""
"","ISI","","html-keyboard-response","335","381817","0.0-1.0-453.0","0","0","15919","","null","","","null","50","NaN","","","","","","","","","","","","","","",""
"","S2","","html-keyboard-response","336","382073","0.0-1.0-454.0","0","0","15919","","null","","","null","50","","NaN","","","","","","","","","","","","","",""
"","response","","html-keyboard-response","337","382686","0.0-1.0-455.0-0.0","0","0","15919","","612","","","68","50","","","2","50","training","adjacent","CD","3","4","R.jpg","O.jpg","0","1","0","",""
"","feedback","","html-keyboard-response","338","383692","0.0-1.0-456.0-0.0","0","0","15919","","null","","","null","50","","","","","","","","","","","","","","","",""
"","time_out","","html-keyboard-response","339","385700","0.0-1.0-458.0-0.0","0","0","15919","","null","","","null","50","","","","","","","","","","","","","","","",""
"","ITI","","html-keyboard-response","340","386705","0.0-1.0-459.0","0","0","15919","","null","","","null","50","","","","","","","","","","","","","","","NaN",""
"","S1","","html-keyboard-response","341","386960","0.0-1.0-461.0","0","0","15919","","null","","","null","51","","","","","","","","","","","","","","","",""
"","ISI","","html-keyboard-response","342","387466","0.0-1.0-462.0","0","0","15919","","null","","","null","51","NaN","","","","","","","","","","","","","","",""
"","S2","","html-keyboard-response","343","387721","0.0-1.0-463.0","0","0","15919","","null","","","null","51","","NaN","","","","","","","","","","","","","",""
"","response","","html-keyboard-response","344","388182","0.0-1.0-464.0-0.0","0","0","15919","","460","","","75","51","","","2","51","training","adjacent","BA","2","1","N.jpg","L.jpg","1","0","0","",""
"","feedback","","html-keyboard-response","345","389195","0.0-1.0-465.0-0.0","0","0","15919","","null","","","null","51","","","","","","","","","","","","","","","",""
"","time_out","","html-keyboard-response","346","391203","0.0-1.0-467.0-0.0","0","0","15919","","null","","","null","51","","","","","","","","","","","","","","","",""
"","ITI","","html-keyboard-response","347","392207","0.0-1.0-468.0","0","0","15919","","null","","","null","51","","","","","","","","","","","","","","","NaN",""
"","S1","","html-keyboard-response","348","392463","0.0-1.0-470.0","0","0","15919","","null","","","null","52","","","","","","","","","","","","","","","",""
"","ISI","","html-keyboard-response","349","392968","0.0-1.0-471.0","0","0","15919","","null","","","null","52","NaN","","","","","","","","","","","","","","",""
"","S2","","html-keyboard-response","350","393224","0.0-1.0-472.0","0","0","15919","","null","","","null","52","","NaN","","","","","","","","","","","","","",""
"","response","","html-keyboard-response","351","393590","0.0-1.0-473.0-0.0","0","0","15919","","365","","","68","52","","","2","52","training","adjacent","EF","5","6","M.jpg","P.jpg","0","1","0","",""
"","feedback","","html-keyboard-response","352","394599","0.0-1.0-474.0-0.0","0","0","15919","","null","","","null","52","","","","","","","","","","","","","","","",""
"","time_out","","html-keyboard-response","353","396608","0.0-1.0-476.0-0.0","0","0","15919","","null","","","null","52","","","","","","","","","","","","","","","",""
"","ITI","","html-keyboard-response","354","397620","0.0-1.0-477.0","0","0","15919","","null","","","null","52","","","","","","","","","","","","","","","NaN",""
"","S1","","html-keyboard-response","355","397883","0.0-1.0-479.0","0","0","15919","","null","","","null","53","","","","","","","","","","","","","","","",""
"","ISI","","html-keyboard-response","356","398396","0.0-1.0-480.0","0","0","15919","","null","","","null","53","NaN","","","","","","","","","","","","","","",""
"","S2","","html-keyboard-response","357","398657","0.0-1.0-481.0","0","0","15919","","null","","","null","53","","NaN","","","","","","","","","","","","","",""
"","response","","html-keyboard-response","358","399054","0.0-1.0-482.0-0.0","0","0","15919","","396","","","75","53","","","2","53","training","adjacent","BC","2","3","N.jpg","R.jpg","1","1","1","",""
"","feedback","","html-keyboard-response","359","400067","0.0-1.0-483.0-0.0","0","0","15919","","null","","","null","53","","","","","","","","","","","","","","","",""
"","ITI","","html-keyboard-response","360","401072","0.0-1.0-486.0","0","0","15919","","null","","","null","53","","","","","","","","","","","","","","","NaN",""
"","S1","","html-keyboard-response","361","401328","0.0-1.0-488.0","0","0","15919","","null","","","null","54","","","","","","","","","","","","","","","",""
"","ISI","","html-keyboard-response","362","401832","0.0-1.0-489.0","0","0","15919","","null","","","null","54","NaN","","","","","","","","","","","","","","",""
"","S2","","html-keyboard-response","363","402087","0.0-1.0-490.0","0","0","15919","","null","","","null","54","","NaN","","","","","","","","","","","","","",""
"","response","","html-keyboard-response","364","402677","0.0-1.0-491.0-0.0","0","0","15919","","588","","","75","54","","","2","54","training","adjacent","GF","7","6","Q.jpg","P.jpg","1","0","0","",""
"","feedback","","html-keyboard-response","365","403681","0.0-1.0-492.0-0.0","0","0","15919","","null","","","null","54","","","","","","","","","","","","","","","",""
"","time_out","","html-keyboard-response","366","405688","0.0-1.0-494.0-0.0","0","0","15919","","null","","","null","54","","","","","","","","","","","","","","","",""
"","ITI","","html-keyboard-response","367","406696","0.0-1.0-495.0","0","0","15919","","923","","","75","54","","","","","","","","","","","","","","","k",""
"","S1","","html-keyboard-response","368","406949","0.0-1.0-497.0","0","0","15919","","null","","","null","55","","","","","","","","","","","","","","","",""
"","ISI","","html-keyboard-response","369","407457","0.0-1.0-498.0","0","0","15919","","479","","","75","55","k","","","","","","","","","","","","","","",""
"","S2","","html-keyboard-response","370","407711","0.0-1.0-499.0","0","0","15919","","null","","","null","55","","NaN","","","","","","","","","","","","","",""
"","response","","html-keyboard-response","371","408133","0.0-1.0-500.0-0.0","0","0","15919","","421","","","75","55","","","2","55","training","adjacent","CD","3","4","R.jpg","O.jpg","1","1","1","",""
"","feedback","","html-keyboard-response","372","409135","0.0-1.0-501.0-0.0","0","0","15919","","null","","","null","55","","","","","","","","","","","","","","","",""
"","ITI","","html-keyboard-response","373","410145","0.0-1.0-504.0","0","0","15919","","null","","","null","55","","","","","","","","","","","","","","","NaN",""
"","S1","","html-keyboard-response","374","410400","0.0-1.0-506.0","0","0","15919","","null","","","null","56","","","","","","","","","","","","","","","",""
"","ISI","","html-keyboard-response","375","410904","0.0-1.0-507.0","0","0","15919","","null","","","null","56","NaN","","","","","","","","","","","","","","",""
"","S2","","html-keyboard-response","376","411162","0.0-1.0-508.0","0","0","15919","","null","","","null","56","","NaN","","","","","","","","","","","","","",""
"","response","","html-keyboard-response","377","411805","0.0-1.0-509.0-0.0","0","0","15919","","642","","","75","56","","","2","56","training","adjacent","EF","5","6","M.jpg","P.jpg","1","1","1","",""
"","feedback","","html-keyboard-response","378","412809","0.0-1.0-510.0-0.0","0","0","15919","","null","","","null","56","","","","","","","","","","","","","","","",""
"","ITI","","html-keyboard-response","379","413819","0.0-1.0-513.0","0","0","15919","","null","","","null","56","","","","","","","","","","","","","","","NaN",""
"","S1","","html-keyboard-response","380","414080","0.0-1.0-515.0","0","0","15919","","null","","","null","57","","","","","","","","","","","","","","","",""
"","ISI","","html-keyboard-response","381","414586","0.0-1.0-516.0","0","0","15919","","null","","","null","57","NaN","","","","","","","","","","","","","","",""
"","S2","","html-keyboard-response","382","414840","0.0-1.0-517.0","0","0","15919","","null","","","null","57","","NaN","","","","","","","","","","","","","",""
"","response","","html-keyboard-response","383","415189","0.0-1.0-518.0-0.0","0","0","15919","","347","","","75","57","","","2","57","training","adjacent","AB","1","2","L.jpg","N.jpg","1","1","1","",""
"","feedback","","html-keyboard-response","384","416193","0.0-1.0-519.0-0.0","0","0","15919","","null","","","null","57","","","","","","","","","","","","","","","",""
"","ITI","","html-keyboard-response","385","417203","0.0-1.0-522.0","0","0","15919","","null","","","null","57","","","","","","","","","","","","","","","NaN",""
"","S1","","html-keyboard-response","386","417465","0.0-1.0-524.0","0","0","15919","","null","","","null","58","","","","","","","","","","","","","","","",""
"","ISI","","html-keyboard-response","387","417970","0.0-1.0-525.0","0","0","15919","","null","","","null","58","NaN","","","","","","","","","","","","","","",""
"","S2","","html-keyboard-response","388","418225","0.0-1.0-526.0","0","0","15919","","null","","","null","58","","NaN","","","","","","","","","","","","","",""
"","response","","html-keyboard-response","389","418572","0.0-1.0-527.0-0.0","0","0","15919","","347","","","75","58","","","2","58","training","adjacent","AB","1","2","L.jpg","N.jpg","1","1","1","",""
"","feedback","","html-keyboard-response","390","419577","0.0-1.0-528.0-0.0","0","0","15919","","null","","","null","58","","","","","","","","","","","","","","","",""
"","ITI","","html-keyboard-response","391","420583","0.0-1.0-531.0","0","0","15919","","null","","","null","58","","","","","","","","","","","","","","","NaN",""
"","S1","","html-keyboard-response","392","420843","0.0-1.0-533.0","0","0","15919","","null","","","null","59","","","","","","","","","","","","","","","",""
"","ISI","","html-keyboard-response","393","421354","0.0-1.0-534.0","0","0","15919","","null","","","null","59","NaN","","","","","","","","","","","","","","",""
"","S2","","html-keyboard-response","394","421609","0.0-1.0-535.0","0","0","15919","","null","","","null","59","","NaN","","","","","","","","","","","","","",""
"","response","","html-keyboard-response","395","422317","0.0-1.0-536.0-0.0","0","0","15919","","707","","","75","59","","","2","59","training","adjacent","FG","6","7","P.jpg","Q.jpg","1","1","1","",""
"","feedback","","html-keyboard-response","396","423327","0.0-1.0-537.0-0.0","0","0","15919","","null","","","null","59","","","","","","","","","","","","","","","",""
"","ITI","","html-keyboard-response","397","424337","0.0-1.0-540.0","0","0","15919","","null","","","null","59","","","","","","","","","","","","","","","NaN",""
"","S1","","html-keyboard-response","398","424593","0.0-1.0-542.0","0","0","15919","","null","","","null","60","","","","","","","","","","","","","","","",""
"","ISI","","html-keyboard-response","399","425098","0.0-1.0-543.0","0","0","15919","","null","","","null","60","NaN","","","","","","","","","","","","","","",""
"","S2","","html-keyboard-response","400","425353","0.0-1.0-544.0","0","0","15919","","null","","","null","60","","NaN","","","","","","","","","","","","","",""
"","response","","html-keyboard-response","401","425837","0.0-1.0-545.0-0.0","0","0","15919","","482","","","75","60","","","2","60","training","adjacent","ED","5","4","M.jpg","O.jpg","1","0","0","",""
"","feedback","","html-keyboard-response","402","426851","0.0-1.0-546.0-0.0","0","0","15919","","null","","","null","60","","","","","","","","","","","","","","","",""
"","time_out","","html-keyboard-response","403","428855","0.0-1.0-548.0-0.0","0","0","15919","","null","","","null","60","","","","","","","","","","","","","","","",""
"","ITI","","html-keyboard-response","404","429868","0.0-1.0-549.0","0","0","15919","","null","","","null","60","","","","","","","","","","","","","","","NaN",""
"","S1","","html-keyboard-response","405","430130","0.0-1.0-551.0","0","0","15919","","null","","","null","61","","","","","","","","","","","","","","","",""
"","ISI","","html-keyboard-response","406","430641","0.0-1.0-552.0","0","0","15919","","null","","","null","61","NaN","","","","","","","","","","","","","","",""
"","S2","","html-keyboard-response","407","430900","0.0-1.0-553.0","0","0","15919","","null","","","null","61","","NaN","","","","","","","","","","","","","",""
"","response","","html-keyboard-response","408","431262","0.0-1.0-554.0-0.0","0","0","15919","","360","","","75","61","","","2","61","training","adjacent","CB","3","2","R.jpg","N.jpg","1","0","0","",""
"","feedback","","html-keyboard-response","409","432267","0.0-1.0-555.0-0.0","0","0","15919","","null","","","null","61","","","","","","","","","","","","","","","",""
"","time_out","","html-keyboard-response","410","434271","0.0-1.0-557.0-0.0","0","0","15919","","null","","","null","61","","","","","","","","","","","","","","","",""
"","ITI","","html-keyboard-response","411","435280","0.0-1.0-558.0","0","0","15919","","null","","","null","61","","","","","","","","","","","","","","","NaN",""
"","S1","","html-keyboard-response","412","435534","0.0-1.0-560.0","0","0","15919","","null","","","null","62","","","","","","","","","","","","","","","",""
"","ISI","","html-keyboard-response","413","436040","0.0-1.0-561.0","0","0","15919","","null","","","null","62","NaN","","","","","","","","","","","","","","",""
"","S2","","html-keyboard-response","414","436295","0.0-1.0-562.0","0","0","15919","","null","","","null","62","","NaN","","","","","","","","","","","","","",""
"","response","","html-keyboard-response","415","436796","0.0-1.0-563.0-0.0","0","0","15919","","500","","","75","62","","","2","62","training","adjacent","CD","3","4","R.jpg","O.jpg","1","1","1","",""
"","feedback","","html-keyboard-response","416","437810","0.0-1.0-564.0-0.0","0","0","15919","","null","","","null","62","","","","","","","","","","","","","","","",""
"","ITI","","html-keyboard-response","417","438814","0.0-1.0-567.0","0","0","15919","","null","","","null","62","","","","","","","","","","","","","","","NaN",""
"","S1","","html-keyboard-response","418","439070","0.0-1.0-569.0","0","0","15919","","null","","","null","63","","","","","","","","","","","","","","","",""
"","ISI","","html-keyboard-response","419","439575","0.0-1.0-570.0","0","0","15919","","null","","","null","63","NaN","","","","","","","","","","","","","","",""
"","S2","","html-keyboard-response","420","439830","0.0-1.0-571.0","0","0","15919","","null","","","null","63","","NaN","","","","","","","","","","","","","",""
"","response","","html-keyboard-response","421","440292","0.0-1.0-572.0-0.0","0","0","15919","","460","","","75","63","","","2","63","training","adjacent","FG","6","7","P.jpg","Q.jpg","1","1","1","",""
"","feedback","","html-keyboard-response","422","441304","0.0-1.0-573.0-0.0","0","0","15919","","null","","","null","63","","","","","","","","","","","","","","","",""
"","ITI","","html-keyboard-response","423","442311","0.0-1.0-576.0","0","0","15919","","null","","","null","63","","","","","","","","","","","","","","","NaN",""
"","S1","","html-keyboard-response","424","442570","0.0-1.0-578.0","0","0","15919","","null","","","null","64","","","","","","","","","","","","","","","",""
"","ISI","","html-keyboard-response","425","443081","0.0-1.0-579.0","0","0","15919","","null","","","null","64","NaN","","","","","","","","","","","","","","",""
"","S2","","html-keyboard-response","426","443336","0.0-1.0-580.0","0","0","15919","","null","","","null","64","","NaN","","","","","","","","","","","","","",""
"","response","","html-keyboard-response","427","443860","0.0-1.0-581.0-0.0","0","0","15919","","522","","","75","64","","","2","64","training","adjacent","AB","1","2","L.jpg","N.jpg","1","1","1","",""
"","feedback","","html-keyboard-response","428","444870","0.0-1.0-582.0-0.0","0","0","15919","","null","","","null","64","","","","","","","","","","","","","","","",""
"","ITI","","html-keyboard-response","429","445879","0.0-1.0-585.0","0","0","15919","","null","","","null","64","","","","","","","","","","","","","","","NaN",""
"","S1","","html-keyboard-response","430","446137","0.0-1.0-587.0","0","0","15919","","null","","","null","65","","","","","","","","","","","","","","","",""
"","ISI","","html-keyboard-response","431","446645","0.0-1.0-588.0","0","0","15919","","null","","","null","65","NaN","","","","","","","","","","","","","","",""
"","S2","","html-keyboard-response","432","446906","0.0-1.0-589.0","0","0","15919","","null","","","null","65","","NaN","","","","","","","","","","","","","",""
"","response","","html-keyboard-response","433","447509","0.0-1.0-590.0-0.0","0","0","15919","","601","","","75","65","","","2","65","training","adjacent","DC","4","3","O.jpg","R.jpg","1","0","0","",""
"","feedback","","html-keyboard-response","434","448521","0.0-1.0-591.0-0.0","0","0","15919","","null","","","null","65","","","","","","","","","","","","","","","",""
"","time_out","","html-keyboard-response","435","450528","0.0-1.0-593.0-0.0","0","0","15919","","null","","","null","65","","","","","","","","","","","","","","","",""
"","ITI","","html-keyboard-response","436","451535","0.0-1.0-594.0","0","0","15919","","null","","","null","65","","","","","","","","","","","","","","","NaN",""
"","S1","","html-keyboard-response","437","451794","0.0-1.0-596.0","0","0","15919","","null","","","null","66","","","","","","","","","","","","","","","",""
"","ISI","","html-keyboard-response","438","452305","0.0-1.0-597.0","0","0","15919","","null","","","null","66","NaN","","","","","","","","","","","","","","",""
"","S2","","html-keyboard-response","439","452560","0.0-1.0-598.0","0","0","15919","","null","","","null","66","","NaN","","","","","","","","","","","","","",""
"","response","","html-keyboard-response","440","453051","0.0-1.0-599.0-0.0","0","0","15919","","491","","","75","66","","","2","66","training","adjacent","DE","4","5","O.jpg","M.jpg","1","1","1","",""
"","feedback","","html-keyboard-response","441","454058","0.0-1.0-600.0-0.0","0","0","15919","","null","","","null","66","","","","","","","","","","","","","","","",""
"","ITI","","html-keyboard-response","442","455061","0.0-1.0-603.0","0","0","15919","","null","","","null","66","","","","","","","","","","","","","","","NaN",""
"","S1","","html-keyboard-response","443","455321","0.0-1.0-605.0","0","0","15919","","null","","","null","67","","","","","","","","","","","","","","","",""
"","ISI","","html-keyboard-response","444","455829","0.0-1.0-606.0","0","0","15919","","null","","","null","67","NaN","","","","","","","","","","","","","","",""
"","S2","","html-keyboard-response","445","456089","0.0-1.0-607.0","0","0","15919","","null","","","null","67","","NaN","","","","","","","","","","","","","",""
"","response","","html-keyboard-response","446","456532","0.0-1.0-608.0-0.0","0","0","15919","","441","","","75","67","","","2","67","training","adjacent","BA","2","1","N.jpg","L.jpg","1","0","0","",""
"","feedback","","html-keyboard-response","447","457541","0.0-1.0-609.0-0.0","0","0","15919","","null","","","null","67","","","","","","","","","","","","","","","",""
"","time_out","","html-keyboard-response","448","459549","0.0-1.0-611.0-0.0","0","0","15919","","null","","","null","67","","","","","","","","","","","","","","","",""
"","ITI","","html-keyboard-response","449","460559","0.0-1.0-612.0","0","0","15919","","null","","","null","67","","","","","","","","","","","","","","","NaN",""
"","S1","","html-keyboard-response","450","460814","0.0-1.0-614.0","0","0","15919","","null","","","null","68","","","","","","","","","","","","","","","",""
"","ISI","","html-keyboard-response","451","461319","0.0-1.0-615.0","0","0","15919","","null","","","null","68","NaN","","","","","","","","","","","","","","",""
"","S2","","html-keyboard-response","452","461573","0.0-1.0-616.0","0","0","15919","","null","","","null","68","","NaN","","","","","","","","","","","","","",""
"","response","","html-keyboard-response","453","462107","0.0-1.0-617.0-0.0","0","0","15919","","532","","","75","68","","","2","68","training","adjacent","GF","7","6","Q.jpg","P.jpg","1","0","0","",""
"","feedback","","html-keyboard-response","454","463109","0.0-1.0-618.0-0.0","0","0","15919","","null","","","null","68","","","","","","","","","","","","","","","",""
"","time_out","","html-keyboard-response","455","465117","0.0-1.0-620.0-0.0","0","0","15919","","null","","","null","68","","","","","","","","","","","","","","","",""
"","ITI","","html-keyboard-response","456","466126","0.0-1.0-621.0","0","0","15919","","null","","","null","68","","","","","","","","","","","","","","","NaN",""
"","S1","","html-keyboard-response","457","466382","0.0-1.0-623.0","0","0","15919","","null","","","null","69","","","","","","","","","","","","","","","",""
"","ISI","","html-keyboard-response","458","466886","0.0-1.0-624.0","0","0","15919","","null","","","null","69","NaN","","","","","","","","","","","","","","",""
"","S2","","html-keyboard-response","459","467141","0.0-1.0-625.0","0","0","15919","","null","","","null","69","","NaN","","","","","","","","","","","","","",""
"","response","","html-keyboard-response","460","467483","0.0-1.0-626.0-0.0","0","0","15919","","340","","","75","69","","","2","69","training","adjacent","EF","5","6","M.jpg","P.jpg","1","1","1","",""
"","feedback","","html-keyboard-response","461","468488","0.0-1.0-627.0-0.0","0","0","15919","","null","","","null","69","","","","","","","","","","","","","","","",""
"","ITI","","html-keyboard-response","462","469492","0.0-1.0-630.0","0","0","15919","","null","","","null","69","","","","","","","","","","","","","","","NaN",""
"","S1","","html-keyboard-response","463","469749","0.0-1.0-632.0","0","0","15919","","null","","","null","70","","","","","","","","","","","","","","","",""
"","ISI","","html-keyboard-response","464","470253","0.0-1.0-633.0","0","0","15919","","null","","","null","70","NaN","","","","","","","","","","","","","","",""
"","S2","","html-keyboard-response","465","470508","0.0-1.0-634.0","0","0","15919","","null","","","null","70","","NaN","","","","","","","","","","","","","",""
"","response","","html-keyboard-response","466","471027","0.0-1.0-635.0-0.0","0","0","15919","","517","","","75","70","","","2","70","training","adjacent","BA","2","1","N.jpg","L.jpg","1","0","0","",""
"","feedback","","html-keyboard-response","467","472029","0.0-1.0-636.0-0.0","0","0","15919","","null","","","null","70","","","","","","","","","","","","","","","",""
"","time_out","","html-keyboard-response","468","474038","0.0-1.0-638.0-0.0","0","0","15919","","null","","","null","70","","","","","","","","","","","","","","","",""
"","ITI","","html-keyboard-response","469","475048","0.0-1.0-639.0","0","0","15919","","null","","","null","70","","","","","","","","","","","","","","","NaN",""
"","S1","","html-keyboard-response","470","475303","0.0-1.0-641.0","0","0","15919","","null","","","null","71","","","","","","","","","","","","","","","",""
"","ISI","","html-keyboard-response","471","475814","0.0-1.0-642.0","0","0","15919","","null","","","null","71","NaN","","","","","","","","","","","","","","",""
"","S2","","html-keyboard-response","472","476070","0.0-1.0-643.0","0","0","15919","","null","","","null","71","","NaN","","","","","","","","","","","","","",""
"","response","","html-keyboard-response","473","476435","0.0-1.0-644.0-0.0","0","0","15919","","364","","","75","71","","","2","71","training","adjacent","DE","4","5","O.jpg","M.jpg","1","1","1","",""
"","feedback","","html-keyboard-response","474","477445","0.0-1.0-645.0-0.0","0","0","15919","","null","","","null","71","","","","","","","","","","","","","","","",""
"","ITI","","html-keyboard-response","475","478455","0.0-1.0-648.0","0","0","15919","","null","","","null","71","","","","","","","","","","","","","","","NaN",""
"","S1","","html-keyboard-response","476","478710","0.0-1.0-650.0","0","0","15919","","null","","","null","72","","","","","","","","","","","","","","","",""
"","ISI","","html-keyboard-response","477","479216","0.0-1.0-651.0","0","0","15919","","null","","","null","72","NaN","","","","","","","","","","","","","","",""
"","S2","","html-keyboard-response","478","479471","0.0-1.0-652.0","0","0","15919","","null","","","null","72","","NaN","","","","","","","","","","","","","",""
"","response","","html-keyboard-response","479","479975","0.0-1.0-653.0-0.0","0","0","15919","","502","","","75","72","","","2","72","training","adjacent","FE","6","5","P.jpg","M.jpg","1","0","0","",""
"","feedback","","html-keyboard-response","480","480984","0.0-1.0-654.0-0.0","0","0","15919","","null","","","null","72","","","","","","","","","","","","","","","",""
"","time_out","","html-keyboard-response","481","482989","0.0-1.0-656.0-0.0","0","0","15919","","null","","","null","72","","","","","","","","","","","","","","","",""
"","ITI","","html-keyboard-response","482","483999","0.0-1.0-657.0","0","0","15919","","null","","","null","72","","","","","","","","","","","","","","","NaN",""
"","S1","","html-keyboard-response","483","484254","0.0-1.0-659.0","0","0","15919","","null","","","null","73","","","","","","","","","","","","","","","",""
"","ISI","","html-keyboard-response","484","484759","0.0-1.0-660.0","0","0","15919","","null","","","null","73","NaN","","","","","","","","","","","","","","",""
"","S2","","html-keyboard-response","485","485012","0.0-1.0-661.0","0","0","15919","","null","","","null","73","","NaN","","","","","","","","","","","","","",""
"","response","","html-keyboard-response","486","485426","0.0-1.0-662.0-0.0","0","0","15919","","413","","","75","73","","","2","73","training","adjacent","AB","1","2","L.jpg","N.jpg","1","1","1","",""
"","feedback","","html-keyboard-response","487","486431","0.0-1.0-663.0-0.0","0","0","15919","","null","","","null","73","","","","","","","","","","","","","","","",""
"","ITI","","html-keyboard-response","488","487437","0.0-1.0-666.0","0","0","15919","","null","","","null","73","","","","","","","","","","","","","","","NaN",""
"","S1","","html-keyboard-response","489","487696","0.0-1.0-668.0","0","0","15919","","null","","","null","74","","","","","","","","","","","","","","","",""
"","ISI","","html-keyboard-response","490","488207","0.0-1.0-669.0","0","0","15919","","null","","","null","74","NaN","","","","","","","","","","","","","","",""
"","S2","","html-keyboard-response","491","488462","0.0-1.0-670.0","0","0","15919","","null","","","null","74","","NaN","","","","","","","","","","","","","",""
"","response","","html-keyboard-response","492","488898","0.0-1.0-671.0-0.0","0","0","15919","","434","","","75","74","","","2","74","training","adjacent","CD","3","4","R.jpg","O.jpg","1","1","1","",""
"","feedback","","html-keyboard-response","493","489909","0.0-1.0-672.0-0.0","0","0","15919","","null","","","null","74","","","","","","","","","","","","","","","",""
"","ITI","","html-keyboard-response","494","490920","0.0-1.0-675.0","0","0","15919","","null","","","null","74","","","","","","","","","","","","","","","NaN",""
"","S1","","html-keyboard-response","495","491181","0.0-1.0-677.0","0","0","15919","","null","","","null","75","","","","","","","","","","","","","","","",""
"","ISI","","html-keyboard-response","496","491684","0.0-1.0-678.0","0","0","15919","","null","","","null","75","NaN","","","","","","","","","","","","","","",""
"","S2","","html-keyboard-response","497","491940","0.0-1.0-679.0","0","0","15919","","null","","","null","75","","NaN","","","","","","","","","","","","","",""
"","response","","html-keyboard-response","498","492506","0.0-1.0-680.0-0.0","0","0","15919","","565","","","75","75","","","2","75","training","adjacent","DE","4","5","O.jpg","M.jpg","1","1","1","",""
"","feedback","","html-keyboard-response","499","493509","0.0-1.0-681.0-0.0","0","0","15919","","null","","","null","75","","","","","","","","","","","","","","","",""
"","ITI","","html-keyboard-response","500","494517","0.0-1.0-684.0","0","0","15919","","null","","","null","75","","","","","","","","","","","","","","","NaN",""
"","S1","","html-keyboard-response","501","494781","0.0-1.0-686.0","0","0","15919","","null","","","null","76","","","","","","","","","","","","","","","",""
"","ISI","","html-keyboard-response","502","495285","0.0-1.0-687.0","0","0","15919","","null","","","null","76","NaN","","","","","","","","","","","","","","",""
"","S2","","html-keyboard-response","503","495544","0.0-1.0-688.0","0","0","15919","","null","","","null","76","","NaN","","","","","","","","","","","","","",""
"","response","","html-keyboard-response","504","495925","0.0-1.0-689.0-0.0","0","0","15919","","379","","","75","76","","","2","76","training","adjacent","ED","5","4","M.jpg","O.jpg","1","0","0","",""
"","feedback","","html-keyboard-response","505","496931","0.0-1.0-690.0-0.0","0","0","15919","","null","","","null","76","","","","","","","","","","","","","","","",""
"","time_out","","html-keyboard-response","506","498940","0.0-1.0-692.0-0.0","0","0","15919","","null","","","null","76","","","","","","","","","","","","","","","",""
"","ITI","","html-keyboard-response","507","499950","0.0-1.0-693.0","0","0","15919","","null","","","null","76","","","","","","","","","","","","","","","NaN",""
"","S1","","html-keyboard-response","508","500206","0.0-1.0-695.0","0","0","15919","","null","","","null","77","","","","","","","","","","","","","","","",""
"","ISI","","html-keyboard-response","509","500710","0.0-1.0-696.0","0","0","15919","","null","","","null","77","NaN","","","","","","","","","","","","","","",""
"","S2","","html-keyboard-response","510","500964","0.0-1.0-697.0","0","0","15919","","null","","","null","77","","NaN","","","","","","","","","","","","","",""
"","response","","html-keyboard-response","511","501475","0.0-1.0-698.0-0.0","0","0","15919","","510","","","75","77","","","2","77","training","adjacent","BC","2","3","N.jpg","R.jpg","1","1","1","",""
"","feedback","","html-keyboard-response","512","502487","0.0-1.0-699.0-0.0","0","0","15919","","null","","","null","77","","","","","","","","","","","","","","","",""
"","ITI","","html-keyboard-response","513","503491","0.0-1.0-702.0","0","0","15919","","null","","","null","77","","","","","","","","","","","","","","","NaN",""
"","S1","","html-keyboard-response","514","503749","0.0-1.0-704.0","0","0","15919","","null","","","null","78","","","","","","","","","","","","","","","",""
"","ISI","","html-keyboard-response","515","504251","0.0-1.0-705.0","0","0","15919","","null","","","null","78","NaN","","","","","","","","","","","","","","",""
"","S2","","html-keyboard-response","516","504507","0.0-1.0-706.0","0","0","15919","","null","","","null","78","","NaN","","","","","","","","","","","","","",""
"","response","","html-keyboard-response","517","504889","0.0-1.0-707.0-0.0","0","0","15919","","382","","","75","78","","","2","78","training","adjacent","CB","3","2","R.jpg","N.jpg","1","0","0","",""
"","feedback","","html-keyboard-response","518","505900","0.0-1.0-708.0-0.0","0","0","15919","","null","","","null","78","","","","","","","","","","","","","","","",""
"","time_out","","html-keyboard-response","519","507908","0.0-1.0-710.0-0.0","0","0","15919","","null","","","null","78","","","","","","","","","","","","","","","",""
"","ITI","","html-keyboard-response","520","508919","0.0-1.0-711.0","0","0","15919","","null","","","null","78","","","","","","","","","","","","","","","NaN",""
"","S1","","html-keyboard-response","521","509174","0.0-1.0-713.0","0","0","15919","","null","","","null","79","","","","","","","","","","","","","","","",""
"","ISI","","html-keyboard-response","522","509686","0.0-1.0-714.0","0","0","15919","","null","","","null","79","NaN","","","","","","","","","","","","","","",""
"","S2","","html-keyboard-response","523","509942","0.0-1.0-715.0","0","0","15919","","null","","","null","79","","NaN","","","","","","","","","","","","","",""
"","response","","html-keyboard-response","524","510410","0.0-1.0-716.0-0.0","0","0","15919","","467","","","75","79","","","2","79","training","adjacent","CB","3","2","R.jpg","N.jpg","1","0","0","",""
"","feedback","","html-keyboard-response","525","511421","0.0-1.0-717.0-0.0","0","0","15919","","null","","","null","79","","","","","","","","","","","","","","","",""
"","time_out","","html-keyboard-response","526","513429","0.0-1.0-719.0-0.0","0","0","15919","","null","","","null","79","","","","","","","","","","","","","","","",""
"","ITI","","html-keyboard-response","527","514440","0.0-1.0-720.0","0","0","15919","","null","","","null","79","","","","","","","","","","","","","","","NaN",""
"","S1","","html-keyboard-response","528","514700","0.0-1.0-722.0","0","0","15919","","null","","","null","80","","","","","","","","","","","","","","","",""
"","ISI","","html-keyboard-response","529","515205","0.0-1.0-723.0","0","0","15919","","null","","","null","80","NaN","","","","","","","","","","","","","","",""
"","S2","","html-keyboard-response","530","515461","0.0-1.0-724.0","0","0","15919","","null","","","null","80","","NaN","","","","","","","","","","","","","",""
"","response","","html-keyboard-response","531","515849","0.0-1.0-725.0-0.0","0","0","15919","","388","","","75","80","","","2","80","training","adjacent","FG","6","7","P.jpg","Q.jpg","1","1","1","",""
"","feedback","","html-keyboard-response","532","516854","0.0-1.0-726.0-0.0","0","0","15919","","null","","","null","80","","","","","","","","","","","","","","","",""
"","ITI","","html-keyboard-response","533","517862","0.0-1.0-729.0","0","0","15919","","null","","","null","80","","","","","","","","","","","","","","","NaN",""
"","S1","","html-keyboard-response","534","518119","0.0-1.0-731.0","0","0","15919","","null","","","null","81","","","","","","","","","","","","","","","",""
"","ISI","","html-keyboard-response","535","518630","0.0-1.0-732.0","0","0","15919","","null","","","null","81","NaN","","","","","","","","","","","","","","",""
"","S2","","html-keyboard-response","536","518885","0.0-1.0-733.0","0","0","15919","","null","","","null","81","","NaN","","","","","","","","","","","","","",""
"","response","","html-keyboard-response","537","519897","0.0-1.0-734.0-0.0","0","0","15919","","1011","","","75","81","","","2","81","training","adjacent","FE","6","5","P.jpg","M.jpg","1","0","0","",""
"","feedback","","html-keyboard-response","538","520900","0.0-1.0-735.0-0.0","0","0","15919","","null","","","null","81","","","","","","","","","","","","","","","",""
"","time_out","","html-keyboard-response","539","522907","0.0-1.0-737.0-0.0","0","0","15919","","null","","","null","81","","","","","","","","","","","","","","","",""
"","ITI","","html-keyboard-response","540","523918","0.0-1.0-738.0","0","0","15919","","null","","","null","81","","","","","","","","","","","","","","","NaN",""
"","S1","","html-keyboard-response","541","524174","0.0-1.0-740.0","0","0","15919","","null","","","null","82","","","","","","","","","","","","","","","",""
"","ISI","","html-keyboard-response","542","524684","0.0-1.0-741.0","0","0","15919","","null","","","null","82","NaN","","","","","","","","","","","","","","",""
"","S2","","html-keyboard-response","543","524939","0.0-1.0-742.0","0","0","15919","","null","","","null","82","","NaN","","","","","","","","","","","","","",""
"","response","","html-keyboard-response","544","525121","0.0-1.0-743.0-0.0","0","0","15919","","180","","","75","82","","","2","82","training","adjacent","ED","5","4","M.jpg","O.jpg","1","0","0","",""
"","feedback","","html-keyboard-response","545","526131","0.0-1.0-744.0-0.0","0","0","15919","","null","","","null","82","","","","","","","","","","","","","","","",""
"","time_out","","html-keyboard-response","546","528139","0.0-1.0-746.0-0.0","0","0","15919","","null","","","null","82","","","","","","","","","","","","","","","",""
"","ITI","","html-keyboard-response","547","529148","0.0-1.0-747.0","0","0","15919","","null","","","null","82","","","","","","","","","","","","","","","NaN",""
"","S1","","html-keyboard-response","548","529404","0.0-1.0-749.0","0","0","15919","","null","","","null","83","","","","","","","","","","","","","","","",""
"","ISI","","html-keyboard-response","549","529908","0.0-1.0-750.0","0","0","15919","","null","","","null","83","NaN","","","","","","","","","","","","","","",""
"","S2","","html-keyboard-response","550","530162","0.0-1.0-751.0","0","0","15919","","null","","","null","83","","NaN","","","","","","","","","","","","","",""
"","response","","html-keyboard-response","551","530529","0.0-1.0-752.0-0.0","0","0","15919","","365","","","75","83","","","2","83","training","adjacent","BC","2","3","N.jpg","R.jpg","1","1","1","",""
"","feedback","","html-keyboard-response","552","531534","0.0-1.0-753.0-0.0","0","0","15919","","null","","","null","83","","","","","","","","","","","","","","","",""
"","ITI","","html-keyboard-response","553","532538","0.0-1.0-756.0","0","0","15919","","null","","","null","83","","","","","","","","","","","","","","","NaN",""
"","S1","","html-keyboard-response","554","532795","0.0-1.0-758.0","0","0","15919","","null","","","null","84","","","","","","","","","","","","","","","",""
"","ISI","","html-keyboard-response","555","533298","0.0-1.0-759.0","0","0","15919","","null","","","null","84","NaN","","","","","","","","","","","","","","",""
"","S2","","html-keyboard-response","556","533554","0.0-1.0-760.0","0","0","15919","","null","","","null","84","","NaN","","","","","","","","","","","","","",""
"","response","","html-keyboard-response","557","534720","0.0-1.0-761.0-0.0","0","0","15919","","1166","","","75","84","","","2","84","training","adjacent","GF","7","6","Q.jpg","P.jpg","1","0","0","",""
"","feedback","","html-keyboard-response","558","535724","0.0-1.0-762.0-0.0","0","0","15919","","null","","","null","84","","","","","","","","","","","","","","","",""
"","time_out","","html-keyboard-response","559","537733","0.0-1.0-764.0-0.0","0","0","15919","","null","","","null","84","","","","","","","","","","","","","","","",""
"","ITI","","html-keyboard-response","560","538738","0.0-1.0-765.0","0","0","15919","","null","","","null","84","","","","","","","","","","","","","","","NaN",""
"","S1","","html-keyboard-response","561","538994","0.0-1.0-767.0","0","0","15919","","null","","","null","85","","","","","","","","","","","","","","","",""
"","ISI","","html-keyboard-response","562","539498","0.0-1.0-768.0","0","0","15919","","null","","","null","85","NaN","","","","","","","","","","","","","","",""
"","S2","","html-keyboard-response","563","539754","0.0-1.0-769.0","0","0","15919","","null","","","null","85","","NaN","","","","","","","","","","","","","",""
"","response","","html-keyboard-response","564","540217","0.0-1.0-770.0-0.0","0","0","15919","","462","","","75","85","","","2","85","training","adjacent","FE","6","5","P.jpg","M.jpg","1","0","0","",""
"","feedback","","html-keyboard-response","565","541228","0.0-1.0-771.0-0.0","0","0","15919","","null","","","null","85","","","","","","","","","","","","","","","",""
"","time_out","","html-keyboard-response","566","543236","0.0-1.0-773.0-0.0","0","0","15919","","null","","","null","85","","","","","","","","","","","","","","","",""
"","ITI","","html-keyboard-response","567","544246","0.0-1.0-774.0","0","0","15919","","null","","","null","85","","","","","","","","","","","","","","","NaN",""
"","S1","","html-keyboard-response","568","544509","0.0-1.0-776.0","0","0","15919","","null","","","null","86","","","","","","","","","","","","","","","",""
"","ISI","","html-keyboard-response","569","545021","0.0-1.0-777.0","0","0","15919","","null","","","null","86","NaN","","","","","","","","","","","","","","",""
"","S2","","html-keyboard-response","570","545275","0.0-1.0-778.0","0","0","15919","","null","","","null","86","","NaN","","","","","","","","","","","","","",""
"","response","","html-keyboard-response","571","545680","0.0-1.0-779.0-0.0","0","0","15919","","404","","","75","86","","","2","86","training","adjacent","BC","2","3","N.jpg","R.jpg","1","1","1","",""
"","feedback","","html-keyboard-response","572","546690","0.0-1.0-780.0-0.0","0","0","15919","","null","","","null","86","","","","","","","","","","","","","","","",""
"","ITI","","html-keyboard-response","573","547700","0.0-1.0-783.0","0","0","15919","","null","","","null","86","","","","","","","","","","","","","","","NaN",""
"","S1","","html-keyboard-response","574","547956","0.0-1.0-785.0","0","0","15919","","null","","","null","87","","","","","","","","","","","","","","","",""
"","ISI","","html-keyboard-response","575","548462","0.0-1.0-786.0","0","0","15919","","null","","","null","87","NaN","","","","","","","","","","","","","","",""
"","S2","","html-keyboard-response","576","548722","0.0-1.0-787.0","0","0","15919","","null","","","null","87","","NaN","","","","","","","","","","","","","",""
"","response","","html-keyboard-response","577","550464","0.0-1.0-788.0-0.0","0","0","15919","","1741","","","75","87","","","2","87","training","adjacent","DC","4","3","O.jpg","R.jpg","1","0","0","",""
"","feedback","","html-keyboard-response","578","551474","0.0-1.0-789.0-0.0","0","0","15919","","null","","","null","87","","","","","","","","","","","","","","","",""
"","time_out","","html-keyboard-response","579","553482","0.0-1.0-791.0-0.0","0","0","15919","","null","","","null","87","","","","","","","","","","","","","","","",""
"","ITI","","html-keyboard-response","580","554492","0.0-1.0-792.0","0","0","15919","","null","","","null","87","","","","","","","","","","","","","","","NaN",""
"","S1","","html-keyboard-response","581","554746","0.0-1.0-794.0","0","0","15919","","null","","","null","88","","","","","","","","","","","","","","","",""
"","ISI","","html-keyboard-response","582","555252","0.0-1.0-795.0","0","0","15919","","null","","","null","88","NaN","","","","","","","","","","","","","","",""
