"success","ttype","start_time","trial_type","trial_index","time_elapsed","internal_node_id","warning","missed_checkup","PID","view_history","rt","responses","repeat_instructions","key_press","index","keypress_isi","keypress_S2","block","trial_num","phase","group_type","pair_type","S1_stim","S2_stim","S1_img","S2_img","S1_chosen","S1_higher","accuracy","keypress_iti","total_bonus_tally"
"true","full_screen","d04162023hr0854","fullscreen","0","2023","0.0-0.0","0","0","14054","","","","","","","","","","","","","","","","","","","","","",""
"","instructions","","instructions","1","45651","0.0-1.0-0.0-0.0","0","0","14054","[{""page_index"":0,""viewing_time"":6069},{""page_index"":1,""viewing_time"":32783},{""page_index"":2,""viewing_time"":3193},{""page_index"":3,""viewing_time"":1579}]","43624","","","","","","","","","","","","","","","","","","","",""
"","comprehension_check","","survey-multi-choice","2","63502","0.0-1.0-0.0-1.0","0","0","14054","","17846","{""Q0"":""True"",""Q1"":""D"",""Q2"":""Once the second image appears and while the screen 'MAKE A CHOICE' is shown"",""Q3"":""Green mark"",""Q4"":""either D or K""}","0","","","","","","","","","","","","","","","","","",""
"","start_exp","","html-keyboard-response","3","65120","0.0-1.0-1.0","0","0","14054","","1616","","","32","","","","","","","","","","","","","","","","",""
"","S1","","html-keyboard-response","4","65375","0.0-1.0-2.0","0","0","14054","","null","","","null","0","","","","","","","","","","","","","","","",""
"","ISI","","html-keyboard-response","5","66387","0.0-1.0-3.0","0","0","14054","","null","","","null","0","NaN","","","","","","","","","","","","","","",""
"","S2","","html-keyboard-response","6","66652","0.0-1.0-4.0","0","0","14054","","null","","","null","0","","NaN","","","","","","","","","","","","","",""
"","response","","html-keyboard-response","7","68406","0.0-1.0-5.0-0.0","0","0","14054","","null","","","null","0","","","1","0","training","adjacent","BC","2","3","L.jpg","O.jpg","NaN","1","0","",""
"","too_slow_prompt","","html-keyboard-response","8","69416","0.0-1.0-7.0-0.0","1","0","14054","","null","","","null","","","","","","","","","","","","","","","","",""
"","time_out","","html-keyboard-response","9","71430","0.0-1.0-8.0-0.0","0","0","14054","","null","","","null","0","","","","","","","","","","","","","","","",""
"","ITI","","html-keyboard-response","10","72442","0.0-1.0-9.0","0","0","14054","","null","","","null","0","","","","","","","","","","","","","","","NaN",""
"","S1","","html-keyboard-response","11","72694","0.0-1.0-11.0","0","0","14054","","null","","","null","1","","","","","","","","","","","","","","","",""
"","ISI","","html-keyboard-response","12","73702","0.0-1.0-12.0","0","0","14054","","null","","","null","1","NaN","","","","","","","","","","","","","","",""
"","S2","","html-keyboard-response","13","73966","0.0-1.0-13.0","0","0","14054","","null","","","null","1","","NaN","","","","","","","","","","","","","",""
"","response","","html-keyboard-response","14","74581","0.0-1.0-14.0-0.0","0","0","14054","","613","","","75","1","","","1","1","training","adjacent","DC","4","3","Q.jpg","O.jpg","0","0","1","",""
"","feedback","","html-keyboard-response","15","75594","0.0-1.0-15.0-0.0","0","0","14054","","null","","","null","1","","","","","","","","","","","","","","","",""
"","ITI","","html-keyboard-response","16","76607","0.0-1.0-18.0","0","0","14054","","null","","","null","1","","","","","","","","","","","","","","","NaN",""
"","S1","","html-keyboard-response","17","76868","0.0-1.0-20.0","0","0","14054","","null","","","null","2","","","","","","","","","","","","","","","",""
"","ISI","","html-keyboard-response","18","77879","0.0-1.0-21.0","0","0","14054","","null","","","null","2","NaN","","","","","","","","","","","","","","",""
"","S2","","html-keyboard-response","19","78143","0.0-1.0-22.0","0","0","14054","","null","","","null","2","","NaN","","","","","","","","","","","","","",""
"","response","","html-keyboard-response","20","78890","0.0-1.0-23.0-0.0","0","0","14054","","744","","","68","2","","","1","2","training","adjacent","BA","2","1","L.jpg","R.jpg","1","0","0","",""
"","feedback","","html-keyboard-response","21","79903","0.0-1.0-24.0-0.0","0","0","14054","","null","","","null","2","","","","","","","","","","","","","","","",""
"","time_out","","html-keyboard-response","22","81907","0.0-1.0-26.0-0.0","0","0","14054","","null","","","null","2","","","","","","","","","","","","","","","",""
"","ITI","","html-keyboard-response","23","82917","0.0-1.0-27.0","0","0","14054","","null","","","null","2","","","","","","","","","","","","","","","NaN",""
"","S1","","html-keyboard-response","24","83182","0.0-1.0-29.0","0","0","14054","","null","","","null","3","","","","","","","","","","","","","","","",""
"","ISI","","html-keyboard-response","25","84191","0.0-1.0-30.0","0","0","14054","","null","","","null","3","NaN","","","","","","","","","","","","","","",""
"","S2","","html-keyboard-response","26","84456","0.0-1.0-31.0","0","0","14054","","null","","","null","3","","NaN","","","","","","","","","","","","","",""
"","response","","html-keyboard-response","27","85048","0.0-1.0-32.0-0.0","0","0","14054","","591","","","68","3","","","1","3","training","adjacent","GF","7","6","P.jpg","M.jpg","1","0","0","",""
"","feedback","","html-keyboard-response","28","86053","0.0-1.0-33.0-0.0","0","0","14054","","null","","","null","3","","","","","","","","","","","","","","","",""
"","time_out","","html-keyboard-response","29","88060","0.0-1.0-35.0-0.0","0","0","14054","","null","","","null","3","","","","","","","","","","","","","","","",""
"","ITI","","html-keyboard-response","30","89069","0.0-1.0-36.0","0","0","14054","","null","","","null","3","","","","","","","","","","","","","","","NaN",""
"","S1","","html-keyboard-response","31","89332","0.0-1.0-38.0","0","0","14054","","null","","","null","4","","","","","","","","","","","","","","","",""
"","ISI","","html-keyboard-response","32","90338","0.0-1.0-39.0","0","0","14054","","null","","","null","4","NaN","","","","","","","","","","","","","","",""
"","S2","","html-keyboard-response","33","90603","0.0-1.0-40.0","0","0","14054","","null","","","null","4","","NaN","","","","","","","","","","","","","",""
"","response","","html-keyboard-response","34","91089","0.0-1.0-41.0-0.0","0","0","14054","","484","","","75","4","","","1","4","training","adjacent","BC","2","3","L.jpg","O.jpg","0","1","0","",""
"","feedback","","html-keyboard-response","35","92096","0.0-1.0-42.0-0.0","0","0","14054","","null","","","null","4","","","","","","","","","","","","","","","",""
"","time_out","","html-keyboard-response","36","94106","0.0-1.0-44.0-0.0","0","0","14054","","null","","","null","4","","","","","","","","","","","","","","","",""
"","ITI","","html-keyboard-response","37","95113","0.0-1.0-45.0","0","0","14054","","null","","","null","4","","","","","","","","","","","","","","","NaN",""
"","S1","","html-keyboard-response","38","95373","0.0-1.0-47.0","0","0","14054","","null","","","null","5","","","","","","","","","","","","","","","",""
"","ISI","","html-keyboard-response","39","96382","0.0-1.0-48.0","0","0","14054","","null","","","null","5","NaN","","","","","","","","","","","","","","",""
"","S2","","html-keyboard-response","40","96647","0.0-1.0-49.0","0","0","14054","","null","","","null","5","","NaN","","","","","","","","","","","","","",""
"","response","","html-keyboard-response","41","97366","0.0-1.0-50.0-0.0","0","0","14054","","718","","","68","5","","","1","5","training","adjacent","FE","6","5","M.jpg","N.jpg","1","0","0","",""
"","feedback","","html-keyboard-response","42","98369","0.0-1.0-51.0-0.0","0","0","14054","","null","","","null","5","","","","","","","","","","","","","","","",""
"","time_out","","html-keyboard-response","43","100385","0.0-1.0-53.0-0.0","0","0","14054","","null","","","null","5","","","","","","","","","","","","","","","",""
"","ITI","","html-keyboard-response","44","101393","0.0-1.0-54.0","0","0","14054","","null","","","null","5","","","","","","","","","","","","","","","NaN",""
"","S1","","html-keyboard-response","45","101654","0.0-1.0-56.0","0","0","14054","","null","","","null","6","","","","","","","","","","","","","","","",""
"","ISI","","html-keyboard-response","46","102665","0.0-1.0-57.0","0","0","14054","","null","","","null","6","NaN","","","","","","","","","","","","","","",""
"","S2","","html-keyboard-response","47","102929","0.0-1.0-58.0","0","0","14054","","null","","","null","6","","NaN","","","","","","","","","","","","","",""
"","response","","html-keyboard-response","48","103437","0.0-1.0-59.0-0.0","0","0","14054","","506","","","68","6","","","1","6","training","adjacent","DE","4","5","Q.jpg","N.jpg","1","1","1","",""
"","feedback","","html-keyboard-response","49","104437","0.0-1.0-60.0-0.0","0","0","14054","","null","","","null","6","","","","","","","","","","","","","","","",""
"","ITI","","html-keyboard-response","50","105445","0.0-1.0-63.0","0","0","14054","","null","","","null","6","","","","","","","","","","","","","","","NaN",""
"","S1","","html-keyboard-response","51","105707","0.0-1.0-65.0","0","0","14054","","null","","","null","7","","","","","","","","","","","","","","","",""
"","ISI","","html-keyboard-response","52","106721","0.0-1.0-66.0","0","0","14054","","null","","","null","7","NaN","","","","","","","","","","","","","","",""
"","S2","","html-keyboard-response","53","106984","0.0-1.0-67.0","0","0","14054","","null","","","null","7","","NaN","","","","","","","","","","","","","",""
"","response","","html-keyboard-response","54","107567","0.0-1.0-68.0-0.0","0","0","14054","","581","","","75","7","","","1","7","training","adjacent","GF","7","6","P.jpg","M.jpg","0","0","1","",""
"","feedback","","html-keyboard-response","55","108574","0.0-1.0-69.0-0.0","0","0","14054","","null","","","null","7","","","","","","","","","","","","","","","",""
"","ITI","","html-keyboard-response","56","109583","0.0-1.0-72.0","0","0","14054","","null","","","null","7","","","","","","","","","","","","","","","NaN",""
"","S1","","html-keyboard-response","57","109848","0.0-1.0-74.0","0","0","14054","","null","","","null","8","","","","","","","","","","","","","","","",""
"","ISI","","html-keyboard-response","58","110856","0.0-1.0-75.0","0","0","14054","","null","","","null","8","NaN","","","","","","","","","","","","","","",""
"","S2","","html-keyboard-response","59","111122","0.0-1.0-76.0","0","0","14054","","null","","","null","8","","NaN","","","","","","","","","","","","","",""
"","response","","html-keyboard-response","60","111654","0.0-1.0-77.0-0.0","0","0","14054","","530","","","68","8","","","1","8","training","adjacent","CD","3","4","O.jpg","Q.jpg","1","1","1","",""
"","feedback","","html-keyboard-response","61","112657","0.0-1.0-78.0-0.0","0","0","14054","","null","","","null","8","","","","","","","","","","","","","","","",""
"","ITI","","html-keyboard-response","62","113667","0.0-1.0-81.0","0","0","14054","","null","","","null","8","","","","","","","","","","","","","","","NaN",""
"","S1","","html-keyboard-response","63","113932","0.0-1.0-83.0","0","0","14054","","null","","","null","9","","","","","","","","","","","","","","","",""
"","ISI","","html-keyboard-response","64","114942","0.0-1.0-84.0","0","0","14054","","null","","","null","9","NaN","","","","","","","","","","","","","","",""
"","S2","","html-keyboard-response","65","115206","0.0-1.0-85.0","0","0","14054","","null","","","null","9","","NaN","","","","","","","","","","","","","",""
"","response","","html-keyboard-response","66","115680","0.0-1.0-86.0-0.0","0","0","14054","","472","","","75","9","","","1","9","training","adjacent","AB","1","2","R.jpg","L.jpg","0","1","0","",""
"","feedback","","html-keyboard-response","67","116696","0.0-1.0-87.0-0.0","0","0","14054","","null","","","null","9","","","","","","","","","","","","","","","",""
"","time_out","","html-keyboard-response","68","118699","0.0-1.0-89.0-0.0","0","0","14054","","null","","","null","9","","","","","","","","","","","","","","","",""
"","ITI","","html-keyboard-response","69","119714","0.0-1.0-90.0","0","0","14054","","null","","","null","9","","","","","","","","","","","","","","","NaN",""
"","S1","","html-keyboard-response","70","119977","0.0-1.0-92.0","0","0","14054","","null","","","null","10","","","","","","","","","","","","","","","",""
"","ISI","","html-keyboard-response","71","120986","0.0-1.0-93.0","0","0","14054","","null","","","null","10","NaN","","","","","","","","","","","","","","",""
"","S2","","html-keyboard-response","72","121248","0.0-1.0-94.0","0","0","14054","","null","","","null","10","","NaN","","","","","","","","","","","","","",""
"","response","","html-keyboard-response","73","121765","0.0-1.0-95.0-0.0","0","0","14054","","516","","","68","10","","","1","10","training","adjacent","BC","2","3","L.jpg","O.jpg","1","1","1","",""
"","feedback","","html-keyboard-response","74","122781","0.0-1.0-96.0-0.0","0","0","14054","","null","","","null","10","","","","","","","","","","","","","","","",""
"","ITI","","html-keyboard-response","75","123796","0.0-1.0-99.0","0","0","14054","","null","","","null","10","","","","","","","","","","","","","","","NaN",""
"","S1","","html-keyboard-response","76","124048","0.0-1.0-101.0","0","0","14054","","null","","","null","11","","","","","","","","","","","","","","","",""
"","ISI","","html-keyboard-response","77","125055","0.0-1.0-102.0","0","0","14054","","null","","","null","11","NaN","","","","","","","","","","","","","","",""
"","S2","","html-keyboard-response","78","125318","0.0-1.0-103.0","0","0","14054","","null","","","null","11","","NaN","","","","","","","","","","","","","",""
"","response","","html-keyboard-response","79","126281","0.0-1.0-104.0-0.0","0","0","14054","","962","","","75","11","","","1","11","training","adjacent","DC","4","3","Q.jpg","O.jpg","0","0","1","",""
"","feedback","","html-keyboard-response","80","127291","0.0-1.0-105.0-0.0","0","0","14054","","null","","","null","11","","","","","","","","","","","","","","","",""
"","ITI","","html-keyboard-response","81","128300","0.0-1.0-108.0","0","0","14054","","null","","","null","11","","","","","","","","","","","","","","","NaN",""
"","S1","","html-keyboard-response","82","128566","0.0-1.0-110.0","0","0","14054","","null","","","null","12","","","","","","","","","","","","","","","",""
"","ISI","","html-keyboard-response","83","129574","0.0-1.0-111.0","0","0","14054","","null","","","null","12","NaN","","","","","","","","","","","","","","",""
"","S2","","html-keyboard-response","84","129839","0.0-1.0-112.0","0","0","14054","","null","","","null","12","","NaN","","","","","","","","","","","","","",""
"","response","","html-keyboard-response","85","130856","0.0-1.0-113.0-0.0","0","0","14054","","1016","","","75","12","","","1","12","training","adjacent","ED","5","4","N.jpg","Q.jpg","0","0","1","",""
"","feedback","","html-keyboard-response","86","131859","0.0-1.0-114.0-0.0","0","0","14054","","null","","","null","12","","","","","","","","","","","","","","","",""
"","ITI","","html-keyboard-response","87","132863","0.0-1.0-117.0","0","0","14054","","null","","","null","12","","","","","","","","","","","","","","","NaN",""
"","S1","","html-keyboard-response","88","133126","0.0-1.0-119.0","0","0","14054","","null","","","null","13","","","","","","","","","","","","","","","",""
"","ISI","","html-keyboard-response","89","134134","0.0-1.0-120.0","0","0","14054","","null","","","null","13","NaN","","","","","","","","","","","","","","",""
"","S2","","html-keyboard-response","90","134399","0.0-1.0-121.0","0","0","14054","","null","","","null","13","","NaN","","","","","","","","","","","","","",""
"","response","","html-keyboard-response","91","135047","0.0-1.0-122.0-0.0","0","0","14054","","647","","","75","13","","","1","13","training","adjacent","DC","4","3","Q.jpg","O.jpg","0","0","1","",""
"","feedback","","html-keyboard-response","92","136064","0.0-1.0-123.0-0.0","0","0","14054","","null","","","null","13","","","","","","","","","","","","","","","",""
"","ITI","","html-keyboard-response","93","137071","0.0-1.0-126.0","0","0","14054","","null","","","null","13","","","","","","","","","","","","","","","NaN",""
"","S1","","html-keyboard-response","94","137335","0.0-1.0-128.0","0","0","14054","","null","","","null","14","","","","","","","","","","","","","","","",""
"","ISI","","html-keyboard-response","95","138347","0.0-1.0-129.0","0","0","14054","","null","","","null","14","NaN","","","","","","","","","","","","","","",""
"","S2","","html-keyboard-response","96","138610","0.0-1.0-130.0","0","0","14054","","null","","","null","14","","NaN","","","","","","","","","","","","","",""
"","response","","html-keyboard-response","97","139134","0.0-1.0-131.0-0.0","0","0","14054","","521","","","68","14","","","1","14","training","adjacent","GF","7","6","P.jpg","M.jpg","1","0","0","",""
"","feedback","","html-keyboard-response","98","140149","0.0-1.0-132.0-0.0","0","0","14054","","null","","","null","14","","","","","","","","","","","","","","","",""
"","time_out","","html-keyboard-response","99","142165","0.0-1.0-134.0-0.0","0","0","14054","","null","","","null","14","","","","","","","","","","","","","","","",""
"","ITI","","html-keyboard-response","100","143180","0.0-1.0-135.0","0","0","14054","","null","","","null","14","","","","","","","","","","","","","","","NaN",""
"","S1","","html-keyboard-response","101","143441","0.0-1.0-137.0","0","0","14054","","null","","","null","15","","","","","","","","","","","","","","","",""
"","ISI","","html-keyboard-response","102","144447","0.0-1.0-138.0","0","0","14054","","null","","","null","15","NaN","","","","","","","","","","","","","","",""
"","S2","","html-keyboard-response","103","144710","0.0-1.0-139.0","0","0","14054","","null","","","null","15","","NaN","","","","","","","","","","","","","",""
"","response","","html-keyboard-response","104","145041","0.0-1.0-140.0-0.0","0","0","14054","","329","","","75","15","","","1","15","training","adjacent","CB","3","2","O.jpg","L.jpg","0","0","1","",""
"","feedback","","html-keyboard-response","105","146049","0.0-1.0-141.0-0.0","0","0","14054","","null","","","null","15","","","","","","","","","","","","","","","",""
"","ITI","","html-keyboard-response","106","147058","0.0-1.0-144.0","0","0","14054","","null","","","null","15","","","","","","","","","","","","","","","NaN",""
"","S1","","html-keyboard-response","107","147323","0.0-1.0-146.0","0","0","14054","","null","","","null","16","","","","","","","","","","","","","","","",""
"","ISI","","html-keyboard-response","108","148336","0.0-1.0-147.0","0","0","14054","","null","","","null","16","NaN","","","","","","","","","","","","","","",""
"","S2","","html-keyboard-response","109","148599","0.0-1.0-148.0","0","0","14054","","null","","","null","16","","NaN","","","","","","","","","","","","","",""
"","response","","html-keyboard-response","110","149010","0.0-1.0-149.0-0.0","0","0","14054","","410","","","68","16","","","1","16","training","adjacent","BA","2","1","L.jpg","R.jpg","1","0","0","",""
"","feedback","","html-keyboard-response","111","150013","0.0-1.0-150.0-0.0","0","0","14054","","null","","","null","16","","","","","","","","","","","","","","","",""
"","time_out","","html-keyboard-response","112","152017","0.0-1.0-152.0-0.0","0","0","14054","","null","","","null","16","","","","","","","","","","","","","","","",""
"","ITI","","html-keyboard-response","113","153027","0.0-1.0-153.0","0","0","14054","","null","","","null","16","","","","","","","","","","","","","","","NaN",""
"","S1","","html-keyboard-response","114","153292","0.0-1.0-155.0","0","0","14054","","null","","","null","17","","","","","","","","","","","","","","","",""
"","ISI","","html-keyboard-response","115","154299","0.0-1.0-156.0","0","0","14054","","null","","","null","17","NaN","","","","","","","","","","","","","","",""
"","S2","","html-keyboard-response","116","154565","0.0-1.0-157.0","0","0","14054","","null","","","null","17","","NaN","","","","","","","","","","","","","",""
"","response","","html-keyboard-response","117","154888","0.0-1.0-158.0-0.0","0","0","14054","","322","","","68","17","","","1","17","training","adjacent","GF","7","6","P.jpg","M.jpg","1","0","0","",""
"","feedback","","html-keyboard-response","118","155903","0.0-1.0-159.0-0.0","0","0","14054","","null","","","null","17","","","","","","","","","","","","","","","",""
"","time_out","","html-keyboard-response","119","157908","0.0-1.0-161.0-0.0","0","0","14054","","null","","","null","17","","","","","","","","","","","","","","","",""
"","ITI","","html-keyboard-response","120","158915","0.0-1.0-162.0","0","0","14054","","null","","","null","17","","","","","","","","","","","","","","","NaN",""
"","S1","","html-keyboard-response","121","159176","0.0-1.0-164.0","0","0","14054","","null","","","null","18","","","","","","","","","","","","","","","",""
"","ISI","","html-keyboard-response","122","160186","0.0-1.0-165.0","0","0","14054","","null","","","null","18","NaN","","","","","","","","","","","","","","",""
"","S2","","html-keyboard-response","123","160453","0.0-1.0-166.0","0","0","14054","","null","","","null","18","","NaN","","","","","","","","","","","","","",""
"","response","","html-keyboard-response","124","160782","0.0-1.0-167.0-0.0","0","0","14054","","327","","","68","18","","","1","18","training","adjacent","FE","6","5","M.jpg","N.jpg","1","0","0","",""
"","feedback","","html-keyboard-response","125","161788","0.0-1.0-168.0-0.0","0","0","14054","","null","","","null","18","","","","","","","","","","","","","","","",""
"","time_out","","html-keyboard-response","126","163798","0.0-1.0-170.0-0.0","0","0","14054","","null","","","null","18","","","","","","","","","","","","","","","",""
"","ITI","","html-keyboard-response","127","164807","0.0-1.0-171.0","0","0","14054","","null","","","null","18","","","","","","","","","","","","","","","NaN",""
"","S1","","html-keyboard-response","128","165070","0.0-1.0-173.0","0","0","14054","","null","","","null","19","","","","","","","","","","","","","","","",""
"","ISI","","html-keyboard-response","129","166083","0.0-1.0-174.0","0","0","14054","","null","","","null","19","NaN","","","","","","","","","","","","","","",""
"","S2","","html-keyboard-response","130","166347","0.0-1.0-175.0","0","0","14054","","null","","","null","19","","NaN","","","","","","","","","","","","","",""
"","response","","html-keyboard-response","131","166585","0.0-1.0-176.0-0.0","0","0","14054","","236","","","75","19","","","1","19","training","adjacent","AB","1","2","R.jpg","L.jpg","0","1","0","",""
"","feedback","","html-keyboard-response","132","167587","0.0-1.0-177.0-0.0","0","0","14054","","null","","","null","19","","","","","","","","","","","","","","","",""
"","time_out","","html-keyboard-response","133","169598","0.0-1.0-179.0-0.0","0","0","14054","","null","","","null","19","","","","","","","","","","","","","","","",""
"","ITI","","html-keyboard-response","134","170608","0.0-1.0-180.0","0","0","14054","","null","","","null","19","","","","","","","","","","","","","","","NaN",""
"","S1","","html-keyboard-response","135","170872","0.0-1.0-182.0","0","0","14054","","null","","","null","20","","","","","","","","","","","","","","","",""
"","ISI","","html-keyboard-response","136","171882","0.0-1.0-183.0","0","0","14054","","null","","","null","20","NaN","","","","","","","","","","","","","","",""
"","S2","","html-keyboard-response","137","172149","0.0-1.0-184.0","0","0","14054","","null","","","null","20","","NaN","","","","","","","","","","","","","",""
"","response","","html-keyboard-response","138","172611","0.0-1.0-185.0-0.0","0","0","14054","","461","","","75","20","","","1","20","training","adjacent","FE","6","5","M.jpg","N.jpg","0","0","1","",""
"","feedback","","html-keyboard-response","139","173627","0.0-1.0-186.0-0.0","0","0","14054","","null","","","null","20","","","","","","","","","","","","","","","",""
"","ITI","","html-keyboard-response","140","174641","0.0-1.0-189.0","0","0","14054","","null","","","null","20","","","","","","","","","","","","","","","NaN",""
"","S1","","html-keyboard-response","141","174902","0.0-1.0-191.0","0","0","14054","","null","","","null","21","","","","","","","","","","","","","","","",""
"","ISI","","html-keyboard-response","142","175908","0.0-1.0-192.0","0","0","14054","","null","","","null","21","NaN","","","","","","","","","","","","","","",""
"","S2","","html-keyboard-response","143","176171","0.0-1.0-193.0","0","0","14054","","null","","","null","21","","NaN","","","","","","","","","","","","","",""
"","response","","html-keyboard-response","144","176668","0.0-1.0-194.0-0.0","0","0","14054","","496","","","75","21","","","1","21","training","adjacent","ED","5","4","N.jpg","Q.jpg","0","0","1","",""
"","feedback","","html-keyboard-response","145","177678","0.0-1.0-195.0-0.0","0","0","14054","","null","","","null","21","","","","","","","","","","","","","","","",""
"","ITI","","html-keyboard-response","146","178689","0.0-1.0-198.0","0","0","14054","","null","","","null","21","","","","","","","","","","","","","","","NaN",""
"","S1","","html-keyboard-response","147","178954","0.0-1.0-200.0","0","0","14054","","null","","","null","22","","","","","","","","","","","","","","","",""
"","ISI","","html-keyboard-response","148","179969","0.0-1.0-201.0","0","0","14054","","null","","","null","22","NaN","","","","","","","","","","","","","","",""
"","S2","","html-keyboard-response","149","180234","0.0-1.0-202.0","0","0","14054","","null","","","null","22","","NaN","","","","","","","","","","","","","",""
"","response","","html-keyboard-response","150","180605","0.0-1.0-203.0-0.0","0","0","14054","","370","","","68","22","","","1","22","training","adjacent","CD","3","4","O.jpg","Q.jpg","1","1","1","",""
"","feedback","","html-keyboard-response","151","181619","0.0-1.0-204.0-0.0","0","0","14054","","null","","","null","22","","","","","","","","","","","","","","","",""
"","ITI","","html-keyboard-response","152","182624","0.0-1.0-207.0","0","0","14054","","null","","","null","22","","","","","","","","","","","","","","","NaN",""
"","S1","","html-keyboard-response","153","182886","0.0-1.0-209.0","0","0","14054","","null","","","null","23","","","","","","","","","","","","","","","",""
"","ISI","","html-keyboard-response","154","183894","0.0-1.0-210.0","0","0","14054","","null","","","null","23","NaN","","","","","","","","","","","","","","",""
"","S2","","html-keyboard-response","155","184157","0.0-1.0-211.0","0","0","14054","","null","","","null","23","","NaN","","","","","","","","","","","","","",""
"","response","","html-keyboard-response","156","184441","0.0-1.0-212.0-0.0","0","0","14054","","283","","","75","23","","","1","23","training","adjacent","CD","3","4","O.jpg","Q.jpg","0","1","0","",""
"","feedback","","html-keyboard-response","157","185447","0.0-1.0-213.0-0.0","0","0","14054","","null","","","null","23","","","","","","","","","","","","","","","",""
"","time_out","","html-keyboard-response","158","187452","0.0-1.0-215.0-0.0","0","0","14054","","null","","","null","23","","","","","","","","","","","","","","","",""
"","ITI","","html-keyboard-response","159","188464","0.0-1.0-216.0","0","0","14054","","null","","","null","23","","","","","","","","","","","","","","","NaN",""
"","S1","","html-keyboard-response","160","188728","0.0-1.0-218.0","0","0","14054","","null","","","null","24","","","","","","","","","","","","","","","",""
"","ISI","","html-keyboard-response","161","189738","0.0-1.0-219.0","0","0","14054","","null","","","null","24","NaN","","","","","","","","","","","","","","",""
"","S2","","html-keyboard-response","162","190002","0.0-1.0-220.0","0","0","14054","","null","","","null","24","","NaN","","","","","","","","","","","","","",""
"","response","","html-keyboard-response","163","190955","0.0-1.0-221.0-0.0","0","0","14054","","952","","","68","24","","","1","24","training","adjacent","CD","3","4","O.jpg","Q.jpg","1","1","1","",""
"","feedback","","html-keyboard-response","164","191970","0.0-1.0-222.0-0.0","0","0","14054","","null","","","null","24","","","","","","","","","","","","","","","",""
"","ITI","","html-keyboard-response","165","192987","0.0-1.0-225.0","0","0","14054","","null","","","null","24","","","","","","","","","","","","","","","NaN",""
"","S1","","html-keyboard-response","166","193250","0.0-1.0-227.0","0","0","14054","","null","","","null","25","","","","","","","","","","","","","","","",""
"","ISI","","html-keyboard-response","167","194262","0.0-1.0-228.0","0","0","14054","","null","","","null","25","NaN","","","","","","","","","","","","","","",""
"","S2","","html-keyboard-response","168","194528","0.0-1.0-229.0","0","0","14054","","null","","","null","25","","NaN","","","","","","","","","","","","","",""
"","response","","html-keyboard-response","169","195649","0.0-1.0-230.0-0.0","0","0","14054","","1119","","","75","25","","","1","25","training","adjacent","BA","2","1","L.jpg","R.jpg","0","0","1","",""
"","feedback","","html-keyboard-response","170","196651","0.0-1.0-231.0-0.0","0","0","14054","","null","","","null","25","","","","","","","","","","","","","","","",""
"","ITI","","html-keyboard-response","171","197664","0.0-1.0-234.0","0","0","14054","","null","","","null","25","","","","","","","","","","","","","","","NaN",""
"","S1","","html-keyboard-response","172","197928","0.0-1.0-236.0","0","0","14054","","null","","","null","26","","","","","","","","","","","","","","","",""
"","ISI","","html-keyboard-response","173","198934","0.0-1.0-237.0","0","0","14054","","null","","","null","26","NaN","","","","","","","","","","","","","","",""
"","S2","","html-keyboard-response","174","199197","0.0-1.0-238.0","0","0","14054","","null","","","null","26","","NaN","","","","","","","","","","","","","",""
"","response","","html-keyboard-response","175","200179","0.0-1.0-239.0-0.0","0","0","14054","","980","","","75","26","","","1","26","training","adjacent","BA","2","1","L.jpg","R.jpg","0","0","1","",""
"","feedback","","html-keyboard-response","176","201183","0.0-1.0-240.0-0.0","0","0","14054","","null","","","null","26","","","","","","","","","","","","","","","",""
"","ITI","","html-keyboard-response","177","202191","0.0-1.0-243.0","0","0","14054","","null","","","null","26","","","","","","","","","","","","","","","NaN",""
"","S1","","html-keyboard-response","178","202455","0.0-1.0-245.0","0","0","14054","","null","","","null","27","","","","","","","","","","","","","","","",""
"","ISI","","html-keyboard-response","179","203470","0.0-1.0-246.0","0","0","14054","","null","","","null","27","NaN","","","","","","","","","","","","","","",""
"","S2","","html-keyboard-response","180","203734","0.0-1.0-247.0","0","0","14054","","null","","","null","27","","NaN","","","","","","","","","","","","","",""
"","response","","html-keyboard-response","181","204695","0.0-1.0-248.0-0.0","0","0","14054","","959","","","75","27","","","1","27","training","adjacent","ED","5","4","N.jpg","Q.jpg","0","0","1","",""
"","feedback","","html-keyboard-response","182","205704","0.0-1.0-249.0-0.0","0","0","14054","","null","","","null","27","","","","","","","","","","","","","","","",""
"","ITI","","html-keyboard-response","183","206713","0.0-1.0-252.0","0","0","14054","","null","","","null","27","","","","","","","","","","","","","","","NaN",""
"","S1","","html-keyboard-response","184","206976","0.0-1.0-254.0","0","0","14054","","null","","","null","28","","","","","","","","","","","","","","","",""
"","ISI","","html-keyboard-response","185","207985","0.0-1.0-255.0","0","0","14054","","null","","","null","28","NaN","","","","","","","","","","","","","","",""
"","S2","","html-keyboard-response","186","208249","0.0-1.0-256.0","0","0","14054","","null","","","null","28","","NaN","","","","","","","","","","","","","",""
"","response","","html-keyboard-response","187","209180","0.0-1.0-257.0-0.0","0","0","14054","","929","","","68","28","","","1","28","training","adjacent","EF","5","6","N.jpg","M.jpg","1","1","1","",""
"","feedback","","html-keyboard-response","188","210194","0.0-1.0-258.0-0.0","0","0","14054","","null","","","null","28","","","","","","","","","","","","","","","",""
"","ITI","","html-keyboard-response","189","211210","0.0-1.0-261.0","0","0","14054","","null","","","null","28","","","","","","","","","","","","","","","NaN",""
"","S1","","html-keyboard-response","190","211474","0.0-1.0-263.0","0","0","14054","","null","","","null","29","","","","","","","","","","","","","","","",""
"","ISI","","html-keyboard-response","191","212483","0.0-1.0-264.0","0","0","14054","","null","","","null","29","NaN","","","","","","","","","","","","","","",""
"","S2","","html-keyboard-response","192","212749","0.0-1.0-265.0","0","0","14054","","null","","","null","29","","NaN","","","","","","","","","","","","","",""
"","response","","html-keyboard-response","193","213799","0.0-1.0-266.0-0.0","0","0","14054","","1049","","","68","29","","","1","29","training","adjacent","BC","2","3","L.jpg","O.jpg","1","1","1","",""
"","feedback","","html-keyboard-response","194","214814","0.0-1.0-267.0-0.0","0","0","14054","","null","","","null","29","","","","","","","","","","","","","","","",""
"","ITI","","html-keyboard-response","195","215822","0.0-1.0-270.0","0","0","14054","","null","","","null","29","","","","","","","","","","","","","","","NaN",""
"","S1","","html-keyboard-response","196","216088","0.0-1.0-272.0","0","0","14054","","null","","","null","30","","","","","","","","","","","","","","","",""
"","ISI","","html-keyboard-response","197","217098","0.0-1.0-273.0","0","0","14054","","null","","","null","30","NaN","","","","","","","","","","","","","","",""
"","S2","","html-keyboard-response","198","217360","0.0-1.0-274.0","0","0","14054","","null","","","null","30","","NaN","","","","","","","","","","","","","",""
"","response","","html-keyboard-response","199","218478","0.0-1.0-275.0-0.0","0","0","14054","","1116","","","75","30","","","1","30","training","adjacent","DE","4","5","Q.jpg","N.jpg","0","1","0","",""
"","feedback","","html-keyboard-response","200","219487","0.0-1.0-276.0-0.0","0","0","14054","","null","","","null","30","","","","","","","","","","","","","","","",""
"","time_out","","html-keyboard-response","201","221504","0.0-1.0-278.0-0.0","0","0","14054","","null","","","null","30","","","","","","","","","","","","","","","",""
"","ITI","","html-keyboard-response","202","222515","0.0-1.0-279.0","0","0","14054","","null","","","null","30","","","","","","","","","","","","","","","NaN",""
"","S1","","html-keyboard-response","203","222779","0.0-1.0-281.0","0","0","14054","","null","","","null","31","","","","","","","","","","","","","","","",""
"","ISI","","html-keyboard-response","204","223790","0.0-1.0-282.0","0","0","14054","","null","","","null","31","NaN","","","","","","","","","","","","","","",""
"","S2","","html-keyboard-response","205","224056","0.0-1.0-283.0","0","0","14054","","null","","","null","31","","NaN","","","","","","","","","","","","","",""
"","response","","html-keyboard-response","206","224799","0.0-1.0-284.0-0.0","0","0","14054","","742","","","75","31","","","1","31","training","adjacent","AB","1","2","R.jpg","L.jpg","0","1","0","",""
"","feedback","","html-keyboard-response","207","225814","0.0-1.0-285.0-0.0","0","0","14054","","null","","","null","31","","","","","","","","","","","","","","","",""
"","time_out","","html-keyboard-response","208","227827","0.0-1.0-287.0-0.0","0","0","14054","","null","","","null","31","","","","","","","","","","","","","","","",""
"","ITI","","html-keyboard-response","209","228842","0.0-1.0-288.0","0","0","14054","","null","","","null","31","","","","","","","","","","","","","","","NaN",""
"","S1","","html-keyboard-response","210","229105","0.0-1.0-290.0","0","0","14054","","null","","","null","32","","","","","","","","","","","","","","","",""
"","ISI","","html-keyboard-response","211","230116","0.0-1.0-291.0","0","0","14054","","null","","","null","32","NaN","","","","","","","","","","","","","","",""
"","S2","","html-keyboard-response","212","230380","0.0-1.0-292.0","0","0","14054","","null","","","null","32","","NaN","","","","","","","","","","","","","",""
"","response","","html-keyboard-response","213","230973","0.0-1.0-293.0-0.0","0","0","14054","","592","","","68","32","","","1","32","training","adjacent","DE","4","5","Q.jpg","N.jpg","1","1","1","",""
"","feedback","","html-keyboard-response","214","231985","0.0-1.0-294.0-0.0","0","0","14054","","null","","","null","32","","","","","","","","","","","","","","","",""
"","ITI","","html-keyboard-response","215","232999","0.0-1.0-297.0","0","0","14054","","null","","","null","32","","","","","","","","","","","","","","","NaN",""
"","S1","","html-keyboard-response","216","233264","0.0-1.0-299.0","0","0","14054","","null","","","null","33","","","","","","","","","","","","","","","",""
"","ISI","","html-keyboard-response","217","234274","0.0-1.0-300.0","0","0","14054","","null","","","null","33","NaN","","","","","","","","","","","","","","",""
"","S2","","html-keyboard-response","218","234540","0.0-1.0-301.0","0","0","14054","","null","","","null","33","","NaN","","","","","","","","","","","","","",""
"","response","","html-keyboard-response","219","235118","0.0-1.0-302.0-0.0","0","0","14054","","576","","","75","33","","","1","33","training","adjacent","FG","6","7","M.jpg","P.jpg","0","1","0","",""
"","feedback","","html-keyboard-response","220","236127","0.0-1.0-303.0-0.0","0","0","14054","","null","","","null","33","","","","","","","","","","","","","","","",""
"","time_out","","html-keyboard-response","221","238132","0.0-1.0-305.0-0.0","0","0","14054","","null","","","null","33","","","","","","","","","","","","","","","",""
"","ITI","","html-keyboard-response","222","239142","0.0-1.0-306.0","0","0","14054","","null","","","null","33","","","","","","","","","","","","","","","NaN",""
"","S1","","html-keyboard-response","223","239405","0.0-1.0-308.0","0","0","14054","","null","","","null","34","","","","","","","","","","","","","","","",""
"","ISI","","html-keyboard-response","224","240415","0.0-1.0-309.0","0","0","14054","","null","","","null","34","NaN","","","","","","","","","","","","","","",""
"","S2","","html-keyboard-response","225","240680","0.0-1.0-310.0","0","0","14054","","null","","","null","34","","NaN","","","","","","","","","","","","","",""
"","response","","html-keyboard-response","226","241515","0.0-1.0-311.0-0.0","0","0","14054","","833","","","68","34","","","1","34","training","adjacent","FE","6","5","M.jpg","N.jpg","1","0","0","",""
"","feedback","","html-keyboard-response","227","242529","0.0-1.0-312.0-0.0","0","0","14054","","null","","","null","34","","","","","","","","","","","","","","","",""
"","time_out","","html-keyboard-response","228","244535","0.0-1.0-314.0-0.0","0","0","14054","","null","","","null","34","","","","","","","","","","","","","","","",""
"","ITI","","html-keyboard-response","229","245550","0.0-1.0-315.0","0","0","14054","","null","","","null","34","","","","","","","","","","","","","","","NaN",""
"","S1","","html-keyboard-response","230","245814","0.0-1.0-317.0","0","0","14054","","null","","","null","35","","","","","","","","","","","","","","","",""
"","ISI","","html-keyboard-response","231","246827","0.0-1.0-318.0","0","0","14054","","null","","","null","35","NaN","","","","","","","","","","","","","","",""
"","S2","","html-keyboard-response","232","247092","0.0-1.0-319.0","0","0","14054","","null","","","null","35","","NaN","","","","","","","","","","","","","",""
"","response","","html-keyboard-response","233","247941","0.0-1.0-320.0-0.0","0","0","14054","","848","","","75","35","","","1","35","training","adjacent","ED","5","4","N.jpg","Q.jpg","0","0","1","",""
"","feedback","","html-keyboard-response","234","248946","0.0-1.0-321.0-0.0","0","0","14054","","null","","","null","35","","","","","","","","","","","","","","","",""
"","ITI","","html-keyboard-response","235","249948","0.0-1.0-324.0","0","0","14054","","null","","","null","35","","","","","","","","","","","","","","","NaN",""
"","S1","","html-keyboard-response","236","250213","0.0-1.0-326.0","0","0","14054","","null","","","null","36","","","","","","","","","","","","","","","",""
"","ISI","","html-keyboard-response","237","251228","0.0-1.0-327.0","0","0","14054","","null","","","null","36","NaN","","","","","","","","","","","","","","",""
"","S2","","html-keyboard-response","238","251491","0.0-1.0-328.0","0","0","14054","","null","","","null","36","","NaN","","","","","","","","","","","","","",""
"","response","","html-keyboard-response","239","252352","0.0-1.0-329.0-0.0","0","0","14054","","860","","","68","36","","","1","36","training","adjacent","FG","6","7","M.jpg","P.jpg","1","1","1","",""
"","feedback","","html-keyboard-response","240","253369","0.0-1.0-330.0-0.0","0","0","14054","","null","","","null","36","","","","","","","","","","","","","","","",""
"","ITI","","html-keyboard-response","241","254381","0.0-1.0-333.0","0","0","14054","","null","","","null","36","","","","","","","","","","","","","","","NaN",""
"","S1","","html-keyboard-response","242","254644","0.0-1.0-335.0","0","0","14054","","null","","","null","37","","","","","","","","","","","","","","","",""
"","ISI","","html-keyboard-response","243","255653","0.0-1.0-336.0","0","0","14054","","null","","","null","37","NaN","","","","","","","","","","","","","","",""
"","S2","","html-keyboard-response","244","255918","0.0-1.0-337.0","0","0","14054","","null","","","null","37","","NaN","","","","","","","","","","","","","",""
"","response","","html-keyboard-response","245","257060","0.0-1.0-338.0-0.0","0","0","14054","","1141","","","75","37","","","1","37","training","adjacent","CB","3","2","O.jpg","L.jpg","0","0","1","",""
"","feedback","","html-keyboard-response","246","258074","0.0-1.0-339.0-0.0","0","0","14054","","null","","","null","37","","","","","","","","","","","","","","","",""
"","ITI","","html-keyboard-response","247","259090","0.0-1.0-342.0","0","0","14054","","null","","","null","37","","","","","","","","","","","","","","","NaN",""
"","S1","","html-keyboard-response","248","259345","0.0-1.0-344.0","0","0","14054","","null","","","null","38","","","","","","","","","","","","","","","",""
"","ISI","","html-keyboard-response","249","260347","0.0-1.0-345.0","0","0","14054","","null","","","null","38","NaN","","","","","","","","","","","","","","",""
"","S2","","html-keyboard-response","250","260610","0.0-1.0-346.0","0","0","14054","","null","","","null","38","","NaN","","","","","","","","","","","","","",""
"","response","","html-keyboard-response","251","261502","0.0-1.0-347.0-0.0","0","0","14054","","891","","","75","38","","","1","38","training","adjacent","AB","1","2","R.jpg","L.jpg","0","1","0","",""
"","feedback","","html-keyboard-response","252","262507","0.0-1.0-348.0-0.0","0","0","14054","","null","","","null","38","","","","","","","","","","","","","","","",""
"","time_out","","html-keyboard-response","253","264512","0.0-1.0-350.0-0.0","0","0","14054","","null","","","null","38","","","","","","","","","","","","","","","",""
"","ITI","","html-keyboard-response","254","265524","0.0-1.0-351.0","0","0","14054","","null","","","null","38","","","","","","","","","","","","","","","NaN",""
"","S1","","html-keyboard-response","255","265790","0.0-1.0-353.0","0","0","14054","","null","","","null","39","","","","","","","","","","","","","","","",""
"","ISI","","html-keyboard-response","256","266801","0.0-1.0-354.0","0","0","14054","","null","","","null","39","NaN","","","","","","","","","","","","","","",""
"","S2","","html-keyboard-response","257","267063","0.0-1.0-355.0","0","0","14054","","null","","","null","39","","NaN","","","","","","","","","","","","","",""
"","response","","html-keyboard-response","258","267825","0.0-1.0-356.0-0.0","0","0","14054","","761","","","75","39","","","1","39","training","adjacent","EF","5","6","N.jpg","M.jpg","0","1","0","",""
"","feedback","","html-keyboard-response","259","268835","0.0-1.0-357.0-0.0","0","0","14054","","null","","","null","39","","","","","","","","","","","","","","","",""
"","time_out","","html-keyboard-response","260","270844","0.0-1.0-359.0-0.0","0","0","14054","","null","","","null","39","","","","","","","","","","","","","","","",""
"","ITI","","html-keyboard-response","261","271849","0.0-1.0-360.0","0","0","14054","","null","","","null","39","","","","","","","","","","","","","","","NaN",""
"","S1","","html-keyboard-response","262","272114","0.0-1.0-362.0","0","0","14054","","null","","","null","40","","","","","","","","","","","","","","","",""
"","ISI","","html-keyboard-response","263","273124","0.0-1.0-363.0","0","0","14054","","null","","","null","40","NaN","","","","","","","","","","","","","","",""
"","S2","","html-keyboard-response","264","273387","0.0-1.0-364.0","0","0","14054","","null","","","null","40","","NaN","","","","","","","","","","","","","",""
"","response","","html-keyboard-response","265","274058","0.0-1.0-365.0-0.0","0","0","14054","","670","","","75","40","","","1","40","training","adjacent","CB","3","2","O.jpg","L.jpg","0","0","1","",""
"","feedback","","html-keyboard-response","266","275067","0.0-1.0-366.0-0.0","0","0","14054","","null","","","null","40","","","","","","","","","","","","","","","",""
"","ITI","","html-keyboard-response","267","276076","0.0-1.0-369.0","0","0","14054","","null","","","null","40","","","","","","","","","","","","","","","NaN",""
"","S1","","html-keyboard-response","268","276340","0.0-1.0-371.0","0","0","14054","","null","","","null","41","","","","","","","","","","","","","","","",""
"","ISI","","html-keyboard-response","269","277350","0.0-1.0-372.0","0","0","14054","","null","","","null","41","NaN","","","","","","","","","","","","","","",""
"","S2","","html-keyboard-response","270","277615","0.0-1.0-373.0","0","0","14054","","null","","","null","41","","NaN","","","","","","","","","","","","","",""
"","response","","html-keyboard-response","271","279368","0.0-1.0-374.0-0.0","0","0","14054","","null","","","null","41","","","1","41","training","adjacent","CB","3","2","O.jpg","L.jpg","NaN","0","0","",""
"","too_slow_prompt","","html-keyboard-response","272","280378","0.0-1.0-376.0-0.0","1","0","14054","","null","","","null","","","","","","","","","","","","","","","","",""
"","time_out","","html-keyboard-response","273","282380","0.0-1.0-377.0-0.0","0","0","14054","","null","","","null","41","","","","","","","","","","","","","","","",""
"","ITI","","html-keyboard-response","274","283384","0.0-1.0-378.0","0","0","14054","","null","","","null","41","","","","","","","","","","","","","","","NaN",""
"","S1","","html-keyboard-response","275","283649","0.0-1.0-380.0","0","0","14054","","null","","","null","42","","","","","","","","","","","","","","","",""
"","ISI","","html-keyboard-response","276","284657","0.0-1.0-381.0","0","0","14054","","null","","","null","42","NaN","","","","","","","","","","","","","","",""
"","S2","","html-keyboard-response","277","284922","0.0-1.0-382.0","0","0","14054","","null","","","null","42","","NaN","","","","","","","","","","","","","",""
"","response","","html-keyboard-response","278","285563","0.0-1.0-383.0-0.0","0","0","14054","","639","","","68","42","","","1","42","training","adjacent","DE","4","5","Q.jpg","N.jpg","1","1","1","",""
"","feedback","","html-keyboard-response","279","286579","0.0-1.0-384.0-0.0","0","0","14054","","null","","","null","42","","","","","","","","","","","","","","","",""
"","ITI","","html-keyboard-response","280","287583","0.0-1.0-387.0","0","0","14054","","null","","","null","42","","","","","","","","","","","","","","","NaN",""
"","S1","","html-keyboard-response","281","287845","0.0-1.0-389.0","0","0","14054","","null","","","null","43","","","","","","","","","","","","","","","",""
"","ISI","","html-keyboard-response","282","288854","0.0-1.0-390.0","0","0","14054","","null","","","null","43","NaN","","","","","","","","","","","","","","",""
"","S2","","html-keyboard-response","283","289119","0.0-1.0-391.0","0","0","14054","","null","","","null","43","","NaN","","","","","","","","","","","","","",""
"","response","","html-keyboard-response","284","289844","0.0-1.0-392.0-0.0","0","0","14054","","723","","","75","43","","","1","43","training","adjacent","DC","4","3","Q.jpg","O.jpg","0","0","1","",""
"","feedback","","html-keyboard-response","285","290860","0.0-1.0-393.0-0.0","0","0","14054","","null","","","null","43","","","","","","","","","","","","","","","",""
"","ITI","","html-keyboard-response","286","291867","0.0-1.0-396.0","0","0","14054","","null","","","null","43","","","","","","","","","","","","","","","NaN",""
"","S1","","html-keyboard-response","287","292130","0.0-1.0-398.0","0","0","14054","","null","","","null","44","","","","","","","","","","","","","","","",""
"","ISI","","html-keyboard-response","288","293140","0.0-1.0-399.0","0","0","14054","","null","","","null","44","NaN","","","","","","","","","","","","","","",""
"","S2","","html-keyboard-response","289","293402","0.0-1.0-400.0","0","0","14054","","null","","","null","44","","NaN","","","","","","","","","","","","","",""
"","response","","html-keyboard-response","290","294313","0.0-1.0-401.0-0.0","0","0","14054","","910","","","75","44","","","1","44","training","adjacent","EF","5","6","N.jpg","M.jpg","0","1","0","",""
"","feedback","","html-keyboard-response","291","295330","0.0-1.0-402.0-0.0","0","0","14054","","null","","","null","44","","","","","","","","","","","","","","","",""
"","time_out","","html-keyboard-response","292","297338","0.0-1.0-404.0-0.0","0","0","14054","","null","","","null","44","","","","","","","","","","","","","","","",""
"","ITI","","html-keyboard-response","293","298351","0.0-1.0-405.0","0","0","14054","","957","","","68","44","","","","","","","","","","","","","","","d",""
"","S1","","html-keyboard-response","294","298614","0.0-1.0-407.0","0","0","14054","","null","","","null","45","","","","","","","","","","","","","","","",""
"","ISI","","html-keyboard-response","295","299621","0.0-1.0-408.0","0","0","14054","","null","","","null","45","NaN","","","","","","","","","","","","","","",""
"","S2","","html-keyboard-response","296","299885","0.0-1.0-409.0","0","0","14054","","null","","","null","45","","NaN","","","","","","","","","","","","","",""
"","response","","html-keyboard-response","297","299941","0.0-1.0-410.0-0.0","0","0","14054","","55","","","68","45","","","1","45","training","adjacent","FG","6","7","M.jpg","P.jpg","1","1","1","",""
"","feedback","","html-keyboard-response","298","300958","0.0-1.0-411.0-0.0","0","0","14054","","null","","","null","45","","","","","","","","","","","","","","","",""
"","ITI","","html-keyboard-response","299","301969","0.0-1.0-414.0","0","0","14054","","null","","","null","45","","","","","","","","","","","","","","","NaN",""
"","S1","","html-keyboard-response","300","302234","0.0-1.0-416.0","0","0","14054","","null","","","null","46","","","","","","","","","","","","","","","",""
"","ISI","","html-keyboard-response","301","303246","0.0-1.0-417.0","0","0","14054","","null","","","null","46","NaN","","","","","","","","","","","","","","",""
"","S2","","html-keyboard-response","302","303511","0.0-1.0-418.0","0","0","14054","","null","","","null","46","","NaN","","","","","","","","","","","","","",""
"","response","","html-keyboard-response","303","304412","0.0-1.0-419.0-0.0","0","0","14054","","900","","","68","46","","","1","46","training","adjacent","FG","6","7","M.jpg","P.jpg","1","1","1","",""
"","feedback","","html-keyboard-response","304","305421","0.0-1.0-420.0-0.0","0","0","14054","","null","","","null","46","","","","","","","","","","","","","","","",""
"","ITI","","html-keyboard-response","305","306430","0.0-1.0-423.0","0","0","14054","","null","","","null","46","","","","","","","","","","","","","","","NaN",""
"","S1","","html-keyboard-response","306","306697","0.0-1.0-425.0","0","0","14054","","null","","","null","47","","","","","","","","","","","","","","","",""
"","ISI","","html-keyboard-response","307","307700","0.0-1.0-426.0","0","0","14054","","null","","","null","47","NaN","","","","","","","","","","","","","","",""
"","S2","","html-keyboard-response","308","307963","0.0-1.0-427.0","0","0","14054","","null","","","null","47","","NaN","","","","","","","","","","","","","",""
"","response","","html-keyboard-response","309","309268","0.0-1.0-428.0-0.0","0","0","14054","","1304","","","75","47","","","1","47","training","adjacent","EF","5","6","N.jpg","M.jpg","0","1","0","",""
"","feedback","","html-keyboard-response","310","310272","0.0-1.0-429.0-0.0","0","0","14054","","null","","","null","47","","","","","","","","","","","","","","","",""
"","time_out","","html-keyboard-response","311","312281","0.0-1.0-431.0-0.0","0","0","14054","","null","","","null","47","","","","","","","","","","","","","","","",""
"","ITI","","html-keyboard-response","312","313292","0.0-1.0-432.0","0","0","14054","","null","","","null","47","","","","","","","","","","","","","","","NaN",""
"","block_over","","html-keyboard-response","313","337131","0.0-1.0-433.0-0.0","0","0","14054","","23838","","","32","47","","","","","","","","","","","","","","","",""
"","S1","","html-keyboard-response","314","337383","0.0-1.0-434.0","0","0","14054","","null","","","null","48","","","","","","","","","","","","","","","",""
"","ISI","","html-keyboard-response","315","338393","0.0-1.0-435.0","0","0","14054","","null","","","null","48","NaN","","","","","","","","","","","","","","",""
"","S2","","html-keyboard-response","316","338658","0.0-1.0-436.0","0","0","14054","","null","","","null","48","","NaN","","","","","","","","","","","","","",""
"","response","","html-keyboard-response","317","339277","0.0-1.0-437.0-0.0","0","0","14054","","617","","","75","48","","","2","48","training","adjacent","CB","3","2","O.jpg","L.jpg","0","0","1","",""
"","feedback","","html-keyboard-response","318","340294","0.0-1.0-438.0-0.0","0","0","14054","","null","","","null","48","","","","","","","","","","","","","","","",""
"","ITI","","html-keyboard-response","319","341308","0.0-1.0-441.0","0","0","14054","","null","","","null","48","","","","","","","","","","","","","","","NaN",""
"","S1","","html-keyboard-response","320","341571","0.0-1.0-443.0","0","0","14054","","null","","","null","49","","","","","","","","","","","","","","","",""
"","ISI","","html-keyboard-response","321","342581","0.0-1.0-444.0","0","0","14054","","null","","","null","49","NaN","","","","","","","","","","","","","","",""
"","S2","","html-keyboard-response","322","342844","0.0-1.0-445.0","0","0","14054","","null","","","null","49","","NaN","","","","","","","","","","","","","",""
"","response","","html-keyboard-response","323","343720","0.0-1.0-446.0-0.0","0","0","14054","","875","","","75","49","","","2","49","training","adjacent","BA","2","1","L.jpg","R.jpg","0","0","1","",""
"","feedback","","html-keyboard-response","324","344729","0.0-1.0-447.0-0.0","0","0","14054","","null","","","null","49","","","","","","","","","","","","","","","",""
"","ITI","","html-keyboard-response","325","345739","0.0-1.0-450.0","0","0","14054","","null","","","null","49","","","","","","","","","","","","","","","NaN",""
"","S1","","html-keyboard-response","326","346005","0.0-1.0-452.0","0","0","14054","","null","","","null","50","","","","","","","","","","","","","","","",""
"","ISI","","html-keyboard-response","327","347011","0.0-1.0-453.0","0","0","14054","","null","","","null","50","NaN","","","","","","","","","","","","","","",""
"","S2","","html-keyboard-response","328","347275","0.0-1.0-454.0","0","0","14054","","null","","","null","50","","NaN","","","","","","","","","","","","","",""
"","response","","html-keyboard-response","329","348252","0.0-1.0-455.0-0.0","0","0","14054","","976","","","75","50","","","2","50","training","adjacent","DE","4","5","Q.jpg","N.jpg","0","1","0","",""
"","feedback","","html-keyboard-response","330","349266","0.0-1.0-456.0-0.0","0","0","14054","","null","","","null","50","","","","","","","","","","","","","","","",""
"","time_out","","html-keyboard-response","331","351272","0.0-1.0-458.0-0.0","0","0","14054","","null","","","null","50","","","","","","","","","","","","","","","",""
"","ITI","","html-keyboard-response","332","352280","0.0-1.0-459.0","0","0","14054","","null","","","null","50","","","","","","","","","","","","","","","NaN",""
"","S1","","html-keyboard-response","333","352544","0.0-1.0-461.0","0","0","14054","","null","","","null","51","","","","","","","","","","","","","","","",""
"","ISI","","html-keyboard-response","334","353554","0.0-1.0-462.0","0","0","14054","","null","","","null","51","NaN","","","","","","","","","","","","","","",""
"","S2","","html-keyboard-response","335","353817","0.0-1.0-463.0","0","0","14054","","null","","","null","51","","NaN","","","","","","","","","","","","","",""
"","response","","html-keyboard-response","336","354218","0.0-1.0-464.0-0.0","0","0","14054","","399","","","75","51","","","2","51","training","adjacent","AB","1","2","R.jpg","L.jpg","0","1","0","",""
"","feedback","","html-keyboard-response","337","355234","0.0-1.0-465.0-0.0","0","0","14054","","null","","","null","51","","","","","","","","","","","","","","","",""
"","time_out","","html-keyboard-response","338","357238","0.0-1.0-467.0-0.0","0","0","14054","","null","","","null","51","","","","","","","","","","","","","","","",""
"","ITI","","html-keyboard-response","339","358245","0.0-1.0-468.0","0","0","14054","","null","","","null","51","","","","","","","","","","","","","","","NaN",""
"","S1","","html-keyboard-response","340","358509","0.0-1.0-470.0","0","0","14054","","null","","","null","52","","","","","","","","","","","","","","","",""
"","ISI","","html-keyboard-response","341","359520","0.0-1.0-471.0","0","0","14054","","null","","","null","52","NaN","","","","","","","","","","","","","","",""
"","S2","","html-keyboard-response","342","359784","0.0-1.0-472.0","0","0","14054","","null","","","null","52","","NaN","","","","","","","","","","","","","",""
"","response","","html-keyboard-response","343","360467","0.0-1.0-473.0-0.0","0","0","14054","","682","","","75","52","","","2","52","training","adjacent","DC","4","3","Q.jpg","O.jpg","0","0","1","",""
"","feedback","","html-keyboard-response","344","361481","0.0-1.0-474.0-0.0","0","0","14054","","null","","","null","52","","","","","","","","","","","","","","","",""
"","ITI","","html-keyboard-response","345","362487","0.0-1.0-477.0","0","0","14054","","null","","","null","52","","","","","","","","","","","","","","","NaN",""
"","S1","","html-keyboard-response","346","362752","0.0-1.0-479.0","0","0","14054","","null","","","null","53","","","","","","","","","","","","","","","",""
"","ISI","","html-keyboard-response","347","363761","0.0-1.0-480.0","0","0","14054","","null","","","null","53","NaN","","","","","","","","","","","","","","",""
"","S2","","html-keyboard-response","348","364025","0.0-1.0-481.0","0","0","14054","","null","","","null","53","","NaN","","","","","","","","","","","","","",""
"","response","","html-keyboard-response","349","365013","0.0-1.0-482.0-0.0","0","0","14054","","987","","","75","53","","","2","53","training","adjacent","DE","4","5","Q.jpg","N.jpg","0","1","0","",""
"","feedback","","html-keyboard-response","350","366019","0.0-1.0-483.0-0.0","0","0","14054","","null","","","null","53","","","","","","","","","","","","","","","",""
"","time_out","","html-keyboard-response","351","368034","0.0-1.0-485.0-0.0","0","0","14054","","null","","","null","53","","","","","","","","","","","","","","","",""
"","ITI","","html-keyboard-response","352","369046","0.0-1.0-486.0","0","0","14054","","null","","","null","53","","","","","","","","","","","","","","","NaN",""
"","S1","","html-keyboard-response","353","369312","0.0-1.0-488.0","0","0","14054","","null","","","null","54","","","","","","","","","","","","","","","",""
"","ISI","","html-keyboard-response","354","370318","0.0-1.0-489.0","0","0","14054","","null","","","null","54","NaN","","","","","","","","","","","","","","",""
"","S2","","html-keyboard-response","355","370581","0.0-1.0-490.0","0","0","14054","","null","","","null","54","","NaN","","","","","","","","","","","","","",""
"","response","","html-keyboard-response","356","371129","0.0-1.0-491.0-0.0","0","0","14054","","546","","","68","54","","","2","54","training","adjacent","FE","6","5","M.jpg","N.jpg","1","0","0","",""
"","feedback","","html-keyboard-response","357","372145","0.0-1.0-492.0-0.0","0","0","14054","","null","","","null","54","","","","","","","","","","","","","","","",""
"","time_out","","html-keyboard-response","358","374148","0.0-1.0-494.0-0.0","0","0","14054","","null","","","null","54","","","","","","","","","","","","","","","",""
"","ITI","","html-keyboard-response","359","375158","0.0-1.0-495.0","0","0","14054","","null","","","null","54","","","","","","","","","","","","","","","NaN",""
"","S1","","html-keyboard-response","360","375419","0.0-1.0-497.0","0","0","14054","","null","","","null","55","","","","","","","","","","","","","","","",""
"","ISI","","html-keyboard-response","361","376428","0.0-1.0-498.0","0","0","14054","","null","","","null","55","NaN","","","","","","","","","","","","","","",""
"","S2","","html-keyboard-response","362","376689","0.0-1.0-499.0","0","0","14054","","null","","","null","55","","NaN","","","","","","","","","","","","","",""
"","response","","html-keyboard-response","363","377257","0.0-1.0-500.0-0.0","0","0","14054","","567","","","68","55","","","2","55","training","adjacent","FG","6","7","M.jpg","P.jpg","1","1","1","",""
"","feedback","","html-keyboard-response","364","378262","0.0-1.0-501.0-0.0","0","0","14054","","null","","","null","55","","","","","","","","","","","","","","","",""
"","ITI","","html-keyboard-response","365","379270","0.0-1.0-504.0","0","0","14054","","null","","","null","55","","","","","","","","","","","","","","","NaN",""
"","S1","","html-keyboard-response","366","379533","0.0-1.0-506.0","0","0","14054","","null","","","null","56","","","","","","","","","","","","","","","",""
"","ISI","","html-keyboard-response","367","380544","0.0-1.0-507.0","0","0","14054","","null","","","null","56","NaN","","","","","","","","","","","","","","",""
"","S2","","html-keyboard-response","368","380806","0.0-1.0-508.0","0","0","14054","","null","","","null","56","","NaN","","","","","","","","","","","","","",""
"","response","","html-keyboard-response","369","381434","0.0-1.0-509.0-0.0","0","0","14054","","626","","","75","56","","","2","56","training","adjacent","ED","5","4","N.jpg","Q.jpg","0","0","1","",""
"","feedback","","html-keyboard-response","370","382440","0.0-1.0-510.0-0.0","0","0","14054","","null","","","null","56","","","","","","","","","","","","","","","",""
"","ITI","","html-keyboard-response","371","383449","0.0-1.0-513.0","0","0","14054","","null","","","null","56","","","","","","","","","","","","","","","NaN",""
"","S1","","html-keyboard-response","372","383712","0.0-1.0-515.0","0","0","14054","","null","","","null","57","","","","","","","","","","","","","","","",""
"","ISI","","html-keyboard-response","373","384724","0.0-1.0-516.0","0","0","14054","","null","","","null","57","NaN","","","","","","","","","","","","","","",""
"","S2","","html-keyboard-response","374","384988","0.0-1.0-517.0","0","0","14054","","null","","","null","57","","NaN","","","","","","","","","","","","","",""
"","response","","html-keyboard-response","375","385639","0.0-1.0-518.0-0.0","0","0","14054","","650","","","75","57","","","2","57","training","adjacent","EF","5","6","N.jpg","M.jpg","0","1","0","",""
"","feedback","","html-keyboard-response","376","386645","0.0-1.0-519.0-0.0","0","0","14054","","null","","","null","57","","","","","","","","","","","","","","","",""
"","time_out","","html-keyboard-response","377","388652","0.0-1.0-521.0-0.0","0","0","14054","","null","","","null","57","","","","","","","","","","","","","","","",""
"","ITI","","html-keyboard-response","378","389657","0.0-1.0-522.0","0","0","14054","","null","","","null","57","","","","","","","","","","","","","","","NaN",""
"","S1","","html-keyboard-response","379","389921","0.0-1.0-524.0","0","0","14054","","null","","","null","58","","","","","","","","","","","","","","","",""
"","ISI","","html-keyboard-response","380","390931","0.0-1.0-525.0","0","0","14054","","null","","","null","58","NaN","","","","","","","","","","","","","","",""
"","S2","","html-keyboard-response","381","391194","0.0-1.0-526.0","0","0","14054","","null","","","null","58","","NaN","","","","","","","","","","","","","",""
"","response","","html-keyboard-response","382","391666","0.0-1.0-527.0-0.0","0","0","14054","","470","","","75","58","","","2","58","training","adjacent","BC","2","3","L.jpg","O.jpg","0","1","0","",""
"","feedback","","html-keyboard-response","383","392669","0.0-1.0-528.0-0.0","0","0","14054","","null","","","null","58","","","","","","","","","","","","","","","",""
"","time_out","","html-keyboard-response","384","394685","0.0-1.0-530.0-0.0","0","0","14054","","null","","","null","58","","","","","","","","","","","","","","","",""
"","ITI","","html-keyboard-response","385","395693","0.0-1.0-531.0","0","0","14054","","null","","","null","58","","","","","","","","","","","","","","","NaN",""
"","S1","","html-keyboard-response","386","395956","0.0-1.0-533.0","0","0","14054","","null","","","null","59","","","","","","","","","","","","","","","",""
"","ISI","","html-keyboard-response","387","396963","0.0-1.0-534.0","0","0","14054","","null","","","null","59","NaN","","","","","","","","","","","","","","",""
"","S2","","html-keyboard-response","388","397228","0.0-1.0-535.0","0","0","14054","","null","","","null","59","","NaN","","","","","","","","","","","","","",""
"","response","","html-keyboard-response","389","398091","0.0-1.0-536.0-0.0","0","0","14054","","862","","","75","59","","","2","59","training","adjacent","CD","3","4","O.jpg","Q.jpg","0","1","0","",""
"","feedback","","html-keyboard-response","390","399094","0.0-1.0-537.0-0.0","0","0","14054","","null","","","null","59","","","","","","","","","","","","","","","",""
"","time_out","","html-keyboard-response","391","401109","0.0-1.0-539.0-0.0","0","0","14054","","null","","","null","59","","","","","","","","","","","","","","","",""
"","ITI","","html-keyboard-response","392","402120","0.0-1.0-540.0","0","0","14054","","null","","","null","59","","","","","","","","","","","","","","","NaN",""
"","S1","","html-keyboard-response","393","402385","0.0-1.0-542.0","0","0","14054","","null","","","null","60","","","","","","","","","","","","","","","",""
"","ISI","","html-keyboard-response","394","403399","0.0-1.0-543.0","0","0","14054","","null","","","null","60","NaN","","","","","","","","","","","","","","",""
"","S2","","html-keyboard-response","395","403666","0.0-1.0-544.0","0","0","14054","","null","","","null","60","","NaN","","","","","","","","","","","","","",""
"","response","","html-keyboard-response","396","404604","0.0-1.0-545.0-0.0","0","0","14054","","937","","","75","60","","","2","60","training","adjacent","FG","6","7","M.jpg","P.jpg","0","1","0","",""
"","feedback","","html-keyboard-response","397","405609","0.0-1.0-546.0-0.0","0","0","14054","","null","","","null","60","","","","","","","","","","","","","","","",""
"","time_out","","html-keyboard-response","398","407619","0.0-1.0-548.0-0.0","0","0","14054","","null","","","null","60","","","","","","","","","","","","","","","",""
"","ITI","","html-keyboard-response","399","408628","0.0-1.0-549.0","0","0","14054","","null","","","null","60","","","","","","","","","","","","","","","NaN",""
"","S1","","html-keyboard-response","400","408892","0.0-1.0-551.0","0","0","14054","","null","","","null","61","","","","","","","","","","","","","","","",""
"","ISI","","html-keyboard-response","401","409898","0.0-1.0-552.0","0","0","14054","","null","","","null","61","NaN","","","","","","","","","","","","","","",""
"","S2","","html-keyboard-response","402","410165","0.0-1.0-553.0","0","0","14054","","null","","","null","61","","NaN","","","","","","","","","","","","","",""
"","response","","html-keyboard-response","403","410542","0.0-1.0-554.0-0.0","0","0","14054","","376","","","75","61","","","2","61","training","adjacent","CB","3","2","O.jpg","L.jpg","0","0","1","",""
"","feedback","","html-keyboard-response","404","411548","0.0-1.0-555.0-0.0","0","0","14054","","null","","","null","61","","","","","","","","","","","","","","","",""
"","ITI","","html-keyboard-response","405","412560","0.0-1.0-558.0","0","0","14054","","null","","","null","61","","","","","","","","","","","","","","","NaN",""
"","S1","","html-keyboard-response","406","412824","0.0-1.0-560.0","0","0","14054","","null","","","null","62","","","","","","","","","","","","","","","",""
"","ISI","","html-keyboard-response","407","413835","0.0-1.0-561.0","0","0","14054","","null","","","null","62","NaN","","","","","","","","","","","","","","",""
"","S2","","html-keyboard-response","408","414098","0.0-1.0-562.0","0","0","14054","","null","","","null","62","","NaN","","","","","","","","","","","","","",""
"","response","","html-keyboard-response","409","414837","0.0-1.0-563.0-0.0","0","0","14054","","736","","","68","62","","","2","62","training","adjacent","FG","6","7","M.jpg","P.jpg","1","1","1","",""
"","feedback","","html-keyboard-response","410","415854","0.0-1.0-564.0-0.0","0","0","14054","","null","","","null","62","","","","","","","","","","","","","","","",""
"","ITI","","html-keyboard-response","411","416864","0.0-1.0-567.0","0","0","14054","","null","","","null","62","","","","","","","","","","","","","","","NaN",""
"","S1","","html-keyboard-response","412","417128","0.0-1.0-569.0","0","0","14054","","null","","","null","63","","","","","","","","","","","","","","","",""
"","ISI","","html-keyboard-response","413","418138","0.0-1.0-570.0","0","0","14054","","null","","","null","63","NaN","","","","","","","","","","","","","","",""
"","S2","","html-keyboard-response","414","418404","0.0-1.0-571.0","0","0","14054","","null","","","null","63","","NaN","","","","","","","","","","","","","",""
"","response","","html-keyboard-response","415","418775","0.0-1.0-572.0-0.0","0","0","14054","","370","","","68","63","","","2","63","training","adjacent","EF","5","6","N.jpg","M.jpg","1","1","1","",""
"","feedback","","html-keyboard-response","416","419788","0.0-1.0-573.0-0.0","0","0","14054","","null","","","null","63","","","","","","","","","","","","","","","",""
"","ITI","","html-keyboard-response","417","420798","0.0-1.0-576.0","0","0","14054","","null","","","null","63","","","","","","","","","","","","","","","NaN",""
"","S1","","html-keyboard-response","418","421063","0.0-1.0-578.0","0","0","14054","","null","","","null","64","","","","","","","","","","","","","","","",""
"","ISI","","html-keyboard-response","419","422071","0.0-1.0-579.0","0","0","14054","","null","","","null","64","NaN","","","","","","","","","","","","","","",""
"","S2","","html-keyboard-response","420","422338","0.0-1.0-580.0","0","0","14054","","null","","","null","64","","NaN","","","","","","","","","","","","","",""
"","response","","html-keyboard-response","421","423143","0.0-1.0-581.0-0.0","0","0","14054","","803","","","75","64","","","2","64","training","adjacent","GF","7","6","P.jpg","M.jpg","0","0","1","",""
"","feedback","","html-keyboard-response","422","424156","0.0-1.0-582.0-0.0","0","0","14054","","null","","","null","64","","","","","","","","","","","","","","","",""
"","ITI","","html-keyboard-response","423","425162","0.0-1.0-585.0","0","0","14054","","null","","","null","64","","","","","","","","","","","","","","","NaN",""
"","S1","","html-keyboard-response","424","425427","0.0-1.0-587.0","0","0","14054","","null","","","null","65","","","","","","","","","","","","","","","",""
"","ISI","","html-keyboard-response","425","426438","0.0-1.0-588.0","0","0","14054","","null","","","null","65","NaN","","","","","","","","","","","","","","",""
"","S2","","html-keyboard-response","426","426701","0.0-1.0-589.0","0","0","14054","","null","","","null","65","","NaN","","","","","","","","","","","","","",""
"","response","","html-keyboard-response","427","427349","0.0-1.0-590.0-0.0","0","0","14054","","647","","","75","65","","","2","65","training","adjacent","AB","1","2","R.jpg","L.jpg","0","1","0","",""
"","feedback","","html-keyboard-response","428","428361","0.0-1.0-591.0-0.0","0","0","14054","","null","","","null","65","","","","","","","","","","","","","","","",""
"","time_out","","html-keyboard-response","429","430365","0.0-1.0-593.0-0.0","0","0","14054","","null","","","null","65","","","","","","","","","","","","","","","",""
"","ITI","","html-keyboard-response","430","431371","0.0-1.0-594.0","0","0","14054","","null","","","null","65","","","","","","","","","","","","","","","NaN",""
"","S1","","html-keyboard-response","431","431636","0.0-1.0-596.0","0","0","14054","","null","","","null","66","","","","","","","","","","","","","","","",""
"","ISI","","html-keyboard-response","432","432643","0.0-1.0-597.0","0","0","14054","","null","","","null","66","NaN","","","","","","","","","","","","","","",""
"","S2","","html-keyboard-response","433","432907","0.0-1.0-598.0","0","0","14054","","null","","","null","66","","NaN","","","","","","","","","","","","","",""
"","response","","html-keyboard-response","434","433465","0.0-1.0-599.0-0.0","0","0","14054","","556","","","75","66","","","2","66","training","adjacent","BC","2","3","L.jpg","O.jpg","0","1","0","",""
"","feedback","","html-keyboard-response","435","434473","0.0-1.0-600.0-0.0","0","0","14054","","null","","","null","66","","","","","","","","","","","","","","","",""
"","time_out","","html-keyboard-response","436","436482","0.0-1.0-602.0-0.0","0","0","14054","","null","","","null","66","","","","","","","","","","","","","","","",""
"","ITI","","html-keyboard-response","437","437489","0.0-1.0-603.0","0","0","14054","","null","","","null","66","","","","","","","","","","","","","","","NaN",""
"","S1","","html-keyboard-response","438","437753","0.0-1.0-605.0","0","0","14054","","null","","","null","67","","","","","","","","","","","","","","","",""
"","ISI","","html-keyboard-response","439","438761","0.0-1.0-606.0","0","0","14054","","null","","","null","67","NaN","","","","","","","","","","","","","","",""
"","S2","","html-keyboard-response","440","439024","0.0-1.0-607.0","0","0","14054","","null","","","null","67","","NaN","","","","","","","","","","","","","",""
"","response","","html-keyboard-response","441","439728","0.0-1.0-608.0-0.0","0","0","14054","","703","","","75","67","","","2","67","training","adjacent","BC","2","3","L.jpg","O.jpg","0","1","0","",""
"","feedback","","html-keyboard-response","442","440737","0.0-1.0-609.0-0.0","0","0","14054","","null","","","null","67","","","","","","","","","","","","","","","",""
"","time_out","","html-keyboard-response","443","442744","0.0-1.0-611.0-0.0","0","0","14054","","null","","","null","67","","","","","","","","","","","","","","","",""
"","ITI","","html-keyboard-response","444","443754","0.0-1.0-612.0","0","0","14054","","null","","","null","67","","","","","","","","","","","","","","","NaN",""
"","S1","","html-keyboard-response","445","444016","0.0-1.0-614.0","0","0","14054","","null","","","null","68","","","","","","","","","","","","","","","",""
"","ISI","","html-keyboard-response","446","445025","0.0-1.0-615.0","0","0","14054","","null","","","null","68","NaN","","","","","","","","","","","","","","",""
"","S2","","html-keyboard-response","447","445288","0.0-1.0-616.0","0","0","14054","","null","","","null","68","","NaN","","","","","","","","","","","","","",""
"","response","","html-keyboard-response","448","445827","0.0-1.0-617.0-0.0","0","0","14054","","538","","","68","68","","","2","68","training","adjacent","FG","6","7","M.jpg","P.jpg","1","1","1","",""
"","feedback","","html-keyboard-response","449","446829","0.0-1.0-618.0-0.0","0","0","14054","","null","","","null","68","","","","","","","","","","","","","","","",""
"","ITI","","html-keyboard-response","450","447835","0.0-1.0-621.0","0","0","14054","","null","","","null","68","","","","","","","","","","","","","","","NaN",""
"","S1","","html-keyboard-response","451","448102","0.0-1.0-623.0","0","0","14054","","null","","","null","69","","","","","","","","","","","","","","","",""
"","ISI","","html-keyboard-response","452","449109","0.0-1.0-624.0","0","0","14054","","null","","","null","69","NaN","","","","","","","","","","","","","","",""
"","S2","","html-keyboard-response","453","449373","0.0-1.0-625.0","0","0","14054","","null","","","null","69","","NaN","","","","","","","","","","","","","",""
"","response","","html-keyboard-response","454","450033","0.0-1.0-626.0-0.0","0","0","14054","","659","","","68","69","","","2","69","training","adjacent","GF","7","6","P.jpg","M.jpg","1","0","0","",""
"","feedback","","html-keyboard-response","455","451038","0.0-1.0-627.0-0.0","0","0","14054","","null","","","null","69","","","","","","","","","","","","","","","",""
"","time_out","","html-keyboard-response","456","453054","0.0-1.0-629.0-0.0","0","0","14054","","null","","","null","69","","","","","","","","","","","","","","","",""
"","ITI","","html-keyboard-response","457","454064","0.0-1.0-630.0","0","0","14054","","null","","","null","69","","","","","","","","","","","","","","","NaN",""
"","S1","","html-keyboard-response","458","454326","0.0-1.0-632.0","0","0","14054","","null","","","null","70","","","","","","","","","","","","","","","",""
"","ISI","","html-keyboard-response","459","455340","0.0-1.0-633.0","0","0","14054","","null","","","null","70","NaN","","","","","","","","","","","","","","",""
"","S2","","html-keyboard-response","460","455604","0.0-1.0-634.0","0","0","14054","","null","","","null","70","","NaN","","","","","","","","","","","","","",""
"","response","","html-keyboard-response","461","456280","0.0-1.0-635.0-0.0","0","0","14054","","674","","","68","70","","","2","70","training","adjacent","AB","1","2","R.jpg","L.jpg","1","1","1","",""
"","feedback","","html-keyboard-response","462","457297","0.0-1.0-636.0-0.0","0","0","14054","","null","","","null","70","","","","","","","","","","","","","","","",""
"","ITI","","html-keyboard-response","463","458304","0.0-1.0-639.0","0","0","14054","","null","","","null","70","","","","","","","","","","","","","","","NaN",""
"","S1","","html-keyboard-response","464","458569","0.0-1.0-641.0","0","0","14054","","null","","","null","71","","","","","","","","","","","","","","","",""
"","ISI","","html-keyboard-response","465","459576","0.0-1.0-642.0","0","0","14054","","null","","","null","71","NaN","","","","","","","","","","","","","","",""
"","S2","","html-keyboard-response","466","459839","0.0-1.0-643.0","0","0","14054","","null","","","null","71","","NaN","","","","","","","","","","","","","",""
"","response","","html-keyboard-response","467","460442","0.0-1.0-644.0-0.0","0","0","14054","","601","","","68","71","","","2","71","training","adjacent","CD","3","4","O.jpg","Q.jpg","1","1","1","",""
"","feedback","","html-keyboard-response","468","461457","0.0-1.0-645.0-0.0","0","0","14054","","null","","","null","71","","","","","","","","","","","","","","","",""
"","ITI","","html-keyboard-response","469","462466","0.0-1.0-648.0","0","0","14054","","null","","","null","71","","","","","","","","","","","","","","","NaN",""
"","S1","","html-keyboard-response","470","462728","0.0-1.0-650.0","0","0","14054","","null","","","null","72","","","","","","","","","","","","","","","",""
"","ISI","","html-keyboard-response","471","463734","0.0-1.0-651.0","0","0","14054","","null","","","null","72","NaN","","","","","","","","","","","","","","",""
"","S2","","html-keyboard-response","472","463997","0.0-1.0-652.0","0","0","14054","","null","","","null","72","","NaN","","","","","","","","","","","","","",""
"","response","","html-keyboard-response","473","464557","0.0-1.0-653.0-0.0","0","0","14054","","559","","","75","72","","","2","72","training","adjacent","GF","7","6","P.jpg","M.jpg","0","0","1","",""
"","feedback","","html-keyboard-response","474","465564","0.0-1.0-654.0-0.0","0","0","14054","","null","","","null","72","","","","","","","","","","","","","","","",""
"","ITI","","html-keyboard-response","475","466570","0.0-1.0-657.0","0","0","14054","","null","","","null","72","","","","","","","","","","","","","","","NaN",""
"","S1","","html-keyboard-response","476","466832","0.0-1.0-659.0","0","0","14054","","null","","","null","73","","","","","","","","","","","","","","","",""
"","ISI","","html-keyboard-response","477","467837","0.0-1.0-660.0","0","0","14054","","null","","","null","73","NaN","","","","","","","","","","","","","","",""
"","S2","","html-keyboard-response","478","468101","0.0-1.0-661.0","0","0","14054","","null","","","null","73","","NaN","","","","","","","","","","","","","",""
"","response","","html-keyboard-response","479","468598","0.0-1.0-662.0-0.0","0","0","14054","","494","","","75","73","","","2","73","training","adjacent","DC","4","3","Q.jpg","O.jpg","0","0","1","",""
"","feedback","","html-keyboard-response","480","469607","0.0-1.0-663.0-0.0","0","0","14054","","null","","","null","73","","","","","","","","","","","","","","","",""
"","ITI","","html-keyboard-response","481","470621","0.0-1.0-666.0","0","0","14054","","null","","","null","73","","","","","","","","","","","","","","","NaN",""
"","S1","","html-keyboard-response","482","470886","0.0-1.0-668.0","0","0","14054","","null","","","null","74","","","","","","","","","","","","","","","",""
"","ISI","","html-keyboard-response","483","471895","0.0-1.0-669.0","0","0","14054","","null","","","null","74","NaN","","","","","","","","","","","","","","",""
"","S2","","html-keyboard-response","484","472158","0.0-1.0-670.0","0","0","14054","","null","","","null","74","","NaN","","","","","","","","","","","","","",""
"","response","","html-keyboard-response","485","472478","0.0-1.0-671.0-0.0","0","0","14054","","319","","","68","74","","","2","74","training","adjacent","BA","2","1","L.jpg","R.jpg","1","0","0","",""
"","feedback","","html-keyboard-response","486","473481","0.0-1.0-672.0-0.0","0","0","14054","","null","","","null","74","","","","","","","","","","","","","","","",""
"","time_out","","html-keyboard-response","487","475485","0.0-1.0-674.0-0.0","0","0","14054","","null","","","null","74","","","","","","","","","","","","","","","",""
"","ITI","","html-keyboard-response","488","476501","0.0-1.0-675.0","0","0","14054","","null","","","null","74","","","","","","","","","","","","","","","NaN",""
"","S1","","html-keyboard-response","489","476765","0.0-1.0-677.0","0","0","14054","","null","","","null","75","","","","","","","","","","","","","","","",""
"","ISI","","html-keyboard-response","490","477775","0.0-1.0-678.0","0","0","14054","","null","","","null","75","NaN","","","","","","","","","","","","","","",""
"","S2","","html-keyboard-response","491","478039","0.0-1.0-679.0","0","0","14054","","null","","","null","75","","NaN","","","","","","","","","","","","","",""
"","response","","html-keyboard-response","492","478401","0.0-1.0-680.0-0.0","0","0","14054","","361","","","68","75","","","2","75","training","adjacent","CD","3","4","O.jpg","Q.jpg","1","1","1","",""
"","feedback","","html-keyboard-response","493","479405","0.0-1.0-681.0-0.0","0","0","14054","","null","","","null","75","","","","","","","","","","","","","","","",""
"","ITI","","html-keyboard-response","494","480416","0.0-1.0-684.0","0","0","14054","","null","","","null","75","","","","","","","","","","","","","","","NaN",""
"","S1","","html-keyboard-response","495","480680","0.0-1.0-686.0","0","0","14054","","null","","","null","76","","","","","","","","","","","","","","","",""
"","ISI","","html-keyboard-response","496","481688","0.0-1.0-687.0","0","0","14054","","null","","","null","76","NaN","","","","","","","","","","","","","","",""
"","S2","","html-keyboard-response","497","481950","0.0-1.0-688.0","0","0","14054","","null","","","null","76","","NaN","","","","","","","","","","","","","",""
"","response","","html-keyboard-response","498","482488","0.0-1.0-689.0-0.0","0","0","14054","","535","","","75","76","","","2","76","training","adjacent","CD","3","4","O.jpg","Q.jpg","0","1","0","",""
"","feedback","","html-keyboard-response","499","483503","0.0-1.0-690.0-0.0","0","0","14054","","null","","","null","76","","","","","","","","","","","","","","","",""
"","time_out","","html-keyboard-response","500","485508","0.0-1.0-692.0-0.0","0","0","14054","","null","","","null","76","","","","","","","","","","","","","","","",""
"","ITI","","html-keyboard-response","501","486515","0.0-1.0-693.0","0","0","14054","","null","","","null","76","","","","","","","","","","","","","","","NaN",""
"","S1","","html-keyboard-response","502","486780","0.0-1.0-695.0","0","0","14054","","null","","","null","77","","","","","","","","","","","","","","","",""
"","ISI","","html-keyboard-response","503","487791","0.0-1.0-696.0","0","0","14054","","null","","","null","77","NaN","","","","","","","","","","","","","","",""
"","S2","","html-keyboard-response","504","488056","0.0-1.0-697.0","0","0","14054","","null","","","null","77","","NaN","","","","","","","","","","","","","",""
"","response","","html-keyboard-response","505","488498","0.0-1.0-698.0-0.0","0","0","14054","","440","","","75","77","","","2","77","training","adjacent","BC","2","3","L.jpg","O.jpg","0","1","0","",""
"","feedback","","html-keyboard-response","506","489504","0.0-1.0-699.0-0.0","0","0","14054","","null","","","null","77","","","","","","","","","","","","","","","",""
"","time_out","","html-keyboard-response","507","491520","0.0-1.0-701.0-0.0","0","0","14054","","null","","","null","77","","","","","","","","","","","","","","","",""
"","ITI","","html-keyboard-response","508","492527","0.0-1.0-702.0","0","0","14054","","null","","","null","77","","","","","","","","","","","","","","","NaN",""
"","S1","","html-keyboard-response","509","492789","0.0-1.0-704.0","0","0","14054","","null","","","null","78","","","","","","","","","","","","","","","",""
"","ISI","","html-keyboard-response","510","493795","0.0-1.0-705.0","0","0","14054","","null","","","null","78","NaN","","","","","","","","","","","","","","",""
"","S2","","html-keyboard-response","511","494060","0.0-1.0-706.0","0","0","14054","","null","","","null","78","","NaN","","","","","","","","","","","","","",""
"","response","","html-keyboard-response","512","494360","0.0-1.0-707.0-0.0","0","0","14054","","298","","","68","78","","","2","78","training","adjacent","BA","2","1","L.jpg","R.jpg","1","0","0","",""
"","feedback","","html-keyboard-response","513","495365","0.0-1.0-708.0-0.0","0","0","14054","","null","","","null","78","","","","","","","","","","","","","","","",""
"","time_out","","html-keyboard-response","514","497375","0.0-1.0-710.0-0.0","0","0","14054","","null","","","null","78","","","","","","","","","","","","","","","",""
"","ITI","","html-keyboard-response","515","498384","0.0-1.0-711.0","0","0","14054","","null","","","null","78","","","","","","","","","","","","","","","NaN",""
"","S1","","html-keyboard-response","516","498650","0.0-1.0-713.0","0","0","14054","","null","","","null","79","","","","","","","","","","","","","","","",""
"","ISI","","html-keyboard-response","517","499659","0.0-1.0-714.0","0","0","14054","","null","","","null","79","NaN","","","","","","","","","","","","","","",""
"","S2","","html-keyboard-response","518","499921","0.0-1.0-715.0","0","0","14054","","null","","","null","79","","NaN","","","","","","","","","","","","","",""
"","response","","html-keyboard-response","519","500266","0.0-1.0-716.0-0.0","0","0","14054","","343","","","75","79","","","2","79","training","adjacent","AB","1","2","R.jpg","L.jpg","0","1","0","",""
"","feedback","","html-keyboard-response","520","501272","0.0-1.0-717.0-0.0","0","0","14054","","null","","","null","79","","","","","","","","","","","","","","","",""
"","time_out","","html-keyboard-response","521","503275","0.0-1.0-719.0-0.0","0","0","14054","","null","","","null","79","","","","","","","","","","","","","","","",""
"","ITI","","html-keyboard-response","522","504286","0.0-1.0-720.0","0","0","14054","","null","","","null","79","","","","","","","","","","","","","","","NaN",""
"","S1","","html-keyboard-response","523","504549","0.0-1.0-722.0","0","0","14054","","null","","","null","80","","","","","","","","","","","","","","","",""
"","ISI","","html-keyboard-response","524","505557","0.0-1.0-723.0","0","0","14054","","null","","","null","80","NaN","","","","","","","","","","","","","","",""
"","S2","","html-keyboard-response","525","505821","0.0-1.0-724.0","0","0","14054","","null","","","null","80","","NaN","","","","","","","","","","","","","",""
"","response","","html-keyboard-response","526","506232","0.0-1.0-725.0-0.0","0","0","14054","","410","","","68","80","","","2","80","training","adjacent","DE","4","5","Q.jpg","N.jpg","1","1","1","",""
"","feedback","","html-keyboard-response","527","507247","0.0-1.0-726.0-0.0","0","0","14054","","null","","","null","80","","","","","","","","","","","","","","","",""
"","ITI","","html-keyboard-response","528","508252","0.0-1.0-729.0","0","0","14054","","null","","","null","80","","","","","","","","","","","","","","","NaN",""
"","S1","","html-keyboard-response","529","508518","0.0-1.0-731.0","0","0","14054","","null","","","null","81","","","","","","","","","","","","","","","",""
"","ISI","","html-keyboard-response","530","509521","0.0-1.0-732.0","0","0","14054","","null","","","null","81","NaN","","","","","","","","","","","","","","",""
"","S2","","html-keyboard-response","531","509786","0.0-1.0-733.0","0","0","14054","","null","","","null","81","","NaN","","","","","","","","","","","","","",""
"","response","","html-keyboard-response","532","511252","0.0-1.0-734.0-0.0","0","0","14054","","1463","","","75","81","","","2","81","training","adjacent","DE","4","5","Q.jpg","N.jpg","0","1","0","",""
"","feedback","","html-keyboard-response","533","512258","0.0-1.0-735.0-0.0","0","0","14054","","null","","","null","81","","","","","","","","","","","","","","","",""
"","time_out","","html-keyboard-response","534","514263","0.0-1.0-737.0-0.0","0","0","14054","","null","","","null","81","","","","","","","","","","","","","","","",""
"","ITI","","html-keyboard-response","535","515274","0.0-1.0-738.0","0","0","14054","","null","","","null","81","","","","","","","","","","","","","","","NaN",""
"","S1","","html-keyboard-response","536","515538","0.0-1.0-740.0","0","0","14054","","null","","","null","82","","","","","","","","","","","","","","","",""
"","ISI","","html-keyboard-response","537","516549","0.0-1.0-741.0","0","0","14054","","null","","","null","82","NaN","","","","","","","","","","","","","","",""
"","S2","","html-keyboard-response","538","516815","0.0-1.0-742.0","0","0","14054","","null","","","null","82","","NaN","","","","","","","","","","","","","",""
"","response","","html-keyboard-response","539","517410","0.0-1.0-743.0-0.0","0","0","14054","","594","","","75","82","","","2","82","training","adjacent","DC","4","3","Q.jpg","O.jpg","0","0","1","",""
"","feedback","","html-keyboard-response","540","518420","0.0-1.0-744.0-0.0","0","0","14054","","null","","","null","82","","","","","","","","","","","","","","","",""
"","ITI","","html-keyboard-response","541","519429","0.0-1.0-747.0","0","0","14054","","null","","","null","82","","","","","","","","","","","","","","","NaN",""
"","S1","","html-keyboard-response","542","519694","0.0-1.0-749.0","0","0","14054","","null","","","null","83","","","","","","","","","","","","","","","",""
"","ISI","","html-keyboard-response","543","520702","0.0-1.0-750.0","0","0","14054","","null","","","null","83","NaN","","","","","","","","","","","","","","",""
"","S2","","html-keyboard-response","544","520966","0.0-1.0-751.0","0","0","14054","","null","","","null","83","","NaN","","","","","","","","","","","","","",""
"","response","","html-keyboard-response","545","521363","0.0-1.0-752.0-0.0","0","0","14054","","394","","","68","83","","","2","83","training","adjacent","EF","5","6","N.jpg","M.jpg","1","1","1","",""
"","feedback","","html-keyboard-response","546","522373","0.0-1.0-753.0-0.0","0","0","14054","","null","","","null","83","","","","","","","","","","","","","","","",""
"","ITI","","html-keyboard-response","547","523380","0.0-1.0-756.0","0","0","14054","","null","","","null","83","","","","","","","","","","","","","","","NaN",""
"","S1","","html-keyboard-response","548","523643","0.0-1.0-758.0","0","0","14054","","null","","","null","84","","","","","","","","","","","","","","","",""
"","ISI","","html-keyboard-response","549","524653","0.0-1.0-759.0","0","0","14054","","null","","","null","84","NaN","","","","","","","","","","","","","","",""
"","S2","","html-keyboard-response","550","524917","0.0-1.0-760.0","0","0","14054","","null","","","null","84","","NaN","","","","","","","","","","","","","",""
"","response","","html-keyboard-response","551","525479","0.0-1.0-761.0-0.0","0","0","14054","","561","","","75","84","","","2","84","training","adjacent","CB","3","2","O.jpg","L.jpg","0","0","1","",""
"","feedback","","html-keyboard-response","552","526496","0.0-1.0-762.0-0.0","0","0","14054","","null","","","null","84","","","","","","","","","","","","","","","",""
"","ITI","","html-keyboard-response","553","527505","0.0-1.0-765.0","0","0","14054","","null","","","null","84","","","","","","","","","","","","","","","NaN",""
"","S1","","html-keyboard-response","554","527770","0.0-1.0-767.0","0","0","14054","","null","","","null","85","","","","","","","","","","","","","","","",""
"","ISI","","html-keyboard-response","555","528780","0.0-1.0-768.0","0","0","14054","","null","","","null","85","NaN","","","","","","","","","","","","","","",""
"","S2","","html-keyboard-response","556","529043","0.0-1.0-769.0","0","0","14054","","null","","","null","85","","NaN","","","","","","","","","","","","","",""
"","response","","html-keyboard-response","557","529653","0.0-1.0-770.0-0.0","0","0","14054","","608","","","75","85","","","2","85","training","adjacent","CB","3","2","O.jpg","L.jpg","0","0","1","",""
"","feedback","","html-keyboard-response","558","530669","0.0-1.0-771.0-0.0","0","0","14054","","null","","","null","85","","","","","","","","","","","","","","","",""
"","ITI","","html-keyboard-response","559","531673","0.0-1.0-774.0","0","0","14054","","null","","","null","85","","","","","","","","","","","","","","","NaN",""
"","S1","","html-keyboard-response","560","531939","0.0-1.0-776.0","0","0","14054","","null","","","null","86","","","","","","","","","","","","","","","",""
"","ISI","","html-keyboard-response","561","532949","0.0-1.0-777.0","0","0","14054","","null","","","null","86","NaN","","","","","","","","","","","","","","",""
"","S2","","html-keyboard-response","562","533212","0.0-1.0-778.0","0","0","14054","","null","","","null","86","","NaN","","","","","","","","","","","","","",""
"","response","","html-keyboard-response","563","533605","0.0-1.0-779.0-0.0","0","0","14054","","391","","","68","86","","","2","86","training","adjacent","FE","6","5","M.jpg","N.jpg","1","0","0","",""
"","feedback","","html-keyboard-response","564","534611","0.0-1.0-780.0-0.0","0","0","14054","","null","","","null","86","","","","","","","","","","","","","","","",""
"","time_out","","html-keyboard-response","565","536614","0.0-1.0-782.0-0.0","0","0","14054","","null","","","null","86","","","","","","","","","","","","","","","",""
"","ITI","","html-keyboard-response","566","537628","0.0-1.0-783.0","0","0","14054","","null","","","null","86","","","","","","","","","","","","","","","NaN",""
"","S1","","html-keyboard-response","567","537891","0.0-1.0-785.0","0","0","14054","","null","","","null","87","","","","","","","","","","","","","","","",""
"","ISI","","html-keyboard-response","568","538900","0.0-1.0-786.0","0","0","14054","","null","","","null","87","NaN","","","","","","","","","","","","","","",""
"","S2","","html-keyboard-response","569","539166","0.0-1.0-787.0","0","0","14054","","null","","","null","87","","NaN","","","","","","","","","","","","","",""
"","response","","html-keyboard-response","570","539632","0.0-1.0-788.0-0.0","0","0","14054","","463","","","75","87","","","2","87","training","adjacent","ED","5","4","N.jpg","Q.jpg","0","0","1","",""
"","feedback","","html-keyboard-response","571","540642","0.0-1.0-789.0-0.0","0","0","14054","","null","","","null","87","","","","","","","","","","","","","","","",""
"","ITI","","html-keyboard-response","572","541651","0.0-1.0-792.0","0","0","14054","","null","","","null","87","","","","","","","","","","","","","","","NaN",""
"","S1","","html-keyboard-response","573","541915","0.0-1.0-794.0","0","0","14054","","null","","","null","88","","","","","","","","","","","","","","","",""
"","ISI","","html-keyboard-response","574","542926","0.0-1.0-795.0","0","0","14054","","null","","","null","88","NaN","","","","","","","","","","","","","","",""
"","S2","","html-keyboard-response","575","543191","0.0-1.0-796.0","0","0","14054","","null","","","null","88","","NaN","","","","","","","","","","","","","",""
"","response","","html-keyboard-response","576","543956","0.0-1.0-797.0-0.0","0","0","14054","","764","","","68","88","","","2","88","training","adjacent","ED","5","4","N.jpg","Q.jpg","1","0","0","",""
"","feedback","","html-keyboard-response","577","544960","0.0-1.0-798.0-0.0","0","0","14054","","null","","","null","88","","","","","","","","","","","","","","","",""
"","time_out","","html-keyboard-response","578","546973","0.0-1.0-800.0-0.0","0","0","14054","","null","","","null","88","","","","","","","","","","","","","","","",""
"","ITI","","html-keyboard-response","579","547983","0.0-1.0-801.0","0","0","14054","","null","","","null","88","","","","","","","","","","","","","","","NaN",""
"","S1","","html-keyboard-response","580","548249","0.0-1.0-803.0","0","0","14054","","null","","","null","89","","","","","","","","","","","","","","","",""
"","ISI","","html-keyboard-response","581","549257","0.0-1.0-804.0","0","0","14054","","null","","","null","89","NaN","","","","","","","","","","","","","","",""
"","S2","","html-keyboard-response","582","549521","0.0-1.0-805.0","0","0","14054","","null","","","null","89","","NaN","","","","","","","","","","","","","",""
