"success","ttype","start_time","trial_type","trial_index","time_elapsed","internal_node_id","warning","missed_checkup","PID","view_history","rt","responses","repeat_instructions","key_press","index","keypress_isi","keypress_S2","block","trial_num","phase","group_type","pair_type","S1_stim","S2_stim","S1_img","S2_img","S1_chosen","S1_higher","accuracy","keypress_iti","total_bonus_tally"
"true","full_screen","d04132023hr2226","fullscreen","0","2763","0.0-0.0","0","0","68867","","","","","","","","","","","","","","","","","","","","","",""
"","instructions","","instructions","1","17105","0.0-1.0-0.0-0.0","0","0","68867","[{""page_index"":0,""viewing_time"":1916},{""page_index"":1,""viewing_time"":7608},{""page_index"":2,""viewing_time"":3414},{""page_index"":3,""viewing_time"":1403}]","14341","","","","","","","","","","","","","","","","","","","",""
"","comprehension_check","","survey-multi-choice","2","19472","0.0-1.0-0.0-1.0","0","0","68867","","2364","{""Q0"":"""",""Q1"":"""",""Q2"":"""",""Q3"":"""",""Q4"":""""}","1","","","","","","","","","","","","","","","","","",""
"","missed_instruction_checkup","","html-keyboard-response","3","21658","0.0-1.0-0.0-2.0-0.0","0","1","68867","","2184","","","32","","","","","","","","","","","","","","","","",""
"","instructions","","instructions","4","52125","0.0-1.0-0.1-0.1","0","0","68867","[{""page_index"":0,""viewing_time"":1495},{""page_index"":1,""viewing_time"":8562},{""page_index"":2,""viewing_time"":18436},{""page_index"":3,""viewing_time"":1974}]","30467","","","","","","","","","","","","","","","","","","","",""
"","comprehension_check","","survey-multi-choice","5","75453","0.0-1.0-0.1-1.1","0","0","68867","","23325","{""Q0"":""True"",""Q1"":""D"",""Q2"":""Only when the screen 'MAKE A CHOICE' is shown"",""Q3"":""Green mark"",""Q4"":""either D or K""}","1","","","","","","","","","","","","","","","","","",""
"","missed_instruction_checkup","","html-keyboard-response","6","77273","0.0-1.0-0.1-2.1-0.1","0","1","68867","","1820","","","32","","","","","","","","","","","","","","","","",""
"","instructions","","instructions","7","84307","0.0-1.0-0.2-0.2","0","0","68867","[{""page_index"":0,""viewing_time"":1283},{""page_index"":1,""viewing_time"":4824},{""page_index"":2,""viewing_time"":436},{""page_index"":3,""viewing_time"":491}]","7034","","","","","","","","","","","","","","","","","","","",""
"","comprehension_check","","survey-multi-choice","8","116965","0.0-1.0-0.2-1.2","0","0","68867","","32655","{""Q0"":""True"",""Q1"":""D"",""Q2"":""Once the second image appears and while the screen 'MAKE A CHOICE' is shown"",""Q3"":""Green mark"",""Q4"":""either D or K""}","1","","","","","","","","","","","","","","","","","",""
"","missed_instruction_checkup","","html-keyboard-response","9","118138","0.0-1.0-0.2-2.2-0.2","0","1","68867","","1172","","","32","","","","","","","","","","","","","","","","",""
"","instructions","","instructions","10","136512","0.0-1.0-0.3-0.3","0","0","68867","[{""page_index"":0,""viewing_time"":1213},{""page_index"":1,""viewing_time"":16224},{""page_index"":2,""viewing_time"":465},{""page_index"":3,""viewing_time"":471}]","18373","","","","","","","","","","","","","","","","","","","",""
"","comprehension_check","","survey-multi-choice","11","147740","0.0-1.0-0.3-1.3","0","0","68867","","11226","{""Q0"":""True"",""Q1"":""K"",""Q2"":""Once the second image appears and while the screen 'MAKE A CHOICE' is shown"",""Q3"":""Green mark"",""Q4"":""either D or K""}","0","","","","","","","","","","","","","","","","","",""
"","start_exp","","html-keyboard-response","12","149313","0.0-1.0-1.0","0","0","68867","","1573","","","32","","","","","","","","","","","","","","","","",""
"","S1","","html-keyboard-response","13","149566","0.0-1.0-2.0","0","0","68867","","null","","","null","0","","","","","","","","","","","","","","","",""
"","ISI","","html-keyboard-response","14","150568","0.0-1.0-3.0","0","0","68867","","null","","","null","0","NaN","","","","","","","","","","","","","","",""
"","S2","","html-keyboard-response","15","150820","0.0-1.0-4.0","0","0","68867","","null","","","null","0","","NaN","","","","","","","","","","","","","",""
"","response","","html-keyboard-response","16","152571","0.0-1.0-5.0-0.0","0","0","68867","","null","","","null","0","","","1","0","training","adjacent","DE","4","5","P.jpg","R.jpg","NaN","1","0","",""
"","too_slow_prompt","","html-keyboard-response","17","153572","0.0-1.0-7.0-0.0","1","0","68867","","null","","","null","","","","","","","","","","","","","","","","",""
"","time_out","","html-keyboard-response","18","155575","0.0-1.0-8.0-0.0","0","0","68867","","null","","","null","0","","","","","","","","","","","","","","","",""
"","ITI","","html-keyboard-response","19","156576","0.0-1.0-9.0","0","0","68867","","null","","","null","0","","","","","","","","","","","","","","","NaN",""
"","S1","","html-keyboard-response","20","156828","0.0-1.0-11.0","0","0","68867","","null","","","null","1","","","","","","","","","","","","","","","",""
"","ISI","","html-keyboard-response","21","157829","0.0-1.0-12.0","0","0","68867","","262","","","75","1","k","","","","","","","","","","","","","","",""
"","S2","","html-keyboard-response","22","158082","0.0-1.0-13.0","0","0","68867","","null","","","null","1","","NaN","","","","","","","","","","","","","",""
"","response","","html-keyboard-response","23","158091","0.0-1.0-14.0-0.0","0","0","68867","","9","","","75","1","","","1","1","training","adjacent","BC","2","3","N.jpg","Q.jpg","1","1","1","",""
"","feedback","","html-keyboard-response","24","159093","0.0-1.0-15.0-0.0","0","0","68867","","null","","","null","1","","","","","","","","","","","","","","","",""
"","ITI","","html-keyboard-response","25","160095","0.0-1.0-18.0","0","0","68867","","null","","","null","1","","","","","","","","","","","","","","","NaN",""
"","S1","","html-keyboard-response","26","160346","0.0-1.0-20.0","0","0","68867","","null","","","null","2","","","","","","","","","","","","","","","",""
"","ISI","","html-keyboard-response","27","161348","0.0-1.0-21.0","0","0","68867","","null","","","null","2","NaN","","","","","","","","","","","","","","",""
"","S2","","html-keyboard-response","28","161599","0.0-1.0-22.0","0","0","68867","","null","","","null","2","","NaN","","","","","","","","","","","","","",""
"","response","","html-keyboard-response","29","161706","0.0-1.0-23.0-0.0","0","0","68867","","106","","","68","2","","","1","2","training","adjacent","DC","4","3","P.jpg","Q.jpg","0","0","1","",""
"","feedback","","html-keyboard-response","30","162708","0.0-1.0-24.0-0.0","0","0","68867","","null","","","null","2","","","","","","","","","","","","","","","",""
"","ITI","","html-keyboard-response","31","163710","0.0-1.0-27.0","0","0","68867","","null","","","null","2","","","","","","","","","","","","","","","NaN",""
"","S1","","html-keyboard-response","32","163962","0.0-1.0-29.0","0","0","68867","","null","","","null","3","","","","","","","","","","","","","","","",""
"","ISI","","html-keyboard-response","33","164963","0.0-1.0-30.0","0","0","68867","","null","","","null","3","NaN","","","","","","","","","","","","","","",""
"","S2","","html-keyboard-response","34","165203","0.0-1.0-31.0","0","0","68867","","240","","","75","3","","k","1","3","training","adjacent","CD","3","4","Q.jpg","P.jpg","1","1","1","",""
"","feedback","","html-keyboard-response","35","166206","0.0-1.0-33.0-0.0","0","0","68867","","null","","","null","3","","","","","","","","","","","","","","","",""
"","ITI","","html-keyboard-response","36","167207","0.0-1.0-36.0","0","0","68867","","null","","","null","3","","","","","","","","","","","","","","","NaN",""
"","S1","","html-keyboard-response","37","167458","0.0-1.0-38.0","0","0","68867","","null","","","null","4","","","","","","","","","","","","","","","",""
"","ISI","","html-keyboard-response","38","168460","0.0-1.0-39.0","0","0","68867","","null","","","null","4","NaN","","","","","","","","","","","","","","",""
"","S2","","html-keyboard-response","39","168711","0.0-1.0-40.0","0","0","68867","","null","","","null","4","","NaN","","","","","","","","","","","","","",""
"","response","","html-keyboard-response","40","168752","0.0-1.0-41.0-0.0","0","0","68867","","41","","","75","4","","","1","4","training","adjacent","BC","2","3","N.jpg","Q.jpg","1","1","1","",""
"","feedback","","html-keyboard-response","41","169755","0.0-1.0-42.0-0.0","0","0","68867","","null","","","null","4","","","","","","","","","","","","","","","",""
"","ITI","","html-keyboard-response","42","170757","0.0-1.0-45.0","0","0","68867","","null","","","null","4","","","","","","","","","","","","","","","NaN",""
"","S1","","html-keyboard-response","43","171008","0.0-1.0-47.0","0","0","68867","","null","","","null","5","","","","","","","","","","","","","","","",""
"","ISI","","html-keyboard-response","44","172010","0.0-1.0-48.0","0","0","68867","","null","","","null","5","NaN","","","","","","","","","","","","","","",""
"","S2","","html-keyboard-response","45","172261","0.0-1.0-49.0","0","0","68867","","null","","","null","5","","NaN","","","","","","","","","","","","","",""
"","response","","html-keyboard-response","46","172264","0.0-1.0-50.0-0.0","0","0","68867","","1","","","68","5","","","1","5","training","adjacent","DC","4","3","P.jpg","Q.jpg","0","0","1","",""
"","feedback","","html-keyboard-response","47","173265","0.0-1.0-51.0-0.0","0","0","68867","","null","","","null","5","","","","","","","","","","","","","","","",""
"","ITI","","html-keyboard-response","48","174266","0.0-1.0-54.0","0","0","68867","","null","","","null","5","","","","","","","","","","","","","","","NaN",""
"","S1","","html-keyboard-response","49","174518","0.0-1.0-56.0","0","0","68867","","null","","","null","6","","","","","","","","","","","","","","","",""
"","ISI","","html-keyboard-response","50","175519","0.0-1.0-57.0","0","0","68867","","null","","","null","6","NaN","","","","","","","","","","","","","","",""
"","S2","","html-keyboard-response","51","175771","0.0-1.0-58.0","0","0","68867","","null","","","null","6","","NaN","","","","","","","","","","","","","",""
"","response","","html-keyboard-response","52","175773","0.0-1.0-59.0-0.0","0","0","68867","","2","","","75","6","","","1","6","training","adjacent","ED","5","4","R.jpg","P.jpg","1","0","0","",""
"","feedback","","html-keyboard-response","53","176776","0.0-1.0-60.0-0.0","0","0","68867","","null","","","null","6","","","","","","","","","","","","","","","",""
"","time_out","","html-keyboard-response","54","178777","0.0-1.0-62.0-0.0","0","0","68867","","null","","","null","6","","","","","","","","","","","","","","","",""
"","ITI","","html-keyboard-response","55","179778","0.0-1.0-63.0","0","0","68867","","null","","","null","6","","","","","","","","","","","","","","","NaN",""
"","S1","","html-keyboard-response","56","180030","0.0-1.0-65.0","0","0","68867","","null","","","null","7","","","","","","","","","","","","","","","",""
"","ISI","","html-keyboard-response","57","181032","0.0-1.0-66.0","0","0","68867","","null","","","null","7","NaN","","","","","","","","","","","","","","",""
"","S2","","html-keyboard-response","58","181284","0.0-1.0-67.0","0","0","68867","","null","","","null","7","","NaN","","","","","","","","","","","","","",""
"","response","","html-keyboard-response","59","181348","0.0-1.0-68.0-0.0","0","0","68867","","63","","","68","7","","","1","7","training","adjacent","CD","3","4","Q.jpg","P.jpg","0","1","0","",""
"","feedback","","html-keyboard-response","60","182348","0.0-1.0-69.0-0.0","0","0","68867","","null","","","null","7","","","","","","","","","","","","","","","",""
"","time_out","","html-keyboard-response","61","184350","0.0-1.0-71.0-0.0","0","0","68867","","null","","","null","7","","","","","","","","","","","","","","","",""
"","ITI","","html-keyboard-response","62","185351","0.0-1.0-72.0","0","0","68867","","null","","","null","7","","","","","","","","","","","","","","","NaN",""
"","S1","","html-keyboard-response","63","185602","0.0-1.0-74.0","0","0","68867","","null","","","null","8","","","","","","","","","","","","","","","",""
"","ISI","","html-keyboard-response","64","186605","0.0-1.0-75.0","0","0","68867","","67","","","75","8","k","","","","","","","","","","","","","","",""
"","S2","","html-keyboard-response","65","186853","0.0-1.0-76.0","0","0","68867","","248","","","75","8","","k","1","8","training","adjacent","BA","2","1","N.jpg","O.jpg","1","0","0","",""
"","feedback","","html-keyboard-response","66","187855","0.0-1.0-78.0-0.0","0","0","68867","","null","","","null","8","","","","","","","","","","","","","","","",""
"","time_out","","html-keyboard-response","67","189856","0.0-1.0-80.0-0.0","0","0","68867","","null","","","null","8","","","","","","","","","","","","","","","",""
"","ITI","","html-keyboard-response","68","190857","0.0-1.0-81.0","0","0","68867","","null","","","null","8","","","","","","","","","","","","","","","NaN",""
"","S1","","html-keyboard-response","69","191109","0.0-1.0-83.0","0","0","68867","","null","","","null","9","","","","","","","","","","","","","","","",""
"","ISI","","html-keyboard-response","70","192110","0.0-1.0-84.0","0","0","68867","","null","","","null","9","NaN","","","","","","","","","","","","","","",""
"","S2","","html-keyboard-response","71","192362","0.0-1.0-85.0","0","0","68867","","null","","","null","9","","NaN","","","","","","","","","","","","","",""
"","response","","html-keyboard-response","72","192362","0.0-1.0-86.0-0.0","0","0","68867","","0","","","68","9","","","1","9","training","adjacent","CB","3","2","Q.jpg","N.jpg","0","0","1","",""
"","feedback","","html-keyboard-response","73","193364","0.0-1.0-87.0-0.0","0","0","68867","","null","","","null","9","","","","","","","","","","","","","","","",""
"","ITI","","html-keyboard-response","74","194366","0.0-1.0-90.0","0","0","68867","","null","","","null","9","","","","","","","","","","","","","","","NaN",""
"","S1","","html-keyboard-response","75","194617","0.0-1.0-92.0","0","0","68867","","null","","","null","10","","","","","","","","","","","","","","","",""
"","ISI","","html-keyboard-response","76","195618","0.0-1.0-93.0","0","0","68867","","null","","","null","10","NaN","","","","","","","","","","","","","","",""
"","S2","","html-keyboard-response","77","195870","0.0-1.0-94.0","0","0","68867","","null","","","null","10","","NaN","","","","","","","","","","","","","",""
"","response","","html-keyboard-response","78","195894","0.0-1.0-95.0-0.0","0","0","68867","","24","","","68","10","","","1","10","training","adjacent","FE","6","5","L.jpg","R.jpg","0","0","1","",""
"","feedback","","html-keyboard-response","79","196896","0.0-1.0-96.0-0.0","0","0","68867","","null","","","null","10","","","","","","","","","","","","","","","",""
"","ITI","","html-keyboard-response","80","197897","0.0-1.0-99.0","0","0","68867","","null","","","null","10","","","","","","","","","","","","","","","NaN",""
"","S1","","html-keyboard-response","81","198148","0.0-1.0-101.0","0","0","68867","","null","","","null","11","","","","","","","","","","","","","","","",""
"","ISI","","html-keyboard-response","82","199150","0.0-1.0-102.0","0","0","68867","","null","","","null","11","NaN","","","","","","","","","","","","","","",""
"","S2","","html-keyboard-response","83","199401","0.0-1.0-103.0","0","0","68867","","null","","","null","11","","NaN","","","","","","","","","","","","","",""
"","response","","html-keyboard-response","84","199942","0.0-1.0-104.0-0.0","0","0","68867","","541","","","68","11","","","1","11","training","adjacent","FE","6","5","L.jpg","R.jpg","0","0","1","",""
"","feedback","","html-keyboard-response","85","200944","0.0-1.0-105.0-0.0","0","0","68867","","null","","","null","11","","","","","","","","","","","","","","","",""
"","ITI","","html-keyboard-response","86","201945","0.0-1.0-108.0","0","0","68867","","null","","","null","11","","","","","","","","","","","","","","","NaN",""
"","S1","","html-keyboard-response","87","202197","0.0-1.0-110.0","0","0","68867","","null","","","null","12","","","","","","","","","","","","","","","",""
"","ISI","","html-keyboard-response","88","203198","0.0-1.0-111.0","0","0","68867","","null","","","null","12","NaN","","","","","","","","","","","","","","",""
"","S2","","html-keyboard-response","89","203450","0.0-1.0-112.0","0","0","68867","","null","","","null","12","","NaN","","","","","","","","","","","","","",""
"","response","","html-keyboard-response","90","203555","0.0-1.0-113.0-0.0","0","0","68867","","105","","","68","12","","","1","12","training","adjacent","FG","6","7","L.jpg","M.jpg","0","1","0","",""
"","feedback","","html-keyboard-response","91","204557","0.0-1.0-114.0-0.0","0","0","68867","","null","","","null","12","","","","","","","","","","","","","","","",""
"","time_out","","html-keyboard-response","92","206559","0.0-1.0-116.0-0.0","0","0","68867","","null","","","null","12","","","","","","","","","","","","","","","",""
"","ITI","","html-keyboard-response","93","207560","0.0-1.0-117.0","0","0","68867","","null","","","null","12","","","","","","","","","","","","","","","NaN",""
"","S1","","html-keyboard-response","94","207812","0.0-1.0-119.0","0","0","68867","","null","","","null","13","","","","","","","","","","","","","","","",""
"","ISI","","html-keyboard-response","95","208813","0.0-1.0-120.0","0","0","68867","","56","","","68","13","d","","","","","","","","","","","","","","",""
"","S2","","html-keyboard-response","96","209065","0.0-1.0-121.0","0","0","68867","","null","","","null","13","","NaN","","","","","","","","","","","","","",""
"","response","","html-keyboard-response","97","209303","0.0-1.0-122.0-0.0","0","0","68867","","237","","","68","13","","","1","13","training","adjacent","DC","4","3","P.jpg","Q.jpg","0","0","1","",""
"","feedback","","html-keyboard-response","98","210305","0.0-1.0-123.0-0.0","0","0","68867","","null","","","null","13","","","","","","","","","","","","","","","",""
"","ITI","","html-keyboard-response","99","211306","0.0-1.0-126.0","0","0","68867","","null","","","null","13","","","","","","","","","","","","","","","NaN",""
"","S1","","html-keyboard-response","100","211558","0.0-1.0-128.0","0","0","68867","","null","","","null","14","","","","","","","","","","","","","","","",""
"","ISI","","html-keyboard-response","101","212559","0.0-1.0-129.0","0","0","68867","","null","","","null","14","NaN","","","","","","","","","","","","","","",""
"","S2","","html-keyboard-response","102","212811","0.0-1.0-130.0","0","0","68867","","null","","","null","14","","NaN","","","","","","","","","","","","","",""
"","response","","html-keyboard-response","103","214563","0.0-1.0-131.0-0.0","0","0","68867","","null","","","null","14","","","1","14","training","adjacent","DE","4","5","P.jpg","R.jpg","NaN","1","0","",""
"","too_slow_prompt","","html-keyboard-response","104","215565","0.0-1.0-133.0-0.0","1","0","68867","","null","","","null","","","","","","","","","","","","","","","","",""
"","time_out","","html-keyboard-response","105","217566","0.0-1.0-134.0-0.0","0","0","68867","","null","","","null","14","","","","","","","","","","","","","","","",""
"","ITI","","html-keyboard-response","106","218568","0.0-1.0-135.0","0","0","68867","","null","","","null","14","","","","","","","","","","","","","","","NaN",""
"","S1","","html-keyboard-response","107","218820","0.0-1.0-137.0","0","0","68867","","null","","","null","15","","","","","","","","","","","","","","","",""
"","ISI","","html-keyboard-response","108","219821","0.0-1.0-138.0","0","0","68867","","329","","","75","15","k","","","","","","","","","","","","","","",""
"","S2","","html-keyboard-response","109","219942","0.0-1.0-139.0","0","0","68867","","120","","","75","15","","k","1","15","training","adjacent","AB","1","2","O.jpg","N.jpg","1","1","1","",""
"","feedback","","html-keyboard-response","110","220943","0.0-1.0-141.0-0.0","0","0","68867","","null","","","null","15","","","","","","","","","","","","","","","",""
"","ITI","","html-keyboard-response","111","221944","0.0-1.0-144.0","0","0","68867","","null","","","null","15","","","","","","","","","","","","","","","NaN",""
"","S1","","html-keyboard-response","112","222196","0.0-1.0-146.0","0","0","68867","","null","","","null","16","","","","","","","","","","","","","","","",""
"","ISI","","html-keyboard-response","113","223197","0.0-1.0-147.0","0","0","68867","","null","","","null","16","NaN","","","","","","","","","","","","","","",""
"","S2","","html-keyboard-response","114","223464","0.0-1.0-148.0","0","0","68867","","null","","","null","16","","NaN","","","","","","","","","","","","","",""
"","response","","html-keyboard-response","115","225216","0.0-1.0-149.0-0.0","0","0","68867","","null","","","null","16","","","1","16","training","adjacent","FG","6","7","L.jpg","M.jpg","NaN","1","0","",""
"","too_slow_prompt","","html-keyboard-response","116","226217","0.0-1.0-151.0-0.0","1","0","68867","","null","","","null","","","","","","","","","","","","","","","","",""
"","time_out","","html-keyboard-response","117","228218","0.0-1.0-152.0-0.0","0","0","68867","","null","","","null","16","","","","","","","","","","","","","","","",""
"","ITI","","html-keyboard-response","118","229219","0.0-1.0-153.0","0","0","68867","","39","","","68","16","","","","","","","","","","","","","","","d",""
"","S1","","html-keyboard-response","119","229471","0.0-1.0-155.0","0","0","68867","","null","","","null","17","","","","","","","","","","","","","","","",""
"","ISI","","html-keyboard-response","120","230472","0.0-1.0-156.0","0","0","68867","","184","","","68","17","d","","","","","","","","","","","","","","",""
"","S2","","html-keyboard-response","121","230476","0.0-1.0-157.0","0","0","68867","","2","","","68","17","","d","1","17","training","adjacent","FE","6","5","L.jpg","R.jpg","0","0","1","",""
"","feedback","","html-keyboard-response","122","231477","0.0-1.0-159.0-0.0","0","0","68867","","null","","","null","17","","","","","","","","","","","","","","","",""
"","ITI","","html-keyboard-response","123","232478","0.0-1.0-162.0","0","0","68867","","301","","","75","17","","","","","","","","","","","","","","","k",""
"","S1","","html-keyboard-response","124","232730","0.0-1.0-164.0","0","0","68867","","null","","","null","18","","","","","","","","","","","","","","","",""
"","ISI","","html-keyboard-response","125","233731","0.0-1.0-165.0","0","0","68867","","167","","","75","18","k","","","","","","","","","","","","","","",""
"","S2","","html-keyboard-response","126","233748","0.0-1.0-166.0","0","0","68867","","15","","","75","18","","k","1","18","training","adjacent","CD","3","4","Q.jpg","P.jpg","1","1","1","",""
"","feedback","","html-keyboard-response","127","234749","0.0-1.0-168.0-0.0","0","0","68867","","null","","","null","18","","","","","","","","","","","","","","","",""
"","ITI","","html-keyboard-response","128","235751","0.0-1.0-171.0","0","0","68867","","68","","","75","18","","","","","","","","","","","","","","","k",""
"","S1","","html-keyboard-response","129","236003","0.0-1.0-173.0","0","0","68867","","null","","","null","19","","","","","","","","","","","","","","","",""
"","ISI","","html-keyboard-response","130","237004","0.0-1.0-174.0","0","0","68867","","null","","","null","19","NaN","","","","","","","","","","","","","","",""
"","S2","","html-keyboard-response","131","237189","0.0-1.0-175.0","0","0","68867","","183","","","75","19","","k","1","19","training","adjacent","ED","5","4","R.jpg","P.jpg","1","0","0","",""
"","feedback","","html-keyboard-response","132","238191","0.0-1.0-177.0-0.0","0","0","68867","","null","","","null","19","","","","","","","","","","","","","","","",""
"","time_out","","html-keyboard-response","133","240192","0.0-1.0-179.0-0.0","0","0","68867","","null","","","null","19","","","","","","","","","","","","","","","",""
"","ITI","","html-keyboard-response","134","241194","0.0-1.0-180.0","0","0","68867","","null","","","null","19","","","","","","","","","","","","","","","NaN",""
"","S1","","html-keyboard-response","135","241446","0.0-1.0-182.0","0","0","68867","","null","","","null","20","","","","","","","","","","","","","","","",""
"","ISI","","html-keyboard-response","136","242448","0.0-1.0-183.0","0","0","68867","","null","","","null","20","NaN","","","","","","","","","","","","","","",""
"","S2","","html-keyboard-response","137","242700","0.0-1.0-184.0","0","0","68867","","null","","","null","20","","NaN","","","","","","","","","","","","","",""
"","response","","html-keyboard-response","138","242883","0.0-1.0-185.0-0.0","0","0","68867","","182","","","75","20","","","1","20","training","adjacent","ED","5","4","R.jpg","P.jpg","1","0","0","",""
"","feedback","","html-keyboard-response","139","243886","0.0-1.0-186.0-0.0","0","0","68867","","null","","","null","20","","","","","","","","","","","","","","","",""
"","time_out","","html-keyboard-response","140","245886","0.0-1.0-188.0-0.0","0","0","68867","","null","","","null","20","","","","","","","","","","","","","","","",""
"","ITI","","html-keyboard-response","141","246888","0.0-1.0-189.0","0","0","68867","","null","","","null","20","","","","","","","","","","","","","","","NaN",""
"","S1","","html-keyboard-response","142","247139","0.0-1.0-191.0","0","0","68867","","null","","","null","21","","","","","","","","","","","","","","","",""
"","ISI","","html-keyboard-response","143","248140","0.0-1.0-192.0","0","0","68867","","562","","","75","21","k","","","","","","","","","","","","","","",""
"","S2","","html-keyboard-response","144","248384","0.0-1.0-193.0","0","0","68867","","243","","","75","21","","k","1","21","training","adjacent","AB","1","2","O.jpg","N.jpg","1","1","1","",""
"","feedback","","html-keyboard-response","145","249386","0.0-1.0-195.0-0.0","0","0","68867","","null","","","null","21","","","","","","","","","","","","","","","",""
"","ITI","","html-keyboard-response","146","250389","0.0-1.0-198.0","0","0","68867","","null","","","null","21","","","","","","","","","","","","","","","NaN",""
"","S1","","html-keyboard-response","147","250640","0.0-1.0-200.0","0","0","68867","","null","","","null","22","","","","","","","","","","","","","","","",""
"","ISI","","html-keyboard-response","148","251641","0.0-1.0-201.0","0","0","68867","","330","","","75","22","k","","","","","","","","","","","","","","",""
"","S2","","html-keyboard-response","149","251892","0.0-1.0-202.0","0","0","68867","","null","","","null","22","","NaN","","","","","","","","","","","","","",""
"","response","","html-keyboard-response","150","251934","0.0-1.0-203.0-0.0","0","0","68867","","40","","","75","22","","","1","22","training","adjacent","DC","4","3","P.jpg","Q.jpg","1","0","0","",""
"","feedback","","html-keyboard-response","151","252936","0.0-1.0-204.0-0.0","0","0","68867","","null","","","null","22","","","","","","","","","","","","","","","",""
"","time_out","","html-keyboard-response","152","254938","0.0-1.0-206.0-0.0","0","0","68867","","null","","","null","22","","","","","","","","","","","","","","","",""
"","ITI","","html-keyboard-response","153","255939","0.0-1.0-207.0","0","0","68867","","null","","","null","22","","","","","","","","","","","","","","","NaN",""
"","S1","","html-keyboard-response","154","256190","0.0-1.0-209.0","0","0","68867","","null","","","null","23","","","","","","","","","","","","","","","",""
"","ISI","","html-keyboard-response","155","257192","0.0-1.0-210.0","0","0","68867","","null","","","null","23","NaN","","","","","","","","","","","","","","",""
"","S2","","html-keyboard-response","156","257443","0.0-1.0-211.0","0","0","68867","","null","","","null","23","","NaN","","","","","","","","","","","","","",""
"","response","","html-keyboard-response","157","257506","0.0-1.0-212.0-0.0","0","0","68867","","61","","","75","23","","","1","23","training","adjacent","CB","3","2","Q.jpg","N.jpg","1","0","0","",""
"","feedback","","html-keyboard-response","158","258507","0.0-1.0-213.0-0.0","0","0","68867","","null","","","null","23","","","","","","","","","","","","","","","",""
"","time_out","","html-keyboard-response","159","260508","0.0-1.0-215.0-0.0","0","0","68867","","null","","","null","23","","","","","","","","","","","","","","","",""
"","ITI","","html-keyboard-response","160","261510","0.0-1.0-216.0","0","0","68867","","null","","","null","23","","","","","","","","","","","","","","","NaN",""
"","S1","","html-keyboard-response","161","261761","0.0-1.0-218.0","0","0","68867","","null","","","null","24","","","","","","","","","","","","","","","",""
"","ISI","","html-keyboard-response","162","262763","0.0-1.0-219.0","0","0","68867","","null","","","null","24","NaN","","","","","","","","","","","","","","",""
"","S2","","html-keyboard-response","163","262906","0.0-1.0-220.0","0","0","68867","","142","","","68","24","","d","1","24","training","adjacent","EF","5","6","R.jpg","L.jpg","0","1","0","",""
"","feedback","","html-keyboard-response","164","263907","0.0-1.0-222.0-0.0","0","0","68867","","null","","","null","24","","","","","","","","","","","","","","","",""
"","time_out","","html-keyboard-response","165","265909","0.0-1.0-224.0-0.0","0","0","68867","","null","","","null","24","","","","","","","","","","","","","","","",""
"","ITI","","html-keyboard-response","166","266910","0.0-1.0-225.0","0","0","68867","","null","","","null","24","","","","","","","","","","","","","","","NaN",""
"","S1","","html-keyboard-response","167","267161","0.0-1.0-227.0","0","0","68867","","null","","","null","25","","","","","","","","","","","","","","","",""
"","ISI","","html-keyboard-response","168","268163","0.0-1.0-228.0","0","0","68867","","300","","","75","25","k","","","","","","","","","","","","","","",""
"","S2","","html-keyboard-response","169","268337","0.0-1.0-229.0","0","0","68867","","173","","","75","25","","k","1","25","training","adjacent","GF","7","6","M.jpg","L.jpg","1","0","0","",""
"","feedback","","html-keyboard-response","170","269339","0.0-1.0-231.0-0.0","0","0","68867","","null","","","null","25","","","","","","","","","","","","","","","",""
"","time_out","","html-keyboard-response","171","271340","0.0-1.0-233.0-0.0","0","0","68867","","null","","","null","25","","","","","","","","","","","","","","","",""
"","ITI","","html-keyboard-response","172","272342","0.0-1.0-234.0","0","0","68867","","719","","","75","25","","","","","","","","","","","","","","","k",""
"","S1","","html-keyboard-response","173","272593","0.0-1.0-236.0","0","0","68867","","null","","","null","26","","","","","","","","","","","","","","","",""
"","ISI","","html-keyboard-response","174","273595","0.0-1.0-237.0","0","0","68867","","166","","","68","26","d","","","","","","","","","","","","","","",""
"","S2","","html-keyboard-response","175","273846","0.0-1.0-238.0","0","0","68867","","null","","","null","26","","NaN","","","","","","","","","","","","","",""
"","response","","html-keyboard-response","176","273931","0.0-1.0-239.0-0.0","0","0","68867","","83","","","68","26","","","1","26","training","adjacent","BA","2","1","N.jpg","O.jpg","0","0","1","",""
"","feedback","","html-keyboard-response","177","274932","0.0-1.0-240.0-0.0","0","0","68867","","null","","","null","26","","","","","","","","","","","","","","","",""
"","ITI","","html-keyboard-response","178","275935","0.0-1.0-243.0","0","0","68867","","null","","","null","26","","","","","","","","","","","","","","","NaN",""
"","S1","","html-keyboard-response","179","276187","0.0-1.0-245.0","0","0","68867","","null","","","null","27","","","","","","","","","","","","","","","",""
"","ISI","","html-keyboard-response","180","277188","0.0-1.0-246.0","0","0","68867","","null","","","null","27","NaN","","","","","","","","","","","","","","",""
"","S2","","html-keyboard-response","181","277440","0.0-1.0-247.0","0","0","68867","","null","","","null","27","","NaN","","","","","","","","","","","","","",""
"","response","","html-keyboard-response","182","277636","0.0-1.0-248.0-0.0","0","0","68867","","194","","","75","27","","","1","27","training","adjacent","DE","4","5","P.jpg","R.jpg","1","1","1","",""
"","feedback","","html-keyboard-response","183","278638","0.0-1.0-249.0-0.0","0","0","68867","","null","","","null","27","","","","","","","","","","","","","","","",""
"","ITI","","html-keyboard-response","184","279639","0.0-1.0-252.0","0","0","68867","","null","","","null","27","","","","","","","","","","","","","","","NaN",""
"","S1","","html-keyboard-response","185","279891","0.0-1.0-254.0","0","0","68867","","null","","","null","28","","","","","","","","","","","","","","","",""
"","ISI","","html-keyboard-response","186","280892","0.0-1.0-255.0","0","0","68867","","null","","","null","28","NaN","","","","","","","","","","","","","","",""
"","S2","","html-keyboard-response","187","281144","0.0-1.0-256.0","0","0","68867","","null","","","null","28","","NaN","","","","","","","","","","","","","",""
"","response","","html-keyboard-response","188","281568","0.0-1.0-257.0-0.0","0","0","68867","","423","","","68","28","","","1","28","training","adjacent","DE","4","5","P.jpg","R.jpg","0","1","0","",""
"","feedback","","html-keyboard-response","189","282569","0.0-1.0-258.0-0.0","0","0","68867","","null","","","null","28","","","","","","","","","","","","","","","",""
"","time_out","","html-keyboard-response","190","284570","0.0-1.0-260.0-0.0","0","0","68867","","null","","","null","28","","","","","","","","","","","","","","","",""
"","ITI","","html-keyboard-response","191","285572","0.0-1.0-261.0","0","0","68867","","null","","","null","28","","","","","","","","","","","","","","","NaN",""
"","S1","","html-keyboard-response","192","285824","0.0-1.0-263.0","0","0","68867","","null","","","null","29","","","","","","","","","","","","","","","",""
"","ISI","","html-keyboard-response","193","286826","0.0-1.0-264.0","0","0","68867","","470","","","75","29","k","","","","","","","","","","","","","","",""
"","S2","","html-keyboard-response","194","287077","0.0-1.0-265.0","0","0","68867","","null","","","null","29","","NaN","","","","","","","","","","","","","",""
"","response","","html-keyboard-response","195","287099","0.0-1.0-266.0-0.0","0","0","68867","","21","","","75","29","","","1","29","training","adjacent","ED","5","4","R.jpg","P.jpg","1","0","0","",""
"","feedback","","html-keyboard-response","196","288101","0.0-1.0-267.0-0.0","0","0","68867","","null","","","null","29","","","","","","","","","","","","","","","",""
"","time_out","","html-keyboard-response","197","290103","0.0-1.0-269.0-0.0","0","0","68867","","null","","","null","29","","","","","","","","","","","","","","","",""
"","ITI","","html-keyboard-response","198","291105","0.0-1.0-270.0","0","0","68867","","null","","","null","29","","","","","","","","","","","","","","","NaN",""
"","S1","","html-keyboard-response","199","291356","0.0-1.0-272.0","0","0","68867","","null","","","null","30","","","","","","","","","","","","","","","",""
"","ISI","","html-keyboard-response","200","292372","0.0-1.0-273.0","0","0","68867","","19","","","68","30","d","","","","","","","","","","","","","","",""
"","S2","","html-keyboard-response","201","292623","0.0-1.0-274.0","0","0","68867","","null","","","null","30","","NaN","","","","","","","","","","","","","",""
"","response","","html-keyboard-response","202","292699","0.0-1.0-275.0-0.0","0","0","68867","","74","","","75","30","","","1","30","training","adjacent","FG","6","7","L.jpg","M.jpg","1","1","1","",""
"","feedback","","html-keyboard-response","203","293700","0.0-1.0-276.0-0.0","0","0","68867","","null","","","null","30","","","","","","","","","","","","","","","",""
"","ITI","","html-keyboard-response","204","294702","0.0-1.0-279.0","0","0","68867","","null","","","null","30","","","","","","","","","","","","","","","NaN",""
"","S1","","html-keyboard-response","205","294953","0.0-1.0-281.0","0","0","68867","","null","","","null","31","","","","","","","","","","","","","","","",""
"","ISI","","html-keyboard-response","206","295955","0.0-1.0-282.0","0","0","68867","","null","","","null","31","NaN","","","","","","","","","","","","","","",""
"","S2","","html-keyboard-response","207","296206","0.0-1.0-283.0","0","0","68867","","null","","","null","31","","NaN","","","","","","","","","","","","","",""
"","response","","html-keyboard-response","208","296375","0.0-1.0-284.0-0.0","0","0","68867","","167","","","68","31","","","1","31","training","adjacent","AB","1","2","O.jpg","N.jpg","0","1","0","",""
"","feedback","","html-keyboard-response","209","297377","0.0-1.0-285.0-0.0","0","0","68867","","null","","","null","31","","","","","","","","","","","","","","","",""
"","time_out","","html-keyboard-response","210","299391","0.0-1.0-287.0-0.0","0","0","68867","","null","","","null","31","","","","","","","","","","","","","","","",""
"","ITI","","html-keyboard-response","211","300393","0.0-1.0-288.0","0","0","68867","","null","","","null","31","","","","","","","","","","","","","","","NaN",""
"","S1","","html-keyboard-response","212","300645","0.0-1.0-290.0","0","0","68867","","null","","","null","32","","","","","","","","","","","","","","","",""
"","ISI","","html-keyboard-response","213","301646","0.0-1.0-291.0","0","0","68867","","298","","","75","32","k","","","","","","","","","","","","","","",""
"","S2","","html-keyboard-response","214","301866","0.0-1.0-292.0","0","0","68867","","219","","","75","32","","k","1","32","training","adjacent","GF","7","6","M.jpg","L.jpg","1","0","0","",""
"","feedback","","html-keyboard-response","215","302868","0.0-1.0-294.0-0.0","0","0","68867","","null","","","null","32","","","","","","","","","","","","","","","",""
"","time_out","","html-keyboard-response","216","304869","0.0-1.0-296.0-0.0","0","0","68867","","null","","","null","32","","","","","","","","","","","","","","","",""
"","ITI","","html-keyboard-response","217","305871","0.0-1.0-297.0","0","0","68867","","null","","","null","32","","","","","","","","","","","","","","","NaN",""
"","S1","","html-keyboard-response","218","306123","0.0-1.0-299.0","0","0","68867","","null","","","null","33","","","","","","","","","","","","","","","",""
"","ISI","","html-keyboard-response","219","307125","0.0-1.0-300.0","0","0","68867","","null","","","null","33","NaN","","","","","","","","","","","","","","",""
"","S2","","html-keyboard-response","220","307377","0.0-1.0-301.0","0","0","68867","","null","","","null","33","","NaN","","","","","","","","","","","","","",""
"","response","","html-keyboard-response","221","307398","0.0-1.0-302.0-0.0","0","0","68867","","20","","","68","33","","","1","33","training","adjacent","FE","6","5","L.jpg","R.jpg","0","0","1","",""
"","feedback","","html-keyboard-response","222","308399","0.0-1.0-303.0-0.0","0","0","68867","","null","","","null","33","","","","","","","","","","","","","","","",""
"","ITI","","html-keyboard-response","223","309401","0.0-1.0-306.0","0","0","68867","","null","","","null","33","","","","","","","","","","","","","","","NaN",""
"","S1","","html-keyboard-response","224","309652","0.0-1.0-308.0","0","0","68867","","null","","","null","34","","","","","","","","","","","","","","","",""
"","ISI","","html-keyboard-response","225","310654","0.0-1.0-309.0","0","0","68867","","null","","","null","34","NaN","","","","","","","","","","","","","","",""
"","S2","","html-keyboard-response","226","310905","0.0-1.0-310.0","0","0","68867","","null","","","null","34","","NaN","","","","","","","","","","","","","",""
"","response","","html-keyboard-response","227","310936","0.0-1.0-311.0-0.0","0","0","68867","","30","","","75","34","","","1","34","training","adjacent","CB","3","2","Q.jpg","N.jpg","1","0","0","",""
"","feedback","","html-keyboard-response","228","311937","0.0-1.0-312.0-0.0","0","0","68867","","null","","","null","34","","","","","","","","","","","","","","","",""
"","time_out","","html-keyboard-response","229","313939","0.0-1.0-314.0-0.0","0","0","68867","","null","","","null","34","","","","","","","","","","","","","","","",""
"","ITI","","html-keyboard-response","230","314940","0.0-1.0-315.0","0","0","68867","","null","","","null","34","","","","","","","","","","","","","","","NaN",""
"","S1","","html-keyboard-response","231","315192","0.0-1.0-317.0","0","0","68867","","null","","","null","35","","","","","","","","","","","","","","","",""
"","ISI","","html-keyboard-response","232","316193","0.0-1.0-318.0","0","0","68867","","null","","","null","35","NaN","","","","","","","","","","","","","","",""
"","S2","","html-keyboard-response","233","316420","0.0-1.0-319.0","0","0","68867","","226","","","68","35","","d","1","35","training","adjacent","EF","5","6","R.jpg","L.jpg","0","1","0","",""
"","feedback","","html-keyboard-response","234","317422","0.0-1.0-321.0-0.0","0","0","68867","","null","","","null","35","","","","","","","","","","","","","","","",""
"","time_out","","html-keyboard-response","235","319423","0.0-1.0-323.0-0.0","0","0","68867","","null","","","null","35","","","","","","","","","","","","","","","",""
"","ITI","","html-keyboard-response","236","320424","0.0-1.0-324.0","0","0","68867","","null","","","null","35","","","","","","","","","","","","","","","NaN",""
"","S1","","html-keyboard-response","237","320676","0.0-1.0-326.0","0","0","68867","","null","","","null","36","","","","","","","","","","","","","","","",""
"","ISI","","html-keyboard-response","238","321678","0.0-1.0-327.0","0","0","68867","","173","","","75","36","k","","","","","","","","","","","","","","",""
"","S2","","html-keyboard-response","239","321786","0.0-1.0-328.0","0","0","68867","","107","","","75","36","","k","1","36","training","adjacent","GF","7","6","M.jpg","L.jpg","1","0","0","",""
"","feedback","","html-keyboard-response","240","322787","0.0-1.0-330.0-0.0","0","0","68867","","null","","","null","36","","","","","","","","","","","","","","","",""
"","time_out","","html-keyboard-response","241","324789","0.0-1.0-332.0-0.0","0","0","68867","","null","","","null","36","","","","","","","","","","","","","","","",""
"","ITI","","html-keyboard-response","242","325790","0.0-1.0-333.0","0","0","68867","","null","","","null","36","","","","","","","","","","","","","","","NaN",""
"","S1","","html-keyboard-response","243","326041","0.0-1.0-335.0","0","0","68867","","null","","","null","37","","","","","","","","","","","","","","","",""
"","ISI","","html-keyboard-response","244","327043","0.0-1.0-336.0","0","0","68867","","null","","","null","37","NaN","","","","","","","","","","","","","","",""
"","S2","","html-keyboard-response","245","327295","0.0-1.0-337.0","0","0","68867","","null","","","null","37","","NaN","","","","","","","","","","","","","",""
"","response","","html-keyboard-response","246","327357","0.0-1.0-338.0-0.0","0","0","68867","","61","","","75","37","","","1","37","training","adjacent","BA","2","1","N.jpg","O.jpg","1","0","0","",""
"","feedback","","html-keyboard-response","247","328359","0.0-1.0-339.0-0.0","0","0","68867","","null","","","null","37","","","","","","","","","","","","","","","",""
"","time_out","","html-keyboard-response","248","330360","0.0-1.0-341.0-0.0","0","0","68867","","null","","","null","37","","","","","","","","","","","","","","","",""
"","ITI","","html-keyboard-response","249","331361","0.0-1.0-342.0","0","0","68867","","null","","","null","37","","","","","","","","","","","","","","","NaN",""
"","S1","","html-keyboard-response","250","331613","0.0-1.0-344.0","0","0","68867","","null","","","null","38","","","","","","","","","","","","","","","",""
"","ISI","","html-keyboard-response","251","332616","0.0-1.0-345.0","0","0","68867","","null","","","null","38","NaN","","","","","","","","","","","","","","",""
"","S2","","html-keyboard-response","252","332849","0.0-1.0-346.0","0","0","68867","","232","","","75","38","","k","1","38","training","adjacent","CD","3","4","Q.jpg","P.jpg","1","1","1","",""
"","feedback","","html-keyboard-response","253","333851","0.0-1.0-348.0-0.0","0","0","68867","","null","","","null","38","","","","","","","","","","","","","","","",""
"","ITI","","html-keyboard-response","254","334853","0.0-1.0-351.0","0","0","68867","","null","","","null","38","","","","","","","","","","","","","","","NaN",""
"","S1","","html-keyboard-response","255","335105","0.0-1.0-353.0","0","0","68867","","null","","","null","39","","","","","","","","","","","","","","","",""
"","ISI","","html-keyboard-response","256","336106","0.0-1.0-354.0","0","0","68867","","397","","","75","39","k","","","","","","","","","","","","","","",""
"","S2","","html-keyboard-response","257","336254","0.0-1.0-355.0","0","0","68867","","147","","","75","39","","k","1","39","training","adjacent","CB","3","2","Q.jpg","N.jpg","1","0","0","",""
"","feedback","","html-keyboard-response","258","337256","0.0-1.0-357.0-0.0","0","0","68867","","null","","","null","39","","","","","","","","","","","","","","","",""
"","time_out","","html-keyboard-response","259","339257","0.0-1.0-359.0-0.0","0","0","68867","","null","","","null","39","","","","","","","","","","","","","","","",""
"","ITI","","html-keyboard-response","260","340259","0.0-1.0-360.0","0","0","68867","","224","","","68","39","","","","","","","","","","","","","","","d",""
"","S1","","html-keyboard-response","261","340510","0.0-1.0-362.0","0","0","68867","","null","","","null","40","","","","","","","","","","","","","","","",""
"","ISI","","html-keyboard-response","262","341512","0.0-1.0-363.0","0","0","68867","","null","","","null","40","NaN","","","","","","","","","","","","","","",""
"","S2","","html-keyboard-response","263","341702","0.0-1.0-364.0","0","0","68867","","188","","","68","40","","d","1","40","training","adjacent","AB","1","2","O.jpg","N.jpg","0","1","0","",""
"","feedback","","html-keyboard-response","264","342704","0.0-1.0-366.0-0.0","0","0","68867","","null","","","null","40","","","","","","","","","","","","","","","",""
"","time_out","","html-keyboard-response","265","344705","0.0-1.0-368.0-0.0","0","0","68867","","null","","","null","40","","","","","","","","","","","","","","","",""
"","ITI","","html-keyboard-response","266","345706","0.0-1.0-369.0","0","0","68867","","null","","","null","40","","","","","","","","","","","","","","","NaN",""
"","S1","","html-keyboard-response","267","345958","0.0-1.0-371.0","0","0","68867","","null","","","null","41","","","","","","","","","","","","","","","",""
"","ISI","","html-keyboard-response","268","346960","0.0-1.0-372.0","0","0","68867","","139","","","75","41","k","","","","","","","","","","","","","","",""
"","S2","","html-keyboard-response","269","346986","0.0-1.0-373.0","0","0","68867","","25","","","75","41","","k","1","41","training","adjacent","BC","2","3","N.jpg","Q.jpg","1","1","1","",""
"","feedback","","html-keyboard-response","270","347987","0.0-1.0-375.0-0.0","0","0","68867","","null","","","null","41","","","","","","","","","","","","","","","",""
"","ITI","","html-keyboard-response","271","348989","0.0-1.0-378.0","0","0","68867","","null","","","null","41","","","","","","","","","","","","","","","NaN",""
"","S1","","html-keyboard-response","272","349240","0.0-1.0-380.0","0","0","68867","","null","","","null","42","","","","","","","","","","","","","","","",""
"","ISI","","html-keyboard-response","273","350242","0.0-1.0-381.0","0","0","68867","","null","","","null","42","NaN","","","","","","","","","","","","","","",""
"","S2","","html-keyboard-response","274","350495","0.0-1.0-382.0","0","0","68867","","null","","","null","42","","NaN","","","","","","","","","","","","","",""
"","response","","html-keyboard-response","275","351073","0.0-1.0-383.0-0.0","0","0","68867","","577","","","68","42","","","1","42","training","adjacent","FG","6","7","L.jpg","M.jpg","0","1","0","",""
"","feedback","","html-keyboard-response","276","352074","0.0-1.0-384.0-0.0","0","0","68867","","null","","","null","42","","","","","","","","","","","","","","","",""
"","time_out","","html-keyboard-response","277","354075","0.0-1.0-386.0-0.0","0","0","68867","","null","","","null","42","","","","","","","","","","","","","","","",""
"","ITI","","html-keyboard-response","278","355077","0.0-1.0-387.0","0","0","68867","","null","","","null","42","","","","","","","","","","","","","","","NaN",""
"","S1","","html-keyboard-response","279","355329","0.0-1.0-389.0","0","0","68867","","null","","","null","43","","","","","","","","","","","","","","","",""
"","ISI","","html-keyboard-response","280","356330","0.0-1.0-390.0","0","0","68867","","null","","","null","43","NaN","","","","","","","","","","","","","","",""
"","S2","","html-keyboard-response","281","356576","0.0-1.0-391.0","0","0","68867","","244","","","75","43","","k","1","43","training","adjacent","BA","2","1","N.jpg","O.jpg","1","0","0","",""
"","feedback","","html-keyboard-response","282","357578","0.0-1.0-393.0-0.0","0","0","68867","","null","","","null","43","","","","","","","","","","","","","","","",""
"","time_out","","html-keyboard-response","283","359579","0.0-1.0-395.0-0.0","0","0","68867","","null","","","null","43","","","","","","","","","","","","","","","",""
"","ITI","","html-keyboard-response","284","360581","0.0-1.0-396.0","0","0","68867","","null","","","null","43","","","","","","","","","","","","","","","NaN",""
"","S1","","html-keyboard-response","285","360832","0.0-1.0-398.0","0","0","68867","","null","","","null","44","","","","","","","","","","","","","","","",""
"","ISI","","html-keyboard-response","286","361834","0.0-1.0-399.0","0","0","68867","","123","","","68","44","d","","","","","","","","","","","","","","",""
"","S2","","html-keyboard-response","287","362014","0.0-1.0-400.0","0","0","68867","","179","","","68","44","","d","1","44","training","adjacent","EF","5","6","R.jpg","L.jpg","0","1","0","",""
"","feedback","","html-keyboard-response","288","363015","0.0-1.0-402.0-0.0","0","0","68867","","null","","","null","44","","","","","","","","","","","","","","","",""
"","time_out","","html-keyboard-response","289","365017","0.0-1.0-404.0-0.0","0","0","68867","","null","","","null","44","","","","","","","","","","","","","","","",""
"","ITI","","html-keyboard-response","290","366018","0.0-1.0-405.0","0","0","68867","","null","","","null","44","","","","","","","","","","","","","","","NaN",""
"","S1","","html-keyboard-response","291","366270","0.0-1.0-407.0","0","0","68867","","null","","","null","45","","","","","","","","","","","","","","","",""
"","ISI","","html-keyboard-response","292","367272","0.0-1.0-408.0","0","0","68867","","59","","","75","45","k","","","","","","","","","","","","","","",""
"","S2","","html-keyboard-response","293","367359","0.0-1.0-409.0","0","0","68867","","86","","","75","45","","k","1","45","training","adjacent","BC","2","3","N.jpg","Q.jpg","1","1","1","",""
"","feedback","","html-keyboard-response","294","368360","0.0-1.0-411.0-0.0","0","0","68867","","null","","","null","45","","","","","","","","","","","","","","","",""
"","ITI","","html-keyboard-response","295","369361","0.0-1.0-414.0","0","0","68867","","null","","","null","45","","","","","","","","","","","","","","","NaN",""
"","S1","","html-keyboard-response","296","369613","0.0-1.0-416.0","0","0","68867","","null","","","null","46","","","","","","","","","","","","","","","",""
"","ISI","","html-keyboard-response","297","370615","0.0-1.0-417.0","0","0","68867","","31","","","68","46","d","","","","","","","","","","","","","","",""
"","S2","","html-keyboard-response","298","370851","0.0-1.0-418.0","0","0","68867","","235","","","68","46","","d","1","46","training","adjacent","EF","5","6","R.jpg","L.jpg","0","1","0","",""
"","feedback","","html-keyboard-response","299","371852","0.0-1.0-420.0-0.0","0","0","68867","","null","","","null","46","","","","","","","","","","","","","","","",""
"","time_out","","html-keyboard-response","300","373854","0.0-1.0-422.0-0.0","0","0","68867","","null","","","null","46","","","","","","","","","","","","","","","",""
"","ITI","","html-keyboard-response","301","374856","0.0-1.0-423.0","0","0","68867","","908","","","75","46","","","","","","","","","","","","","","","k",""
"","S1","","html-keyboard-response","302","375107","0.0-1.0-425.0","0","0","68867","","null","","","null","47","","","","","","","","","","","","","","","",""
"","ISI","","html-keyboard-response","303","376109","0.0-1.0-426.0","0","0","68867","","35","","","75","47","k","","","","","","","","","","","","","","",""
"","S2","","html-keyboard-response","304","376212","0.0-1.0-427.0","0","0","68867","","102","","","75","47","","k","1","47","training","adjacent","GF","7","6","M.jpg","L.jpg","1","0","0","",""
"","feedback","","html-keyboard-response","305","377213","0.0-1.0-429.0-0.0","0","0","68867","","null","","","null","47","","","","","","","","","","","","","","","",""
"","time_out","","html-keyboard-response","306","379215","0.0-1.0-431.0-0.0","0","0","68867","","null","","","null","47","","","","","","","","","","","","","","","",""
"","ITI","","html-keyboard-response","307","380216","0.0-1.0-432.0","0","0","68867","","163","","","75","47","","","","","","","","","","","","","","","k",""
"","block_over","","html-keyboard-response","308","388232","0.0-1.0-433.0-0.0","0","0","68867","","8014","","","32","47","","","","","","","","","","","","","","","",""
"","S1","","html-keyboard-response","309","388484","0.0-1.0-434.0","0","0","68867","","null","","","null","48","","","","","","","","","","","","","","","",""
"","ISI","","html-keyboard-response","310","389486","0.0-1.0-435.0","0","0","68867","","695","","","75","48","k","","","","","","","","","","","","","","",""
"","S2","","html-keyboard-response","311","389683","0.0-1.0-436.0","0","0","68867","","196","","","75","48","","k","2","48","training","adjacent","FE","6","5","L.jpg","R.jpg","1","0","0","",""
"","feedback","","html-keyboard-response","312","390684","0.0-1.0-438.0-0.0","0","0","68867","","null","","","null","48","","","","","","","","","","","","","","","",""
"","time_out","","html-keyboard-response","313","392686","0.0-1.0-440.0-0.0","0","0","68867","","null","","","null","48","","","","","","","","","","","","","","","",""
"","ITI","","html-keyboard-response","314","393687","0.0-1.0-441.0","0","0","68867","","171","","","75","48","","","","","","","","","","","","","","","k",""
"","S1","","html-keyboard-response","315","393938","0.0-1.0-443.0","0","0","68867","","null","","","null","49","","","","","","","","","","","","","","","",""
"","ISI","","html-keyboard-response","316","394940","0.0-1.0-444.0","0","0","68867","","246","","","75","49","k","","","","","","","","","","","","","","",""
"","S2","","html-keyboard-response","317","395172","0.0-1.0-445.0","0","0","68867","","231","","","75","49","","k","2","49","training","adjacent","CD","3","4","Q.jpg","P.jpg","1","1","1","",""
"","feedback","","html-keyboard-response","318","396173","0.0-1.0-447.0-0.0","0","0","68867","","null","","","null","49","","","","","","","","","","","","","","","",""
"","ITI","","html-keyboard-response","319","397176","0.0-1.0-450.0","0","0","68867","","null","","","null","49","","","","","","","","","","","","","","","NaN",""
"","S1","","html-keyboard-response","320","397427","0.0-1.0-452.0","0","0","68867","","null","","","null","50","","","","","","","","","","","","","","","",""
"","ISI","","html-keyboard-response","321","398429","0.0-1.0-453.0","0","0","68867","","null","","","null","50","NaN","","","","","","","","","","","","","","",""
"","S2","","html-keyboard-response","322","398681","0.0-1.0-454.0","0","0","68867","","null","","","null","50","","NaN","","","","","","","","","","","","","",""
"","response","","html-keyboard-response","323","398763","0.0-1.0-455.0-0.0","0","0","68867","","81","","","68","50","","","2","50","training","adjacent","BA","2","1","N.jpg","O.jpg","0","0","1","",""
"","feedback","","html-keyboard-response","324","399766","0.0-1.0-456.0-0.0","0","0","68867","","null","","","null","50","","","","","","","","","","","","","","","",""
"","ITI","","html-keyboard-response","325","400767","0.0-1.0-459.0","0","0","68867","","null","","","null","50","","","","","","","","","","","","","","","NaN",""
"","S1","","html-keyboard-response","326","401019","0.0-1.0-461.0","0","0","68867","","null","","","null","51","","","","","","","","","","","","","","","",""
"","ISI","","html-keyboard-response","327","402020","0.0-1.0-462.0","0","0","68867","","null","","","null","51","NaN","","","","","","","","","","","","","","",""
"","S2","","html-keyboard-response","328","402272","0.0-1.0-463.0","0","0","68867","","null","","","null","51","","NaN","","","","","","","","","","","","","",""
"","response","","html-keyboard-response","329","402349","0.0-1.0-464.0-0.0","0","0","68867","","76","","","68","51","","","2","51","training","adjacent","AB","1","2","O.jpg","N.jpg","0","1","0","",""
"","feedback","","html-keyboard-response","330","403350","0.0-1.0-465.0-0.0","0","0","68867","","null","","","null","51","","","","","","","","","","","","","","","",""
"","time_out","","html-keyboard-response","331","405351","0.0-1.0-467.0-0.0","0","0","68867","","null","","","null","51","","","","","","","","","","","","","","","",""
"","ITI","","html-keyboard-response","332","406353","0.0-1.0-468.0","0","0","68867","","null","","","null","51","","","","","","","","","","","","","","","NaN",""
"","S1","","html-keyboard-response","333","406604","0.0-1.0-470.0","0","0","68867","","null","","","null","52","","","","","","","","","","","","","","","",""
"","ISI","","html-keyboard-response","334","407606","0.0-1.0-471.0","0","0","68867","","146","","","75","52","k","","","","","","","","","","","","","","",""
"","S2","","html-keyboard-response","335","407799","0.0-1.0-472.0","0","0","68867","","192","","","75","52","","k","2","52","training","adjacent","GF","7","6","M.jpg","L.jpg","1","0","0","",""
"","feedback","","html-keyboard-response","336","408800","0.0-1.0-474.0-0.0","0","0","68867","","null","","","null","52","","","","","","","","","","","","","","","",""
"","time_out","","html-keyboard-response","337","410801","0.0-1.0-476.0-0.0","0","0","68867","","null","","","null","52","","","","","","","","","","","","","","","",""
"","ITI","","html-keyboard-response","338","411803","0.0-1.0-477.0","0","0","68867","","null","","","null","52","","","","","","","","","","","","","","","NaN",""
"","S1","","html-keyboard-response","339","412054","0.0-1.0-479.0","0","0","68867","","null","","","null","53","","","","","","","","","","","","","","","",""
"","ISI","","html-keyboard-response","340","413056","0.0-1.0-480.0","0","0","68867","","null","","","null","53","NaN","","","","","","","","","","","","","","",""
"","S2","","html-keyboard-response","341","413307","0.0-1.0-481.0","0","0","68867","","null","","","null","53","","NaN","","","","","","","","","","","","","",""
"","response","","html-keyboard-response","342","413378","0.0-1.0-482.0-0.0","0","0","68867","","70","","","75","53","","","2","53","training","adjacent","CB","3","2","Q.jpg","N.jpg","1","0","0","",""
"","feedback","","html-keyboard-response","343","414379","0.0-1.0-483.0-0.0","0","0","68867","","null","","","null","53","","","","","","","","","","","","","","","",""
"","time_out","","html-keyboard-response","344","416380","0.0-1.0-485.0-0.0","0","0","68867","","null","","","null","53","","","","","","","","","","","","","","","",""
"","ITI","","html-keyboard-response","345","417382","0.0-1.0-486.0","0","0","68867","","null","","","null","53","","","","","","","","","","","","","","","NaN",""
"","S1","","html-keyboard-response","346","417635","0.0-1.0-488.0","0","0","68867","","null","","","null","54","","","","","","","","","","","","","","","",""
"","ISI","","html-keyboard-response","347","418636","0.0-1.0-489.0","0","0","68867","","null","","","null","54","NaN","","","","","","","","","","","","","","",""
"","S2","","html-keyboard-response","348","418887","0.0-1.0-490.0","0","0","68867","","null","","","null","54","","NaN","","","","","","","","","","","","","",""
"","response","","html-keyboard-response","349","419534","0.0-1.0-491.0-0.0","0","0","68867","","645","","","68","54","","","2","54","training","adjacent","CD","3","4","Q.jpg","P.jpg","0","1","0","",""
"","feedback","","html-keyboard-response","350","420536","0.0-1.0-492.0-0.0","0","0","68867","","null","","","null","54","","","","","","","","","","","","","","","",""
"","time_out","","html-keyboard-response","351","422538","0.0-1.0-494.0-0.0","0","0","68867","","null","","","null","54","","","","","","","","","","","","","","","",""
"","ITI","","html-keyboard-response","352","423539","0.0-1.0-495.0","0","0","68867","","null","","","null","54","","","","","","","","","","","","","","","NaN",""
"","S1","","html-keyboard-response","353","423790","0.0-1.0-497.0","0","0","68867","","null","","","null","55","","","","","","","","","","","","","","","",""
"","ISI","","html-keyboard-response","354","424792","0.0-1.0-498.0","0","0","68867","","null","","","null","55","NaN","","","","","","","","","","","","","","",""
"","S2","","html-keyboard-response","355","425044","0.0-1.0-499.0","0","0","68867","","null","","","null","55","","NaN","","","","","","","","","","","","","",""
"","response","","html-keyboard-response","356","425429","0.0-1.0-500.0-0.0","0","0","68867","","383","","","75","55","","","2","55","training","adjacent","FE","6","5","L.jpg","R.jpg","1","0","0","",""
"","feedback","","html-keyboard-response","357","426430","0.0-1.0-501.0-0.0","0","0","68867","","null","","","null","55","","","","","","","","","","","","","","","",""
"","time_out","","html-keyboard-response","358","428431","0.0-1.0-503.0-0.0","0","0","68867","","null","","","null","55","","","","","","","","","","","","","","","",""
"","ITI","","html-keyboard-response","359","429433","0.0-1.0-504.0","0","0","68867","","null","","","null","55","","","","","","","","","","","","","","","NaN",""
"","S1","","html-keyboard-response","360","429685","0.0-1.0-506.0","0","0","68867","","null","","","null","56","","","","","","","","","","","","","","","",""
"","ISI","","html-keyboard-response","361","430686","0.0-1.0-507.0","0","0","68867","","null","","","null","56","NaN","","","","","","","","","","","","","","",""
"","S2","","html-keyboard-response","362","430906","0.0-1.0-508.0","0","0","68867","","218","","","68","56","","d","2","56","training","adjacent","GF","7","6","M.jpg","L.jpg","0","0","1","",""
"","feedback","","html-keyboard-response","363","431908","0.0-1.0-510.0-0.0","0","0","68867","","null","","","null","56","","","","","","","","","","","","","","","",""
"","ITI","","html-keyboard-response","364","432909","0.0-1.0-513.0","0","0","68867","","null","","","null","56","","","","","","","","","","","","","","","NaN",""
"","S1","","html-keyboard-response","365","433161","0.0-1.0-515.0","0","0","68867","","null","","","null","57","","","","","","","","","","","","","","","",""
"","ISI","","html-keyboard-response","366","434162","0.0-1.0-516.0","0","0","68867","","null","","","null","57","NaN","","","","","","","","","","","","","","",""
"","S2","","html-keyboard-response","367","434415","0.0-1.0-517.0","0","0","68867","","null","","","null","57","","NaN","","","","","","","","","","","","","",""
"","response","","html-keyboard-response","368","434590","0.0-1.0-518.0-0.0","0","0","68867","","174","","","75","57","","","2","57","training","adjacent","CD","3","4","Q.jpg","P.jpg","1","1","1","",""
"","feedback","","html-keyboard-response","369","435591","0.0-1.0-519.0-0.0","0","0","68867","","null","","","null","57","","","","","","","","","","","","","","","",""
"","ITI","","html-keyboard-response","370","436592","0.0-1.0-522.0","0","0","68867","","null","","","null","57","","","","","","","","","","","","","","","NaN",""
"","S1","","html-keyboard-response","371","436843","0.0-1.0-524.0","0","0","68867","","null","","","null","58","","","","","","","","","","","","","","","",""
"","ISI","","html-keyboard-response","372","437845","0.0-1.0-525.0","0","0","68867","","152","","","68","58","d","","","","","","","","","","","","","","",""
"","S2","","html-keyboard-response","373","437943","0.0-1.0-526.0","0","0","68867","","98","","","68","58","","d","2","58","training","adjacent","GF","7","6","M.jpg","L.jpg","0","0","1","",""
"","feedback","","html-keyboard-response","374","438945","0.0-1.0-528.0-0.0","0","0","68867","","null","","","null","58","","","","","","","","","","","","","","","",""
"","ITI","","html-keyboard-response","375","439947","0.0-1.0-531.0","0","0","68867","","null","","","null","58","","","","","","","","","","","","","","","NaN",""
"","S1","","html-keyboard-response","376","440210","0.0-1.0-533.0","0","0","68867","","null","","","null","59","","","","","","","","","","","","","","","",""
"","ISI","","html-keyboard-response","377","441211","0.0-1.0-534.0","0","0","68867","","null","","","null","59","NaN","","","","","","","","","","","","","","",""
"","S2","","html-keyboard-response","378","441463","0.0-1.0-535.0","0","0","68867","","null","","","null","59","","NaN","","","","","","","","","","","","","",""
"","response","","html-keyboard-response","379","441541","0.0-1.0-536.0-0.0","0","0","68867","","77","","","75","59","","","2","59","training","adjacent","BC","2","3","N.jpg","Q.jpg","1","1","1","",""
"","feedback","","html-keyboard-response","380","442542","0.0-1.0-537.0-0.0","0","0","68867","","null","","","null","59","","","","","","","","","","","","","","","",""
"","ITI","","html-keyboard-response","381","443544","0.0-1.0-540.0","0","0","68867","","null","","","null","59","","","","","","","","","","","","","","","NaN",""
"","S1","","html-keyboard-response","382","443796","0.0-1.0-542.0","0","0","68867","","null","","","null","60","","","","","","","","","","","","","","","",""
"","ISI","","html-keyboard-response","383","444797","0.0-1.0-543.0","0","0","68867","","932","","","75","60","k","","","","","","","","","","","","","","",""
"","S2","","html-keyboard-response","384","445048","0.0-1.0-544.0","0","0","68867","","null","","","null","60","","NaN","","","","","","","","","","","","","",""
"","response","","html-keyboard-response","385","446799","0.0-1.0-545.0-0.0","0","0","68867","","null","","","null","60","","","2","60","training","adjacent","CB","3","2","Q.jpg","N.jpg","NaN","0","0","",""
"","too_slow_prompt","","html-keyboard-response","386","447800","0.0-1.0-547.0-0.0","1","0","68867","","null","","","null","","","","","","","","","","","","","","","","",""
"","time_out","","html-keyboard-response","387","449802","0.0-1.0-548.0-0.0","0","0","68867","","null","","","null","60","","","","","","","","","","","","","","","",""
"","ITI","","html-keyboard-response","388","450803","0.0-1.0-549.0","0","0","68867","","null","","","null","60","","","","","","","","","","","","","","","NaN",""
"","S1","","html-keyboard-response","389","451055","0.0-1.0-551.0","0","0","68867","","null","","","null","61","","","","","","","","","","","","","","","",""
"","ISI","","html-keyboard-response","390","452056","0.0-1.0-552.0","0","0","68867","","85","","","75","61","k","","","","","","","","","","","","","","",""
"","S2","","html-keyboard-response","391","452086","0.0-1.0-553.0","0","0","68867","","28","","","75","61","","k","2","61","training","adjacent","EF","5","6","R.jpg","L.jpg","1","1","1","",""
"","feedback","","html-keyboard-response","392","453087","0.0-1.0-555.0-0.0","0","0","68867","","null","","","null","61","","","","","","","","","","","","","","","",""
"","ITI","","html-keyboard-response","393","454088","0.0-1.0-558.0","0","0","68867","","null","","","null","61","","","","","","","","","","","","","","","NaN",""
"","S1","","html-keyboard-response","394","454340","0.0-1.0-560.0","0","0","68867","","null","","","null","62","","","","","","","","","","","","","","","",""
"","ISI","","html-keyboard-response","395","455341","0.0-1.0-561.0","0","0","68867","","null","","","null","62","NaN","","","","","","","","","","","","","","",""
"","S2","","html-keyboard-response","396","455593","0.0-1.0-562.0","0","0","68867","","null","","","null","62","","NaN","","","","","","","","","","","","","",""
"","response","","html-keyboard-response","397","455908","0.0-1.0-563.0-0.0","0","0","68867","","314","","","75","62","","","2","62","training","adjacent","BC","2","3","N.jpg","Q.jpg","1","1","1","",""
"","feedback","","html-keyboard-response","398","456909","0.0-1.0-564.0-0.0","0","0","68867","","null","","","null","62","","","","","","","","","","","","","","","",""
"","ITI","","html-keyboard-response","399","457911","0.0-1.0-567.0","0","0","68867","","null","","","null","62","","","","","","","","","","","","","","","NaN",""
"","S1","","html-keyboard-response","400","458162","0.0-1.0-569.0","0","0","68867","","null","","","null","63","","","","","","","","","","","","","","","",""
"","ISI","","html-keyboard-response","401","459164","0.0-1.0-570.0","0","0","68867","","null","","","null","63","NaN","","","","","","","","","","","","","","",""
"","S2","","html-keyboard-response","402","459415","0.0-1.0-571.0","0","0","68867","","null","","","null","63","","NaN","","","","","","","","","","","","","",""
"","response","","html-keyboard-response","403","459416","0.0-1.0-572.0-0.0","0","0","68867","","0","","","68","63","","","2","63","training","adjacent","ED","5","4","R.jpg","P.jpg","0","0","1","",""
"","feedback","","html-keyboard-response","404","460417","0.0-1.0-573.0-0.0","0","0","68867","","null","","","null","63","","","","","","","","","","","","","","","",""
"","ITI","","html-keyboard-response","405","461419","0.0-1.0-576.0","0","0","68867","","null","","","null","63","","","","","","","","","","","","","","","NaN",""
"","S1","","html-keyboard-response","406","461671","0.0-1.0-578.0","0","0","68867","","null","","","null","64","","","","","","","","","","","","","","","",""
"","ISI","","html-keyboard-response","407","462673","0.0-1.0-579.0","0","0","68867","","297","","","68","64","d","","","","","","","","","","","","","","",""
"","S2","","html-keyboard-response","408","462924","0.0-1.0-580.0","0","0","68867","","null","","","null","64","","NaN","","","","","","","","","","","","","",""
"","response","","html-keyboard-response","409","463000","0.0-1.0-581.0-0.0","0","0","68867","","74","","","68","64","","","2","64","training","adjacent","DC","4","3","P.jpg","Q.jpg","0","0","1","",""
"","feedback","","html-keyboard-response","410","464002","0.0-1.0-582.0-0.0","0","0","68867","","null","","","null","64","","","","","","","","","","","","","","","",""
"","ITI","","html-keyboard-response","411","465004","0.0-1.0-585.0","0","0","68867","","null","","","null","64","","","","","","","","","","","","","","","NaN",""
"","S1","","html-keyboard-response","412","465256","0.0-1.0-587.0","0","0","68867","","null","","","null","65","","","","","","","","","","","","","","","",""
"","ISI","","html-keyboard-response","413","466257","0.0-1.0-588.0","0","0","68867","","756","","","68","65","d","","","","","","","","","","","","","","",""
"","S2","","html-keyboard-response","414","466433","0.0-1.0-589.0","0","0","68867","","174","","","68","65","","d","2","65","training","adjacent","DE","4","5","P.jpg","R.jpg","0","1","0","",""
"","feedback","","html-keyboard-response","415","467434","0.0-1.0-591.0-0.0","0","0","68867","","null","","","null","65","","","","","","","","","","","","","","","",""
"","time_out","","html-keyboard-response","416","469435","0.0-1.0-593.0-0.0","0","0","68867","","null","","","null","65","","","","","","","","","","","","","","","",""
"","ITI","","html-keyboard-response","417","470436","0.0-1.0-594.0","0","0","68867","","16","","","75","65","","","","","","","","","","","","","","","k",""
"","S1","","html-keyboard-response","418","470687","0.0-1.0-596.0","0","0","68867","","null","","","null","66","","","","","","","","","","","","","","","",""
"","ISI","","html-keyboard-response","419","471688","0.0-1.0-597.0","0","0","68867","","208","","","75","66","k","","","","","","","","","","","","","","",""
"","S2","","html-keyboard-response","420","471928","0.0-1.0-598.0","0","0","68867","","238","","","75","66","","k","2","66","training","adjacent","DC","4","3","P.jpg","Q.jpg","1","0","0","",""
"","feedback","","html-keyboard-response","421","472929","0.0-1.0-600.0-0.0","0","0","68867","","null","","","null","66","","","","","","","","","","","","","","","",""
"","time_out","","html-keyboard-response","422","474931","0.0-1.0-602.0-0.0","0","0","68867","","null","","","null","66","","","","","","","","","","","","","","","",""
"","ITI","","html-keyboard-response","423","475932","0.0-1.0-603.0","0","0","68867","","null","","","null","66","","","","","","","","","","","","","","","NaN",""
"","S1","","html-keyboard-response","424","476183","0.0-1.0-605.0","0","0","68867","","null","","","null","67","","","","","","","","","","","","","","","",""
"","ISI","","html-keyboard-response","425","477185","0.0-1.0-606.0","0","0","68867","","201","","","75","67","k","","","","","","","","","","","","","","",""
"","S2","","html-keyboard-response","426","477225","0.0-1.0-607.0","0","0","68867","","39","","","75","67","","k","2","67","training","adjacent","BA","2","1","N.jpg","O.jpg","1","0","0","",""
"","feedback","","html-keyboard-response","427","478226","0.0-1.0-609.0-0.0","0","0","68867","","null","","","null","67","","","","","","","","","","","","","","","",""
"","time_out","","html-keyboard-response","428","480228","0.0-1.0-611.0-0.0","0","0","68867","","null","","","null","67","","","","","","","","","","","","","","","",""
"","ITI","","html-keyboard-response","429","481229","0.0-1.0-612.0","0","0","68867","","801","","","75","67","","","","","","","","","","","","","","","k",""
"","S1","","html-keyboard-response","430","481481","0.0-1.0-614.0","0","0","68867","","null","","","null","68","","","","","","","","","","","","","","","",""
"","ISI","","html-keyboard-response","431","482483","0.0-1.0-615.0","0","0","68867","","95","","","75","68","k","","","","","","","","","","","","","","",""
"","S2","","html-keyboard-response","432","482598","0.0-1.0-616.0","0","0","68867","","114","","","75","68","","k","2","68","training","adjacent","EF","5","6","R.jpg","L.jpg","1","1","1","",""
"","feedback","","html-keyboard-response","433","483599","0.0-1.0-618.0-0.0","0","0","68867","","null","","","null","68","","","","","","","","","","","","","","","",""
"","ITI","","html-keyboard-response","434","484601","0.0-1.0-621.0","0","0","68867","","null","","","null","68","","","","","","","","","","","","","","","NaN",""
"","S1","","html-keyboard-response","435","484853","0.0-1.0-623.0","0","0","68867","","null","","","null","69","","","","","","","","","","","","","","","",""
"","ISI","","html-keyboard-response","436","485855","0.0-1.0-624.0","0","0","68867","","123","","","68","69","d","","","","","","","","","","","","","","",""
"","S2","","html-keyboard-response","437","485967","0.0-1.0-625.0","0","0","68867","","112","","","68","69","","d","2","69","training","adjacent","FG","6","7","L.jpg","M.jpg","0","1","0","",""
"","feedback","","html-keyboard-response","438","486969","0.0-1.0-627.0-0.0","0","0","68867","","null","","","null","69","","","","","","","","","","","","","","","",""
"","time_out","","html-keyboard-response","439","488970","0.0-1.0-629.0-0.0","0","0","68867","","null","","","null","69","","","","","","","","","","","","","","","",""
"","ITI","","html-keyboard-response","440","489972","0.0-1.0-630.0","0","0","68867","","null","","","null","69","","","","","","","","","","","","","","","NaN",""
"","S1","","html-keyboard-response","441","490223","0.0-1.0-632.0","0","0","68867","","null","","","null","70","","","","","","","","","","","","","","","",""
"","ISI","","html-keyboard-response","442","491224","0.0-1.0-633.0","0","0","68867","","267","","","75","70","k","","","","","","","","","","","","","","",""
"","S2","","html-keyboard-response","443","491447","0.0-1.0-634.0","0","0","68867","","221","","","75","70","","k","2","70","training","adjacent","FG","6","7","L.jpg","M.jpg","1","1","1","",""
"","feedback","","html-keyboard-response","444","492448","0.0-1.0-636.0-0.0","0","0","68867","","null","","","null","70","","","","","","","","","","","","","","","",""
"","ITI","","html-keyboard-response","445","493450","0.0-1.0-639.0","0","0","68867","","null","","","null","70","","","","","","","","","","","","","","","NaN",""
"","S1","","html-keyboard-response","446","493702","0.0-1.0-641.0","0","0","68867","","null","","","null","71","","","","","","","","","","","","","","","",""
"","ISI","","html-keyboard-response","447","494703","0.0-1.0-642.0","0","0","68867","","null","","","null","71","NaN","","","","","","","","","","","","","","",""
"","S2","","html-keyboard-response","448","494954","0.0-1.0-643.0","0","0","68867","","null","","","null","71","","NaN","","","","","","","","","","","","","",""
"","response","","html-keyboard-response","449","496267","0.0-1.0-644.0-0.0","0","0","68867","","1312","","","75","71","","","2","71","training","adjacent","BC","2","3","N.jpg","Q.jpg","1","1","1","",""
"","feedback","","html-keyboard-response","450","497268","0.0-1.0-645.0-0.0","0","0","68867","","null","","","null","71","","","","","","","","","","","","","","","",""
"","ITI","","html-keyboard-response","451","498270","0.0-1.0-648.0","0","0","68867","","null","","","null","71","","","","","","","","","","","","","","","NaN",""
"","S1","","html-keyboard-response","452","498522","0.0-1.0-650.0","0","0","68867","","null","","","null","72","","","","","","","","","","","","","","","",""
"","ISI","","html-keyboard-response","453","499524","0.0-1.0-651.0","0","0","68867","","null","","","null","72","NaN","","","","","","","","","","","","","","",""
"","S2","","html-keyboard-response","454","499776","0.0-1.0-652.0","0","0","68867","","null","","","null","72","","NaN","","","","","","","","","","","","","",""
"","response","","html-keyboard-response","455","500501","0.0-1.0-653.0-0.0","0","0","68867","","724","","","68","72","","","2","72","training","adjacent","FE","6","5","L.jpg","R.jpg","0","0","1","",""
"","feedback","","html-keyboard-response","456","501502","0.0-1.0-654.0-0.0","0","0","68867","","null","","","null","72","","","","","","","","","","","","","","","",""
"","ITI","","html-keyboard-response","457","502504","0.0-1.0-657.0","0","0","68867","","null","","","null","72","","","","","","","","","","","","","","","NaN",""
"","S1","","html-keyboard-response","458","502755","0.0-1.0-659.0","0","0","68867","","null","","","null","73","","","","","","","","","","","","","","","",""
"","ISI","","html-keyboard-response","459","503757","0.0-1.0-660.0","0","0","68867","","null","","","null","73","NaN","","","","","","","","","","","","","","",""
"","S2","","html-keyboard-response","460","504009","0.0-1.0-661.0","0","0","68867","","null","","","null","73","","NaN","","","","","","","","","","","","","",""
"","response","","html-keyboard-response","461","504364","0.0-1.0-662.0-0.0","0","0","68867","","354","","","75","73","","","2","73","training","adjacent","FG","6","7","L.jpg","M.jpg","1","1","1","",""
"","feedback","","html-keyboard-response","462","505366","0.0-1.0-663.0-0.0","0","0","68867","","null","","","null","73","","","","","","","","","","","","","","","",""
"","ITI","","html-keyboard-response","463","506368","0.0-1.0-666.0","0","0","68867","","null","","","null","73","","","","","","","","","","","","","","","NaN",""
"","S1","","html-keyboard-response","464","506619","0.0-1.0-668.0","0","0","68867","","null","","","null","74","","","","","","","","","","","","","","","",""
"","ISI","","html-keyboard-response","465","507620","0.0-1.0-669.0","0","0","68867","","null","","","null","74","NaN","","","","","","","","","","","","","","",""
"","S2","","html-keyboard-response","466","507872","0.0-1.0-670.0","0","0","68867","","null","","","null","74","","NaN","","","","","","","","","","","","","",""
"","response","","html-keyboard-response","467","508238","0.0-1.0-671.0-0.0","0","0","68867","","365","","","75","74","","","2","74","training","adjacent","AB","1","2","O.jpg","N.jpg","1","1","1","",""
"","feedback","","html-keyboard-response","468","509240","0.0-1.0-672.0-0.0","0","0","68867","","null","","","null","74","","","","","","","","","","","","","","","",""
"","ITI","","html-keyboard-response","469","510241","0.0-1.0-675.0","0","0","68867","","null","","","null","74","","","","","","","","","","","","","","","NaN",""
"","S1","","html-keyboard-response","470","510493","0.0-1.0-677.0","0","0","68867","","null","","","null","75","","","","","","","","","","","","","","","",""
"","ISI","","html-keyboard-response","471","511493","0.0-1.0-678.0","0","0","68867","","null","","","null","75","NaN","","","","","","","","","","","","","","",""
"","S2","","html-keyboard-response","472","511746","0.0-1.0-679.0","0","0","68867","","null","","","null","75","","NaN","","","","","","","","","","","","","",""
"","response","","html-keyboard-response","473","512124","0.0-1.0-680.0-0.0","0","0","68867","","377","","","75","75","","","2","75","training","adjacent","FE","6","5","L.jpg","R.jpg","1","0","0","",""
"","feedback","","html-keyboard-response","474","513126","0.0-1.0-681.0-0.0","0","0","68867","","null","","","null","75","","","","","","","","","","","","","","","",""
"","time_out","","html-keyboard-response","475","515127","0.0-1.0-683.0-0.0","0","0","68867","","null","","","null","75","","","","","","","","","","","","","","","",""
"","ITI","","html-keyboard-response","476","516129","0.0-1.0-684.0","0","0","68867","","null","","","null","75","","","","","","","","","","","","","","","NaN",""
"","S1","","html-keyboard-response","477","516381","0.0-1.0-686.0","0","0","68867","","null","","","null","76","","","","","","","","","","","","","","","",""
"","ISI","","html-keyboard-response","478","517382","0.0-1.0-687.0","0","0","68867","","null","","","null","76","NaN","","","","","","","","","","","","","","",""
"","S2","","html-keyboard-response","479","517611","0.0-1.0-688.0","0","0","68867","","228","","","68","76","","d","2","76","training","adjacent","BA","2","1","N.jpg","O.jpg","0","0","1","",""
"","feedback","","html-keyboard-response","480","518612","0.0-1.0-690.0-0.0","0","0","68867","","null","","","null","76","","","","","","","","","","","","","","","",""
"","ITI","","html-keyboard-response","481","519614","0.0-1.0-693.0","0","0","68867","","null","","","null","76","","","","","","","","","","","","","","","NaN",""
"","S1","","html-keyboard-response","482","519866","0.0-1.0-695.0","0","0","68867","","null","","","null","77","","","","","","","","","","","","","","","",""
"","ISI","","html-keyboard-response","483","520867","0.0-1.0-696.0","0","0","68867","","null","","","null","77","NaN","","","","","","","","","","","","","","",""
"","S2","","html-keyboard-response","484","521119","0.0-1.0-697.0","0","0","68867","","null","","","null","77","","NaN","","","","","","","","","","","","","",""
"","response","","html-keyboard-response","485","522859","0.0-1.0-698.0-0.0","0","0","68867","","1739","","","75","77","","","2","77","training","adjacent","DE","4","5","P.jpg","R.jpg","1","1","1","",""
"","feedback","","html-keyboard-response","486","523860","0.0-1.0-699.0-0.0","0","0","68867","","null","","","null","77","","","","","","","","","","","","","","","",""
"","ITI","","html-keyboard-response","487","524862","0.0-1.0-702.0","0","0","68867","","null","","","null","77","","","","","","","","","","","","","","","NaN",""
"","S1","","html-keyboard-response","488","525113","0.0-1.0-704.0","0","0","68867","","null","","","null","78","","","","","","","","","","","","","","","",""
"","ISI","","html-keyboard-response","489","526115","0.0-1.0-705.0","0","0","68867","","null","","","null","78","NaN","","","","","","","","","","","","","","",""
"","S2","","html-keyboard-response","490","526367","0.0-1.0-706.0","0","0","68867","","null","","","null","78","","NaN","","","","","","","","","","","","","",""
"","response","","html-keyboard-response","491","526889","0.0-1.0-707.0-0.0","0","0","68867","","521","","","75","78","","","2","78","training","adjacent","EF","5","6","R.jpg","L.jpg","1","1","1","",""
"","feedback","","html-keyboard-response","492","527891","0.0-1.0-708.0-0.0","0","0","68867","","null","","","null","78","","","","","","","","","","","","","","","",""
"","ITI","","html-keyboard-response","493","528892","0.0-1.0-711.0","0","0","68867","","750","","","75","78","","","","","","","","","","","","","","","k",""
"","S1","","html-keyboard-response","494","529143","0.0-1.0-713.0","0","0","68867","","null","","","null","79","","","","","","","","","","","","","","","",""
"","ISI","","html-keyboard-response","495","530145","0.0-1.0-714.0","0","0","68867","","143","","","75","79","k","","","","","","","","","","","","","","",""
"","S2","","html-keyboard-response","496","530157","0.0-1.0-715.0","0","0","68867","","12","","","75","79","","k","2","79","training","adjacent","EF","5","6","R.jpg","L.jpg","1","1","1","",""
"","feedback","","html-keyboard-response","497","531159","0.0-1.0-717.0-0.0","0","0","68867","","null","","","null","79","","","","","","","","","","","","","","","",""
"","ITI","","html-keyboard-response","498","532161","0.0-1.0-720.0","0","0","68867","","null","","","null","79","","","","","","","","","","","","","","","NaN",""
"","S1","","html-keyboard-response","499","532412","0.0-1.0-722.0","0","0","68867","","null","","","null","80","","","","","","","","","","","","","","","",""
"","ISI","","html-keyboard-response","500","533413","0.0-1.0-723.0","0","0","68867","","672","","","68","80","d","","","","","","","","","","","","","","",""
"","S2","","html-keyboard-response","501","533596","0.0-1.0-724.0","0","0","68867","","181","","","68","80","","d","2","80","training","adjacent","AB","1","2","O.jpg","N.jpg","0","1","0","",""
"","feedback","","html-keyboard-response","502","534597","0.0-1.0-726.0-0.0","0","0","68867","","null","","","null","80","","","","","","","","","","","","","","","",""
"","time_out","","html-keyboard-response","503","536599","0.0-1.0-728.0-0.0","0","0","68867","","null","","","null","80","","","","","","","","","","","","","","","",""
"","ITI","","html-keyboard-response","504","537600","0.0-1.0-729.0","0","0","68867","","null","","","null","80","","","","","","","","","","","","","","","NaN",""
"","S1","","html-keyboard-response","505","537852","0.0-1.0-731.0","0","0","68867","","null","","","null","81","","","","","","","","","","","","","","","",""
"","ISI","","html-keyboard-response","506","538853","0.0-1.0-732.0","0","0","68867","","8","","","75","81","k","","","","","","","","","","","","","","",""
"","S2","","html-keyboard-response","507","539085","0.0-1.0-733.0","0","0","68867","","230","","","75","81","","k","2","81","training","adjacent","BC","2","3","N.jpg","Q.jpg","1","1","1","",""
"","feedback","","html-keyboard-response","508","540087","0.0-1.0-735.0-0.0","0","0","68867","","null","","","null","81","","","","","","","","","","","","","","","",""
"","ITI","","html-keyboard-response","509","541089","0.0-1.0-738.0","0","0","68867","","null","","","null","81","","","","","","","","","","","","","","","NaN",""
"","S1","","html-keyboard-response","510","541341","0.0-1.0-740.0","0","0","68867","","null","","","null","82","","","","","","","","","","","","","","","",""
"","ISI","","html-keyboard-response","511","542343","0.0-1.0-741.0","0","0","68867","","null","","","null","82","NaN","","","","","","","","","","","","","","",""
"","S2","","html-keyboard-response","512","542595","0.0-1.0-742.0","0","0","68867","","null","","","null","82","","NaN","","","","","","","","","","","","","",""
"","response","","html-keyboard-response","513","543117","0.0-1.0-743.0-0.0","0","0","68867","","521","","","75","82","","","2","82","training","adjacent","DC","4","3","P.jpg","Q.jpg","1","0","0","",""
"","feedback","","html-keyboard-response","514","544118","0.0-1.0-744.0-0.0","0","0","68867","","null","","","null","82","","","","","","","","","","","","","","","",""
"","time_out","","html-keyboard-response","515","546119","0.0-1.0-746.0-0.0","0","0","68867","","null","","","null","82","","","","","","","","","","","","","","","",""
"","ITI","","html-keyboard-response","516","547120","0.0-1.0-747.0","0","0","68867","","null","","","null","82","","","","","","","","","","","","","","","NaN",""
"","S1","","html-keyboard-response","517","547372","0.0-1.0-749.0","0","0","68867","","null","","","null","83","","","","","","","","","","","","","","","",""
"","ISI","","html-keyboard-response","518","548373","0.0-1.0-750.0","0","0","68867","","null","","","null","83","NaN","","","","","","","","","","","","","","",""
"","S2","","html-keyboard-response","519","548625","0.0-1.0-751.0","0","0","68867","","null","","","null","83","","NaN","","","","","","","","","","","","","",""
"","response","","html-keyboard-response","520","548764","0.0-1.0-752.0-0.0","0","0","68867","","138","","","68","83","","","2","83","training","adjacent","DC","4","3","P.jpg","Q.jpg","0","0","1","",""
"","feedback","","html-keyboard-response","521","549765","0.0-1.0-753.0-0.0","0","0","68867","","null","","","null","83","","","","","","","","","","","","","","","",""
"","ITI","","html-keyboard-response","522","550766","0.0-1.0-756.0","0","0","68867","","null","","","null","83","","","","","","","","","","","","","","","NaN",""
"","S1","","html-keyboard-response","523","551018","0.0-1.0-758.0","0","0","68867","","null","","","null","84","","","","","","","","","","","","","","","",""
"","ISI","","html-keyboard-response","524","552019","0.0-1.0-759.0","0","0","68867","","null","","","null","84","NaN","","","","","","","","","","","","","","",""
"","S2","","html-keyboard-response","525","552271","0.0-1.0-760.0","0","0","68867","","null","","","null","84","","NaN","","","","","","","","","","","","","",""
"","response","","html-keyboard-response","526","552640","0.0-1.0-761.0-0.0","0","0","68867","","368","","","68","84","","","2","84","training","adjacent","FG","6","7","L.jpg","M.jpg","0","1","0","",""
"","feedback","","html-keyboard-response","527","553642","0.0-1.0-762.0-0.0","0","0","68867","","null","","","null","84","","","","","","","","","","","","","","","",""
"","time_out","","html-keyboard-response","528","555643","0.0-1.0-764.0-0.0","0","0","68867","","null","","","null","84","","","","","","","","","","","","","","","",""
"","ITI","","html-keyboard-response","529","556645","0.0-1.0-765.0","0","0","68867","","null","","","null","84","","","","","","","","","","","","","","","NaN",""
"","S1","","html-keyboard-response","530","556896","0.0-1.0-767.0","0","0","68867","","null","","","null","85","","","","","","","","","","","","","","","",""
"","ISI","","html-keyboard-response","531","557897","0.0-1.0-768.0","0","0","68867","","null","","","null","85","NaN","","","","","","","","","","","","","","",""
"","S2","","html-keyboard-response","532","558149","0.0-1.0-769.0","0","0","68867","","null","","","null","85","","NaN","","","","","","","","","","","","","",""
"","response","","html-keyboard-response","533","558468","0.0-1.0-770.0-0.0","0","0","68867","","317","","","75","85","","","2","85","training","adjacent","BA","2","1","N.jpg","O.jpg","1","0","0","",""
"","feedback","","html-keyboard-response","534","559470","0.0-1.0-771.0-0.0","0","0","68867","","null","","","null","85","","","","","","","","","","","","","","","",""
"","time_out","","html-keyboard-response","535","561471","0.0-1.0-773.0-0.0","0","0","68867","","null","","","null","85","","","","","","","","","","","","","","","",""
"","ITI","","html-keyboard-response","536","562473","0.0-1.0-774.0","0","0","68867","","null","","","null","85","","","","","","","","","","","","","","","NaN",""
"","S1","","html-keyboard-response","537","562725","0.0-1.0-776.0","0","0","68867","","null","","","null","86","","","","","","","","","","","","","","","",""
"","ISI","","html-keyboard-response","538","563726","0.0-1.0-777.0","0","0","68867","","null","","","null","86","NaN","","","","","","","","","","","","","","",""
"","S2","","html-keyboard-response","539","563978","0.0-1.0-778.0","0","0","68867","","null","","","null","86","","NaN","","","","","","","","","","","","","",""
"","response","","html-keyboard-response","540","564328","0.0-1.0-779.0-0.0","0","0","68867","","349","","","68","86","","","2","86","training","adjacent","AB","1","2","O.jpg","N.jpg","0","1","0","",""
"","feedback","","html-keyboard-response","541","565330","0.0-1.0-780.0-0.0","0","0","68867","","null","","","null","86","","","","","","","","","","","","","","","",""
"","time_out","","html-keyboard-response","542","567331","0.0-1.0-782.0-0.0","0","0","68867","","null","","","null","86","","","","","","","","","","","","","","","",""
"","ITI","","html-keyboard-response","543","568332","0.0-1.0-783.0","0","0","68867","","null","","","null","86","","","","","","","","","","","","","","","NaN",""
"","S1","","html-keyboard-response","544","568584","0.0-1.0-785.0","0","0","68867","","null","","","null","87","","","","","","","","","","","","","","","",""
"","ISI","","html-keyboard-response","545","569586","0.0-1.0-786.0","0","0","68867","","null","","","null","87","NaN","","","","","","","","","","","","","","",""
"","S2","","html-keyboard-response","546","569837","0.0-1.0-787.0","0","0","68867","","null","","","null","87","","NaN","","","","","","","","","","","","","",""
"","response","","html-keyboard-response","547","570135","0.0-1.0-788.0-0.0","0","0","68867","","297","","","75","87","","","2","87","training","adjacent","CB","3","2","Q.jpg","N.jpg","1","0","0","",""
"","feedback","","html-keyboard-response","548","571137","0.0-1.0-789.0-0.0","0","0","68867","","null","","","null","87","","","","","","","","","","","","","","","",""
"","time_out","","html-keyboard-response","549","573138","0.0-1.0-791.0-0.0","0","0","68867","","null","","","null","87","","","","","","","","","","","","","","","",""
"","ITI","","html-keyboard-response","550","574140","0.0-1.0-792.0","0","0","68867","","null","","","null","87","","","","","","","","","","","","","","","NaN",""
"","S1","","html-keyboard-response","551","574391","0.0-1.0-794.0","0","0","68867","","null","","","null","88","","","","","","","","","","","","","","","",""
"","ISI","","html-keyboard-response","552","575393","0.0-1.0-795.0","0","0","68867","","null","","","null","88","NaN","","","","","","","","","","","","","","",""
"","S2","","html-keyboard-response","553","575645","0.0-1.0-796.0","0","0","68867","","null","","","null","88","","NaN","","","","","","","","","","","","","",""
"","response","","html-keyboard-response","554","576099","0.0-1.0-797.0-0.0","0","0","68867","","454","","","68","88","","","2","88","training","adjacent","DE","4","5","P.jpg","R.jpg","0","1","0","",""
"","feedback","","html-keyboard-response","555","577101","0.0-1.0-798.0-0.0","0","0","68867","","null","","","null","88","","","","","","","","","","","","","","","",""
"","time_out","","html-keyboard-response","556","579103","0.0-1.0-800.0-0.0","0","0","68867","","null","","","null","88","","","","","","","","","","","","","","","",""
"","ITI","","html-keyboard-response","557","580105","0.0-1.0-801.0","0","0","68867","","null","","","null","88","","","","","","","","","","","","","","","NaN",""
"","S1","","html-keyboard-response","558","580357","0.0-1.0-803.0","0","0","68867","","null","","","null","89","","","","","","","","","","","","","","","",""
"","ISI","","html-keyboard-response","559","581358","0.0-1.0-804.0","0","0","68867","","null","","","null","89","NaN","","","","","","","","","","","","","","",""
"","S2","","html-keyboard-response","560","581621","0.0-1.0-805.0","0","0","68867","","null","","","null","89","","NaN","","","","","","","","","","","","","",""
"","response","","html-keyboard-response","561","581967","0.0-1.0-806.0-0.0","0","0","68867","","345","","","75","89","","","2","89","training","adjacent","ED","5","4","R.jpg","P.jpg","1","0","0","",""
"","feedback","","html-keyboard-response","562","582969","0.0-1.0-807.0-0.0","0","0","68867","","null","","","null","89","","","","","","","","","","","","","","","",""
"","time_out","","html-keyboard-response","563","584970","0.0-1.0-809.0-0.0","0","0","68867","","null","","","null","89","","","","","","","","","","","","","","","",""
"","ITI","","html-keyboard-response","564","585972","0.0-1.0-810.0","0","0","68867","","null","","","null","89","","","","","","","","","","","","","","","NaN",""
"","S1","","html-keyboard-response","565","586225","0.0-1.0-812.0","0","0","68867","","null","","","null","90","","","","","","","","","","","","","","","",""
"","ISI","","html-keyboard-response","566","587226","0.0-1.0-813.0","0","0","68867","","null","","","null","90","NaN","","","","","","","","","","","","","","",""
"","S2","","html-keyboard-response","567","587477","0.0-1.0-814.0","0","0","68867","","null","","","null","90","","NaN","","","","","","","","","","","","","",""
"","response","","html-keyboard-response","568","587883","0.0-1.0-815.0-0.0","0","0","68867","","406","","","68","90","","","2","90","training","adjacent","CB","3","2","Q.jpg","N.jpg","0","0","1","",""
"","feedback","","html-keyboard-response","569","588886","0.0-1.0-816.0-0.0","0","0","68867","","null","","","null","90","","","","","","","","","","","","","","","",""
"","ITI","","html-keyboard-response","570","589887","0.0-1.0-819.0","0","0","68867","","null","","","null","90","","","","","","","","","","","","","","","NaN",""
"","S1","","html-keyboard-response","571","590139","0.0-1.0-821.0","0","0","68867","","null","","","null","91","","","","","","","","","","","","","","","",""
"","ISI","","html-keyboard-response","572","591140","0.0-1.0-822.0","0","0","68867","","null","","","null","91","NaN","","","","","","","","","","","","","","",""
"","S2","","html-keyboard-response","573","591392","0.0-1.0-823.0","0","0","68867","","null","","","null","91","","NaN","","","","","","","","","","","","","",""
"","response","","html-keyboard-response","574","591735","0.0-1.0-824.0-0.0","0","0","68867","","343","","","75","91","","","2","91","training","adjacent","ED","5","4","R.jpg","P.jpg","1","0","0","",""
"","feedback","","html-keyboard-response","575","592737","0.0-1.0-825.0-0.0","0","0","68867","","null","","","null","91","","","","","","","","","","","","","","","",""
"","time_out","","html-keyboard-response","576","594739","0.0-1.0-827.0-0.0","0","0","68867","","null","","","null","91","","","","","","","","","","","","","","","",""
"","ITI","","html-keyboard-response","577","595740","0.0-1.0-828.0","0","0","68867","","null","","","null","91","","","","","","","","","","","","","","","NaN",""
"","S1","","html-keyboard-response","578","595992","0.0-1.0-830.0","0","0","68867","","null","","","null","92","","","","","","","","","","","","","","","",""
"","ISI","","html-keyboard-response","579","596993","0.0-1.0-831.0","0","0","68867","","null","","","null","92","NaN","","","","","","","","","","","","","","",""
