"success","ttype","start_time","trial_type","trial_index","time_elapsed","internal_node_id","warning","missed_checkup","PID","view_history","rt","responses","repeat_instructions","key_press","index","keypress_isi","keypress_S2","block","trial_num","phase","group_type","pair_type","S1_stim","S2_stim","S1_img","S2_img","S1_chosen","S1_higher","accuracy","keypress_iti","total_bonus_tally"
"true","full_screen","d03072023hr1750","fullscreen","0","2427","0.0-0.0","0","0","91172","","","","","","","","","","","","","","","","","","","","","",""
"","instructions","","instructions","1","17674","0.0-1.0-0.0-0.0","0","0","91172","[{""page_index"":0,""viewing_time"":2366},{""page_index"":1,""viewing_time"":7239},{""page_index"":2,""viewing_time"":4536},{""page_index"":3,""viewing_time"":1104}]","15245","","","","","","","","","","","","","","","","","","","",""
"","comprehension_check","","survey-multi-choice","2","29986","0.0-1.0-0.0-1.0","0","0","91172","","12309","{""Q0"":""True"",""Q1"":""D"",""Q2"":""Only when the screen 'MAKE A CHOICE' is shown"",""Q3"":""Green mark"",""Q4"":""either D or K""}","1","","","","","","","","","","","","","","","","","",""
"","missed_instruction_checkup","","html-keyboard-response","3","31624","0.0-1.0-0.0-2.0-0.0","0","1","91172","","1637","","","32","","","","","","","","","","","","","","","","",""
"","instructions","","instructions","4","48801","0.0-1.0-0.1-0.1","0","0","91172","[{""page_index"":0,""viewing_time"":7039},{""page_index"":1,""viewing_time"":6904},{""page_index"":2,""viewing_time"":2303},{""page_index"":3,""viewing_time"":929}]","17175","","","","","","","","","","","","","","","","","","","",""
"","comprehension_check","","survey-multi-choice","5","60073","0.0-1.0-0.1-1.1","0","0","91172","","11270","{""Q0"":""True"",""Q1"":""D"",""Q2"":""Once the second image appears and while the screen 'MAKE A CHOICE' is shown"",""Q3"":""Green mark"",""Q4"":""either D or K""}","0","","","","","","","","","","","","","","","","","",""
"","start_exp","","html-keyboard-response","6","63784","0.0-1.0-1.0","0","0","91172","","3708","","","32","","","","","","","","","","","","","","","","",""
"","S1","","html-keyboard-response","7","64039","0.0-1.0-2.0","0","0","91172","","null","","","null","0","","","","","","","","","","","","","","","",""
"","ISI","","html-keyboard-response","8","65042","0.0-1.0-3.0","0","0","91172","","null","","","null","0","NaN","","","","","","","","","","","","","","",""
"","S2","","html-keyboard-response","9","65293","0.0-1.0-4.0","0","0","91172","","null","","","null","0","","NaN","","","","","","","","","","","","","",""
"","response","","html-keyboard-response","10","65682","0.0-1.0-5.0-0.0","0","0","91172","","387","","","75","0","","","1","0","training","adjacent","BC","2","3","N.jpg","L.jpg","0","1","0","",""
"","feedback","","html-keyboard-response","11","66686","0.0-1.0-6.0-0.0","0","0","91172","","null","","","null","0","","","","","","","","","","","","","","","",""
"","time_out","","html-keyboard-response","12","68688","0.0-1.0-8.0-0.0","0","0","91172","","null","","","null","0","","","","","","","","","","","","","","","",""
"","ITI","","html-keyboard-response","13","69692","0.0-1.0-9.0","0","0","91172","","null","","","null","0","","","","","","","","","","","","","","","NaN",""
"","S1","","html-keyboard-response","14","69945","0.0-1.0-11.0","0","0","91172","","null","","","null","1","","","","","","","","","","","","","","","",""
"","ISI","","html-keyboard-response","15","70948","0.0-1.0-12.0","0","0","91172","","null","","","null","1","NaN","","","","","","","","","","","","","","",""
"","S2","","html-keyboard-response","16","71201","0.0-1.0-13.0","0","0","91172","","null","","","null","1","","NaN","","","","","","","","","","","","","",""
"","response","","html-keyboard-response","17","71579","0.0-1.0-14.0-0.0","0","0","91172","","377","","","75","1","","","1","1","training","adjacent","CD","3","4","L.jpg","M.jpg","0","1","0","",""
"","feedback","","html-keyboard-response","18","72581","0.0-1.0-15.0-0.0","0","0","91172","","null","","","null","1","","","","","","","","","","","","","","","",""
"","time_out","","html-keyboard-response","19","74583","0.0-1.0-17.0-0.0","0","0","91172","","null","","","null","1","","","","","","","","","","","","","","","",""
"","ITI","","html-keyboard-response","20","75588","0.0-1.0-18.0","0","0","91172","","null","","","null","1","","","","","","","","","","","","","","","NaN",""
"","S1","","html-keyboard-response","21","75841","0.0-1.0-20.0","0","0","91172","","null","","","null","2","","","","","","","","","","","","","","","",""
"","ISI","","html-keyboard-response","22","76844","0.0-1.0-21.0","0","0","91172","","null","","","null","2","NaN","","","","","","","","","","","","","","",""
"","S2","","html-keyboard-response","23","77098","0.0-1.0-22.0","0","0","91172","","null","","","null","2","","NaN","","","","","","","","","","","","","",""
"","response","","html-keyboard-response","24","77343","0.0-1.0-23.0-0.0","0","0","91172","","243","","","75","2","","","1","2","training","adjacent","BC","2","3","N.jpg","L.jpg","0","1","0","",""
"","feedback","","html-keyboard-response","25","78347","0.0-1.0-24.0-0.0","0","0","91172","","null","","","null","2","","","","","","","","","","","","","","","",""
"","time_out","","html-keyboard-response","26","80352","0.0-1.0-26.0-0.0","0","0","91172","","null","","","null","2","","","","","","","","","","","","","","","",""
"","ITI","","html-keyboard-response","27","81354","0.0-1.0-27.0","0","0","91172","","null","","","null","2","","","","","","","","","","","","","","","NaN",""
"","S1","","html-keyboard-response","28","81606","0.0-1.0-29.0","0","0","91172","","null","","","null","3","","","","","","","","","","","","","","","",""
"","ISI","","html-keyboard-response","29","82608","0.0-1.0-30.0","0","0","91172","","null","","","null","3","NaN","","","","","","","","","","","","","","",""
"","S2","","html-keyboard-response","30","82860","0.0-1.0-31.0","0","0","91172","","null","","","null","3","","NaN","","","","","","","","","","","","","",""
"","response","","html-keyboard-response","31","83122","0.0-1.0-32.0-0.0","0","0","91172","","261","","","68","3","","","1","3","training","adjacent","AB","1","2","R.jpg","N.jpg","1","1","1","",""
"","feedback","","html-keyboard-response","32","84124","0.0-1.0-33.0-0.0","0","0","91172","","null","","","null","3","","","","","","","","","","","","","","","",""
"","ITI","","html-keyboard-response","33","85127","0.0-1.0-36.0","0","0","91172","","null","","","null","3","","","","","","","","","","","","","","","NaN",""
"","S1","","html-keyboard-response","34","85381","0.0-1.0-38.0","0","0","91172","","null","","","null","4","","","","","","","","","","","","","","","",""
"","ISI","","html-keyboard-response","35","86384","0.0-1.0-39.0","0","0","91172","","null","","","null","4","NaN","","","","","","","","","","","","","","",""
"","S2","","html-keyboard-response","36","86637","0.0-1.0-40.0","0","0","91172","","null","","","null","4","","NaN","","","","","","","","","","","","","",""
"","response","","html-keyboard-response","37","87017","0.0-1.0-41.0-0.0","0","0","91172","","379","","","75","4","","","1","4","training","adjacent","FE","6","5","P.jpg","O.jpg","0","0","1","",""
"","feedback","","html-keyboard-response","38","88019","0.0-1.0-42.0-0.0","0","0","91172","","null","","","null","4","","","","","","","","","","","","","","","",""
"","ITI","","html-keyboard-response","39","89023","0.0-1.0-45.0","0","0","91172","","null","","","null","4","","","","","","","","","","","","","","","NaN",""
"","S1","","html-keyboard-response","40","89276","0.0-1.0-47.0","0","0","91172","","null","","","null","5","","","","","","","","","","","","","","","",""
"","ISI","","html-keyboard-response","41","90280","0.0-1.0-48.0","0","0","91172","","null","","","null","5","NaN","","","","","","","","","","","","","","",""
"","S2","","html-keyboard-response","42","90533","0.0-1.0-49.0","0","0","91172","","null","","","null","5","","NaN","","","","","","","","","","","","","",""
"","response","","html-keyboard-response","43","90760","0.0-1.0-50.0-0.0","0","0","91172","","226","","","68","5","","","1","5","training","adjacent","EF","5","6","O.jpg","P.jpg","1","1","1","",""
"","feedback","","html-keyboard-response","44","91765","0.0-1.0-51.0-0.0","0","0","91172","","null","","","null","5","","","","","","","","","","","","","","","",""
"","ITI","","html-keyboard-response","45","92767","0.0-1.0-54.0","0","0","91172","","null","","","null","5","","","","","","","","","","","","","","","NaN",""
"","S1","","html-keyboard-response","46","93019","0.0-1.0-56.0","0","0","91172","","null","","","null","6","","","","","","","","","","","","","","","",""
"","ISI","","html-keyboard-response","47","94021","0.0-1.0-57.0","0","0","91172","","null","","","null","6","NaN","","","","","","","","","","","","","","",""
"","S2","","html-keyboard-response","48","94273","0.0-1.0-58.0","0","0","91172","","null","","","null","6","","NaN","","","","","","","","","","","","","",""
"","response","","html-keyboard-response","49","94879","0.0-1.0-59.0-0.0","0","0","91172","","605","","","68","6","","","1","6","training","adjacent","DC","4","3","M.jpg","L.jpg","1","0","0","",""
"","feedback","","html-keyboard-response","50","95884","0.0-1.0-60.0-0.0","0","0","91172","","null","","","null","6","","","","","","","","","","","","","","","",""
"","time_out","","html-keyboard-response","51","97887","0.0-1.0-62.0-0.0","0","0","91172","","null","","","null","6","","","","","","","","","","","","","","","",""
"","ITI","","html-keyboard-response","52","98889","0.0-1.0-63.0","0","0","91172","","null","","","null","6","","","","","","","","","","","","","","","NaN",""
"","S1","","html-keyboard-response","53","99141","0.0-1.0-65.0","0","0","91172","","null","","","null","7","","","","","","","","","","","","","","","",""
"","ISI","","html-keyboard-response","54","100144","0.0-1.0-66.0","0","0","91172","","null","","","null","7","NaN","","","","","","","","","","","","","","",""
"","S2","","html-keyboard-response","55","100396","0.0-1.0-67.0","0","0","91172","","null","","","null","7","","NaN","","","","","","","","","","","","","",""
"","response","","html-keyboard-response","56","100847","0.0-1.0-68.0-0.0","0","0","91172","","449","","","68","7","","","1","7","training","adjacent","CB","3","2","L.jpg","N.jpg","1","0","0","",""
"","feedback","","html-keyboard-response","57","101850","0.0-1.0-69.0-0.0","0","0","91172","","null","","","null","7","","","","","","","","","","","","","","","",""
"","time_out","","html-keyboard-response","58","103852","0.0-1.0-71.0-0.0","0","0","91172","","null","","","null","7","","","","","","","","","","","","","","","",""
"","ITI","","html-keyboard-response","59","104854","0.0-1.0-72.0","0","0","91172","","null","","","null","7","","","","","","","","","","","","","","","NaN",""
"","S1","","html-keyboard-response","60","105110","0.0-1.0-74.0","0","0","91172","","null","","","null","8","","","","","","","","","","","","","","","",""
"","ISI","","html-keyboard-response","61","106113","0.0-1.0-75.0","0","0","91172","","null","","","null","8","NaN","","","","","","","","","","","","","","",""
"","S2","","html-keyboard-response","62","106366","0.0-1.0-76.0","0","0","91172","","null","","","null","8","","NaN","","","","","","","","","","","","","",""
"","response","","html-keyboard-response","63","106736","0.0-1.0-77.0-0.0","0","0","91172","","369","","","68","8","","","1","8","training","adjacent","FG","6","7","P.jpg","Q.jpg","1","1","1","",""
"","feedback","","html-keyboard-response","64","107740","0.0-1.0-78.0-0.0","0","0","91172","","null","","","null","8","","","","","","","","","","","","","","","",""
"","ITI","","html-keyboard-response","65","108742","0.0-1.0-81.0","0","0","91172","","null","","","null","8","","","","","","","","","","","","","","","NaN",""
"","S1","","html-keyboard-response","66","108994","0.0-1.0-83.0","0","0","91172","","null","","","null","9","","","","","","","","","","","","","","","",""
"","ISI","","html-keyboard-response","67","109999","0.0-1.0-84.0","0","0","91172","","null","","","null","9","NaN","","","","","","","","","","","","","","",""
"","S2","","html-keyboard-response","68","110251","0.0-1.0-85.0","0","0","91172","","null","","","null","9","","NaN","","","","","","","","","","","","","",""
"","response","","html-keyboard-response","69","110591","0.0-1.0-86.0-0.0","0","0","91172","","339","","","75","9","","","1","9","training","adjacent","GF","7","6","Q.jpg","P.jpg","0","0","1","",""
"","feedback","","html-keyboard-response","70","111595","0.0-1.0-87.0-0.0","0","0","91172","","null","","","null","9","","","","","","","","","","","","","","","",""
"","ITI","","html-keyboard-response","71","112601","0.0-1.0-90.0","0","0","91172","","null","","","null","9","","","","","","","","","","","","","","","NaN",""
"","S1","","html-keyboard-response","72","112855","0.0-1.0-92.0","0","0","91172","","null","","","null","10","","","","","","","","","","","","","","","",""
"","ISI","","html-keyboard-response","73","113858","0.0-1.0-93.0","0","0","91172","","null","","","null","10","NaN","","","","","","","","","","","","","","",""
"","S2","","html-keyboard-response","74","114112","0.0-1.0-94.0","0","0","91172","","null","","","null","10","","NaN","","","","","","","","","","","","","",""
"","response","","html-keyboard-response","75","114440","0.0-1.0-95.0-0.0","0","0","91172","","327","","","75","10","","","1","10","training","adjacent","CB","3","2","L.jpg","N.jpg","0","0","1","",""
"","feedback","","html-keyboard-response","76","115444","0.0-1.0-96.0-0.0","0","0","91172","","null","","","null","10","","","","","","","","","","","","","","","",""
"","ITI","","html-keyboard-response","77","116447","0.0-1.0-99.0","0","0","91172","","null","","","null","10","","","","","","","","","","","","","","","NaN",""
"","S1","","html-keyboard-response","78","116699","0.0-1.0-101.0","0","0","91172","","null","","","null","11","","","","","","","","","","","","","","","",""
"","ISI","","html-keyboard-response","79","117701","0.0-1.0-102.0","0","0","91172","","null","","","null","11","NaN","","","","","","","","","","","","","","",""
"","S2","","html-keyboard-response","80","117955","0.0-1.0-103.0","0","0","91172","","null","","","null","11","","NaN","","","","","","","","","","","","","",""
"","response","","html-keyboard-response","81","118199","0.0-1.0-104.0-0.0","0","0","91172","","242","","","68","11","","","1","11","training","adjacent","ED","5","4","O.jpg","M.jpg","1","0","0","",""
"","feedback","","html-keyboard-response","82","119203","0.0-1.0-105.0-0.0","0","0","91172","","null","","","null","11","","","","","","","","","","","","","","","",""
"","time_out","","html-keyboard-response","83","121207","0.0-1.0-107.0-0.0","0","0","91172","","null","","","null","11","","","","","","","","","","","","","","","",""
"","ITI","","html-keyboard-response","84","122211","0.0-1.0-108.0","0","0","91172","","null","","","null","11","","","","","","","","","","","","","","","NaN",""
"","S1","","html-keyboard-response","85","122463","0.0-1.0-110.0","0","0","91172","","null","","","null","12","","","","","","","","","","","","","","","",""
"","ISI","","html-keyboard-response","86","123467","0.0-1.0-111.0","0","0","91172","","null","","","null","12","NaN","","","","","","","","","","","","","","",""
"","S2","","html-keyboard-response","87","123721","0.0-1.0-112.0","0","0","91172","","null","","","null","12","","NaN","","","","","","","","","","","","","",""
"","response","","html-keyboard-response","88","124119","0.0-1.0-113.0-0.0","0","0","91172","","396","","","75","12","","","1","12","training","adjacent","BA","2","1","N.jpg","R.jpg","0","0","1","",""
"","feedback","","html-keyboard-response","89","125122","0.0-1.0-114.0-0.0","0","0","91172","","null","","","null","12","","","","","","","","","","","","","","","",""
"","ITI","","html-keyboard-response","90","126124","0.0-1.0-117.0","0","0","91172","","null","","","null","12","","","","","","","","","","","","","","","NaN",""
"","S1","","html-keyboard-response","91","126377","0.0-1.0-119.0","0","0","91172","","null","","","null","13","","","","","","","","","","","","","","","",""
"","ISI","","html-keyboard-response","92","127380","0.0-1.0-120.0","0","0","91172","","null","","","null","13","NaN","","","","","","","","","","","","","","",""
"","S2","","html-keyboard-response","93","127633","0.0-1.0-121.0","0","0","91172","","null","","","null","13","","NaN","","","","","","","","","","","","","",""
"","response","","html-keyboard-response","94","127928","0.0-1.0-122.0-0.0","0","0","91172","","292","","","75","13","","","1","13","training","adjacent","DE","4","5","M.jpg","O.jpg","0","1","0","",""
"","feedback","","html-keyboard-response","95","128931","0.0-1.0-123.0-0.0","0","0","91172","","null","","","null","13","","","","","","","","","","","","","","","",""
"","time_out","","html-keyboard-response","96","130935","0.0-1.0-125.0-0.0","0","0","91172","","null","","","null","13","","","","","","","","","","","","","","","",""
"","ITI","","html-keyboard-response","97","131938","0.0-1.0-126.0","0","0","91172","","null","","","null","13","","","","","","","","","","","","","","","NaN",""
"","S1","","html-keyboard-response","98","132191","0.0-1.0-128.0","0","0","91172","","null","","","null","14","","","","","","","","","","","","","","","",""
"","ISI","","html-keyboard-response","99","133196","0.0-1.0-129.0","0","0","91172","","null","","","null","14","NaN","","","","","","","","","","","","","","",""
"","S2","","html-keyboard-response","100","133449","0.0-1.0-130.0","0","0","91172","","null","","","null","14","","NaN","","","","","","","","","","","","","",""
"","response","","html-keyboard-response","101","133881","0.0-1.0-131.0-0.0","0","0","91172","","431","","","68","14","","","1","14","training","adjacent","DC","4","3","M.jpg","L.jpg","1","0","0","",""
"","feedback","","html-keyboard-response","102","134885","0.0-1.0-132.0-0.0","0","0","91172","","null","","","null","14","","","","","","","","","","","","","","","",""
"","time_out","","html-keyboard-response","103","136888","0.0-1.0-134.0-0.0","0","0","91172","","null","","","null","14","","","","","","","","","","","","","","","",""
"","ITI","","html-keyboard-response","104","137891","0.0-1.0-135.0","0","0","91172","","null","","","null","14","","","","","","","","","","","","","","","NaN",""
"","S1","","html-keyboard-response","105","138144","0.0-1.0-137.0","0","0","91172","","null","","","null","15","","","","","","","","","","","","","","","",""
"","ISI","","html-keyboard-response","106","139147","0.0-1.0-138.0","0","0","91172","","null","","","null","15","NaN","","","","","","","","","","","","","","",""
"","S2","","html-keyboard-response","107","139400","0.0-1.0-139.0","0","0","91172","","null","","","null","15","","NaN","","","","","","","","","","","","","",""
"","response","","html-keyboard-response","108","139873","0.0-1.0-140.0-0.0","0","0","91172","","472","","","68","15","","","1","15","training","adjacent","DE","4","5","M.jpg","O.jpg","1","1","1","",""
"","feedback","","html-keyboard-response","109","140875","0.0-1.0-141.0-0.0","0","0","91172","","null","","","null","15","","","","","","","","","","","","","","","",""
"","ITI","","html-keyboard-response","110","141878","0.0-1.0-144.0","0","0","91172","","null","","","null","15","","","","","","","","","","","","","","","NaN",""
"","S1","","html-keyboard-response","111","142132","0.0-1.0-146.0","0","0","91172","","null","","","null","16","","","","","","","","","","","","","","","",""
"","ISI","","html-keyboard-response","112","143146","0.0-1.0-147.0","0","0","91172","","null","","","null","16","NaN","","","","","","","","","","","","","","",""
"","S2","","html-keyboard-response","113","143399","0.0-1.0-148.0","0","0","91172","","null","","","null","16","","NaN","","","","","","","","","","","","","",""
"","response","","html-keyboard-response","114","143784","0.0-1.0-149.0-0.0","0","0","91172","","384","","","75","16","","","1","16","training","adjacent","DC","4","3","M.jpg","L.jpg","0","0","1","",""
"","feedback","","html-keyboard-response","115","144787","0.0-1.0-150.0-0.0","0","0","91172","","null","","","null","16","","","","","","","","","","","","","","","",""
"","ITI","","html-keyboard-response","116","145790","0.0-1.0-153.0","0","0","91172","","null","","","null","16","","","","","","","","","","","","","","","NaN",""
"","S1","","html-keyboard-response","117","146044","0.0-1.0-155.0","0","0","91172","","null","","","null","17","","","","","","","","","","","","","","","",""
"","ISI","","html-keyboard-response","118","147047","0.0-1.0-156.0","0","0","91172","","null","","","null","17","NaN","","","","","","","","","","","","","","",""
"","S2","","html-keyboard-response","119","147299","0.0-1.0-157.0","0","0","91172","","null","","","null","17","","NaN","","","","","","","","","","","","","",""
"","response","","html-keyboard-response","120","147559","0.0-1.0-158.0-0.0","0","0","91172","","258","","","75","17","","","1","17","training","adjacent","BA","2","1","N.jpg","R.jpg","0","0","1","",""
"","feedback","","html-keyboard-response","121","148561","0.0-1.0-159.0-0.0","0","0","91172","","null","","","null","17","","","","","","","","","","","","","","","",""
"","ITI","","html-keyboard-response","122","149563","0.0-1.0-162.0","0","0","91172","","null","","","null","17","","","","","","","","","","","","","","","NaN",""
"","S1","","html-keyboard-response","123","149816","0.0-1.0-164.0","0","0","91172","","null","","","null","18","","","","","","","","","","","","","","","",""
"","ISI","","html-keyboard-response","124","150818","0.0-1.0-165.0","0","0","91172","","null","","","null","18","NaN","","","","","","","","","","","","","","",""
"","S2","","html-keyboard-response","125","151071","0.0-1.0-166.0","0","0","91172","","null","","","null","18","","NaN","","","","","","","","","","","","","",""
"","response","","html-keyboard-response","126","151304","0.0-1.0-167.0-0.0","0","0","91172","","231","","","68","18","","","1","18","training","adjacent","FG","6","7","P.jpg","Q.jpg","1","1","1","",""
"","feedback","","html-keyboard-response","127","152308","0.0-1.0-168.0-0.0","0","0","91172","","null","","","null","18","","","","","","","","","","","","","","","",""
"","ITI","","html-keyboard-response","128","153311","0.0-1.0-171.0","0","0","91172","","null","","","null","18","","","","","","","","","","","","","","","NaN",""
"","S1","","html-keyboard-response","129","153563","0.0-1.0-173.0","0","0","91172","","null","","","null","19","","","","","","","","","","","","","","","",""
"","ISI","","html-keyboard-response","130","154566","0.0-1.0-174.0","0","0","91172","","null","","","null","19","NaN","","","","","","","","","","","","","","",""
"","S2","","html-keyboard-response","131","154818","0.0-1.0-175.0","0","0","91172","","null","","","null","19","","NaN","","","","","","","","","","","","","",""
"","response","","html-keyboard-response","132","155153","0.0-1.0-176.0-0.0","0","0","91172","","334","","","75","19","","","1","19","training","adjacent","EF","5","6","O.jpg","P.jpg","0","1","0","",""
"","feedback","","html-keyboard-response","133","156156","0.0-1.0-177.0-0.0","0","0","91172","","null","","","null","19","","","","","","","","","","","","","","","",""
"","time_out","","html-keyboard-response","134","158157","0.0-1.0-179.0-0.0","0","0","91172","","null","","","null","19","","","","","","","","","","","","","","","",""
"","ITI","","html-keyboard-response","135","159160","0.0-1.0-180.0","0","0","91172","","null","","","null","19","","","","","","","","","","","","","","","NaN",""
"","S1","","html-keyboard-response","136","159412","0.0-1.0-182.0","0","0","91172","","null","","","null","20","","","","","","","","","","","","","","","",""
"","ISI","","html-keyboard-response","137","160414","0.0-1.0-183.0","0","0","91172","","null","","","null","20","NaN","","","","","","","","","","","","","","",""
"","S2","","html-keyboard-response","138","160666","0.0-1.0-184.0","0","0","91172","","null","","","null","20","","NaN","","","","","","","","","","","","","",""
"","response","","html-keyboard-response","139","161096","0.0-1.0-185.0-0.0","0","0","91172","","429","","","75","20","","","1","20","training","adjacent","DE","4","5","M.jpg","O.jpg","0","1","0","",""
"","feedback","","html-keyboard-response","140","162098","0.0-1.0-186.0-0.0","0","0","91172","","null","","","null","20","","","","","","","","","","","","","","","",""
"","time_out","","html-keyboard-response","141","164102","0.0-1.0-188.0-0.0","0","0","91172","","null","","","null","20","","","","","","","","","","","","","","","",""
"","ITI","","html-keyboard-response","142","165106","0.0-1.0-189.0","0","0","91172","","null","","","null","20","","","","","","","","","","","","","","","NaN",""
"","S1","","html-keyboard-response","143","165360","0.0-1.0-191.0","0","0","91172","","null","","","null","21","","","","","","","","","","","","","","","",""
"","ISI","","html-keyboard-response","144","166363","0.0-1.0-192.0","0","0","91172","","null","","","null","21","NaN","","","","","","","","","","","","","","",""
"","S2","","html-keyboard-response","145","166616","0.0-1.0-193.0","0","0","91172","","null","","","null","21","","NaN","","","","","","","","","","","","","",""
"","response","","html-keyboard-response","146","167217","0.0-1.0-194.0-0.0","0","0","91172","","599","","","68","21","","","1","21","training","adjacent","FE","6","5","P.jpg","O.jpg","1","0","0","",""
"","feedback","","html-keyboard-response","147","168221","0.0-1.0-195.0-0.0","0","0","91172","","null","","","null","21","","","","","","","","","","","","","","","",""
"","time_out","","html-keyboard-response","148","170224","0.0-1.0-197.0-0.0","0","0","91172","","null","","","null","21","","","","","","","","","","","","","","","",""
"","ITI","","html-keyboard-response","149","171230","0.0-1.0-198.0","0","0","91172","","null","","","null","21","","","","","","","","","","","","","","","NaN",""
"","S1","","html-keyboard-response","150","171485","0.0-1.0-200.0","0","0","91172","","null","","","null","22","","","","","","","","","","","","","","","",""
"","ISI","","html-keyboard-response","151","172488","0.0-1.0-201.0","0","0","91172","","null","","","null","22","NaN","","","","","","","","","","","","","","",""
"","S2","","html-keyboard-response","152","172741","0.0-1.0-202.0","0","0","91172","","null","","","null","22","","NaN","","","","","","","","","","","","","",""
"","response","","html-keyboard-response","153","173167","0.0-1.0-203.0-0.0","0","0","91172","","425","","","75","22","","","1","22","training","adjacent","DE","4","5","M.jpg","O.jpg","0","1","0","",""
"","feedback","","html-keyboard-response","154","174170","0.0-1.0-204.0-0.0","0","0","91172","","null","","","null","22","","","","","","","","","","","","","","","",""
"","time_out","","html-keyboard-response","155","176172","0.0-1.0-206.0-0.0","0","0","91172","","null","","","null","22","","","","","","","","","","","","","","","",""
"","ITI","","html-keyboard-response","156","177174","0.0-1.0-207.0","0","0","91172","","null","","","null","22","","","","","","","","","","","","","","","NaN",""
"","S1","","html-keyboard-response","157","177429","0.0-1.0-209.0","0","0","91172","","null","","","null","23","","","","","","","","","","","","","","","",""
"","ISI","","html-keyboard-response","158","178431","0.0-1.0-210.0","0","0","91172","","null","","","null","23","NaN","","","","","","","","","","","","","","",""
"","S2","","html-keyboard-response","159","178684","0.0-1.0-211.0","0","0","91172","","null","","","null","23","","NaN","","","","","","","","","","","","","",""
"","response","","html-keyboard-response","160","178953","0.0-1.0-212.0-0.0","0","0","91172","","269","","","68","23","","","1","23","training","adjacent","FE","6","5","P.jpg","O.jpg","1","0","0","",""
"","feedback","","html-keyboard-response","161","179955","0.0-1.0-213.0-0.0","0","0","91172","","null","","","null","23","","","","","","","","","","","","","","","",""
"","time_out","","html-keyboard-response","162","181958","0.0-1.0-215.0-0.0","0","0","91172","","null","","","null","23","","","","","","","","","","","","","","","",""
"","ITI","","html-keyboard-response","163","182961","0.0-1.0-216.0","0","0","91172","","null","","","null","23","","","","","","","","","","","","","","","NaN",""
"","S1","","html-keyboard-response","164","183214","0.0-1.0-218.0","0","0","91172","","null","","","null","24","","","","","","","","","","","","","","","",""
"","ISI","","html-keyboard-response","165","184217","0.0-1.0-219.0","0","0","91172","","null","","","null","24","NaN","","","","","","","","","","","","","","",""
"","S2","","html-keyboard-response","166","184471","0.0-1.0-220.0","0","0","91172","","null","","","null","24","","NaN","","","","","","","","","","","","","",""
"","response","","html-keyboard-response","167","184887","0.0-1.0-221.0-0.0","0","0","91172","","414","","","75","24","","","1","24","training","adjacent","BC","2","3","N.jpg","L.jpg","0","1","0","",""
"","feedback","","html-keyboard-response","168","185891","0.0-1.0-222.0-0.0","0","0","91172","","null","","","null","24","","","","","","","","","","","","","","","",""
"","time_out","","html-keyboard-response","169","187893","0.0-1.0-224.0-0.0","0","0","91172","","null","","","null","24","","","","","","","","","","","","","","","",""
"","ITI","","html-keyboard-response","170","188897","0.0-1.0-225.0","0","0","91172","","null","","","null","24","","","","","","","","","","","","","","","NaN",""
"","S1","","html-keyboard-response","171","189152","0.0-1.0-227.0","0","0","91172","","null","","","null","25","","","","","","","","","","","","","","","",""
"","ISI","","html-keyboard-response","172","190155","0.0-1.0-228.0","0","0","91172","","null","","","null","25","NaN","","","","","","","","","","","","","","",""
"","S2","","html-keyboard-response","173","190419","0.0-1.0-229.0","0","0","91172","","null","","","null","25","","NaN","","","","","","","","","","","","","",""
"","response","","html-keyboard-response","174","190649","0.0-1.0-230.0-0.0","0","0","91172","","228","","","68","25","","","1","25","training","adjacent","CB","3","2","L.jpg","N.jpg","1","0","0","",""
"","feedback","","html-keyboard-response","175","191652","0.0-1.0-231.0-0.0","0","0","91172","","null","","","null","25","","","","","","","","","","","","","","","",""
"","time_out","","html-keyboard-response","176","193655","0.0-1.0-233.0-0.0","0","0","91172","","null","","","null","25","","","","","","","","","","","","","","","",""
"","ITI","","html-keyboard-response","177","194660","0.0-1.0-234.0","0","0","91172","","null","","","null","25","","","","","","","","","","","","","","","NaN",""
"","S1","","html-keyboard-response","178","194914","0.0-1.0-236.0","0","0","91172","","null","","","null","26","","","","","","","","","","","","","","","",""
"","ISI","","html-keyboard-response","179","195918","0.0-1.0-237.0","0","0","91172","","null","","","null","26","NaN","","","","","","","","","","","","","","",""
"","S2","","html-keyboard-response","180","196172","0.0-1.0-238.0","0","0","91172","","null","","","null","26","","NaN","","","","","","","","","","","","","",""
"","response","","html-keyboard-response","181","196687","0.0-1.0-239.0-0.0","0","0","91172","","513","","","75","26","","","1","26","training","adjacent","EF","5","6","O.jpg","P.jpg","0","1","0","",""
"","feedback","","html-keyboard-response","182","197691","0.0-1.0-240.0-0.0","0","0","91172","","null","","","null","26","","","","","","","","","","","","","","","",""
"","time_out","","html-keyboard-response","183","199692","0.0-1.0-242.0-0.0","0","0","91172","","null","","","null","26","","","","","","","","","","","","","","","",""
"","ITI","","html-keyboard-response","184","200696","0.0-1.0-243.0","0","0","91172","","null","","","null","26","","","","","","","","","","","","","","","NaN",""
"","S1","","html-keyboard-response","185","200950","0.0-1.0-245.0","0","0","91172","","null","","","null","27","","","","","","","","","","","","","","","",""
"","ISI","","html-keyboard-response","186","201953","0.0-1.0-246.0","0","0","91172","","null","","","null","27","NaN","","","","","","","","","","","","","","",""
"","S2","","html-keyboard-response","187","202207","0.0-1.0-247.0","0","0","91172","","null","","","null","27","","NaN","","","","","","","","","","","","","",""
"","response","","html-keyboard-response","188","202695","0.0-1.0-248.0-0.0","0","0","91172","","486","","","68","27","","","1","27","training","adjacent","CD","3","4","L.jpg","M.jpg","1","1","1","",""
"","feedback","","html-keyboard-response","189","203699","0.0-1.0-249.0-0.0","0","0","91172","","null","","","null","27","","","","","","","","","","","","","","","",""
"","ITI","","html-keyboard-response","190","204703","0.0-1.0-252.0","0","0","91172","","null","","","null","27","","","","","","","","","","","","","","","NaN",""
"","S1","","html-keyboard-response","191","204957","0.0-1.0-254.0","0","0","91172","","null","","","null","28","","","","","","","","","","","","","","","",""
"","ISI","","html-keyboard-response","192","205961","0.0-1.0-255.0","0","0","91172","","null","","","null","28","NaN","","","","","","","","","","","","","","",""
"","S2","","html-keyboard-response","193","206215","0.0-1.0-256.0","0","0","91172","","null","","","null","28","","NaN","","","","","","","","","","","","","",""
"","response","","html-keyboard-response","194","206458","0.0-1.0-257.0-0.0","0","0","91172","","241","","","68","28","","","1","28","training","adjacent","FG","6","7","P.jpg","Q.jpg","1","1","1","",""
"","feedback","","html-keyboard-response","195","207462","0.0-1.0-258.0-0.0","0","0","91172","","null","","","null","28","","","","","","","","","","","","","","","",""
"","ITI","","html-keyboard-response","196","208466","0.0-1.0-261.0","0","0","91172","","null","","","null","28","","","","","","","","","","","","","","","NaN",""
"","S1","","html-keyboard-response","197","208720","0.0-1.0-263.0","0","0","91172","","null","","","null","29","","","","","","","","","","","","","","","",""
"","ISI","","html-keyboard-response","198","209724","0.0-1.0-264.0","0","0","91172","","null","","","null","29","NaN","","","","","","","","","","","","","","",""
"","S2","","html-keyboard-response","199","209978","0.0-1.0-265.0","0","0","91172","","null","","","null","29","","NaN","","","","","","","","","","","","","",""
"","response","","html-keyboard-response","200","210007","0.0-1.0-266.0-0.0","0","0","91172","","27","","","68","29","","","1","29","training","adjacent","AB","1","2","R.jpg","N.jpg","1","1","1","",""
"","feedback","","html-keyboard-response","201","211010","0.0-1.0-267.0-0.0","0","0","91172","","null","","","null","29","","","","","","","","","","","","","","","",""
"","ITI","","html-keyboard-response","202","212012","0.0-1.0-270.0","0","0","91172","","null","","","null","29","","","","","","","","","","","","","","","NaN",""
"","S1","","html-keyboard-response","203","212265","0.0-1.0-272.0","0","0","91172","","null","","","null","30","","","","","","","","","","","","","","","",""
"","ISI","","html-keyboard-response","204","213268","0.0-1.0-273.0","0","0","91172","","null","","","null","30","NaN","","","","","","","","","","","","","","",""
"","S2","","html-keyboard-response","205","213521","0.0-1.0-274.0","0","0","91172","","null","","","null","30","","NaN","","","","","","","","","","","","","",""
"","response","","html-keyboard-response","206","213857","0.0-1.0-275.0-0.0","0","0","91172","","335","","","75","30","","","1","30","training","adjacent","GF","7","6","Q.jpg","P.jpg","0","0","1","",""
"","feedback","","html-keyboard-response","207","214861","0.0-1.0-276.0-0.0","0","0","91172","","null","","","null","30","","","","","","","","","","","","","","","",""
"","ITI","","html-keyboard-response","208","215865","0.0-1.0-279.0","0","0","91172","","null","","","null","30","","","","","","","","","","","","","","","NaN",""
"","S1","","html-keyboard-response","209","216118","0.0-1.0-281.0","0","0","91172","","null","","","null","31","","","","","","","","","","","","","","","",""
"","ISI","","html-keyboard-response","210","217122","0.0-1.0-282.0","0","0","91172","","null","","","null","31","NaN","","","","","","","","","","","","","","",""
"","S2","","html-keyboard-response","211","217377","0.0-1.0-283.0","0","0","91172","","null","","","null","31","","NaN","","","","","","","","","","","","","",""
"","response","","html-keyboard-response","212","217919","0.0-1.0-284.0-0.0","0","0","91172","","540","","","68","31","","","1","31","training","adjacent","EF","5","6","O.jpg","P.jpg","1","1","1","",""
"","feedback","","html-keyboard-response","213","218923","0.0-1.0-285.0-0.0","0","0","91172","","null","","","null","31","","","","","","","","","","","","","","","",""
"","ITI","","html-keyboard-response","214","219927","0.0-1.0-288.0","0","0","91172","","null","","","null","31","","","","","","","","","","","","","","","NaN",""
"","S1","","html-keyboard-response","215","220179","0.0-1.0-290.0","0","0","91172","","null","","","null","32","","","","","","","","","","","","","","","",""
"","ISI","","html-keyboard-response","216","221183","0.0-1.0-291.0","0","0","91172","","null","","","null","32","NaN","","","","","","","","","","","","","","",""
"","S2","","html-keyboard-response","217","221436","0.0-1.0-292.0","0","0","91172","","null","","","null","32","","NaN","","","","","","","","","","","","","",""
"","response","","html-keyboard-response","218","221927","0.0-1.0-293.0-0.0","0","0","91172","","489","","","68","32","","","1","32","training","adjacent","CD","3","4","L.jpg","M.jpg","1","1","1","",""
"","feedback","","html-keyboard-response","219","222930","0.0-1.0-294.0-0.0","0","0","91172","","null","","","null","32","","","","","","","","","","","","","","","",""
"","ITI","","html-keyboard-response","220","223932","0.0-1.0-297.0","0","0","91172","","null","","","null","32","","","","","","","","","","","","","","","NaN",""
"","S1","","html-keyboard-response","221","224184","0.0-1.0-299.0","0","0","91172","","null","","","null","33","","","","","","","","","","","","","","","",""
"","ISI","","html-keyboard-response","222","225185","0.0-1.0-300.0","0","0","91172","","null","","","null","33","NaN","","","","","","","","","","","","","","",""
"","S2","","html-keyboard-response","223","225439","0.0-1.0-301.0","0","0","91172","","null","","","null","33","","NaN","","","","","","","","","","","","","",""
"","response","","html-keyboard-response","224","225889","0.0-1.0-302.0-0.0","0","0","91172","","449","","","68","33","","","1","33","training","adjacent","CD","3","4","L.jpg","M.jpg","1","1","1","",""
"","feedback","","html-keyboard-response","225","226894","0.0-1.0-303.0-0.0","0","0","91172","","null","","","null","33","","","","","","","","","","","","","","","",""
"","ITI","","html-keyboard-response","226","227900","0.0-1.0-306.0","0","0","91172","","null","","","null","33","","","","","","","","","","","","","","","NaN",""
"","S1","","html-keyboard-response","227","228152","0.0-1.0-308.0","0","0","91172","","null","","","null","34","","","","","","","","","","","","","","","",""
"","ISI","","html-keyboard-response","228","229155","0.0-1.0-309.0","0","0","91172","","null","","","null","34","NaN","","","","","","","","","","","","","","",""
"","S2","","html-keyboard-response","229","229409","0.0-1.0-310.0","0","0","91172","","null","","","null","34","","NaN","","","","","","","","","","","","","",""
"","response","","html-keyboard-response","230","229498","0.0-1.0-311.0-0.0","0","0","91172","","87","","","75","34","","","1","34","training","adjacent","GF","7","6","Q.jpg","P.jpg","0","0","1","",""
"","feedback","","html-keyboard-response","231","230501","0.0-1.0-312.0-0.0","0","0","91172","","null","","","null","34","","","","","","","","","","","","","","","",""
"","ITI","","html-keyboard-response","232","231505","0.0-1.0-315.0","0","0","91172","","null","","","null","34","","","","","","","","","","","","","","","NaN",""
"","S1","","html-keyboard-response","233","231758","0.0-1.0-317.0","0","0","91172","","null","","","null","35","","","","","","","","","","","","","","","",""
"","ISI","","html-keyboard-response","234","232760","0.0-1.0-318.0","0","0","91172","","null","","","null","35","NaN","","","","","","","","","","","","","","",""
"","S2","","html-keyboard-response","235","233013","0.0-1.0-319.0","0","0","91172","","null","","","null","35","","NaN","","","","","","","","","","","","","",""
"","response","","html-keyboard-response","236","233321","0.0-1.0-320.0-0.0","0","0","91172","","307","","","68","35","","","1","35","training","adjacent","CB","3","2","L.jpg","N.jpg","1","0","0","",""
"","feedback","","html-keyboard-response","237","234324","0.0-1.0-321.0-0.0","0","0","91172","","null","","","null","35","","","","","","","","","","","","","","","",""
"","time_out","","html-keyboard-response","238","236326","0.0-1.0-323.0-0.0","0","0","91172","","null","","","null","35","","","","","","","","","","","","","","","",""
"","ITI","","html-keyboard-response","239","237330","0.0-1.0-324.0","0","0","91172","","null","","","null","35","","","","","","","","","","","","","","","NaN",""
"","S1","","html-keyboard-response","240","237586","0.0-1.0-326.0","0","0","91172","","null","","","null","36","","","","","","","","","","","","","","","",""
"","ISI","","html-keyboard-response","241","238590","0.0-1.0-327.0","0","0","91172","","null","","","null","36","NaN","","","","","","","","","","","","","","",""
"","S2","","html-keyboard-response","242","238844","0.0-1.0-328.0","0","0","91172","","null","","","null","36","","NaN","","","","","","","","","","","","","",""
"","response","","html-keyboard-response","243","239506","0.0-1.0-329.0-0.0","0","0","91172","","660","","","68","36","","","1","36","training","adjacent","DC","4","3","M.jpg","L.jpg","1","0","0","",""
"","feedback","","html-keyboard-response","244","240509","0.0-1.0-330.0-0.0","0","0","91172","","null","","","null","36","","","","","","","","","","","","","","","",""
"","time_out","","html-keyboard-response","245","242512","0.0-1.0-332.0-0.0","0","0","91172","","null","","","null","36","","","","","","","","","","","","","","","",""
"","ITI","","html-keyboard-response","246","243516","0.0-1.0-333.0","0","0","91172","","null","","","null","36","","","","","","","","","","","","","","","NaN",""
"","S1","","html-keyboard-response","247","243768","0.0-1.0-335.0","0","0","91172","","null","","","null","37","","","","","","","","","","","","","","","",""
"","ISI","","html-keyboard-response","248","244770","0.0-1.0-336.0","0","0","91172","","null","","","null","37","NaN","","","","","","","","","","","","","","",""
"","S2","","html-keyboard-response","249","245022","0.0-1.0-337.0","0","0","91172","","null","","","null","37","","NaN","","","","","","","","","","","","","",""
"","response","","html-keyboard-response","250","245626","0.0-1.0-338.0-0.0","0","0","91172","","603","","","68","37","","","1","37","training","adjacent","FE","6","5","P.jpg","O.jpg","1","0","0","",""
"","feedback","","html-keyboard-response","251","246630","0.0-1.0-339.0-0.0","0","0","91172","","null","","","null","37","","","","","","","","","","","","","","","",""
"","time_out","","html-keyboard-response","252","248635","0.0-1.0-341.0-0.0","0","0","91172","","null","","","null","37","","","","","","","","","","","","","","","",""
"","ITI","","html-keyboard-response","253","249637","0.0-1.0-342.0","0","0","91172","","null","","","null","37","","","","","","","","","","","","","","","NaN",""
"","S1","","html-keyboard-response","254","249889","0.0-1.0-344.0","0","0","91172","","null","","","null","38","","","","","","","","","","","","","","","",""
"","ISI","","html-keyboard-response","255","250892","0.0-1.0-345.0","0","0","91172","","null","","","null","38","NaN","","","","","","","","","","","","","","",""
"","S2","","html-keyboard-response","256","251148","0.0-1.0-346.0","0","0","91172","","null","","","null","38","","NaN","","","","","","","","","","","","","",""
"","response","","html-keyboard-response","257","251409","0.0-1.0-347.0-0.0","0","0","91172","","259","","","68","38","","","1","38","training","adjacent","FG","6","7","P.jpg","Q.jpg","1","1","1","",""
"","feedback","","html-keyboard-response","258","252414","0.0-1.0-348.0-0.0","0","0","91172","","null","","","null","38","","","","","","","","","","","","","","","",""
"","ITI","","html-keyboard-response","259","253419","0.0-1.0-351.0","0","0","91172","","null","","","null","38","","","","","","","","","","","","","","","NaN",""
"","S1","","html-keyboard-response","260","253672","0.0-1.0-353.0","0","0","91172","","null","","","null","39","","","","","","","","","","","","","","","",""
"","ISI","","html-keyboard-response","261","254674","0.0-1.0-354.0","0","0","91172","","null","","","null","39","NaN","","","","","","","","","","","","","","",""
"","S2","","html-keyboard-response","262","254928","0.0-1.0-355.0","0","0","91172","","null","","","null","39","","NaN","","","","","","","","","","","","","",""
"","response","","html-keyboard-response","263","255096","0.0-1.0-356.0-0.0","0","0","91172","","165","","","68","39","","","1","39","training","adjacent","AB","1","2","R.jpg","N.jpg","1","1","1","",""
"","feedback","","html-keyboard-response","264","256100","0.0-1.0-357.0-0.0","0","0","91172","","null","","","null","39","","","","","","","","","","","","","","","",""
"","ITI","","html-keyboard-response","265","257105","0.0-1.0-360.0","0","0","91172","","null","","","null","39","","","","","","","","","","","","","","","NaN",""
"","S1","","html-keyboard-response","266","257359","0.0-1.0-362.0","0","0","91172","","null","","","null","40","","","","","","","","","","","","","","","",""
"","ISI","","html-keyboard-response","267","258362","0.0-1.0-363.0","0","0","91172","","null","","","null","40","NaN","","","","","","","","","","","","","","",""
"","S2","","html-keyboard-response","268","258615","0.0-1.0-364.0","0","0","91172","","null","","","null","40","","NaN","","","","","","","","","","","","","",""
"","response","","html-keyboard-response","269","258871","0.0-1.0-365.0-0.0","0","0","91172","","255","","","75","40","","","1","40","training","adjacent","BA","2","1","N.jpg","R.jpg","0","0","1","",""
"","feedback","","html-keyboard-response","270","259875","0.0-1.0-366.0-0.0","0","0","91172","","null","","","null","40","","","","","","","","","","","","","","","",""
"","ITI","","html-keyboard-response","271","260877","0.0-1.0-369.0","0","0","91172","","null","","","null","40","","","","","","","","","","","","","","","NaN",""
"","S1","","html-keyboard-response","272","261129","0.0-1.0-371.0","0","0","91172","","null","","","null","41","","","","","","","","","","","","","","","",""
"","ISI","","html-keyboard-response","273","262130","0.0-1.0-372.0","0","0","91172","","null","","","null","41","NaN","","","","","","","","","","","","","","",""
"","S2","","html-keyboard-response","274","262383","0.0-1.0-373.0","0","0","91172","","null","","","null","41","","NaN","","","","","","","","","","","","","",""
"","response","","html-keyboard-response","275","262640","0.0-1.0-374.0-0.0","0","0","91172","","255","","","75","41","","","1","41","training","adjacent","BA","2","1","N.jpg","R.jpg","0","0","1","",""
"","feedback","","html-keyboard-response","276","263644","0.0-1.0-375.0-0.0","0","0","91172","","null","","","null","41","","","","","","","","","","","","","","","",""
"","ITI","","html-keyboard-response","277","264650","0.0-1.0-378.0","0","0","91172","","null","","","null","41","","","","","","","","","","","","","","","NaN",""
"","S1","","html-keyboard-response","278","264902","0.0-1.0-380.0","0","0","91172","","null","","","null","42","","","","","","","","","","","","","","","",""
"","ISI","","html-keyboard-response","279","265904","0.0-1.0-381.0","0","0","91172","","null","","","null","42","NaN","","","","","","","","","","","","","","",""
"","S2","","html-keyboard-response","280","266159","0.0-1.0-382.0","0","0","91172","","null","","","null","42","","NaN","","","","","","","","","","","","","",""
"","response","","html-keyboard-response","281","266399","0.0-1.0-383.0-0.0","0","0","91172","","238","","","75","42","","","1","42","training","adjacent","GF","7","6","Q.jpg","P.jpg","0","0","1","",""
"","feedback","","html-keyboard-response","282","267402","0.0-1.0-384.0-0.0","0","0","91172","","null","","","null","42","","","","","","","","","","","","","","","",""
"","ITI","","html-keyboard-response","283","268404","0.0-1.0-387.0","0","0","91172","","null","","","null","42","","","","","","","","","","","","","","","NaN",""
"","S1","","html-keyboard-response","284","268659","0.0-1.0-389.0","0","0","91172","","null","","","null","43","","","","","","","","","","","","","","","",""
"","ISI","","html-keyboard-response","285","269664","0.0-1.0-390.0","0","0","91172","","null","","","null","43","NaN","","","","","","","","","","","","","","",""
"","S2","","html-keyboard-response","286","269917","0.0-1.0-391.0","0","0","91172","","null","","","null","43","","NaN","","","","","","","","","","","","","",""
"","response","","html-keyboard-response","287","270311","0.0-1.0-392.0-0.0","0","0","91172","","393","","","68","43","","","1","43","training","adjacent","ED","5","4","O.jpg","M.jpg","1","0","0","",""
"","feedback","","html-keyboard-response","288","271313","0.0-1.0-393.0-0.0","0","0","91172","","null","","","null","43","","","","","","","","","","","","","","","",""
"","time_out","","html-keyboard-response","289","273315","0.0-1.0-395.0-0.0","0","0","91172","","null","","","null","43","","","","","","","","","","","","","","","",""
"","ITI","","html-keyboard-response","290","274317","0.0-1.0-396.0","0","0","91172","","null","","","null","43","","","","","","","","","","","","","","","NaN",""
"","S1","","html-keyboard-response","291","274571","0.0-1.0-398.0","0","0","91172","","null","","","null","44","","","","","","","","","","","","","","","",""
"","ISI","","html-keyboard-response","292","275575","0.0-1.0-399.0","0","0","91172","","null","","","null","44","NaN","","","","","","","","","","","","","","",""
"","S2","","html-keyboard-response","293","275828","0.0-1.0-400.0","0","0","91172","","null","","","null","44","","NaN","","","","","","","","","","","","","",""
"","response","","html-keyboard-response","294","276488","0.0-1.0-401.0-0.0","0","0","91172","","659","","","75","44","","","1","44","training","adjacent","BC","2","3","N.jpg","L.jpg","0","1","0","",""
"","feedback","","html-keyboard-response","295","277492","0.0-1.0-402.0-0.0","0","0","91172","","null","","","null","44","","","","","","","","","","","","","","","",""
"","time_out","","html-keyboard-response","296","279496","0.0-1.0-404.0-0.0","0","0","91172","","null","","","null","44","","","","","","","","","","","","","","","",""
"","ITI","","html-keyboard-response","297","280500","0.0-1.0-405.0","0","0","91172","","null","","","null","44","","","","","","","","","","","","","","","NaN",""
"","S1","","html-keyboard-response","298","280755","0.0-1.0-407.0","0","0","91172","","null","","","null","45","","","","","","","","","","","","","","","",""
"","ISI","","html-keyboard-response","299","281769","0.0-1.0-408.0","0","0","91172","","null","","","null","45","NaN","","","","","","","","","","","","","","",""
"","S2","","html-keyboard-response","300","282024","0.0-1.0-409.0","0","0","91172","","null","","","null","45","","NaN","","","","","","","","","","","","","",""
"","response","","html-keyboard-response","301","282408","0.0-1.0-410.0-0.0","0","0","91172","","382","","","68","45","","","1","45","training","adjacent","ED","5","4","O.jpg","M.jpg","1","0","0","",""
"","feedback","","html-keyboard-response","302","283410","0.0-1.0-411.0-0.0","0","0","91172","","null","","","null","45","","","","","","","","","","","","","","","",""
"","time_out","","html-keyboard-response","303","285415","0.0-1.0-413.0-0.0","0","0","91172","","null","","","null","45","","","","","","","","","","","","","","","",""
"","ITI","","html-keyboard-response","304","286418","0.0-1.0-414.0","0","0","91172","","null","","","null","45","","","","","","","","","","","","","","","NaN",""
"","S1","","html-keyboard-response","305","286671","0.0-1.0-416.0","0","0","91172","","null","","","null","46","","","","","","","","","","","","","","","",""
"","ISI","","html-keyboard-response","306","287674","0.0-1.0-417.0","0","0","91172","","null","","","null","46","NaN","","","","","","","","","","","","","","",""
"","S2","","html-keyboard-response","307","287926","0.0-1.0-418.0","0","0","91172","","null","","","null","46","","NaN","","","","","","","","","","","","","",""
"","response","","html-keyboard-response","308","288415","0.0-1.0-419.0-0.0","0","0","91172","","488","","","68","46","","","1","46","training","adjacent","ED","5","4","O.jpg","M.jpg","1","0","0","",""
"","feedback","","html-keyboard-response","309","289421","0.0-1.0-420.0-0.0","0","0","91172","","null","","","null","46","","","","","","","","","","","","","","","",""
"","time_out","","html-keyboard-response","310","291423","0.0-1.0-422.0-0.0","0","0","91172","","null","","","null","46","","","","","","","","","","","","","","","",""
"","ITI","","html-keyboard-response","311","292424","0.0-1.0-423.0","0","0","91172","","null","","","null","46","","","","","","","","","","","","","","","NaN",""
"","S1","","html-keyboard-response","312","292676","0.0-1.0-425.0","0","0","91172","","null","","","null","47","","","","","","","","","","","","","","","",""
"","ISI","","html-keyboard-response","313","293691","0.0-1.0-426.0","0","0","91172","","null","","","null","47","NaN","","","","","","","","","","","","","","",""
"","S2","","html-keyboard-response","314","293912","0.0-1.0-427.0","0","0","91172","","220","","","68","47","","d","1","47","training","adjacent","AB","1","2","R.jpg","N.jpg","1","1","1","",""
"","feedback","","html-keyboard-response","315","294914","0.0-1.0-429.0-0.0","0","0","91172","","null","","","null","47","","","","","","","","","","","","","","","",""
"","ITI","","html-keyboard-response","316","295916","0.0-1.0-432.0","0","0","91172","","null","","","null","47","","","","","","","","","","","","","","","NaN",""
"","block_over","","html-keyboard-response","317","307151","0.0-1.0-433.0-0.0","0","0","91172","","11234","","","32","47","","","","","","","","","","","","","","","",""
"","S1","","html-keyboard-response","318","307404","0.0-1.0-434.0","0","0","91172","","null","","","null","48","","","","","","","","","","","","","","","",""
"","ISI","","html-keyboard-response","319","308408","0.0-1.0-435.0","0","0","91172","","null","","","null","48","NaN","","","","","","","","","","","","","","",""
"","S2","","html-keyboard-response","320","308662","0.0-1.0-436.0","0","0","91172","","null","","","null","48","","NaN","","","","","","","","","","","","","",""
"","response","","html-keyboard-response","321","308700","0.0-1.0-437.0-0.0","0","0","91172","","36","","","75","48","","","2","48","training","adjacent","GF","7","6","Q.jpg","P.jpg","0","0","1","",""
"","feedback","","html-keyboard-response","322","309704","0.0-1.0-438.0-0.0","0","0","91172","","null","","","null","48","","","","","","","","","","","","","","","",""
"","ITI","","html-keyboard-response","323","310707","0.0-1.0-441.0","0","0","91172","","null","","","null","48","","","","","","","","","","","","","","","NaN",""
"","S1","","html-keyboard-response","324","310962","0.0-1.0-443.0","0","0","91172","","null","","","null","49","","","","","","","","","","","","","","","",""
"","ISI","","html-keyboard-response","325","311964","0.0-1.0-444.0","0","0","91172","","null","","","null","49","NaN","","","","","","","","","","","","","","",""
"","S2","","html-keyboard-response","326","312219","0.0-1.0-445.0","0","0","91172","","null","","","null","49","","NaN","","","","","","","","","","","","","",""
"","response","","html-keyboard-response","327","312552","0.0-1.0-446.0-0.0","0","0","91172","","331","","","68","49","","","2","49","training","adjacent","FE","6","5","P.jpg","O.jpg","1","0","0","",""
"","feedback","","html-keyboard-response","328","313555","0.0-1.0-447.0-0.0","0","0","91172","","null","","","null","49","","","","","","","","","","","","","","","",""
"","time_out","","html-keyboard-response","329","315559","0.0-1.0-449.0-0.0","0","0","91172","","null","","","null","49","","","","","","","","","","","","","","","",""
"","ITI","","html-keyboard-response","330","316562","0.0-1.0-450.0","0","0","91172","","null","","","null","49","","","","","","","","","","","","","","","NaN",""
"","S1","","html-keyboard-response","331","316816","0.0-1.0-452.0","0","0","91172","","null","","","null","50","","","","","","","","","","","","","","","",""
"","ISI","","html-keyboard-response","332","317818","0.0-1.0-453.0","0","0","91172","","null","","","null","50","NaN","","","","","","","","","","","","","","",""
"","S2","","html-keyboard-response","333","318072","0.0-1.0-454.0","0","0","91172","","null","","","null","50","","NaN","","","","","","","","","","","","","",""
"","response","","html-keyboard-response","334","318447","0.0-1.0-455.0-0.0","0","0","91172","","373","","","75","50","","","2","50","training","adjacent","BA","2","1","N.jpg","R.jpg","0","0","1","",""
"","feedback","","html-keyboard-response","335","319450","0.0-1.0-456.0-0.0","0","0","91172","","null","","","null","50","","","","","","","","","","","","","","","",""
"","ITI","","html-keyboard-response","336","320454","0.0-1.0-459.0","0","0","91172","","null","","","null","50","","","","","","","","","","","","","","","NaN",""
"","S1","","html-keyboard-response","337","320707","0.0-1.0-461.0","0","0","91172","","null","","","null","51","","","","","","","","","","","","","","","",""
"","ISI","","html-keyboard-response","338","321709","0.0-1.0-462.0","0","0","91172","","null","","","null","51","NaN","","","","","","","","","","","","","","",""
"","S2","","html-keyboard-response","339","321964","0.0-1.0-463.0","0","0","91172","","null","","","null","51","","NaN","","","","","","","","","","","","","",""
"","response","","html-keyboard-response","340","322280","0.0-1.0-464.0-0.0","0","0","91172","","314","","","68","51","","","2","51","training","adjacent","CB","3","2","L.jpg","N.jpg","1","0","0","",""
"","feedback","","html-keyboard-response","341","323284","0.0-1.0-465.0-0.0","0","0","91172","","null","","","null","51","","","","","","","","","","","","","","","",""
"","time_out","","html-keyboard-response","342","325287","0.0-1.0-467.0-0.0","0","0","91172","","null","","","null","51","","","","","","","","","","","","","","","",""
"","ITI","","html-keyboard-response","343","326290","0.0-1.0-468.0","0","0","91172","","null","","","null","51","","","","","","","","","","","","","","","NaN",""
"","S1","","html-keyboard-response","344","326542","0.0-1.0-470.0","0","0","91172","","null","","","null","52","","","","","","","","","","","","","","","",""
"","ISI","","html-keyboard-response","345","327545","0.0-1.0-471.0","0","0","91172","","null","","","null","52","NaN","","","","","","","","","","","","","","",""
"","S2","","html-keyboard-response","346","327797","0.0-1.0-472.0","0","0","91172","","null","","","null","52","","NaN","","","","","","","","","","","","","",""
"","response","","html-keyboard-response","347","328336","0.0-1.0-473.0-0.0","0","0","91172","","537","","","68","52","","","2","52","training","adjacent","CB","3","2","L.jpg","N.jpg","1","0","0","",""
"","feedback","","html-keyboard-response","348","329339","0.0-1.0-474.0-0.0","0","0","91172","","null","","","null","52","","","","","","","","","","","","","","","",""
"","time_out","","html-keyboard-response","349","331341","0.0-1.0-476.0-0.0","0","0","91172","","null","","","null","52","","","","","","","","","","","","","","","",""
"","ITI","","html-keyboard-response","350","332342","0.0-1.0-477.0","0","0","91172","","null","","","null","52","","","","","","","","","","","","","","","NaN",""
"","S1","","html-keyboard-response","351","332594","0.0-1.0-479.0","0","0","91172","","null","","","null","53","","","","","","","","","","","","","","","",""
"","ISI","","html-keyboard-response","352","333596","0.0-1.0-480.0","0","0","91172","","null","","","null","53","NaN","","","","","","","","","","","","","","",""
"","S2","","html-keyboard-response","353","333848","0.0-1.0-481.0","0","0","91172","","null","","","null","53","","NaN","","","","","","","","","","","","","",""
"","response","","html-keyboard-response","354","334425","0.0-1.0-482.0-0.0","0","0","91172","","576","","","68","53","","","2","53","training","adjacent","FE","6","5","P.jpg","O.jpg","1","0","0","",""
"","feedback","","html-keyboard-response","355","335428","0.0-1.0-483.0-0.0","0","0","91172","","null","","","null","53","","","","","","","","","","","","","","","",""
"","time_out","","html-keyboard-response","356","337432","0.0-1.0-485.0-0.0","0","0","91172","","null","","","null","53","","","","","","","","","","","","","","","",""
"","ITI","","html-keyboard-response","357","338437","0.0-1.0-486.0","0","0","91172","","null","","","null","53","","","","","","","","","","","","","","","NaN",""
"","S1","","html-keyboard-response","358","338690","0.0-1.0-488.0","0","0","91172","","null","","","null","54","","","","","","","","","","","","","","","",""
"","ISI","","html-keyboard-response","359","339692","0.0-1.0-489.0","0","0","91172","","null","","","null","54","NaN","","","","","","","","","","","","","","",""
"","S2","","html-keyboard-response","360","339946","0.0-1.0-490.0","0","0","91172","","null","","","null","54","","NaN","","","","","","","","","","","","","",""
"","response","","html-keyboard-response","361","340279","0.0-1.0-491.0-0.0","0","0","91172","","330","","","75","54","","","2","54","training","adjacent","BA","2","1","N.jpg","R.jpg","0","0","1","",""
"","feedback","","html-keyboard-response","362","341282","0.0-1.0-492.0-0.0","0","0","91172","","null","","","null","54","","","","","","","","","","","","","","","",""
"","ITI","","html-keyboard-response","363","342285","0.0-1.0-495.0","0","0","91172","","null","","","null","54","","","","","","","","","","","","","","","NaN",""
"","S1","","html-keyboard-response","364","342538","0.0-1.0-497.0","0","0","91172","","null","","","null","55","","","","","","","","","","","","","","","",""
"","ISI","","html-keyboard-response","365","343540","0.0-1.0-498.0","0","0","91172","","null","","","null","55","NaN","","","","","","","","","","","","","","",""
"","S2","","html-keyboard-response","366","343794","0.0-1.0-499.0","0","0","91172","","null","","","null","55","","NaN","","","","","","","","","","","","","",""
"","response","","html-keyboard-response","367","344086","0.0-1.0-500.0-0.0","0","0","91172","","291","","","75","55","","","2","55","training","adjacent","EF","5","6","O.jpg","P.jpg","0","1","0","",""
"","feedback","","html-keyboard-response","368","345090","0.0-1.0-501.0-0.0","0","0","91172","","null","","","null","55","","","","","","","","","","","","","","","",""
"","time_out","","html-keyboard-response","369","347095","0.0-1.0-503.0-0.0","0","0","91172","","null","","","null","55","","","","","","","","","","","","","","","",""
"","ITI","","html-keyboard-response","370","348098","0.0-1.0-504.0","0","0","91172","","null","","","null","55","","","","","","","","","","","","","","","NaN",""
"","S1","","html-keyboard-response","371","348350","0.0-1.0-506.0","0","0","91172","","null","","","null","56","","","","","","","","","","","","","","","",""
"","ISI","","html-keyboard-response","372","349352","0.0-1.0-507.0","0","0","91172","","null","","","null","56","NaN","","","","","","","","","","","","","","",""
"","S2","","html-keyboard-response","373","349607","0.0-1.0-508.0","0","0","91172","","null","","","null","56","","NaN","","","","","","","","","","","","","",""
"","response","","html-keyboard-response","374","349865","0.0-1.0-509.0-0.0","0","0","91172","","256","","","68","56","","","2","56","training","adjacent","FG","6","7","P.jpg","Q.jpg","1","1","1","",""
"","feedback","","html-keyboard-response","375","350866","0.0-1.0-510.0-0.0","0","0","91172","","null","","","null","56","","","","","","","","","","","","","","","",""
"","ITI","","html-keyboard-response","376","351870","0.0-1.0-513.0","0","0","91172","","null","","","null","56","","","","","","","","","","","","","","","NaN",""
"","S1","","html-keyboard-response","377","352123","0.0-1.0-515.0","0","0","91172","","null","","","null","57","","","","","","","","","","","","","","","",""
"","ISI","","html-keyboard-response","378","353125","0.0-1.0-516.0","0","0","91172","","null","","","null","57","NaN","","","","","","","","","","","","","","",""
"","S2","","html-keyboard-response","379","353377","0.0-1.0-517.0","0","0","91172","","null","","","null","57","","NaN","","","","","","","","","","","","","",""
"","response","","html-keyboard-response","380","353698","0.0-1.0-518.0-0.0","0","0","91172","","320","","","68","57","","","2","57","training","adjacent","ED","5","4","O.jpg","M.jpg","1","0","0","",""
"","feedback","","html-keyboard-response","381","354701","0.0-1.0-519.0-0.0","0","0","91172","","null","","","null","57","","","","","","","","","","","","","","","",""
"","time_out","","html-keyboard-response","382","356703","0.0-1.0-521.0-0.0","0","0","91172","","null","","","null","57","","","","","","","","","","","","","","","",""
"","ITI","","html-keyboard-response","383","357705","0.0-1.0-522.0","0","0","91172","","null","","","null","57","","","","","","","","","","","","","","","NaN",""
"","S1","","html-keyboard-response","384","357957","0.0-1.0-524.0","0","0","91172","","null","","","null","58","","","","","","","","","","","","","","","",""
"","ISI","","html-keyboard-response","385","358961","0.0-1.0-525.0","0","0","91172","","null","","","null","58","NaN","","","","","","","","","","","","","","",""
"","S2","","html-keyboard-response","386","359215","0.0-1.0-526.0","0","0","91172","","null","","","null","58","","NaN","","","","","","","","","","","","","",""
"","response","","html-keyboard-response","387","359495","0.0-1.0-527.0-0.0","0","0","91172","","278","","","68","58","","","2","58","training","adjacent","BC","2","3","N.jpg","L.jpg","1","1","1","",""
"","feedback","","html-keyboard-response","388","360498","0.0-1.0-528.0-0.0","0","0","91172","","null","","","null","58","","","","","","","","","","","","","","","",""
"","ITI","","html-keyboard-response","389","361503","0.0-1.0-531.0","0","0","91172","","null","","","null","58","","","","","","","","","","","","","","","NaN",""
"","S1","","html-keyboard-response","390","361756","0.0-1.0-533.0","0","0","91172","","null","","","null","59","","","","","","","","","","","","","","","",""
"","ISI","","html-keyboard-response","391","362758","0.0-1.0-534.0","0","0","91172","","null","","","null","59","NaN","","","","","","","","","","","","","","",""
"","S2","","html-keyboard-response","392","363012","0.0-1.0-535.0","0","0","91172","","null","","","null","59","","NaN","","","","","","","","","","","","","",""
"","response","","html-keyboard-response","393","363321","0.0-1.0-536.0-0.0","0","0","91172","","307","","","68","59","","","2","59","training","adjacent","ED","5","4","O.jpg","M.jpg","1","0","0","",""
"","feedback","","html-keyboard-response","394","364323","0.0-1.0-537.0-0.0","0","0","91172","","null","","","null","59","","","","","","","","","","","","","","","",""
"","time_out","","html-keyboard-response","395","366326","0.0-1.0-539.0-0.0","0","0","91172","","null","","","null","59","","","","","","","","","","","","","","","",""
"","ITI","","html-keyboard-response","396","367328","0.0-1.0-540.0","0","0","91172","","null","","","null","59","","","","","","","","","","","","","","","NaN",""
"","S1","","html-keyboard-response","397","367581","0.0-1.0-542.0","0","0","91172","","null","","","null","60","","","","","","","","","","","","","","","",""
"","ISI","","html-keyboard-response","398","368583","0.0-1.0-543.0","0","0","91172","","null","","","null","60","NaN","","","","","","","","","","","","","","",""
"","S2","","html-keyboard-response","399","368836","0.0-1.0-544.0","0","0","91172","","null","","","null","60","","NaN","","","","","","","","","","","","","",""
"","response","","html-keyboard-response","400","369426","0.0-1.0-545.0-0.0","0","0","91172","","589","","","68","60","","","2","60","training","adjacent","CD","3","4","L.jpg","M.jpg","1","1","1","",""
"","feedback","","html-keyboard-response","401","370427","0.0-1.0-546.0-0.0","0","0","91172","","null","","","null","60","","","","","","","","","","","","","","","",""
"","ITI","","html-keyboard-response","402","371431","0.0-1.0-549.0","0","0","91172","","null","","","null","60","","","","","","","","","","","","","","","NaN",""
"","S1","","html-keyboard-response","403","371684","0.0-1.0-551.0","0","0","91172","","null","","","null","61","","","","","","","","","","","","","","","",""
"","ISI","","html-keyboard-response","404","372686","0.0-1.0-552.0","0","0","91172","","null","","","null","61","NaN","","","","","","","","","","","","","","",""
"","S2","","html-keyboard-response","405","372940","0.0-1.0-553.0","0","0","91172","","null","","","null","61","","NaN","","","","","","","","","","","","","",""
"","response","","html-keyboard-response","406","373408","0.0-1.0-554.0-0.0","0","0","91172","","465","","","75","61","","","2","61","training","adjacent","DE","4","5","M.jpg","O.jpg","0","1","0","",""
"","feedback","","html-keyboard-response","407","374412","0.0-1.0-555.0-0.0","0","0","91172","","null","","","null","61","","","","","","","","","","","","","","","",""
"","time_out","","html-keyboard-response","408","376416","0.0-1.0-557.0-0.0","0","0","91172","","null","","","null","61","","","","","","","","","","","","","","","",""
"","ITI","","html-keyboard-response","409","377418","0.0-1.0-558.0","0","0","91172","","null","","","null","61","","","","","","","","","","","","","","","NaN",""
"","S1","","html-keyboard-response","410","377671","0.0-1.0-560.0","0","0","91172","","null","","","null","62","","","","","","","","","","","","","","","",""
"","ISI","","html-keyboard-response","411","378674","0.0-1.0-561.0","0","0","91172","","null","","","null","62","NaN","","","","","","","","","","","","","","",""
"","S2","","html-keyboard-response","412","378926","0.0-1.0-562.0","0","0","91172","","null","","","null","62","","NaN","","","","","","","","","","","","","",""
"","response","","html-keyboard-response","413","379208","0.0-1.0-563.0-0.0","0","0","91172","","281","","","75","62","","","2","62","training","adjacent","BC","2","3","N.jpg","L.jpg","0","1","0","",""
"","feedback","","html-keyboard-response","414","380211","0.0-1.0-564.0-0.0","0","0","91172","","null","","","null","62","","","","","","","","","","","","","","","",""
"","time_out","","html-keyboard-response","415","382214","0.0-1.0-566.0-0.0","0","0","91172","","null","","","null","62","","","","","","","","","","","","","","","",""
"","ITI","","html-keyboard-response","416","383219","0.0-1.0-567.0","0","0","91172","","null","","","null","62","","","","","","","","","","","","","","","NaN",""
"","S1","","html-keyboard-response","417","383474","0.0-1.0-569.0","0","0","91172","","null","","","null","63","","","","","","","","","","","","","","","",""
"","ISI","","html-keyboard-response","418","384477","0.0-1.0-570.0","0","0","91172","","null","","","null","63","NaN","","","","","","","","","","","","","","",""
"","S2","","html-keyboard-response","419","384731","0.0-1.0-571.0","0","0","91172","","null","","","null","63","","NaN","","","","","","","","","","","","","",""
"","response","","html-keyboard-response","420","385360","0.0-1.0-572.0-0.0","0","0","91172","","627","","","68","63","","","2","63","training","adjacent","EF","5","6","O.jpg","P.jpg","1","1","1","",""
"","feedback","","html-keyboard-response","421","386362","0.0-1.0-573.0-0.0","0","0","91172","","null","","","null","63","","","","","","","","","","","","","","","",""
"","ITI","","html-keyboard-response","422","387364","0.0-1.0-576.0","0","0","91172","","null","","","null","63","","","","","","","","","","","","","","","NaN",""
"","S1","","html-keyboard-response","423","387616","0.0-1.0-578.0","0","0","91172","","null","","","null","64","","","","","","","","","","","","","","","",""
"","ISI","","html-keyboard-response","424","388619","0.0-1.0-579.0","0","0","91172","","null","","","null","64","NaN","","","","","","","","","","","","","","",""
"","S2","","html-keyboard-response","425","388871","0.0-1.0-580.0","0","0","91172","","null","","","null","64","","NaN","","","","","","","","","","","","","",""
"","response","","html-keyboard-response","426","389521","0.0-1.0-581.0-0.0","0","0","91172","","650","","","75","64","","","2","64","training","adjacent","DE","4","5","M.jpg","O.jpg","0","1","0","",""
"","feedback","","html-keyboard-response","427","390524","0.0-1.0-582.0-0.0","0","0","91172","","null","","","null","64","","","","","","","","","","","","","","","",""
"","time_out","","html-keyboard-response","428","392526","0.0-1.0-584.0-0.0","0","0","91172","","null","","","null","64","","","","","","","","","","","","","","","",""
"","ITI","","html-keyboard-response","429","393528","0.0-1.0-585.0","0","0","91172","","null","","","null","64","","","","","","","","","","","","","","","NaN",""
"","S1","","html-keyboard-response","430","393782","0.0-1.0-587.0","0","0","91172","","null","","","null","65","","","","","","","","","","","","","","","",""
"","ISI","","html-keyboard-response","431","394785","0.0-1.0-588.0","0","0","91172","","null","","","null","65","NaN","","","","","","","","","","","","","","",""
"","S2","","html-keyboard-response","432","395039","0.0-1.0-589.0","0","0","91172","","null","","","null","65","","NaN","","","","","","","","","","","","","",""
"","response","","html-keyboard-response","433","395520","0.0-1.0-590.0-0.0","0","0","91172","","479","","","68","65","","","2","65","training","adjacent","CD","3","4","L.jpg","M.jpg","1","1","1","",""
"","feedback","","html-keyboard-response","434","396522","0.0-1.0-591.0-0.0","0","0","91172","","null","","","null","65","","","","","","","","","","","","","","","",""
"","ITI","","html-keyboard-response","435","397524","0.0-1.0-594.0","0","0","91172","","null","","","null","65","","","","","","","","","","","","","","","NaN",""
"","S1","","html-keyboard-response","436","397776","0.0-1.0-596.0","0","0","91172","","null","","","null","66","","","","","","","","","","","","","","","",""
"","ISI","","html-keyboard-response","437","398780","0.0-1.0-597.0","0","0","91172","","null","","","null","66","NaN","","","","","","","","","","","","","","",""
"","S2","","html-keyboard-response","438","399033","0.0-1.0-598.0","0","0","91172","","null","","","null","66","","NaN","","","","","","","","","","","","","",""
"","response","","html-keyboard-response","439","399642","0.0-1.0-599.0-0.0","0","0","91172","","608","","","68","66","","","2","66","training","adjacent","EF","5","6","O.jpg","P.jpg","1","1","1","",""
"","feedback","","html-keyboard-response","440","400644","0.0-1.0-600.0-0.0","0","0","91172","","null","","","null","66","","","","","","","","","","","","","","","",""
"","ITI","","html-keyboard-response","441","401647","0.0-1.0-603.0","0","0","91172","","null","","","null","66","","","","","","","","","","","","","","","NaN",""
"","S1","","html-keyboard-response","442","401902","0.0-1.0-605.0","0","0","91172","","null","","","null","67","","","","","","","","","","","","","","","",""
"","ISI","","html-keyboard-response","443","402904","0.0-1.0-606.0","0","0","91172","","null","","","null","67","NaN","","","","","","","","","","","","","","",""
"","S2","","html-keyboard-response","444","403157","0.0-1.0-607.0","0","0","91172","","null","","","null","67","","NaN","","","","","","","","","","","","","",""
"","response","","html-keyboard-response","445","403498","0.0-1.0-608.0-0.0","0","0","91172","","340","","","75","67","","","2","67","training","adjacent","DC","4","3","M.jpg","L.jpg","0","0","1","",""
"","feedback","","html-keyboard-response","446","404500","0.0-1.0-609.0-0.0","0","0","91172","","null","","","null","67","","","","","","","","","","","","","","","",""
"","ITI","","html-keyboard-response","447","405503","0.0-1.0-612.0","0","0","91172","","null","","","null","67","","","","","","","","","","","","","","","NaN",""
"","S1","","html-keyboard-response","448","405758","0.0-1.0-614.0","0","0","91172","","null","","","null","68","","","","","","","","","","","","","","","",""
"","ISI","","html-keyboard-response","449","406760","0.0-1.0-615.0","0","0","91172","","null","","","null","68","NaN","","","","","","","","","","","","","","",""
"","S2","","html-keyboard-response","450","407012","0.0-1.0-616.0","0","0","91172","","null","","","null","68","","NaN","","","","","","","","","","","","","",""
"","response","","html-keyboard-response","451","407471","0.0-1.0-617.0-0.0","0","0","91172","","458","","","75","68","","","2","68","training","adjacent","FE","6","5","P.jpg","O.jpg","0","0","1","",""
"","feedback","","html-keyboard-response","452","408473","0.0-1.0-618.0-0.0","0","0","91172","","null","","","null","68","","","","","","","","","","","","","","","",""
"","ITI","","html-keyboard-response","453","409477","0.0-1.0-621.0","0","0","91172","","null","","","null","68","","","","","","","","","","","","","","","NaN",""
"","S1","","html-keyboard-response","454","409732","0.0-1.0-623.0","0","0","91172","","null","","","null","69","","","","","","","","","","","","","","","",""
"","ISI","","html-keyboard-response","455","410736","0.0-1.0-624.0","0","0","91172","","null","","","null","69","NaN","","","","","","","","","","","","","","",""
"","S2","","html-keyboard-response","456","410988","0.0-1.0-625.0","0","0","91172","","null","","","null","69","","NaN","","","","","","","","","","","","","",""
"","response","","html-keyboard-response","457","411666","0.0-1.0-626.0-0.0","0","0","91172","","677","","","75","69","","","2","69","training","adjacent","ED","5","4","O.jpg","M.jpg","0","0","1","",""
"","feedback","","html-keyboard-response","458","412668","0.0-1.0-627.0-0.0","0","0","91172","","null","","","null","69","","","","","","","","","","","","","","","",""
"","ITI","","html-keyboard-response","459","413670","0.0-1.0-630.0","0","0","91172","","null","","","null","69","","","","","","","","","","","","","","","NaN",""
"","S1","","html-keyboard-response","460","413922","0.0-1.0-632.0","0","0","91172","","null","","","null","70","","","","","","","","","","","","","","","",""
"","ISI","","html-keyboard-response","461","414925","0.0-1.0-633.0","0","0","91172","","null","","","null","70","NaN","","","","","","","","","","","","","","",""
"","S2","","html-keyboard-response","462","415178","0.0-1.0-634.0","0","0","91172","","null","","","null","70","","NaN","","","","","","","","","","","","","",""
"","response","","html-keyboard-response","463","415759","0.0-1.0-635.0-0.0","0","0","91172","","580","","","75","70","","","2","70","training","adjacent","CB","3","2","L.jpg","N.jpg","0","0","1","",""
"","feedback","","html-keyboard-response","464","416760","0.0-1.0-636.0-0.0","0","0","91172","","null","","","null","70","","","","","","","","","","","","","","","",""
"","ITI","","html-keyboard-response","465","417763","0.0-1.0-639.0","0","0","91172","","null","","","null","70","","","","","","","","","","","","","","","NaN",""
"","S1","","html-keyboard-response","466","418018","0.0-1.0-641.0","0","0","91172","","null","","","null","71","","","","","","","","","","","","","","","",""
"","ISI","","html-keyboard-response","467","419020","0.0-1.0-642.0","0","0","91172","","null","","","null","71","NaN","","","","","","","","","","","","","","",""
"","S2","","html-keyboard-response","468","419272","0.0-1.0-643.0","0","0","91172","","null","","","null","71","","NaN","","","","","","","","","","","","","",""
"","response","","html-keyboard-response","469","420071","0.0-1.0-644.0-0.0","0","0","91172","","798","","","68","71","","","2","71","training","adjacent","DE","4","5","M.jpg","O.jpg","1","1","1","",""
"","feedback","","html-keyboard-response","470","421073","0.0-1.0-645.0-0.0","0","0","91172","","null","","","null","71","","","","","","","","","","","","","","","",""
"","ITI","","html-keyboard-response","471","422078","0.0-1.0-648.0","0","0","91172","","null","","","null","71","","","","","","","","","","","","","","","NaN",""
"","S1","","html-keyboard-response","472","422331","0.0-1.0-650.0","0","0","91172","","null","","","null","72","","","","","","","","","","","","","","","",""
"","ISI","","html-keyboard-response","473","423335","0.0-1.0-651.0","0","0","91172","","null","","","null","72","NaN","","","","","","","","","","","","","","",""
"","S2","","html-keyboard-response","474","423588","0.0-1.0-652.0","0","0","91172","","null","","","null","72","","NaN","","","","","","","","","","","","","",""
"","response","","html-keyboard-response","475","424402","0.0-1.0-653.0-0.0","0","0","91172","","812","","","75","72","","","2","72","training","adjacent","CD","3","4","L.jpg","M.jpg","0","1","0","",""
"","feedback","","html-keyboard-response","476","425405","0.0-1.0-654.0-0.0","0","0","91172","","null","","","null","72","","","","","","","","","","","","","","","",""
"","time_out","","html-keyboard-response","477","427408","0.0-1.0-656.0-0.0","0","0","91172","","null","","","null","72","","","","","","","","","","","","","","","",""
"","ITI","","html-keyboard-response","478","428413","0.0-1.0-657.0","0","0","91172","","null","","","null","72","","","","","","","","","","","","","","","NaN",""
"","S1","","html-keyboard-response","479","428666","0.0-1.0-659.0","0","0","91172","","null","","","null","73","","","","","","","","","","","","","","","",""
"","ISI","","html-keyboard-response","480","429669","0.0-1.0-660.0","0","0","91172","","null","","","null","73","NaN","","","","","","","","","","","","","","",""
"","S2","","html-keyboard-response","481","429923","0.0-1.0-661.0","0","0","91172","","null","","","null","73","","NaN","","","","","","","","","","","","","",""
"","response","","html-keyboard-response","482","430400","0.0-1.0-662.0-0.0","0","0","91172","","475","","","68","73","","","2","73","training","adjacent","EF","5","6","O.jpg","P.jpg","1","1","1","",""
"","feedback","","html-keyboard-response","483","431402","0.0-1.0-663.0-0.0","0","0","91172","","null","","","null","73","","","","","","","","","","","","","","","",""
"","ITI","","html-keyboard-response","484","432404","0.0-1.0-666.0","0","0","91172","","null","","","null","73","","","","","","","","","","","","","","","NaN",""
"","S1","","html-keyboard-response","485","432655","0.0-1.0-668.0","0","0","91172","","null","","","null","74","","","","","","","","","","","","","","","",""
"","ISI","","html-keyboard-response","486","433657","0.0-1.0-669.0","0","0","91172","","null","","","null","74","NaN","","","","","","","","","","","","","","",""
"","S2","","html-keyboard-response","487","433909","0.0-1.0-670.0","0","0","91172","","null","","","null","74","","NaN","","","","","","","","","","","","","",""
"","response","","html-keyboard-response","488","434143","0.0-1.0-671.0-0.0","0","0","91172","","233","","","68","74","","","2","74","training","adjacent","BC","2","3","N.jpg","L.jpg","1","1","1","",""
"","feedback","","html-keyboard-response","489","435146","0.0-1.0-672.0-0.0","0","0","91172","","null","","","null","74","","","","","","","","","","","","","","","",""
"","ITI","","html-keyboard-response","490","436149","0.0-1.0-675.0","0","0","91172","","null","","","null","74","","","","","","","","","","","","","","","NaN",""
"","S1","","html-keyboard-response","491","436401","0.0-1.0-677.0","0","0","91172","","null","","","null","75","","","","","","","","","","","","","","","",""
"","ISI","","html-keyboard-response","492","437404","0.0-1.0-678.0","0","0","91172","","null","","","null","75","NaN","","","","","","","","","","","","","","",""
"","S2","","html-keyboard-response","493","437655","0.0-1.0-679.0","0","0","91172","","null","","","null","75","","NaN","","","","","","","","","","","","","",""
"","response","","html-keyboard-response","494","437904","0.0-1.0-680.0-0.0","0","0","91172","","246","","","68","75","","","2","75","training","adjacent","AB","1","2","R.jpg","N.jpg","1","1","1","",""
"","feedback","","html-keyboard-response","495","438906","0.0-1.0-681.0-0.0","0","0","91172","","null","","","null","75","","","","","","","","","","","","","","","",""
"","ITI","","html-keyboard-response","496","439908","0.0-1.0-684.0","0","0","91172","","null","","","null","75","","","","","","","","","","","","","","","NaN",""
"","S1","","html-keyboard-response","497","440160","0.0-1.0-686.0","0","0","91172","","null","","","null","76","","","","","","","","","","","","","","","",""
"","ISI","","html-keyboard-response","498","441162","0.0-1.0-687.0","0","0","91172","","null","","","null","76","NaN","","","","","","","","","","","","","","",""
"","S2","","html-keyboard-response","499","441414","0.0-1.0-688.0","0","0","91172","","null","","","null","76","","NaN","","","","","","","","","","","","","",""
"","response","","html-keyboard-response","500","441431","0.0-1.0-689.0-0.0","0","0","91172","","16","","","75","76","","","2","76","training","adjacent","GF","7","6","Q.jpg","P.jpg","0","0","1","",""
"","feedback","","html-keyboard-response","501","442435","0.0-1.0-690.0-0.0","0","0","91172","","null","","","null","76","","","","","","","","","","","","","","","",""
"","ITI","","html-keyboard-response","502","443438","0.0-1.0-693.0","0","0","91172","","null","","","null","76","","","","","","","","","","","","","","","NaN",""
"","S1","","html-keyboard-response","503","443692","0.0-1.0-695.0","0","0","91172","","null","","","null","77","","","","","","","","","","","","","","","",""
"","ISI","","html-keyboard-response","504","444696","0.0-1.0-696.0","0","0","91172","","null","","","null","77","NaN","","","","","","","","","","","","","","",""
"","S2","","html-keyboard-response","505","444951","0.0-1.0-697.0","0","0","91172","","null","","","null","77","","NaN","","","","","","","","","","","","","",""
"","response","","html-keyboard-response","506","445215","0.0-1.0-698.0-0.0","0","0","91172","","262","","","68","77","","","2","77","training","adjacent","FG","6","7","P.jpg","Q.jpg","1","1","1","",""
"","feedback","","html-keyboard-response","507","446219","0.0-1.0-699.0-0.0","0","0","91172","","null","","","null","77","","","","","","","","","","","","","","","",""
"","ITI","","html-keyboard-response","508","447223","0.0-1.0-702.0","0","0","91172","","null","","","null","77","","","","","","","","","","","","","","","NaN",""
"","S1","","html-keyboard-response","509","447475","0.0-1.0-704.0","0","0","91172","","null","","","null","78","","","","","","","","","","","","","","","",""
"","ISI","","html-keyboard-response","510","448478","0.0-1.0-705.0","0","0","91172","","null","","","null","78","NaN","","","","","","","","","","","","","","",""
"","S2","","html-keyboard-response","511","448734","0.0-1.0-706.0","0","0","91172","","null","","","null","78","","NaN","","","","","","","","","","","","","",""
"","response","","html-keyboard-response","512","449455","0.0-1.0-707.0-0.0","0","0","91172","","719","","","68","78","","","2","78","training","adjacent","DC","4","3","M.jpg","L.jpg","1","0","0","",""
"","feedback","","html-keyboard-response","513","450460","0.0-1.0-708.0-0.0","0","0","91172","","null","","","null","78","","","","","","","","","","","","","","","",""
"","time_out","","html-keyboard-response","514","452464","0.0-1.0-710.0-0.0","0","0","91172","","null","","","null","78","","","","","","","","","","","","","","","",""
"","ITI","","html-keyboard-response","515","453467","0.0-1.0-711.0","0","0","91172","","null","","","null","78","","","","","","","","","","","","","","","NaN",""
"","S1","","html-keyboard-response","516","453720","0.0-1.0-713.0","0","0","91172","","null","","","null","79","","","","","","","","","","","","","","","",""
"","ISI","","html-keyboard-response","517","454724","0.0-1.0-714.0","0","0","91172","","null","","","null","79","NaN","","","","","","","","","","","","","","",""
"","S2","","html-keyboard-response","518","454979","0.0-1.0-715.0","0","0","91172","","null","","","null","79","","NaN","","","","","","","","","","","","","",""
"","response","","html-keyboard-response","519","455208","0.0-1.0-716.0-0.0","0","0","91172","","226","","","75","79","","","2","79","training","adjacent","BA","2","1","N.jpg","R.jpg","0","0","1","",""
"","feedback","","html-keyboard-response","520","456210","0.0-1.0-717.0-0.0","0","0","91172","","null","","","null","79","","","","","","","","","","","","","","","",""
"","ITI","","html-keyboard-response","521","457212","0.0-1.0-720.0","0","0","91172","","null","","","null","79","","","","","","","","","","","","","","","NaN",""
"","S1","","html-keyboard-response","522","457467","0.0-1.0-722.0","0","0","91172","","null","","","null","80","","","","","","","","","","","","","","","",""
"","ISI","","html-keyboard-response","523","458470","0.0-1.0-723.0","0","0","91172","","null","","","null","80","NaN","","","","","","","","","","","","","","",""
"","S2","","html-keyboard-response","524","458722","0.0-1.0-724.0","0","0","91172","","null","","","null","80","","NaN","","","","","","","","","","","","","",""
"","response","","html-keyboard-response","525","458783","0.0-1.0-725.0-0.0","0","0","91172","","60","","","68","80","","","2","80","training","adjacent","AB","1","2","R.jpg","N.jpg","1","1","1","",""
"","feedback","","html-keyboard-response","526","459785","0.0-1.0-726.0-0.0","0","0","91172","","null","","","null","80","","","","","","","","","","","","","","","",""
"","ITI","","html-keyboard-response","527","460800","0.0-1.0-729.0","0","0","91172","","null","","","null","80","","","","","","","","","","","","","","","NaN",""
"","S1","","html-keyboard-response","528","461055","0.0-1.0-731.0","0","0","91172","","null","","","null","81","","","","","","","","","","","","","","","",""
"","ISI","","html-keyboard-response","529","462058","0.0-1.0-732.0","0","0","91172","","null","","","null","81","NaN","","","","","","","","","","","","","","",""
"","S2","","html-keyboard-response","530","462312","0.0-1.0-733.0","0","0","91172","","null","","","null","81","","NaN","","","","","","","","","","","","","",""
"","response","","html-keyboard-response","531","462832","0.0-1.0-734.0-0.0","0","0","91172","","519","","","75","81","","","2","81","training","adjacent","DC","4","3","M.jpg","L.jpg","0","0","1","",""
"","feedback","","html-keyboard-response","532","463837","0.0-1.0-735.0-0.0","0","0","91172","","null","","","null","81","","","","","","","","","","","","","","","",""
"","ITI","","html-keyboard-response","533","464842","0.0-1.0-738.0","0","0","91172","","null","","","null","81","","","","","","","","","","","","","","","NaN",""
"","S1","","html-keyboard-response","534","465095","0.0-1.0-740.0","0","0","91172","","null","","","null","82","","","","","","","","","","","","","","","",""
"","ISI","","html-keyboard-response","535","466097","0.0-1.0-741.0","0","0","91172","","null","","","null","82","NaN","","","","","","","","","","","","","","",""
"","S2","","html-keyboard-response","536","466349","0.0-1.0-742.0","0","0","91172","","null","","","null","82","","NaN","","","","","","","","","","","","","",""
"","response","","html-keyboard-response","537","466537","0.0-1.0-743.0-0.0","0","0","91172","","186","","","75","82","","","2","82","training","adjacent","BA","2","1","N.jpg","R.jpg","0","0","1","",""
"","feedback","","html-keyboard-response","538","467539","0.0-1.0-744.0-0.0","0","0","91172","","null","","","null","82","","","","","","","","","","","","","","","",""
"","ITI","","html-keyboard-response","539","468542","0.0-1.0-747.0","0","0","91172","","null","","","null","82","","","","","","","","","","","","","","","NaN",""
"","S1","","html-keyboard-response","540","468794","0.0-1.0-749.0","0","0","91172","","null","","","null","83","","","","","","","","","","","","","","","",""
"","ISI","","html-keyboard-response","541","469799","0.0-1.0-750.0","0","0","91172","","null","","","null","83","NaN","","","","","","","","","","","","","","",""
"","S2","","html-keyboard-response","542","470052","0.0-1.0-751.0","0","0","91172","","null","","","null","83","","NaN","","","","","","","","","","","","","",""
"","response","","html-keyboard-response","543","470480","0.0-1.0-752.0-0.0","0","0","91172","","427","","","68","83","","","2","83","training","adjacent","CD","3","4","L.jpg","M.jpg","1","1","1","",""
"","feedback","","html-keyboard-response","544","471483","0.0-1.0-753.0-0.0","0","0","91172","","null","","","null","83","","","","","","","","","","","","","","","",""
"","ITI","","html-keyboard-response","545","472486","0.0-1.0-756.0","0","0","91172","","null","","","null","83","","","","","","","","","","","","","","","NaN",""
"","S1","","html-keyboard-response","546","472740","0.0-1.0-758.0","0","0","91172","","null","","","null","84","","","","","","","","","","","","","","","",""
"","ISI","","html-keyboard-response","547","473743","0.0-1.0-759.0","0","0","91172","","null","","","null","84","NaN","","","","","","","","","","","","","","",""
"","S2","","html-keyboard-response","548","473997","0.0-1.0-760.0","0","0","91172","","null","","","null","84","","NaN","","","","","","","","","","","","","",""
"","response","","html-keyboard-response","549","474088","0.0-1.0-761.0-0.0","0","0","91172","","89","","","75","84","","","2","84","training","adjacent","GF","7","6","Q.jpg","P.jpg","0","0","1","",""
"","feedback","","html-keyboard-response","550","475092","0.0-1.0-762.0-0.0","0","0","91172","","null","","","null","84","","","","","","","","","","","","","","","",""
"","ITI","","html-keyboard-response","551","476096","0.0-1.0-765.0","0","0","91172","","null","","","null","84","","","","","","","","","","","","","","","NaN",""
"","S1","","html-keyboard-response","552","476348","0.0-1.0-767.0","0","0","91172","","null","","","null","85","","","","","","","","","","","","","","","",""
"","ISI","","html-keyboard-response","553","477356","0.0-1.0-768.0","0","0","91172","","null","","","null","85","NaN","","","","","","","","","","","","","","",""
"","S2","","html-keyboard-response","554","477618","0.0-1.0-769.0","0","0","91172","","null","","","null","85","","NaN","","","","","","","","","","","","","",""
"","response","","html-keyboard-response","555","477711","0.0-1.0-770.0-0.0","0","0","91172","","91","","","75","85","","","2","85","training","adjacent","GF","7","6","Q.jpg","P.jpg","0","0","1","",""
"","feedback","","html-keyboard-response","556","478714","0.0-1.0-771.0-0.0","0","0","91172","","null","","","null","85","","","","","","","","","","","","","","","",""
"","ITI","","html-keyboard-response","557","479720","0.0-1.0-774.0","0","0","91172","","null","","","null","85","","","","","","","","","","","","","","","NaN",""
"","S1","","html-keyboard-response","558","479972","0.0-1.0-776.0","0","0","91172","","null","","","null","86","","","","","","","","","","","","","","","",""
"","ISI","","html-keyboard-response","559","480974","0.0-1.0-777.0","0","0","91172","","null","","","null","86","NaN","","","","","","","","","","","","","","",""
"","S2","","html-keyboard-response","560","481226","0.0-1.0-778.0","0","0","91172","","null","","","null","86","","NaN","","","","","","","","","","","","","",""
"","response","","html-keyboard-response","561","481591","0.0-1.0-779.0-0.0","0","0","91172","","363","","","75","86","","","2","86","training","adjacent","FE","6","5","P.jpg","O.jpg","0","0","1","",""
"","feedback","","html-keyboard-response","562","482592","0.0-1.0-780.0-0.0","0","0","91172","","null","","","null","86","","","","","","","","","","","","","","","",""
"","ITI","","html-keyboard-response","563","483596","0.0-1.0-783.0","0","0","91172","","null","","","null","86","","","","","","","","","","","","","","","NaN",""
"","S1","","html-keyboard-response","564","483858","0.0-1.0-785.0","0","0","91172","","null","","","null","87","","","","","","","","","","","","","","","",""
"","ISI","","html-keyboard-response","565","484861","0.0-1.0-786.0","0","0","91172","","null","","","null","87","NaN","","","","","","","","","","","","","","",""
"","S2","","html-keyboard-response","566","485117","0.0-1.0-787.0","0","0","91172","","null","","","null","87","","NaN","","","","","","","","","","","","","",""
"","response","","html-keyboard-response","567","485359","0.0-1.0-788.0-0.0","0","0","91172","","240","","","68","87","","","2","87","training","adjacent","AB","1","2","R.jpg","N.jpg","1","1","1","",""
"","feedback","","html-keyboard-response","568","486362","0.0-1.0-789.0-0.0","0","0","91172","","null","","","null","87","","","","","","","","","","","","","","","",""
"","ITI","","html-keyboard-response","569","487365","0.0-1.0-792.0","0","0","91172","","null","","","null","87","","","","","","","","","","","","","","","NaN",""
"","S1","","html-keyboard-response","570","487618","0.0-1.0-794.0","0","0","91172","","null","","","null","88","","","","","","","","","","","","","","","",""
"","ISI","","html-keyboard-response","571","488620","0.0-1.0-795.0","0","0","91172","","null","","","null","88","NaN","","","","","","","","","","","","","","",""
"","S2","","html-keyboard-response","572","488872","0.0-1.0-796.0","0","0","91172","","null","","","null","88","","NaN","","","","","","","","","","","","","",""
"","response","","html-keyboard-response","573","489056","0.0-1.0-797.0-0.0","0","0","91172","","182","","","68","88","","","2","88","training","adjacent","AB","1","2","R.jpg","N.jpg","1","1","1","",""
"","feedback","","html-keyboard-response","574","490060","0.0-1.0-798.0-0.0","0","0","91172","","null","","","null","88","","","","","","","","","","","","","","","",""
"","ITI","","html-keyboard-response","575","491064","0.0-1.0-801.0","0","0","91172","","null","","","null","88","","","","","","","","","","","","","","","NaN",""
"","S1","","html-keyboard-response","576","491317","0.0-1.0-803.0","0","0","91172","","null","","","null","89","","","","","","","","","","","","","","","",""
"","ISI","","html-keyboard-response","577","492320","0.0-1.0-804.0","0","0","91172","","null","","","null","89","NaN","","","","","","","","","","","","","","",""
"","S2","","html-keyboard-response","578","492573","0.0-1.0-805.0","0","0","91172","","null","","","null","89","","NaN","","","","","","","","","","","","","",""
"","response","","html-keyboard-response","579","492832","0.0-1.0-806.0-0.0","0","0","91172","","256","","","75","89","","","2","89","training","adjacent","DE","4","5","M.jpg","O.jpg","0","1","0","",""
"","feedback","","html-keyboard-response","580","493836","0.0-1.0-807.0-0.0","0","0","91172","","null","","","null","89","","","","","","","","","","","","","","","",""
"","time_out","","html-keyboard-response","581","495839","0.0-1.0-809.0-0.0","0","0","91172","","null","","","null","89","","","","","","","","","","","","","","","",""
