"success","ttype","start_time","trial_type","trial_index","time_elapsed","internal_node_id","warning","missed_checkup","PID","view_history","rt","responses","repeat_instructions","key_press","index","keypress_isi","keypress_S2","block","trial_num","phase","group_type","pair_type","S1_stim","S2_stim","S1_img","S2_img","S1_chosen","S1_higher","accuracy","keypress_iti","total_bonus_tally"
"true","full_screen","d03032023hr1946","fullscreen","0","14635","0.0-0.0","0","0","28528","","","","","","","","","","","","","","","","","","","","","",""
"","instructions","","instructions","1","45798","0.0-1.0-0.0-0.0","0","0","28528","[{""page_index"":0,""viewing_time"":4320},{""page_index"":1,""viewing_time"":19266},{""page_index"":2,""viewing_time"":5915},{""page_index"":3,""viewing_time"":1661}]","31163","","","","","","","","","","","","","","","","","","","",""
"","comprehension_check","","survey-multi-choice","2","70915","0.0-1.0-0.0-1.0","0","0","28528","","25114","{""Q0"":""True"",""Q1"":""D"",""Q2"":""Only while the second image is shown"",""Q3"":""Green mark"",""Q4"":""either D or K""}","1","","","","","","","","","","","","","","","","","",""
"","missed_instruction_checkup","","html-keyboard-response","3","73350","0.0-1.0-0.0-2.0-0.0","0","1","28528","","2433","","","32","","","","","","","","","","","","","","","","",""
"","instructions","","instructions","4","90960","0.0-1.0-0.1-0.1","0","0","28528","[{""page_index"":0,""viewing_time"":2250},{""page_index"":1,""viewing_time"":9343},{""page_index"":2,""viewing_time"":4914},{""page_index"":3,""viewing_time"":1102}]","17609","","","","","","","","","","","","","","","","","","","",""
"","comprehension_check","","survey-multi-choice","5","101550","0.0-1.0-0.1-1.1","0","0","28528","","10588","{""Q0"":""True"",""Q1"":""D"",""Q2"":""Once the second image appears and while the screen 'MAKE A CHOICE' is shown"",""Q3"":""Green mark"",""Q4"":""either D or K""}","0","","","","","","","","","","","","","","","","","",""
"","start_exp","","html-keyboard-response","6","104134","0.0-1.0-1.0","0","0","28528","","2583","","","32","","","","","","","","","","","","","","","","",""
"","S1","","html-keyboard-response","7","104386","0.0-1.0-2.0","0","0","28528","","null","","","null","0","","","","","","","","","","","","","","","",""
"","ISI","","html-keyboard-response","8","104889","0.0-1.0-3.0","0","0","28528","","null","","","null","0","NaN","","","","","","","","","","","","","","",""
"","S2","","html-keyboard-response","9","105142","0.0-1.0-4.0","0","0","28528","","null","","","null","0","","NaN","","","","","","","","","","","","","",""
"","response","","html-keyboard-response","10","105844","0.0-1.0-5.0-0.0","0","0","28528","","701","","","68","0","","","1","0","training","adjacent","FE","6","5","O.jpg","N.jpg","1","0","0","",""
"","feedback","","html-keyboard-response","11","106846","0.0-1.0-6.0-0.0","0","0","28528","","null","","","null","0","","","","","","","","","","","","","","","",""
"","time_out","","html-keyboard-response","12","108848","0.0-1.0-8.0-0.0","0","0","28528","","null","","","null","0","","","","","","","","","","","","","","","",""
"","ITI","","html-keyboard-response","13","109850","0.0-1.0-9.0","0","0","28528","","null","","","null","0","","","","","","","","","","","","","","","NaN",""
"","S1","","html-keyboard-response","14","110102","0.0-1.0-11.0","0","0","28528","","null","","","null","1","","","","","","","","","","","","","","","",""
"","ISI","","html-keyboard-response","15","110604","0.0-1.0-12.0","0","0","28528","","null","","","null","1","NaN","","","","","","","","","","","","","","",""
"","S2","","html-keyboard-response","16","110857","0.0-1.0-13.0","0","0","28528","","null","","","null","1","","NaN","","","","","","","","","","","","","",""
"","response","","html-keyboard-response","17","111563","0.0-1.0-14.0-0.0","0","0","28528","","705","","","75","1","","","1","1","training","adjacent","BA","2","1","M.jpg","P.jpg","0","0","1","",""
"","feedback","","html-keyboard-response","18","112566","0.0-1.0-15.0-0.0","0","0","28528","","null","","","null","1","","","","","","","","","","","","","","","",""
"","ITI","","html-keyboard-response","19","113568","0.0-1.0-18.0","0","0","28528","","null","","","null","1","","","","","","","","","","","","","","","NaN",""
"","S1","","html-keyboard-response","20","113821","0.0-1.0-20.0","0","0","28528","","null","","","null","2","","","","","","","","","","","","","","","",""
"","ISI","","html-keyboard-response","21","114323","0.0-1.0-21.0","0","0","28528","","null","","","null","2","NaN","","","","","","","","","","","","","","",""
"","S2","","html-keyboard-response","22","114576","0.0-1.0-22.0","0","0","28528","","null","","","null","2","","NaN","","","","","","","","","","","","","",""
"","response","","html-keyboard-response","23","114945","0.0-1.0-23.0-0.0","0","0","28528","","368","","","68","2","","","1","2","training","adjacent","AB","1","2","P.jpg","M.jpg","1","1","1","",""
"","feedback","","html-keyboard-response","24","115947","0.0-1.0-24.0-0.0","0","0","28528","","null","","","null","2","","","","","","","","","","","","","","","",""
"","ITI","","html-keyboard-response","25","116950","0.0-1.0-27.0","0","0","28528","","null","","","null","2","","","","","","","","","","","","","","","NaN",""
"","S1","","html-keyboard-response","26","117203","0.0-1.0-29.0","0","0","28528","","null","","","null","3","","","","","","","","","","","","","","","",""
"","ISI","","html-keyboard-response","27","117705","0.0-1.0-30.0","0","0","28528","","null","","","null","3","NaN","","","","","","","","","","","","","","",""
"","S2","","html-keyboard-response","28","117957","0.0-1.0-31.0","0","0","28528","","null","","","null","3","","NaN","","","","","","","","","","","","","",""
"","response","","html-keyboard-response","29","118646","0.0-1.0-32.0-0.0","0","0","28528","","688","","","68","3","","","1","3","training","adjacent","CD","3","4","Q.jpg","R.jpg","1","1","1","",""
"","feedback","","html-keyboard-response","30","119648","0.0-1.0-33.0-0.0","0","0","28528","","null","","","null","3","","","","","","","","","","","","","","","",""
"","ITI","","html-keyboard-response","31","120650","0.0-1.0-36.0","0","0","28528","","null","","","null","3","","","","","","","","","","","","","","","NaN",""
"","S1","","html-keyboard-response","32","120902","0.0-1.0-38.0","0","0","28528","","null","","","null","4","","","","","","","","","","","","","","","",""
"","ISI","","html-keyboard-response","33","121404","0.0-1.0-39.0","0","0","28528","","null","","","null","4","NaN","","","","","","","","","","","","","","",""
"","S2","","html-keyboard-response","34","121656","0.0-1.0-40.0","0","0","28528","","null","","","null","4","","NaN","","","","","","","","","","","","","",""
"","response","","html-keyboard-response","35","122277","0.0-1.0-41.0-0.0","0","0","28528","","620","","","68","4","","","1","4","training","adjacent","DC","4","3","R.jpg","Q.jpg","1","0","0","",""
"","feedback","","html-keyboard-response","36","123280","0.0-1.0-42.0-0.0","0","0","28528","","null","","","null","4","","","","","","","","","","","","","","","",""
"","time_out","","html-keyboard-response","37","125282","0.0-1.0-44.0-0.0","0","0","28528","","null","","","null","4","","","","","","","","","","","","","","","",""
"","ITI","","html-keyboard-response","38","126284","0.0-1.0-45.0","0","0","28528","","null","","","null","4","","","","","","","","","","","","","","","NaN",""
"","S1","","html-keyboard-response","39","126536","0.0-1.0-47.0","0","0","28528","","null","","","null","5","","","","","","","","","","","","","","","",""
"","ISI","","html-keyboard-response","40","127038","0.0-1.0-48.0","0","0","28528","","null","","","null","5","NaN","","","","","","","","","","","","","","",""
"","S2","","html-keyboard-response","41","127291","0.0-1.0-49.0","0","0","28528","","null","","","null","5","","NaN","","","","","","","","","","","","","",""
"","response","","html-keyboard-response","42","127520","0.0-1.0-50.0-0.0","0","0","28528","","228","","","75","5","","","1","5","training","adjacent","EF","5","6","N.jpg","O.jpg","0","1","0","",""
"","feedback","","html-keyboard-response","43","128522","0.0-1.0-51.0-0.0","0","0","28528","","null","","","null","5","","","","","","","","","","","","","","","",""
"","time_out","","html-keyboard-response","44","130524","0.0-1.0-53.0-0.0","0","0","28528","","null","","","null","5","","","","","","","","","","","","","","","",""
"","ITI","","html-keyboard-response","45","131526","0.0-1.0-54.0","0","0","28528","","null","","","null","5","","","","","","","","","","","","","","","NaN",""
"","S1","","html-keyboard-response","46","131779","0.0-1.0-56.0","0","0","28528","","null","","","null","6","","","","","","","","","","","","","","","",""
"","ISI","","html-keyboard-response","47","132281","0.0-1.0-57.0","0","0","28528","","null","","","null","6","NaN","","","","","","","","","","","","","","",""
"","S2","","html-keyboard-response","48","132534","0.0-1.0-58.0","0","0","28528","","null","","","null","6","","NaN","","","","","","","","","","","","","",""
"","response","","html-keyboard-response","49","132889","0.0-1.0-59.0-0.0","0","0","28528","","354","","","68","6","","","1","6","training","adjacent","FG","6","7","O.jpg","L.jpg","1","1","1","",""
"","feedback","","html-keyboard-response","50","133895","0.0-1.0-60.0-0.0","0","0","28528","","null","","","null","6","","","","","","","","","","","","","","","",""
"","ITI","","html-keyboard-response","51","134897","0.0-1.0-63.0","0","0","28528","","null","","","null","6","","","","","","","","","","","","","","","NaN",""
"","S1","","html-keyboard-response","52","135150","0.0-1.0-65.0","0","0","28528","","null","","","null","7","","","","","","","","","","","","","","","",""
"","ISI","","html-keyboard-response","53","135652","0.0-1.0-66.0","0","0","28528","","null","","","null","7","NaN","","","","","","","","","","","","","","",""
"","S2","","html-keyboard-response","54","135905","0.0-1.0-67.0","0","0","28528","","null","","","null","7","","NaN","","","","","","","","","","","","","",""
"","response","","html-keyboard-response","55","136144","0.0-1.0-68.0-0.0","0","0","28528","","238","","","68","7","","","1","7","training","adjacent","AB","1","2","P.jpg","M.jpg","1","1","1","",""
"","feedback","","html-keyboard-response","56","137146","0.0-1.0-69.0-0.0","0","0","28528","","null","","","null","7","","","","","","","","","","","","","","","",""
"","ITI","","html-keyboard-response","57","138148","0.0-1.0-72.0","0","0","28528","","null","","","null","7","","","","","","","","","","","","","","","NaN",""
"","S1","","html-keyboard-response","58","138402","0.0-1.0-74.0","0","0","28528","","null","","","null","8","","","","","","","","","","","","","","","",""
"","ISI","","html-keyboard-response","59","138905","0.0-1.0-75.0","0","0","28528","","null","","","null","8","NaN","","","","","","","","","","","","","","",""
"","S2","","html-keyboard-response","60","139157","0.0-1.0-76.0","0","0","28528","","null","","","null","8","","NaN","","","","","","","","","","","","","",""
"","response","","html-keyboard-response","61","139677","0.0-1.0-77.0-0.0","0","0","28528","","518","","","68","8","","","1","8","training","adjacent","BC","2","3","M.jpg","Q.jpg","1","1","1","",""
"","feedback","","html-keyboard-response","62","140680","0.0-1.0-78.0-0.0","0","0","28528","","null","","","null","8","","","","","","","","","","","","","","","",""
"","ITI","","html-keyboard-response","63","141683","0.0-1.0-81.0","0","0","28528","","null","","","null","8","","","","","","","","","","","","","","","NaN",""
"","S1","","html-keyboard-response","64","141935","0.0-1.0-83.0","0","0","28528","","null","","","null","9","","","","","","","","","","","","","","","",""
"","ISI","","html-keyboard-response","65","142437","0.0-1.0-84.0","0","0","28528","","null","","","null","9","NaN","","","","","","","","","","","","","","",""
"","S2","","html-keyboard-response","66","142690","0.0-1.0-85.0","0","0","28528","","null","","","null","9","","NaN","","","","","","","","","","","","","",""
"","response","","html-keyboard-response","67","143147","0.0-1.0-86.0-0.0","0","0","28528","","455","","","75","9","","","1","9","training","adjacent","DC","4","3","R.jpg","Q.jpg","0","0","1","",""
"","feedback","","html-keyboard-response","68","144149","0.0-1.0-87.0-0.0","0","0","28528","","null","","","null","9","","","","","","","","","","","","","","","",""
"","ITI","","html-keyboard-response","69","145157","0.0-1.0-90.0","0","0","28528","","null","","","null","9","","","","","","","","","","","","","","","NaN",""
"","S1","","html-keyboard-response","70","145409","0.0-1.0-92.0","0","0","28528","","null","","","null","10","","","","","","","","","","","","","","","",""
"","ISI","","html-keyboard-response","71","145911","0.0-1.0-93.0","0","0","28528","","null","","","null","10","NaN","","","","","","","","","","","","","","",""
"","S2","","html-keyboard-response","72","146164","0.0-1.0-94.0","0","0","28528","","null","","","null","10","","NaN","","","","","","","","","","","","","",""
"","response","","html-keyboard-response","73","146618","0.0-1.0-95.0-0.0","0","0","28528","","452","","","68","10","","","1","10","training","adjacent","BC","2","3","M.jpg","Q.jpg","1","1","1","",""
"","feedback","","html-keyboard-response","74","147620","0.0-1.0-96.0-0.0","0","0","28528","","null","","","null","10","","","","","","","","","","","","","","","",""
"","ITI","","html-keyboard-response","75","148622","0.0-1.0-99.0","0","0","28528","","null","","","null","10","","","","","","","","","","","","","","","NaN",""
"","S1","","html-keyboard-response","76","148874","0.0-1.0-101.0","0","0","28528","","null","","","null","11","","","","","","","","","","","","","","","",""
"","ISI","","html-keyboard-response","77","149376","0.0-1.0-102.0","0","0","28528","","null","","","null","11","NaN","","","","","","","","","","","","","","",""
"","S2","","html-keyboard-response","78","149628","0.0-1.0-103.0","0","0","28528","","null","","","null","11","","NaN","","","","","","","","","","","","","",""
"","response","","html-keyboard-response","79","150310","0.0-1.0-104.0-0.0","0","0","28528","","680","","","68","11","","","1","11","training","adjacent","CD","3","4","Q.jpg","R.jpg","1","1","1","",""
"","feedback","","html-keyboard-response","80","151312","0.0-1.0-105.0-0.0","0","0","28528","","null","","","null","11","","","","","","","","","","","","","","","",""
"","ITI","","html-keyboard-response","81","152314","0.0-1.0-108.0","0","0","28528","","null","","","null","11","","","","","","","","","","","","","","","NaN",""
"","S1","","html-keyboard-response","82","152566","0.0-1.0-110.0","0","0","28528","","null","","","null","12","","","","","","","","","","","","","","","",""
"","ISI","","html-keyboard-response","83","153068","0.0-1.0-111.0","0","0","28528","","null","","","null","12","NaN","","","","","","","","","","","","","","",""
"","S2","","html-keyboard-response","84","153321","0.0-1.0-112.0","0","0","28528","","null","","","null","12","","NaN","","","","","","","","","","","","","",""
"","response","","html-keyboard-response","85","154055","0.0-1.0-113.0-0.0","0","0","28528","","733","","","75","12","","","1","12","training","adjacent","FG","6","7","O.jpg","L.jpg","0","1","0","",""
"","feedback","","html-keyboard-response","86","155056","0.0-1.0-114.0-0.0","0","0","28528","","null","","","null","12","","","","","","","","","","","","","","","",""
"","time_out","","html-keyboard-response","87","157058","0.0-1.0-116.0-0.0","0","0","28528","","null","","","null","12","","","","","","","","","","","","","","","",""
"","ITI","","html-keyboard-response","88","158061","0.0-1.0-117.0","0","0","28528","","null","","","null","12","","","","","","","","","","","","","","","NaN",""
"","S1","","html-keyboard-response","89","158313","0.0-1.0-119.0","0","0","28528","","null","","","null","13","","","","","","","","","","","","","","","",""
"","ISI","","html-keyboard-response","90","158815","0.0-1.0-120.0","0","0","28528","","null","","","null","13","NaN","","","","","","","","","","","","","","",""
"","S2","","html-keyboard-response","91","159068","0.0-1.0-121.0","0","0","28528","","null","","","null","13","","NaN","","","","","","","","","","","","","",""
"","response","","html-keyboard-response","92","159283","0.0-1.0-122.0-0.0","0","0","28528","","214","","","75","13","","","1","13","training","adjacent","FG","6","7","O.jpg","L.jpg","0","1","0","",""
"","feedback","","html-keyboard-response","93","160298","0.0-1.0-123.0-0.0","0","0","28528","","null","","","null","13","","","","","","","","","","","","","","","",""
"","time_out","","html-keyboard-response","94","162300","0.0-1.0-125.0-0.0","0","0","28528","","null","","","null","13","","","","","","","","","","","","","","","",""
"","ITI","","html-keyboard-response","95","163303","0.0-1.0-126.0","0","0","28528","","null","","","null","13","","","","","","","","","","","","","","","NaN",""
"","S1","","html-keyboard-response","96","163555","0.0-1.0-128.0","0","0","28528","","null","","","null","14","","","","","","","","","","","","","","","",""
"","ISI","","html-keyboard-response","97","164057","0.0-1.0-129.0","0","0","28528","","null","","","null","14","NaN","","","","","","","","","","","","","","",""
"","S2","","html-keyboard-response","98","164310","0.0-1.0-130.0","0","0","28528","","null","","","null","14","","NaN","","","","","","","","","","","","","",""
"","response","","html-keyboard-response","99","164602","0.0-1.0-131.0-0.0","0","0","28528","","290","","","75","14","","","1","14","training","adjacent","DE","4","5","R.jpg","N.jpg","0","1","0","",""
"","feedback","","html-keyboard-response","100","165604","0.0-1.0-132.0-0.0","0","0","28528","","null","","","null","14","","","","","","","","","","","","","","","",""
"","time_out","","html-keyboard-response","101","167607","0.0-1.0-134.0-0.0","0","0","28528","","null","","","null","14","","","","","","","","","","","","","","","",""
"","ITI","","html-keyboard-response","102","168609","0.0-1.0-135.0","0","0","28528","","null","","","null","14","","","","","","","","","","","","","","","NaN",""
"","S1","","html-keyboard-response","103","168862","0.0-1.0-137.0","0","0","28528","","null","","","null","15","","","","","","","","","","","","","","","",""
"","ISI","","html-keyboard-response","104","169363","0.0-1.0-138.0","0","0","28528","","null","","","null","15","NaN","","","","","","","","","","","","","","",""
"","S2","","html-keyboard-response","105","169615","0.0-1.0-139.0","0","0","28528","","null","","","null","15","","NaN","","","","","","","","","","","","","",""
"","response","","html-keyboard-response","106","170170","0.0-1.0-140.0-0.0","0","0","28528","","553","","","75","15","","","1","15","training","adjacent","DC","4","3","R.jpg","Q.jpg","0","0","1","",""
"","feedback","","html-keyboard-response","107","171173","0.0-1.0-141.0-0.0","0","0","28528","","null","","","null","15","","","","","","","","","","","","","","","",""
"","ITI","","html-keyboard-response","108","172175","0.0-1.0-144.0","0","0","28528","","null","","","null","15","","","","","","","","","","","","","","","NaN",""
"","S1","","html-keyboard-response","109","172427","0.0-1.0-146.0","0","0","28528","","null","","","null","16","","","","","","","","","","","","","","","",""
"","ISI","","html-keyboard-response","110","172929","0.0-1.0-147.0","0","0","28528","","null","","","null","16","NaN","","","","","","","","","","","","","","",""
"","S2","","html-keyboard-response","111","173181","0.0-1.0-148.0","0","0","28528","","null","","","null","16","","NaN","","","","","","","","","","","","","",""
"","response","","html-keyboard-response","112","173455","0.0-1.0-149.0-0.0","0","0","28528","","272","","","75","16","","","1","16","training","adjacent","DC","4","3","R.jpg","Q.jpg","0","0","1","",""
"","feedback","","html-keyboard-response","113","174457","0.0-1.0-150.0-0.0","0","0","28528","","null","","","null","16","","","","","","","","","","","","","","","",""
"","ITI","","html-keyboard-response","114","175460","0.0-1.0-153.0","0","0","28528","","null","","","null","16","","","","","","","","","","","","","","","NaN",""
"","S1","","html-keyboard-response","115","175712","0.0-1.0-155.0","0","0","28528","","null","","","null","17","","","","","","","","","","","","","","","",""
"","ISI","","html-keyboard-response","116","176214","0.0-1.0-156.0","0","0","28528","","null","","","null","17","NaN","","","","","","","","","","","","","","",""
"","S2","","html-keyboard-response","117","176467","0.0-1.0-157.0","0","0","28528","","null","","","null","17","","NaN","","","","","","","","","","","","","",""
"","response","","html-keyboard-response","118","177020","0.0-1.0-158.0-0.0","0","0","28528","","552","","","75","17","","","1","17","training","adjacent","BA","2","1","M.jpg","P.jpg","0","0","1","",""
"","feedback","","html-keyboard-response","119","178023","0.0-1.0-159.0-0.0","0","0","28528","","null","","","null","17","","","","","","","","","","","","","","","",""
"","ITI","","html-keyboard-response","120","179025","0.0-1.0-162.0","0","0","28528","","null","","","null","17","","","","","","","","","","","","","","","NaN",""
"","S1","","html-keyboard-response","121","179276","0.0-1.0-164.0","0","0","28528","","null","","","null","18","","","","","","","","","","","","","","","",""
"","ISI","","html-keyboard-response","122","179779","0.0-1.0-165.0","0","0","28528","","null","","","null","18","NaN","","","","","","","","","","","","","","",""
"","S2","","html-keyboard-response","123","180032","0.0-1.0-166.0","0","0","28528","","null","","","null","18","","NaN","","","","","","","","","","","","","",""
"","response","","html-keyboard-response","124","180309","0.0-1.0-167.0-0.0","0","0","28528","","276","","","68","18","","","1","18","training","adjacent","FE","6","5","O.jpg","N.jpg","1","0","0","",""
"","feedback","","html-keyboard-response","125","181317","0.0-1.0-168.0-0.0","0","0","28528","","null","","","null","18","","","","","","","","","","","","","","","",""
"","time_out","","html-keyboard-response","126","183331","0.0-1.0-170.0-0.0","0","0","28528","","null","","","null","18","","","","","","","","","","","","","","","",""
"","ITI","","html-keyboard-response","127","184333","0.0-1.0-171.0","0","0","28528","","null","","","null","18","","","","","","","","","","","","","","","NaN",""
"","S1","","html-keyboard-response","128","184586","0.0-1.0-173.0","0","0","28528","","null","","","null","19","","","","","","","","","","","","","","","",""
"","ISI","","html-keyboard-response","129","185088","0.0-1.0-174.0","0","0","28528","","null","","","null","19","NaN","","","","","","","","","","","","","","",""
"","S2","","html-keyboard-response","130","185341","0.0-1.0-175.0","0","0","28528","","null","","","null","19","","NaN","","","","","","","","","","","","","",""
"","response","","html-keyboard-response","131","186029","0.0-1.0-176.0-0.0","0","0","28528","","687","","","68","19","","","1","19","training","adjacent","BC","2","3","M.jpg","Q.jpg","1","1","1","",""
"","feedback","","html-keyboard-response","132","187031","0.0-1.0-177.0-0.0","0","0","28528","","null","","","null","19","","","","","","","","","","","","","","","",""
"","ITI","","html-keyboard-response","133","188033","0.0-1.0-180.0","0","0","28528","","null","","","null","19","","","","","","","","","","","","","","","NaN",""
"","S1","","html-keyboard-response","134","188285","0.0-1.0-182.0","0","0","28528","","null","","","null","20","","","","","","","","","","","","","","","",""
"","ISI","","html-keyboard-response","135","188787","0.0-1.0-183.0","0","0","28528","","null","","","null","20","NaN","","","","","","","","","","","","","","",""
"","S2","","html-keyboard-response","136","189040","0.0-1.0-184.0","0","0","28528","","null","","","null","20","","NaN","","","","","","","","","","","","","",""
"","response","","html-keyboard-response","137","189812","0.0-1.0-185.0-0.0","0","0","28528","","771","","","68","20","","","1","20","training","adjacent","ED","5","4","N.jpg","R.jpg","1","0","0","",""
"","feedback","","html-keyboard-response","138","190814","0.0-1.0-186.0-0.0","0","0","28528","","null","","","null","20","","","","","","","","","","","","","","","",""
"","time_out","","html-keyboard-response","139","192816","0.0-1.0-188.0-0.0","0","0","28528","","null","","","null","20","","","","","","","","","","","","","","","",""
"","ITI","","html-keyboard-response","140","193817","0.0-1.0-189.0","0","0","28528","","null","","","null","20","","","","","","","","","","","","","","","NaN",""
"","S1","","html-keyboard-response","141","194071","0.0-1.0-191.0","0","0","28528","","null","","","null","21","","","","","","","","","","","","","","","",""
"","ISI","","html-keyboard-response","142","194573","0.0-1.0-192.0","0","0","28528","","null","","","null","21","NaN","","","","","","","","","","","","","","",""
"","S2","","html-keyboard-response","143","194826","0.0-1.0-193.0","0","0","28528","","null","","","null","21","","NaN","","","","","","","","","","","","","",""
"","response","","html-keyboard-response","144","195360","0.0-1.0-194.0-0.0","0","0","28528","","532","","","75","21","","","1","21","training","adjacent","CB","3","2","Q.jpg","M.jpg","0","0","1","",""
"","feedback","","html-keyboard-response","145","196362","0.0-1.0-195.0-0.0","0","0","28528","","null","","","null","21","","","","","","","","","","","","","","","",""
"","ITI","","html-keyboard-response","146","197364","0.0-1.0-198.0","0","0","28528","","null","","","null","21","","","","","","","","","","","","","","","NaN",""
"","S1","","html-keyboard-response","147","197617","0.0-1.0-200.0","0","0","28528","","null","","","null","22","","","","","","","","","","","","","","","",""
"","ISI","","html-keyboard-response","148","198119","0.0-1.0-201.0","0","0","28528","","null","","","null","22","NaN","","","","","","","","","","","","","","",""
"","S2","","html-keyboard-response","149","198358","0.0-1.0-202.0","0","0","28528","","237","","","68","22","","d","1","22","training","adjacent","AB","1","2","P.jpg","M.jpg","1","1","1","",""
"","feedback","","html-keyboard-response","150","199361","0.0-1.0-204.0-0.0","0","0","28528","","null","","","null","22","","","","","","","","","","","","","","","",""
"","ITI","","html-keyboard-response","151","200364","0.0-1.0-207.0","0","0","28528","","null","","","null","22","","","","","","","","","","","","","","","NaN",""
"","S1","","html-keyboard-response","152","200616","0.0-1.0-209.0","0","0","28528","","null","","","null","23","","","","","","","","","","","","","","","",""
"","ISI","","html-keyboard-response","153","201119","0.0-1.0-210.0","0","0","28528","","null","","","null","23","NaN","","","","","","","","","","","","","","",""
"","S2","","html-keyboard-response","154","201371","0.0-1.0-211.0","0","0","28528","","null","","","null","23","","NaN","","","","","","","","","","","","","",""
"","response","","html-keyboard-response","155","201613","0.0-1.0-212.0-0.0","0","0","28528","","242","","","68","23","","","1","23","training","adjacent","ED","5","4","N.jpg","R.jpg","1","0","0","",""
"","feedback","","html-keyboard-response","156","202616","0.0-1.0-213.0-0.0","0","0","28528","","null","","","null","23","","","","","","","","","","","","","","","",""
"","time_out","","html-keyboard-response","157","204618","0.0-1.0-215.0-0.0","0","0","28528","","null","","","null","23","","","","","","","","","","","","","","","",""
"","ITI","","html-keyboard-response","158","205620","0.0-1.0-216.0","0","0","28528","","null","","","null","23","","","","","","","","","","","","","","","NaN",""
"","S1","","html-keyboard-response","159","205872","0.0-1.0-218.0","0","0","28528","","null","","","null","24","","","","","","","","","","","","","","","",""
"","ISI","","html-keyboard-response","160","206374","0.0-1.0-219.0","0","0","28528","","null","","","null","24","NaN","","","","","","","","","","","","","","",""
"","S2","","html-keyboard-response","161","206626","0.0-1.0-220.0","0","0","28528","","null","","","null","24","","NaN","","","","","","","","","","","","","",""
"","response","","html-keyboard-response","162","206853","0.0-1.0-221.0-0.0","0","0","28528","","226","","","68","24","","","1","24","training","adjacent","CD","3","4","Q.jpg","R.jpg","1","1","1","",""
"","feedback","","html-keyboard-response","163","207855","0.0-1.0-222.0-0.0","0","0","28528","","null","","","null","24","","","","","","","","","","","","","","","",""
"","ITI","","html-keyboard-response","164","208857","0.0-1.0-225.0","0","0","28528","","null","","","null","24","","","","","","","","","","","","","","","NaN",""
"","S1","","html-keyboard-response","165","209111","0.0-1.0-227.0","0","0","28528","","null","","","null","25","","","","","","","","","","","","","","","",""
"","ISI","","html-keyboard-response","166","209613","0.0-1.0-228.0","0","0","28528","","null","","","null","25","NaN","","","","","","","","","","","","","","",""
"","S2","","html-keyboard-response","167","209866","0.0-1.0-229.0","0","0","28528","","null","","","null","25","","NaN","","","","","","","","","","","","","",""
"","response","","html-keyboard-response","168","210130","0.0-1.0-230.0-0.0","0","0","28528","","263","","","68","25","","","1","25","training","adjacent","DE","4","5","R.jpg","N.jpg","1","1","1","",""
"","feedback","","html-keyboard-response","169","211133","0.0-1.0-231.0-0.0","0","0","28528","","null","","","null","25","","","","","","","","","","","","","","","",""
"","ITI","","html-keyboard-response","170","212136","0.0-1.0-234.0","0","0","28528","","null","","","null","25","","","","","","","","","","","","","","","NaN",""
"","S1","","html-keyboard-response","171","212388","0.0-1.0-236.0","0","0","28528","","null","","","null","26","","","","","","","","","","","","","","","",""
"","ISI","","html-keyboard-response","172","212891","0.0-1.0-237.0","0","0","28528","","null","","","null","26","NaN","","","","","","","","","","","","","","",""
"","S2","","html-keyboard-response","173","213144","0.0-1.0-238.0","0","0","28528","","null","","","null","26","","NaN","","","","","","","","","","","","","",""
"","response","","html-keyboard-response","174","213310","0.0-1.0-239.0-0.0","0","0","28528","","165","","","75","26","","","1","26","training","adjacent","BC","2","3","M.jpg","Q.jpg","0","1","0","",""
"","feedback","","html-keyboard-response","175","214313","0.0-1.0-240.0-0.0","0","0","28528","","null","","","null","26","","","","","","","","","","","","","","","",""
"","time_out","","html-keyboard-response","176","216315","0.0-1.0-242.0-0.0","0","0","28528","","null","","","null","26","","","","","","","","","","","","","","","",""
"","ITI","","html-keyboard-response","177","217316","0.0-1.0-243.0","0","0","28528","","null","","","null","26","","","","","","","","","","","","","","","NaN",""
"","S1","","html-keyboard-response","178","217569","0.0-1.0-245.0","0","0","28528","","null","","","null","27","","","","","","","","","","","","","","","",""
"","ISI","","html-keyboard-response","179","218071","0.0-1.0-246.0","0","0","28528","","null","","","null","27","NaN","","","","","","","","","","","","","","",""
"","S2","","html-keyboard-response","180","218324","0.0-1.0-247.0","0","0","28528","","null","","","null","27","","NaN","","","","","","","","","","","","","",""
"","response","","html-keyboard-response","181","218504","0.0-1.0-248.0-0.0","0","0","28528","","179","","","68","27","","","1","27","training","adjacent","AB","1","2","P.jpg","M.jpg","1","1","1","",""
"","feedback","","html-keyboard-response","182","219506","0.0-1.0-249.0-0.0","0","0","28528","","null","","","null","27","","","","","","","","","","","","","","","",""
"","ITI","","html-keyboard-response","183","220509","0.0-1.0-252.0","0","0","28528","","null","","","null","27","","","","","","","","","","","","","","","NaN",""
"","S1","","html-keyboard-response","184","220760","0.0-1.0-254.0","0","0","28528","","null","","","null","28","","","","","","","","","","","","","","","",""
"","ISI","","html-keyboard-response","185","221262","0.0-1.0-255.0","0","0","28528","","null","","","null","28","NaN","","","","","","","","","","","","","","",""
"","S2","","html-keyboard-response","186","221515","0.0-1.0-256.0","0","0","28528","","null","","","null","28","","NaN","","","","","","","","","","","","","",""
"","response","","html-keyboard-response","187","221937","0.0-1.0-257.0-0.0","0","0","28528","","421","","","75","28","","","1","28","training","adjacent","ED","5","4","N.jpg","R.jpg","0","0","1","",""
"","feedback","","html-keyboard-response","188","222939","0.0-1.0-258.0-0.0","0","0","28528","","null","","","null","28","","","","","","","","","","","","","","","",""
"","ITI","","html-keyboard-response","189","223941","0.0-1.0-261.0","0","0","28528","","null","","","null","28","","","","","","","","","","","","","","","NaN",""
"","S1","","html-keyboard-response","190","224193","0.0-1.0-263.0","0","0","28528","","null","","","null","29","","","","","","","","","","","","","","","",""
"","ISI","","html-keyboard-response","191","224695","0.0-1.0-264.0","0","0","28528","","null","","","null","29","NaN","","","","","","","","","","","","","","",""
"","S2","","html-keyboard-response","192","224947","0.0-1.0-265.0","0","0","28528","","null","","","null","29","","NaN","","","","","","","","","","","","","",""
"","response","","html-keyboard-response","193","225202","0.0-1.0-266.0-0.0","0","0","28528","","253","","","75","29","","","1","29","training","adjacent","CD","3","4","Q.jpg","R.jpg","0","1","0","",""
"","feedback","","html-keyboard-response","194","226204","0.0-1.0-267.0-0.0","0","0","28528","","null","","","null","29","","","","","","","","","","","","","","","",""
"","time_out","","html-keyboard-response","195","228206","0.0-1.0-269.0-0.0","0","0","28528","","null","","","null","29","","","","","","","","","","","","","","","",""
"","ITI","","html-keyboard-response","196","229208","0.0-1.0-270.0","0","0","28528","","null","","","null","29","","","","","","","","","","","","","","","NaN",""
"","S1","","html-keyboard-response","197","229461","0.0-1.0-272.0","0","0","28528","","null","","","null","30","","","","","","","","","","","","","","","",""
"","ISI","","html-keyboard-response","198","229963","0.0-1.0-273.0","0","0","28528","","null","","","null","30","NaN","","","","","","","","","","","","","","",""
"","S2","","html-keyboard-response","199","230216","0.0-1.0-274.0","0","0","28528","","null","","","null","30","","NaN","","","","","","","","","","","","","",""
"","response","","html-keyboard-response","200","230571","0.0-1.0-275.0-0.0","0","0","28528","","354","","","68","30","","","1","30","training","adjacent","FG","6","7","O.jpg","L.jpg","1","1","1","",""
"","feedback","","html-keyboard-response","201","231573","0.0-1.0-276.0-0.0","0","0","28528","","null","","","null","30","","","","","","","","","","","","","","","",""
"","ITI","","html-keyboard-response","202","232575","0.0-1.0-279.0","0","0","28528","","null","","","null","30","","","","","","","","","","","","","","","NaN",""
"","S1","","html-keyboard-response","203","232827","0.0-1.0-281.0","0","0","28528","","null","","","null","31","","","","","","","","","","","","","","","",""
"","ISI","","html-keyboard-response","204","233329","0.0-1.0-282.0","0","0","28528","","null","","","null","31","NaN","","","","","","","","","","","","","","",""
"","S2","","html-keyboard-response","205","233581","0.0-1.0-283.0","0","0","28528","","null","","","null","31","","NaN","","","","","","","","","","","","","",""
"","response","","html-keyboard-response","206","233889","0.0-1.0-284.0-0.0","0","0","28528","","307","","","75","31","","","1","31","training","adjacent","CB","3","2","Q.jpg","M.jpg","0","0","1","",""
"","feedback","","html-keyboard-response","207","234892","0.0-1.0-285.0-0.0","0","0","28528","","null","","","null","31","","","","","","","","","","","","","","","",""
"","ITI","","html-keyboard-response","208","235893","0.0-1.0-288.0","0","0","28528","","null","","","null","31","","","","","","","","","","","","","","","NaN",""
"","S1","","html-keyboard-response","209","236146","0.0-1.0-290.0","0","0","28528","","null","","","null","32","","","","","","","","","","","","","","","",""
"","ISI","","html-keyboard-response","210","236647","0.0-1.0-291.0","0","0","28528","","null","","","null","32","NaN","","","","","","","","","","","","","","",""
"","S2","","html-keyboard-response","211","236900","0.0-1.0-292.0","0","0","28528","","null","","","null","32","","NaN","","","","","","","","","","","","","",""
"","response","","html-keyboard-response","212","237169","0.0-1.0-293.0-0.0","0","0","28528","","267","","","68","32","","","1","32","training","adjacent","DE","4","5","R.jpg","N.jpg","1","1","1","",""
"","feedback","","html-keyboard-response","213","238180","0.0-1.0-294.0-0.0","0","0","28528","","null","","","null","32","","","","","","","","","","","","","","","",""
"","ITI","","html-keyboard-response","214","239183","0.0-1.0-297.0","0","0","28528","","null","","","null","32","","","","","","","","","","","","","","","NaN",""
"","S1","","html-keyboard-response","215","239436","0.0-1.0-299.0","0","0","28528","","null","","","null","33","","","","","","","","","","","","","","","",""
"","ISI","","html-keyboard-response","216","239938","0.0-1.0-300.0","0","0","28528","","null","","","null","33","NaN","","","","","","","","","","","","","","",""
"","S2","","html-keyboard-response","217","240191","0.0-1.0-301.0","0","0","28528","","null","","","null","33","","NaN","","","","","","","","","","","","","",""
"","response","","html-keyboard-response","218","240457","0.0-1.0-302.0-0.0","0","0","28528","","265","","","75","33","","","1","33","training","adjacent","GF","7","6","L.jpg","O.jpg","0","0","1","",""
"","feedback","","html-keyboard-response","219","241459","0.0-1.0-303.0-0.0","0","0","28528","","null","","","null","33","","","","","","","","","","","","","","","",""
"","ITI","","html-keyboard-response","220","242462","0.0-1.0-306.0","0","0","28528","","null","","","null","33","","","","","","","","","","","","","","","NaN",""
"","S1","","html-keyboard-response","221","242714","0.0-1.0-308.0","0","0","28528","","null","","","null","34","","","","","","","","","","","","","","","",""
"","ISI","","html-keyboard-response","222","243216","0.0-1.0-309.0","0","0","28528","","null","","","null","34","NaN","","","","","","","","","","","","","","",""
"","S2","","html-keyboard-response","223","243469","0.0-1.0-310.0","0","0","28528","","null","","","null","34","","NaN","","","","","","","","","","","","","",""
"","response","","html-keyboard-response","224","243837","0.0-1.0-311.0-0.0","0","0","28528","","367","","","75","34","","","1","34","training","adjacent","EF","5","6","N.jpg","O.jpg","0","1","0","",""
"","feedback","","html-keyboard-response","225","244839","0.0-1.0-312.0-0.0","0","0","28528","","null","","","null","34","","","","","","","","","","","","","","","",""
"","time_out","","html-keyboard-response","226","246841","0.0-1.0-314.0-0.0","0","0","28528","","null","","","null","34","","","","","","","","","","","","","","","",""
"","ITI","","html-keyboard-response","227","247843","0.0-1.0-315.0","0","0","28528","","null","","","null","34","","","","","","","","","","","","","","","NaN",""
"","S1","","html-keyboard-response","228","248096","0.0-1.0-317.0","0","0","28528","","null","","","null","35","","","","","","","","","","","","","","","",""
"","ISI","","html-keyboard-response","229","248598","0.0-1.0-318.0","0","0","28528","","null","","","null","35","NaN","","","","","","","","","","","","","","",""
"","S2","","html-keyboard-response","230","248851","0.0-1.0-319.0","0","0","28528","","null","","","null","35","","NaN","","","","","","","","","","","","","",""
"","response","","html-keyboard-response","231","249882","0.0-1.0-320.0-0.0","0","0","28528","","1030","","","75","35","","","1","35","training","adjacent","FE","6","5","O.jpg","N.jpg","0","0","1","",""
"","feedback","","html-keyboard-response","232","250884","0.0-1.0-321.0-0.0","0","0","28528","","null","","","null","35","","","","","","","","","","","","","","","",""
"","ITI","","html-keyboard-response","233","251887","0.0-1.0-324.0","0","0","28528","","null","","","null","35","","","","","","","","","","","","","","","NaN",""
"","S1","","html-keyboard-response","234","252139","0.0-1.0-326.0","0","0","28528","","null","","","null","36","","","","","","","","","","","","","","","",""
"","ISI","","html-keyboard-response","235","252641","0.0-1.0-327.0","0","0","28528","","null","","","null","36","NaN","","","","","","","","","","","","","","",""
"","S2","","html-keyboard-response","236","252894","0.0-1.0-328.0","0","0","28528","","null","","","null","36","","NaN","","","","","","","","","","","","","",""
"","response","","html-keyboard-response","237","253255","0.0-1.0-329.0-0.0","0","0","28528","","360","","","75","36","","","1","36","training","adjacent","BA","2","1","M.jpg","P.jpg","0","0","1","",""
"","feedback","","html-keyboard-response","238","254257","0.0-1.0-330.0-0.0","0","0","28528","","null","","","null","36","","","","","","","","","","","","","","","",""
"","ITI","","html-keyboard-response","239","255260","0.0-1.0-333.0","0","0","28528","","null","","","null","36","","","","","","","","","","","","","","","NaN",""
"","S1","","html-keyboard-response","240","255512","0.0-1.0-335.0","0","0","28528","","null","","","null","37","","","","","","","","","","","","","","","",""
"","ISI","","html-keyboard-response","241","256014","0.0-1.0-336.0","0","0","28528","","null","","","null","37","NaN","","","","","","","","","","","","","","",""
"","S2","","html-keyboard-response","242","256266","0.0-1.0-337.0","0","0","28528","","null","","","null","37","","NaN","","","","","","","","","","","","","",""
"","response","","html-keyboard-response","243","256761","0.0-1.0-338.0-0.0","0","0","28528","","493","","","68","37","","","1","37","training","adjacent","EF","5","6","N.jpg","O.jpg","1","1","1","",""
"","feedback","","html-keyboard-response","244","257763","0.0-1.0-339.0-0.0","0","0","28528","","null","","","null","37","","","","","","","","","","","","","","","",""
"","ITI","","html-keyboard-response","245","258764","0.0-1.0-342.0","0","0","28528","","null","","","null","37","","","","","","","","","","","","","","","NaN",""
"","S1","","html-keyboard-response","246","259017","0.0-1.0-344.0","0","0","28528","","null","","","null","38","","","","","","","","","","","","","","","",""
"","ISI","","html-keyboard-response","247","259518","0.0-1.0-345.0","0","0","28528","","null","","","null","38","NaN","","","","","","","","","","","","","","",""
"","S2","","html-keyboard-response","248","259771","0.0-1.0-346.0","0","0","28528","","null","","","null","38","","NaN","","","","","","","","","","","","","",""
"","response","","html-keyboard-response","249","260497","0.0-1.0-347.0-0.0","0","0","28528","","725","","","68","38","","","1","38","training","adjacent","EF","5","6","N.jpg","O.jpg","1","1","1","",""
"","feedback","","html-keyboard-response","250","261500","0.0-1.0-348.0-0.0","0","0","28528","","null","","","null","38","","","","","","","","","","","","","","","",""
"","ITI","","html-keyboard-response","251","262503","0.0-1.0-351.0","0","0","28528","","null","","","null","38","","","","","","","","","","","","","","","NaN",""
"","S1","","html-keyboard-response","252","262755","0.0-1.0-353.0","0","0","28528","","null","","","null","39","","","","","","","","","","","","","","","",""
"","ISI","","html-keyboard-response","253","263257","0.0-1.0-354.0","0","0","28528","","null","","","null","39","NaN","","","","","","","","","","","","","","",""
"","S2","","html-keyboard-response","254","263510","0.0-1.0-355.0","0","0","28528","","null","","","null","39","","NaN","","","","","","","","","","","","","",""
"","response","","html-keyboard-response","255","263917","0.0-1.0-356.0-0.0","0","0","28528","","406","","","68","39","","","1","39","training","adjacent","DE","4","5","R.jpg","N.jpg","1","1","1","",""
"","feedback","","html-keyboard-response","256","264920","0.0-1.0-357.0-0.0","0","0","28528","","null","","","null","39","","","","","","","","","","","","","","","",""
"","ITI","","html-keyboard-response","257","265922","0.0-1.0-360.0","0","0","28528","","null","","","null","39","","","","","","","","","","","","","","","NaN",""
"","S1","","html-keyboard-response","258","266175","0.0-1.0-362.0","0","0","28528","","null","","","null","40","","","","","","","","","","","","","","","",""
"","ISI","","html-keyboard-response","259","266677","0.0-1.0-363.0","0","0","28528","","null","","","null","40","NaN","","","","","","","","","","","","","","",""
"","S2","","html-keyboard-response","260","266929","0.0-1.0-364.0","0","0","28528","","null","","","null","40","","NaN","","","","","","","","","","","","","",""
"","response","","html-keyboard-response","261","267302","0.0-1.0-365.0-0.0","0","0","28528","","372","","","75","40","","","1","40","training","adjacent","CB","3","2","Q.jpg","M.jpg","0","0","1","",""
"","feedback","","html-keyboard-response","262","268304","0.0-1.0-366.0-0.0","0","0","28528","","null","","","null","40","","","","","","","","","","","","","","","",""
"","ITI","","html-keyboard-response","263","269307","0.0-1.0-369.0","0","0","28528","","null","","","null","40","","","","","","","","","","","","","","","NaN",""
"","S1","","html-keyboard-response","264","269574","0.0-1.0-371.0","0","0","28528","","null","","","null","41","","","","","","","","","","","","","","","",""
"","ISI","","html-keyboard-response","265","270076","0.0-1.0-372.0","0","0","28528","","null","","","null","41","NaN","","","","","","","","","","","","","","",""
"","S2","","html-keyboard-response","266","270329","0.0-1.0-373.0","0","0","28528","","null","","","null","41","","NaN","","","","","","","","","","","","","",""
"","response","","html-keyboard-response","267","270644","0.0-1.0-374.0-0.0","0","0","28528","","314","","","68","41","","","1","41","training","adjacent","FE","6","5","O.jpg","N.jpg","1","0","0","",""
"","feedback","","html-keyboard-response","268","271646","0.0-1.0-375.0-0.0","0","0","28528","","null","","","null","41","","","","","","","","","","","","","","","",""
"","time_out","","html-keyboard-response","269","273648","0.0-1.0-377.0-0.0","0","0","28528","","null","","","null","41","","","","","","","","","","","","","","","",""
"","ITI","","html-keyboard-response","270","274650","0.0-1.0-378.0","0","0","28528","","null","","","null","41","","","","","","","","","","","","","","","NaN",""
"","S1","","html-keyboard-response","271","274903","0.0-1.0-380.0","0","0","28528","","null","","","null","42","","","","","","","","","","","","","","","",""
"","ISI","","html-keyboard-response","272","275404","0.0-1.0-381.0","0","0","28528","","null","","","null","42","NaN","","","","","","","","","","","","","","",""
"","S2","","html-keyboard-response","273","275657","0.0-1.0-382.0","0","0","28528","","null","","","null","42","","NaN","","","","","","","","","","","","","",""
"","response","","html-keyboard-response","274","276004","0.0-1.0-383.0-0.0","0","0","28528","","346","","","75","42","","","1","42","training","adjacent","CB","3","2","Q.jpg","M.jpg","0","0","1","",""
"","feedback","","html-keyboard-response","275","277006","0.0-1.0-384.0-0.0","0","0","28528","","null","","","null","42","","","","","","","","","","","","","","","",""
"","ITI","","html-keyboard-response","276","278009","0.0-1.0-387.0","0","0","28528","","null","","","null","42","","","","","","","","","","","","","","","NaN",""
"","S1","","html-keyboard-response","277","278261","0.0-1.0-389.0","0","0","28528","","null","","","null","43","","","","","","","","","","","","","","","",""
"","ISI","","html-keyboard-response","278","278763","0.0-1.0-390.0","0","0","28528","","null","","","null","43","NaN","","","","","","","","","","","","","","",""
"","S2","","html-keyboard-response","279","278957","0.0-1.0-391.0","0","0","28528","","193","","","68","43","","d","1","43","training","adjacent","BA","2","1","M.jpg","P.jpg","1","0","0","",""
"","feedback","","html-keyboard-response","280","279959","0.0-1.0-393.0-0.0","0","0","28528","","null","","","null","43","","","","","","","","","","","","","","","",""
"","time_out","","html-keyboard-response","281","281961","0.0-1.0-395.0-0.0","0","0","28528","","null","","","null","43","","","","","","","","","","","","","","","",""
"","ITI","","html-keyboard-response","282","282962","0.0-1.0-396.0","0","0","28528","","null","","","null","43","","","","","","","","","","","","","","","NaN",""
"","S1","","html-keyboard-response","283","283214","0.0-1.0-398.0","0","0","28528","","null","","","null","44","","","","","","","","","","","","","","","",""
"","ISI","","html-keyboard-response","284","283717","0.0-1.0-399.0","0","0","28528","","null","","","null","44","NaN","","","","","","","","","","","","","","",""
"","S2","","html-keyboard-response","285","283969","0.0-1.0-400.0","0","0","28528","","null","","","null","44","","NaN","","","","","","","","","","","","","",""
"","response","","html-keyboard-response","286","284161","0.0-1.0-401.0-0.0","0","0","28528","","191","","","75","44","","","1","44","training","adjacent","GF","7","6","L.jpg","O.jpg","0","0","1","",""
"","feedback","","html-keyboard-response","287","285163","0.0-1.0-402.0-0.0","0","0","28528","","null","","","null","44","","","","","","","","","","","","","","","",""
"","ITI","","html-keyboard-response","288","286165","0.0-1.0-405.0","0","0","28528","","null","","","null","44","","","","","","","","","","","","","","","NaN",""
"","S1","","html-keyboard-response","289","286417","0.0-1.0-407.0","0","0","28528","","null","","","null","45","","","","","","","","","","","","","","","",""
"","ISI","","html-keyboard-response","290","286928","0.0-1.0-408.0","0","0","28528","","null","","","null","45","NaN","","","","","","","","","","","","","","",""
"","S2","","html-keyboard-response","291","287181","0.0-1.0-409.0","0","0","28528","","null","","","null","45","","NaN","","","","","","","","","","","","","",""
"","response","","html-keyboard-response","292","287328","0.0-1.0-410.0-0.0","0","0","28528","","145","","","75","45","","","1","45","training","adjacent","GF","7","6","L.jpg","O.jpg","0","0","1","",""
"","feedback","","html-keyboard-response","293","288331","0.0-1.0-411.0-0.0","0","0","28528","","null","","","null","45","","","","","","","","","","","","","","","",""
"","ITI","","html-keyboard-response","294","289333","0.0-1.0-414.0","0","0","28528","","null","","","null","45","","","","","","","","","","","","","","","NaN",""
"","S1","","html-keyboard-response","295","289585","0.0-1.0-416.0","0","0","28528","","null","","","null","46","","","","","","","","","","","","","","","",""
"","ISI","","html-keyboard-response","296","290087","0.0-1.0-417.0","0","0","28528","","null","","","null","46","NaN","","","","","","","","","","","","","","",""
"","S2","","html-keyboard-response","297","290339","0.0-1.0-418.0","0","0","28528","","null","","","null","46","","NaN","","","","","","","","","","","","","",""
"","response","","html-keyboard-response","298","290627","0.0-1.0-419.0-0.0","0","0","28528","","287","","","68","46","","","1","46","training","adjacent","ED","5","4","N.jpg","R.jpg","1","0","0","",""
"","feedback","","html-keyboard-response","299","291629","0.0-1.0-420.0-0.0","0","0","28528","","null","","","null","46","","","","","","","","","","","","","","","",""
"","time_out","","html-keyboard-response","300","293631","0.0-1.0-422.0-0.0","0","0","28528","","null","","","null","46","","","","","","","","","","","","","","","",""
"","ITI","","html-keyboard-response","301","294632","0.0-1.0-423.0","0","0","28528","","null","","","null","46","","","","","","","","","","","","","","","NaN",""
"","S1","","html-keyboard-response","302","294885","0.0-1.0-425.0","0","0","28528","","null","","","null","47","","","","","","","","","","","","","","","",""
"","ISI","","html-keyboard-response","303","295387","0.0-1.0-426.0","0","0","28528","","null","","","null","47","NaN","","","","","","","","","","","","","","",""
"","S2","","html-keyboard-response","304","295641","0.0-1.0-427.0","0","0","28528","","null","","","null","47","","NaN","","","","","","","","","","","","","",""
"","response","","html-keyboard-response","305","295660","0.0-1.0-428.0-0.0","0","0","28528","","18","","","75","47","","","1","47","training","adjacent","GF","7","6","L.jpg","O.jpg","0","0","1","",""
"","feedback","","html-keyboard-response","306","296663","0.0-1.0-429.0-0.0","0","0","28528","","null","","","null","47","","","","","","","","","","","","","","","",""
"","ITI","","html-keyboard-response","307","297665","0.0-1.0-432.0","0","0","28528","","null","","","null","47","","","","","","","","","","","","","","","NaN",""
"","block_over","","html-keyboard-response","308","329619","0.0-1.0-433.0-0.0","0","0","28528","","31952","","","32","47","","","","","","","","","","","","","","","",""
"","S1","","html-keyboard-response","309","329871","0.0-1.0-434.0","0","0","28528","","null","","","null","48","","","","","","","","","","","","","","","",""
"","ISI","","html-keyboard-response","310","330374","0.0-1.0-435.0","0","0","28528","","null","","","null","48","NaN","","","","","","","","","","","","","","",""
"","S2","","html-keyboard-response","311","330626","0.0-1.0-436.0","0","0","28528","","null","","","null","48","","NaN","","","","","","","","","","","","","",""
"","response","","html-keyboard-response","312","331241","0.0-1.0-437.0-0.0","0","0","28528","","613","","","75","48","","","2","48","training","adjacent","ED","5","4","N.jpg","R.jpg","0","0","1","",""
"","feedback","","html-keyboard-response","313","332243","0.0-1.0-438.0-0.0","0","0","28528","","null","","","null","48","","","","","","","","","","","","","","","",""
"","ITI","","html-keyboard-response","314","333245","0.0-1.0-441.0","0","0","28528","","null","","","null","48","","","","","","","","","","","","","","","NaN",""
"","S1","","html-keyboard-response","315","333497","0.0-1.0-443.0","0","0","28528","","null","","","null","49","","","","","","","","","","","","","","","",""
"","ISI","","html-keyboard-response","316","334000","0.0-1.0-444.0","0","0","28528","","null","","","null","49","NaN","","","","","","","","","","","","","","",""
"","S2","","html-keyboard-response","317","334252","0.0-1.0-445.0","0","0","28528","","null","","","null","49","","NaN","","","","","","","","","","","","","",""
"","response","","html-keyboard-response","318","334710","0.0-1.0-446.0-0.0","0","0","28528","","457","","","68","49","","","2","49","training","adjacent","AB","1","2","P.jpg","M.jpg","1","1","1","",""
"","feedback","","html-keyboard-response","319","335713","0.0-1.0-447.0-0.0","0","0","28528","","null","","","null","49","","","","","","","","","","","","","","","",""
"","ITI","","html-keyboard-response","320","336715","0.0-1.0-450.0","0","0","28528","","null","","","null","49","","","","","","","","","","","","","","","NaN",""
"","S1","","html-keyboard-response","321","336968","0.0-1.0-452.0","0","0","28528","","null","","","null","50","","","","","","","","","","","","","","","",""
"","ISI","","html-keyboard-response","322","337480","0.0-1.0-453.0","0","0","28528","","null","","","null","50","NaN","","","","","","","","","","","","","","",""
"","S2","","html-keyboard-response","323","337733","0.0-1.0-454.0","0","0","28528","","null","","","null","50","","NaN","","","","","","","","","","","","","",""
"","response","","html-keyboard-response","324","338029","0.0-1.0-455.0-0.0","0","0","28528","","294","","","75","50","","","2","50","training","adjacent","CB","3","2","Q.jpg","M.jpg","0","0","1","",""
"","feedback","","html-keyboard-response","325","339031","0.0-1.0-456.0-0.0","0","0","28528","","null","","","null","50","","","","","","","","","","","","","","","",""
"","ITI","","html-keyboard-response","326","340033","0.0-1.0-459.0","0","0","28528","","null","","","null","50","","","","","","","","","","","","","","","NaN",""
"","S1","","html-keyboard-response","327","340285","0.0-1.0-461.0","0","0","28528","","null","","","null","51","","","","","","","","","","","","","","","",""
"","ISI","","html-keyboard-response","328","340802","0.0-1.0-462.0","0","0","28528","","null","","","null","51","NaN","","","","","","","","","","","","","","",""
"","S2","","html-keyboard-response","329","341055","0.0-1.0-463.0","0","0","28528","","null","","","null","51","","NaN","","","","","","","","","","","","","",""
"","response","","html-keyboard-response","330","341467","0.0-1.0-464.0-0.0","0","0","28528","","411","","","68","51","","","2","51","training","adjacent","FG","6","7","O.jpg","L.jpg","1","1","1","",""
"","feedback","","html-keyboard-response","331","342469","0.0-1.0-465.0-0.0","0","0","28528","","null","","","null","51","","","","","","","","","","","","","","","",""
"","ITI","","html-keyboard-response","332","343472","0.0-1.0-468.0","0","0","28528","","null","","","null","51","","","","","","","","","","","","","","","NaN",""
"","S1","","html-keyboard-response","333","343724","0.0-1.0-470.0","0","0","28528","","null","","","null","52","","","","","","","","","","","","","","","",""
"","ISI","","html-keyboard-response","334","344226","0.0-1.0-471.0","0","0","28528","","null","","","null","52","NaN","","","","","","","","","","","","","","",""
"","S2","","html-keyboard-response","335","344478","0.0-1.0-472.0","0","0","28528","","null","","","null","52","","NaN","","","","","","","","","","","","","",""
"","response","","html-keyboard-response","336","344713","0.0-1.0-473.0-0.0","0","0","28528","","235","","","68","52","","","2","52","training","adjacent","BC","2","3","M.jpg","Q.jpg","1","1","1","",""
"","feedback","","html-keyboard-response","337","345716","0.0-1.0-474.0-0.0","0","0","28528","","null","","","null","52","","","","","","","","","","","","","","","",""
"","ITI","","html-keyboard-response","338","346718","0.0-1.0-477.0","0","0","28528","","null","","","null","52","","","","","","","","","","","","","","","NaN",""
"","S1","","html-keyboard-response","339","346971","0.0-1.0-479.0","0","0","28528","","null","","","null","53","","","","","","","","","","","","","","","",""
"","ISI","","html-keyboard-response","340","347473","0.0-1.0-480.0","0","0","28528","","null","","","null","53","NaN","","","","","","","","","","","","","","",""
"","S2","","html-keyboard-response","341","347725","0.0-1.0-481.0","0","0","28528","","null","","","null","53","","NaN","","","","","","","","","","","","","",""
"","response","","html-keyboard-response","342","348168","0.0-1.0-482.0-0.0","0","0","28528","","441","","","68","53","","","2","53","training","adjacent","FE","6","5","O.jpg","N.jpg","1","0","0","",""
"","feedback","","html-keyboard-response","343","349170","0.0-1.0-483.0-0.0","0","0","28528","","null","","","null","53","","","","","","","","","","","","","","","",""
"","time_out","","html-keyboard-response","344","351172","0.0-1.0-485.0-0.0","0","0","28528","","null","","","null","53","","","","","","","","","","","","","","","",""
"","ITI","","html-keyboard-response","345","352175","0.0-1.0-486.0","0","0","28528","","null","","","null","53","","","","","","","","","","","","","","","NaN",""
"","S1","","html-keyboard-response","346","352427","0.0-1.0-488.0","0","0","28528","","null","","","null","54","","","","","","","","","","","","","","","",""
"","ISI","","html-keyboard-response","347","352929","0.0-1.0-489.0","0","0","28528","","null","","","null","54","NaN","","","","","","","","","","","","","","",""
"","S2","","html-keyboard-response","348","353182","0.0-1.0-490.0","0","0","28528","","null","","","null","54","","NaN","","","","","","","","","","","","","",""
"","response","","html-keyboard-response","349","353503","0.0-1.0-491.0-0.0","0","0","28528","","320","","","75","54","","","2","54","training","adjacent","ED","5","4","N.jpg","R.jpg","0","0","1","",""
"","feedback","","html-keyboard-response","350","354505","0.0-1.0-492.0-0.0","0","0","28528","","null","","","null","54","","","","","","","","","","","","","","","",""
"","ITI","","html-keyboard-response","351","355508","0.0-1.0-495.0","0","0","28528","","null","","","null","54","","","","","","","","","","","","","","","NaN",""
"","S1","","html-keyboard-response","352","355760","0.0-1.0-497.0","0","0","28528","","null","","","null","55","","","","","","","","","","","","","","","",""
"","ISI","","html-keyboard-response","353","356263","0.0-1.0-498.0","0","0","28528","","null","","","null","55","NaN","","","","","","","","","","","","","","",""
"","S2","","html-keyboard-response","354","356516","0.0-1.0-499.0","0","0","28528","","null","","","null","55","","NaN","","","","","","","","","","","","","",""
"","response","","html-keyboard-response","355","356915","0.0-1.0-500.0-0.0","0","0","28528","","399","","","75","55","","","2","55","training","adjacent","FE","6","5","O.jpg","N.jpg","0","0","1","",""
"","feedback","","html-keyboard-response","356","357917","0.0-1.0-501.0-0.0","0","0","28528","","null","","","null","55","","","","","","","","","","","","","","","",""
"","ITI","","html-keyboard-response","357","358920","0.0-1.0-504.0","0","0","28528","","null","","","null","55","","","","","","","","","","","","","","","NaN",""
"","S1","","html-keyboard-response","358","359172","0.0-1.0-506.0","0","0","28528","","null","","","null","56","","","","","","","","","","","","","","","",""
"","ISI","","html-keyboard-response","359","359674","0.0-1.0-507.0","0","0","28528","","null","","","null","56","NaN","","","","","","","","","","","","","","",""
"","S2","","html-keyboard-response","360","359926","0.0-1.0-508.0","0","0","28528","","null","","","null","56","","NaN","","","","","","","","","","","","","",""
"","response","","html-keyboard-response","361","360124","0.0-1.0-509.0-0.0","0","0","28528","","196","","","68","56","","","2","56","training","adjacent","BA","2","1","M.jpg","P.jpg","1","0","0","",""
"","feedback","","html-keyboard-response","362","361126","0.0-1.0-510.0-0.0","0","0","28528","","null","","","null","56","","","","","","","","","","","","","","","",""
"","time_out","","html-keyboard-response","363","363128","0.0-1.0-512.0-0.0","0","0","28528","","null","","","null","56","","","","","","","","","","","","","","","",""
"","ITI","","html-keyboard-response","364","364130","0.0-1.0-513.0","0","0","28528","","null","","","null","56","","","","","","","","","","","","","","","NaN",""
"","S1","","html-keyboard-response","365","364383","0.0-1.0-515.0","0","0","28528","","null","","","null","57","","","","","","","","","","","","","","","",""
"","ISI","","html-keyboard-response","366","364885","0.0-1.0-516.0","0","0","28528","","null","","","null","57","NaN","","","","","","","","","","","","","","",""
"","S2","","html-keyboard-response","367","365138","0.0-1.0-517.0","0","0","28528","","null","","","null","57","","NaN","","","","","","","","","","","","","",""
"","response","","html-keyboard-response","368","365494","0.0-1.0-518.0-0.0","0","0","28528","","354","","","68","57","","","2","57","training","adjacent","BC","2","3","M.jpg","Q.jpg","1","1","1","",""
"","feedback","","html-keyboard-response","369","366496","0.0-1.0-519.0-0.0","0","0","28528","","null","","","null","57","","","","","","","","","","","","","","","",""
"","ITI","","html-keyboard-response","370","367498","0.0-1.0-522.0","0","0","28528","","null","","","null","57","","","","","","","","","","","","","","","NaN",""
"","S1","","html-keyboard-response","371","367751","0.0-1.0-524.0","0","0","28528","","null","","","null","58","","","","","","","","","","","","","","","",""
"","ISI","","html-keyboard-response","372","368253","0.0-1.0-525.0","0","0","28528","","null","","","null","58","NaN","","","","","","","","","","","","","","",""
"","S2","","html-keyboard-response","373","368505","0.0-1.0-526.0","0","0","28528","","null","","","null","58","","NaN","","","","","","","","","","","","","",""
"","response","","html-keyboard-response","374","368766","0.0-1.0-527.0-0.0","0","0","28528","","259","","","75","58","","","2","58","training","adjacent","CD","3","4","Q.jpg","R.jpg","0","1","0","",""
"","feedback","","html-keyboard-response","375","369768","0.0-1.0-528.0-0.0","0","0","28528","","null","","","null","58","","","","","","","","","","","","","","","",""
"","time_out","","html-keyboard-response","376","371770","0.0-1.0-530.0-0.0","0","0","28528","","null","","","null","58","","","","","","","","","","","","","","","",""
"","ITI","","html-keyboard-response","377","372772","0.0-1.0-531.0","0","0","28528","","null","","","null","58","","","","","","","","","","","","","","","NaN",""
"","S1","","html-keyboard-response","378","373025","0.0-1.0-533.0","0","0","28528","","null","","","null","59","","","","","","","","","","","","","","","",""
"","ISI","","html-keyboard-response","379","373527","0.0-1.0-534.0","0","0","28528","","null","","","null","59","NaN","","","","","","","","","","","","","","",""
"","S2","","html-keyboard-response","380","373747","0.0-1.0-535.0","0","0","28528","","219","","","75","59","","k","2","59","training","adjacent","GF","7","6","L.jpg","O.jpg","0","0","1","",""
"","feedback","","html-keyboard-response","381","374750","0.0-1.0-537.0-0.0","0","0","28528","","null","","","null","59","","","","","","","","","","","","","","","",""
"","ITI","","html-keyboard-response","382","375753","0.0-1.0-540.0","0","0","28528","","null","","","null","59","","","","","","","","","","","","","","","NaN",""
"","S1","","html-keyboard-response","383","376005","0.0-1.0-542.0","0","0","28528","","null","","","null","60","","","","","","","","","","","","","","","",""
"","ISI","","html-keyboard-response","384","376507","0.0-1.0-543.0","0","0","28528","","null","","","null","60","NaN","","","","","","","","","","","","","","",""
"","S2","","html-keyboard-response","385","376768","0.0-1.0-544.0","0","0","28528","","null","","","null","60","","NaN","","","","","","","","","","","","","",""
"","response","","html-keyboard-response","386","377196","0.0-1.0-545.0-0.0","0","0","28528","","427","","","68","60","","","2","60","training","adjacent","FE","6","5","O.jpg","N.jpg","1","0","0","",""
"","feedback","","html-keyboard-response","387","378198","0.0-1.0-546.0-0.0","0","0","28528","","null","","","null","60","","","","","","","","","","","","","","","",""
"","time_out","","html-keyboard-response","388","380201","0.0-1.0-548.0-0.0","0","0","28528","","null","","","null","60","","","","","","","","","","","","","","","",""
"","ITI","","html-keyboard-response","389","381203","0.0-1.0-549.0","0","0","28528","","null","","","null","60","","","","","","","","","","","","","","","NaN",""
"","S1","","html-keyboard-response","390","381456","0.0-1.0-551.0","0","0","28528","","null","","","null","61","","","","","","","","","","","","","","","",""
"","ISI","","html-keyboard-response","391","381958","0.0-1.0-552.0","0","0","28528","","null","","","null","61","NaN","","","","","","","","","","","","","","",""
"","S2","","html-keyboard-response","392","382220","0.0-1.0-553.0","0","0","28528","","null","","","null","61","","NaN","","","","","","","","","","","","","",""
"","response","","html-keyboard-response","393","382370","0.0-1.0-554.0-0.0","0","0","28528","","149","","","68","61","","","2","61","training","adjacent","BA","2","1","M.jpg","P.jpg","1","0","0","",""
"","feedback","","html-keyboard-response","394","383372","0.0-1.0-555.0-0.0","0","0","28528","","null","","","null","61","","","","","","","","","","","","","","","",""
"","time_out","","html-keyboard-response","395","385374","0.0-1.0-557.0-0.0","0","0","28528","","null","","","null","61","","","","","","","","","","","","","","","",""
"","ITI","","html-keyboard-response","396","386376","0.0-1.0-558.0","0","0","28528","","null","","","null","61","","","","","","","","","","","","","","","NaN",""
"","S1","","html-keyboard-response","397","386627","0.0-1.0-560.0","0","0","28528","","null","","","null","62","","","","","","","","","","","","","","","",""
"","ISI","","html-keyboard-response","398","387130","0.0-1.0-561.0","0","0","28528","","null","","","null","62","NaN","","","","","","","","","","","","","","",""
"","S2","","html-keyboard-response","399","387352","0.0-1.0-562.0","0","0","28528","","220","","","75","62","","k","2","62","training","adjacent","GF","7","6","L.jpg","O.jpg","0","0","1","",""
"","feedback","","html-keyboard-response","400","388354","0.0-1.0-564.0-0.0","0","0","28528","","null","","","null","62","","","","","","","","","","","","","","","",""
"","ITI","","html-keyboard-response","401","389355","0.0-1.0-567.0","0","0","28528","","null","","","null","62","","","","","","","","","","","","","","","NaN",""
"","S1","","html-keyboard-response","402","389607","0.0-1.0-569.0","0","0","28528","","null","","","null","63","","","","","","","","","","","","","","","",""
"","ISI","","html-keyboard-response","403","390121","0.0-1.0-570.0","0","0","28528","","null","","","null","63","NaN","","","","","","","","","","","","","","",""
"","S2","","html-keyboard-response","404","390373","0.0-1.0-571.0","0","0","28528","","null","","","null","63","","NaN","","","","","","","","","","","","","",""
"","response","","html-keyboard-response","405","390657","0.0-1.0-572.0-0.0","0","0","28528","","283","","","75","63","","","2","63","training","adjacent","AB","1","2","P.jpg","M.jpg","0","1","0","",""
"","feedback","","html-keyboard-response","406","391659","0.0-1.0-573.0-0.0","0","0","28528","","null","","","null","63","","","","","","","","","","","","","","","",""
"","time_out","","html-keyboard-response","407","393662","0.0-1.0-575.0-0.0","0","0","28528","","null","","","null","63","","","","","","","","","","","","","","","",""
"","ITI","","html-keyboard-response","408","394664","0.0-1.0-576.0","0","0","28528","","null","","","null","63","","","","","","","","","","","","","","","NaN",""
"","S1","","html-keyboard-response","409","394916","0.0-1.0-578.0","0","0","28528","","null","","","null","64","","","","","","","","","","","","","","","",""
"","ISI","","html-keyboard-response","410","395418","0.0-1.0-579.0","0","0","28528","","null","","","null","64","NaN","","","","","","","","","","","","","","",""
"","S2","","html-keyboard-response","411","395670","0.0-1.0-580.0","0","0","28528","","null","","","null","64","","NaN","","","","","","","","","","","","","",""
"","response","","html-keyboard-response","412","395875","0.0-1.0-581.0-0.0","0","0","28528","","204","","","68","64","","","2","64","training","adjacent","BC","2","3","M.jpg","Q.jpg","1","1","1","",""
"","feedback","","html-keyboard-response","413","396878","0.0-1.0-582.0-0.0","0","0","28528","","null","","","null","64","","","","","","","","","","","","","","","",""
"","ITI","","html-keyboard-response","414","397880","0.0-1.0-585.0","0","0","28528","","null","","","null","64","","","","","","","","","","","","","","","NaN",""
"","S1","","html-keyboard-response","415","398133","0.0-1.0-587.0","0","0","28528","","null","","","null","65","","","","","","","","","","","","","","","",""
"","ISI","","html-keyboard-response","416","398635","0.0-1.0-588.0","0","0","28528","","null","","","null","65","NaN","","","","","","","","","","","","","","",""
"","S2","","html-keyboard-response","417","398887","0.0-1.0-589.0","0","0","28528","","null","","","null","65","","NaN","","","","","","","","","","","","","",""
"","response","","html-keyboard-response","418","399190","0.0-1.0-590.0-0.0","0","0","28528","","301","","","75","65","","","2","65","training","adjacent","CD","3","4","Q.jpg","R.jpg","0","1","0","",""
"","feedback","","html-keyboard-response","419","400193","0.0-1.0-591.0-0.0","0","0","28528","","null","","","null","65","","","","","","","","","","","","","","","",""
"","time_out","","html-keyboard-response","420","402196","0.0-1.0-593.0-0.0","0","0","28528","","null","","","null","65","","","","","","","","","","","","","","","",""
"","ITI","","html-keyboard-response","421","403197","0.0-1.0-594.0","0","0","28528","","null","","","null","65","","","","","","","","","","","","","","","NaN",""
"","S1","","html-keyboard-response","422","403456","0.0-1.0-596.0","0","0","28528","","null","","","null","66","","","","","","","","","","","","","","","",""
"","ISI","","html-keyboard-response","423","403959","0.0-1.0-597.0","0","0","28528","","null","","","null","66","NaN","","","","","","","","","","","","","","",""
"","S2","","html-keyboard-response","424","404211","0.0-1.0-598.0","0","0","28528","","null","","","null","66","","NaN","","","","","","","","","","","","","",""
"","response","","html-keyboard-response","425","404460","0.0-1.0-599.0-0.0","0","0","28528","","247","","","75","66","","","2","66","training","adjacent","EF","5","6","N.jpg","O.jpg","0","1","0","",""
"","feedback","","html-keyboard-response","426","405462","0.0-1.0-600.0-0.0","0","0","28528","","null","","","null","66","","","","","","","","","","","","","","","",""
"","time_out","","html-keyboard-response","427","407463","0.0-1.0-602.0-0.0","0","0","28528","","null","","","null","66","","","","","","","","","","","","","","","",""
"","ITI","","html-keyboard-response","428","408466","0.0-1.0-603.0","0","0","28528","","null","","","null","66","","","","","","","","","","","","","","","NaN",""
"","S1","","html-keyboard-response","429","408718","0.0-1.0-605.0","0","0","28528","","null","","","null","67","","","","","","","","","","","","","","","",""
"","ISI","","html-keyboard-response","430","409220","0.0-1.0-606.0","0","0","28528","","null","","","null","67","NaN","","","","","","","","","","","","","","",""
"","S2","","html-keyboard-response","431","409479","0.0-1.0-607.0","0","0","28528","","null","","","null","67","","NaN","","","","","","","","","","","","","",""
"","response","","html-keyboard-response","432","409765","0.0-1.0-608.0-0.0","0","0","28528","","285","","","68","67","","","2","67","training","adjacent","FG","6","7","O.jpg","L.jpg","1","1","1","",""
"","feedback","","html-keyboard-response","433","410768","0.0-1.0-609.0-0.0","0","0","28528","","null","","","null","67","","","","","","","","","","","","","","","",""
"","ITI","","html-keyboard-response","434","411771","0.0-1.0-612.0","0","0","28528","","null","","","null","67","","","","","","","","","","","","","","","NaN",""
"","S1","","html-keyboard-response","435","412023","0.0-1.0-614.0","0","0","28528","","null","","","null","68","","","","","","","","","","","","","","","",""
"","ISI","","html-keyboard-response","436","412525","0.0-1.0-615.0","0","0","28528","","null","","","null","68","NaN","","","","","","","","","","","","","","",""
"","S2","","html-keyboard-response","437","412733","0.0-1.0-616.0","0","0","28528","","206","","","75","68","","k","2","68","training","adjacent","GF","7","6","L.jpg","O.jpg","0","0","1","",""
"","feedback","","html-keyboard-response","438","413737","0.0-1.0-618.0-0.0","0","0","28528","","null","","","null","68","","","","","","","","","","","","","","","",""
"","ITI","","html-keyboard-response","439","414738","0.0-1.0-621.0","0","0","28528","","null","","","null","68","","","","","","","","","","","","","","","NaN",""
"","S1","","html-keyboard-response","440","414991","0.0-1.0-623.0","0","0","28528","","null","","","null","69","","","","","","","","","","","","","","","",""
"","ISI","","html-keyboard-response","441","415497","0.0-1.0-624.0","0","0","28528","","null","","","null","69","NaN","","","","","","","","","","","","","","",""
"","S2","","html-keyboard-response","442","415750","0.0-1.0-625.0","0","0","28528","","null","","","null","69","","NaN","","","","","","","","","","","","","",""
"","response","","html-keyboard-response","443","415889","0.0-1.0-626.0-0.0","0","0","28528","","137","","","68","69","","","2","69","training","adjacent","BA","2","1","M.jpg","P.jpg","1","0","0","",""
"","feedback","","html-keyboard-response","444","416894","0.0-1.0-627.0-0.0","0","0","28528","","null","","","null","69","","","","","","","","","","","","","","","",""
"","time_out","","html-keyboard-response","445","418896","0.0-1.0-629.0-0.0","0","0","28528","","null","","","null","69","","","","","","","","","","","","","","","",""
"","ITI","","html-keyboard-response","446","419898","0.0-1.0-630.0","0","0","28528","","null","","","null","69","","","","","","","","","","","","","","","NaN",""
"","S1","","html-keyboard-response","447","420152","0.0-1.0-632.0","0","0","28528","","null","","","null","70","","","","","","","","","","","","","","","",""
"","ISI","","html-keyboard-response","448","420654","0.0-1.0-633.0","0","0","28528","","null","","","null","70","NaN","","","","","","","","","","","","","","",""
"","S2","","html-keyboard-response","449","420906","0.0-1.0-634.0","0","0","28528","","null","","","null","70","","NaN","","","","","","","","","","","","","",""
"","response","","html-keyboard-response","450","421111","0.0-1.0-635.0-0.0","0","0","28528","","204","","","75","70","","","2","70","training","adjacent","CB","3","2","Q.jpg","M.jpg","0","0","1","",""
"","feedback","","html-keyboard-response","451","422114","0.0-1.0-636.0-0.0","0","0","28528","","null","","","null","70","","","","","","","","","","","","","","","",""
"","ITI","","html-keyboard-response","452","423116","0.0-1.0-639.0","0","0","28528","","null","","","null","70","","","","","","","","","","","","","","","NaN",""
"","S1","","html-keyboard-response","453","423368","0.0-1.0-641.0","0","0","28528","","null","","","null","71","","","","","","","","","","","","","","","",""
"","ISI","","html-keyboard-response","454","423877","0.0-1.0-642.0","0","0","28528","","null","","","null","71","NaN","","","","","","","","","","","","","","",""
"","S2","","html-keyboard-response","455","424130","0.0-1.0-643.0","0","0","28528","","null","","","null","71","","NaN","","","","","","","","","","","","","",""
"","response","","html-keyboard-response","456","424329","0.0-1.0-644.0-0.0","0","0","28528","","197","","","68","71","","","2","71","training","adjacent","BC","2","3","M.jpg","Q.jpg","1","1","1","",""
"","feedback","","html-keyboard-response","457","425332","0.0-1.0-645.0-0.0","0","0","28528","","null","","","null","71","","","","","","","","","","","","","","","",""
"","ITI","","html-keyboard-response","458","426334","0.0-1.0-648.0","0","0","28528","","null","","","null","71","","","","","","","","","","","","","","","NaN",""
"","S1","","html-keyboard-response","459","426586","0.0-1.0-650.0","0","0","28528","","null","","","null","72","","","","","","","","","","","","","","","",""
"","ISI","","html-keyboard-response","460","427088","0.0-1.0-651.0","0","0","28528","","null","","","null","72","NaN","","","","","","","","","","","","","","",""
"","S2","","html-keyboard-response","461","427341","0.0-1.0-652.0","0","0","28528","","null","","","null","72","","NaN","","","","","","","","","","","","","",""
"","response","","html-keyboard-response","462","427542","0.0-1.0-653.0-0.0","0","0","28528","","200","","","75","72","","","2","72","training","adjacent","ED","5","4","N.jpg","R.jpg","0","0","1","",""
"","feedback","","html-keyboard-response","463","428544","0.0-1.0-654.0-0.0","0","0","28528","","null","","","null","72","","","","","","","","","","","","","","","",""
"","ITI","","html-keyboard-response","464","429547","0.0-1.0-657.0","0","0","28528","","null","","","null","72","","","","","","","","","","","","","","","NaN",""
"","S1","","html-keyboard-response","465","429801","0.0-1.0-659.0","0","0","28528","","null","","","null","73","","","","","","","","","","","","","","","",""
"","ISI","","html-keyboard-response","466","430302","0.0-1.0-660.0","0","0","28528","","null","","","null","73","NaN","","","","","","","","","","","","","","",""
"","S2","","html-keyboard-response","467","430555","0.0-1.0-661.0","0","0","28528","","null","","","null","73","","NaN","","","","","","","","","","","","","",""
"","response","","html-keyboard-response","468","430710","0.0-1.0-662.0-0.0","0","0","28528","","154","","","68","73","","","2","73","training","adjacent","DE","4","5","R.jpg","N.jpg","1","1","1","",""
"","feedback","","html-keyboard-response","469","431712","0.0-1.0-663.0-0.0","0","0","28528","","null","","","null","73","","","","","","","","","","","","","","","",""
"","ITI","","html-keyboard-response","470","432715","0.0-1.0-666.0","0","0","28528","","null","","","null","73","","","","","","","","","","","","","","","NaN",""
"","S1","","html-keyboard-response","471","432967","0.0-1.0-668.0","0","0","28528","","null","","","null","74","","","","","","","","","","","","","","","",""
"","ISI","","html-keyboard-response","472","433483","0.0-1.0-669.0","0","0","28528","","null","","","null","74","NaN","","","","","","","","","","","","","","",""
"","S2","","html-keyboard-response","473","433736","0.0-1.0-670.0","0","0","28528","","null","","","null","74","","NaN","","","","","","","","","","","","","",""
"","response","","html-keyboard-response","474","433846","0.0-1.0-671.0-0.0","0","0","28528","","109","","","68","74","","","2","74","training","adjacent","BA","2","1","M.jpg","P.jpg","1","0","0","",""
"","feedback","","html-keyboard-response","475","434849","0.0-1.0-672.0-0.0","0","0","28528","","null","","","null","74","","","","","","","","","","","","","","","",""
"","time_out","","html-keyboard-response","476","436852","0.0-1.0-674.0-0.0","0","0","28528","","null","","","null","74","","","","","","","","","","","","","","","",""
"","ITI","","html-keyboard-response","477","437854","0.0-1.0-675.0","0","0","28528","","null","","","null","74","","","","","","","","","","","","","","","NaN",""
"","S1","","html-keyboard-response","478","438106","0.0-1.0-677.0","0","0","28528","","null","","","null","75","","","","","","","","","","","","","","","",""
"","ISI","","html-keyboard-response","479","438608","0.0-1.0-678.0","0","0","28528","","null","","","null","75","NaN","","","","","","","","","","","","","","",""
"","S2","","html-keyboard-response","480","438860","0.0-1.0-679.0","0","0","28528","","null","","","null","75","","NaN","","","","","","","","","","","","","",""
"","response","","html-keyboard-response","481","439202","0.0-1.0-680.0-0.0","0","0","28528","","340","","","75","75","","","2","75","training","adjacent","ED","5","4","N.jpg","R.jpg","0","0","1","",""
"","feedback","","html-keyboard-response","482","440205","0.0-1.0-681.0-0.0","0","0","28528","","null","","","null","75","","","","","","","","","","","","","","","",""
"","ITI","","html-keyboard-response","483","441207","0.0-1.0-684.0","0","0","28528","","null","","","null","75","","","","","","","","","","","","","","","NaN",""
"","S1","","html-keyboard-response","484","441459","0.0-1.0-686.0","0","0","28528","","null","","","null","76","","","","","","","","","","","","","","","",""
"","ISI","","html-keyboard-response","485","441962","0.0-1.0-687.0","0","0","28528","","null","","","null","76","NaN","","","","","","","","","","","","","","",""
"","S2","","html-keyboard-response","486","442214","0.0-1.0-688.0","0","0","28528","","null","","","null","76","","NaN","","","","","","","","","","","","","",""
"","response","","html-keyboard-response","487","442499","0.0-1.0-689.0-0.0","0","0","28528","","283","","","68","76","","","2","76","training","adjacent","FG","6","7","O.jpg","L.jpg","1","1","1","",""
"","feedback","","html-keyboard-response","488","443501","0.0-1.0-690.0-0.0","0","0","28528","","null","","","null","76","","","","","","","","","","","","","","","",""
"","ITI","","html-keyboard-response","489","444504","0.0-1.0-693.0","0","0","28528","","null","","","null","76","","","","","","","","","","","","","","","NaN",""
"","S1","","html-keyboard-response","490","444756","0.0-1.0-695.0","0","0","28528","","null","","","null","77","","","","","","","","","","","","","","","",""
"","ISI","","html-keyboard-response","491","445259","0.0-1.0-696.0","0","0","28528","","null","","","null","77","NaN","","","","","","","","","","","","","","",""
"","S2","","html-keyboard-response","492","445512","0.0-1.0-697.0","0","0","28528","","null","","","null","77","","NaN","","","","","","","","","","","","","",""
"","response","","html-keyboard-response","493","445901","0.0-1.0-698.0-0.0","0","0","28528","","388","","","75","77","","","2","77","training","adjacent","EF","5","6","N.jpg","O.jpg","0","1","0","",""
"","feedback","","html-keyboard-response","494","446904","0.0-1.0-699.0-0.0","0","0","28528","","null","","","null","77","","","","","","","","","","","","","","","",""
"","time_out","","html-keyboard-response","495","448906","0.0-1.0-701.0-0.0","0","0","28528","","null","","","null","77","","","","","","","","","","","","","","","",""
"","ITI","","html-keyboard-response","496","449908","0.0-1.0-702.0","0","0","28528","","null","","","null","77","","","","","","","","","","","","","","","NaN",""
"","S1","","html-keyboard-response","497","450159","0.0-1.0-704.0","0","0","28528","","null","","","null","78","","","","","","","","","","","","","","","",""
"","ISI","","html-keyboard-response","498","450662","0.0-1.0-705.0","0","0","28528","","null","","","null","78","NaN","","","","","","","","","","","","","","",""
"","S2","","html-keyboard-response","499","450914","0.0-1.0-706.0","0","0","28528","","null","","","null","78","","NaN","","","","","","","","","","","","","",""
"","response","","html-keyboard-response","500","451135","0.0-1.0-707.0-0.0","0","0","28528","","220","","","68","78","","","2","78","training","adjacent","DE","4","5","R.jpg","N.jpg","1","1","1","",""
"","feedback","","html-keyboard-response","501","452137","0.0-1.0-708.0-0.0","0","0","28528","","null","","","null","78","","","","","","","","","","","","","","","",""
"","ITI","","html-keyboard-response","502","453141","0.0-1.0-711.0","0","0","28528","","null","","","null","78","","","","","","","","","","","","","","","NaN",""
"","S1","","html-keyboard-response","503","453393","0.0-1.0-713.0","0","0","28528","","null","","","null","79","","","","","","","","","","","","","","","",""
"","ISI","","html-keyboard-response","504","453895","0.0-1.0-714.0","0","0","28528","","null","","","null","79","NaN","","","","","","","","","","","","","","",""
"","S2","","html-keyboard-response","505","454148","0.0-1.0-715.0","0","0","28528","","null","","","null","79","","NaN","","","","","","","","","","","","","",""
"","response","","html-keyboard-response","506","454686","0.0-1.0-716.0-0.0","0","0","28528","","536","","","68","79","","","2","79","training","adjacent","FE","6","5","O.jpg","N.jpg","1","0","0","",""
"","feedback","","html-keyboard-response","507","455688","0.0-1.0-717.0-0.0","0","0","28528","","null","","","null","79","","","","","","","","","","","","","","","",""
"","time_out","","html-keyboard-response","508","457691","0.0-1.0-719.0-0.0","0","0","28528","","null","","","null","79","","","","","","","","","","","","","","","",""
"","ITI","","html-keyboard-response","509","458693","0.0-1.0-720.0","0","0","28528","","null","","","null","79","","","","","","","","","","","","","","","NaN",""
"","S1","","html-keyboard-response","510","458946","0.0-1.0-722.0","0","0","28528","","null","","","null","80","","","","","","","","","","","","","","","",""
"","ISI","","html-keyboard-response","511","459448","0.0-1.0-723.0","0","0","28528","","null","","","null","80","NaN","","","","","","","","","","","","","","",""
"","S2","","html-keyboard-response","512","459701","0.0-1.0-724.0","0","0","28528","","null","","","null","80","","NaN","","","","","","","","","","","","","",""
"","response","","html-keyboard-response","513","459814","0.0-1.0-725.0-0.0","0","0","28528","","112","","","68","80","","","2","80","training","adjacent","DC","4","3","R.jpg","Q.jpg","1","0","0","",""
"","feedback","","html-keyboard-response","514","460816","0.0-1.0-726.0-0.0","0","0","28528","","null","","","null","80","","","","","","","","","","","","","","","",""
"","time_out","","html-keyboard-response","515","462819","0.0-1.0-728.0-0.0","0","0","28528","","null","","","null","80","","","","","","","","","","","","","","","",""
"","ITI","","html-keyboard-response","516","463821","0.0-1.0-729.0","0","0","28528","","null","","","null","80","","","","","","","","","","","","","","","NaN",""
"","S1","","html-keyboard-response","517","464074","0.0-1.0-731.0","0","0","28528","","null","","","null","81","","","","","","","","","","","","","","","",""
"","ISI","","html-keyboard-response","518","464576","0.0-1.0-732.0","0","0","28528","","null","","","null","81","NaN","","","","","","","","","","","","","","",""
"","S2","","html-keyboard-response","519","464829","0.0-1.0-733.0","0","0","28528","","null","","","null","81","","NaN","","","","","","","","","","","","","",""
"","response","","html-keyboard-response","520","465383","0.0-1.0-734.0-0.0","0","0","28528","","553","","","75","81","","","2","81","training","adjacent","DC","4","3","R.jpg","Q.jpg","0","0","1","",""
"","feedback","","html-keyboard-response","521","466385","0.0-1.0-735.0-0.0","0","0","28528","","null","","","null","81","","","","","","","","","","","","","","","",""
"","ITI","","html-keyboard-response","522","467387","0.0-1.0-738.0","0","0","28528","","null","","","null","81","","","","","","","","","","","","","","","NaN",""
"","S1","","html-keyboard-response","523","467645","0.0-1.0-740.0","0","0","28528","","null","","","null","82","","","","","","","","","","","","","","","",""
"","ISI","","html-keyboard-response","524","468148","0.0-1.0-741.0","0","0","28528","","null","","","null","82","NaN","","","","","","","","","","","","","","",""
"","S2","","html-keyboard-response","525","468410","0.0-1.0-742.0","0","0","28528","","null","","","null","82","","NaN","","","","","","","","","","","","","",""
"","response","","html-keyboard-response","526","468658","0.0-1.0-743.0-0.0","0","0","28528","","246","","","68","82","","","2","82","training","adjacent","FG","6","7","O.jpg","L.jpg","1","1","1","",""
"","feedback","","html-keyboard-response","527","469660","0.0-1.0-744.0-0.0","0","0","28528","","null","","","null","82","","","","","","","","","","","","","","","",""
"","ITI","","html-keyboard-response","528","470663","0.0-1.0-747.0","0","0","28528","","null","","","null","82","","","","","","","","","","","","","","","NaN",""
"","S1","","html-keyboard-response","529","470915","0.0-1.0-749.0","0","0","28528","","null","","","null","83","","","","","","","","","","","","","","","",""
"","ISI","","html-keyboard-response","530","471417","0.0-1.0-750.0","0","0","28528","","null","","","null","83","NaN","","","","","","","","","","","","","","",""
"","S2","","html-keyboard-response","531","471673","0.0-1.0-751.0","0","0","28528","","null","","","null","83","","NaN","","","","","","","","","","","","","",""
"","response","","html-keyboard-response","532","471923","0.0-1.0-752.0-0.0","0","0","28528","","249","","","75","83","","","2","83","training","adjacent","DC","4","3","R.jpg","Q.jpg","0","0","1","",""
"","feedback","","html-keyboard-response","533","472940","0.0-1.0-753.0-0.0","0","0","28528","","null","","","null","83","","","","","","","","","","","","","","","",""
"","ITI","","html-keyboard-response","534","473943","0.0-1.0-756.0","0","0","28528","","null","","","null","83","","","","","","","","","","","","","","","NaN",""
"","S1","","html-keyboard-response","535","474196","0.0-1.0-758.0","0","0","28528","","null","","","null","84","","","","","","","","","","","","","","","",""
"","ISI","","html-keyboard-response","536","474698","0.0-1.0-759.0","0","0","28528","","null","","","null","84","NaN","","","","","","","","","","","","","","",""
"","S2","","html-keyboard-response","537","474952","0.0-1.0-760.0","0","0","28528","","null","","","null","84","","NaN","","","","","","","","","","","","","",""
"","response","","html-keyboard-response","538","476151","0.0-1.0-761.0-0.0","0","0","28528","","1199","","","68","84","","","2","84","training","adjacent","CB","3","2","Q.jpg","M.jpg","1","0","0","",""
"","feedback","","html-keyboard-response","539","477154","0.0-1.0-762.0-0.0","0","0","28528","","null","","","null","84","","","","","","","","","","","","","","","",""
"","time_out","","html-keyboard-response","540","479155","0.0-1.0-764.0-0.0","0","0","28528","","null","","","null","84","","","","","","","","","","","","","","","",""
"","ITI","","html-keyboard-response","541","480158","0.0-1.0-765.0","0","0","28528","","null","","","null","84","","","","","","","","","","","","","","","NaN",""
"","S1","","html-keyboard-response","542","480410","0.0-1.0-767.0","0","0","28528","","null","","","null","85","","","","","","","","","","","","","","","",""
"","ISI","","html-keyboard-response","543","480913","0.0-1.0-768.0","0","0","28528","","null","","","null","85","NaN","","","","","","","","","","","","","","",""
"","S2","","html-keyboard-response","544","481165","0.0-1.0-769.0","0","0","28528","","null","","","null","85","","NaN","","","","","","","","","","","","","",""
"","response","","html-keyboard-response","545","481663","0.0-1.0-770.0-0.0","0","0","28528","","496","","","68","85","","","2","85","training","adjacent","CB","3","2","Q.jpg","M.jpg","1","0","0","",""
"","feedback","","html-keyboard-response","546","482665","0.0-1.0-771.0-0.0","0","0","28528","","null","","","null","85","","","","","","","","","","","","","","","",""
"","time_out","","html-keyboard-response","547","484668","0.0-1.0-773.0-0.0","0","0","28528","","null","","","null","85","","","","","","","","","","","","","","","",""
"","ITI","","html-keyboard-response","548","485670","0.0-1.0-774.0","0","0","28528","","null","","","null","85","","","","","","","","","","","","","","","NaN",""
"","S1","","html-keyboard-response","549","485922","0.0-1.0-776.0","0","0","28528","","null","","","null","86","","","","","","","","","","","","","","","",""
"","ISI","","html-keyboard-response","550","486424","0.0-1.0-777.0","0","0","28528","","null","","","null","86","NaN","","","","","","","","","","","","","","",""
"","S2","","html-keyboard-response","551","486676","0.0-1.0-778.0","0","0","28528","","null","","","null","86","","NaN","","","","","","","","","","","","","",""
"","response","","html-keyboard-response","552","487193","0.0-1.0-779.0-0.0","0","0","28528","","515","","","75","86","","","2","86","training","adjacent","DE","4","5","R.jpg","N.jpg","0","1","0","",""
"","feedback","","html-keyboard-response","553","488195","0.0-1.0-780.0-0.0","0","0","28528","","null","","","null","86","","","","","","","","","","","","","","","",""
"","time_out","","html-keyboard-response","554","490198","0.0-1.0-782.0-0.0","0","0","28528","","null","","","null","86","","","","","","","","","","","","","","","",""
"","ITI","","html-keyboard-response","555","491200","0.0-1.0-783.0","0","0","28528","","null","","","null","86","","","","","","","","","","","","","","","NaN",""
"","S1","","html-keyboard-response","556","491452","0.0-1.0-785.0","0","0","28528","","null","","","null","87","","","","","","","","","","","","","","","",""
"","ISI","","html-keyboard-response","557","491954","0.0-1.0-786.0","0","0","28528","","null","","","null","87","NaN","","","","","","","","","","","","","","",""
"","S2","","html-keyboard-response","558","492206","0.0-1.0-787.0","0","0","28528","","null","","","null","87","","NaN","","","","","","","","","","","","","",""
"","response","","html-keyboard-response","559","492426","0.0-1.0-788.0-0.0","0","0","28528","","219","","","68","87","","","2","87","training","adjacent","CD","3","4","Q.jpg","R.jpg","1","1","1","",""
"","feedback","","html-keyboard-response","560","493428","0.0-1.0-789.0-0.0","0","0","28528","","null","","","null","87","","","","","","","","","","","","","","","",""
"","ITI","","html-keyboard-response","561","494430","0.0-1.0-792.0","0","0","28528","","null","","","null","87","","","","","","","","","","","","","","","NaN",""
"","S1","","html-keyboard-response","562","494683","0.0-1.0-794.0","0","0","28528","","null","","","null","88","","","","","","","","","","","","","","","",""
"","ISI","","html-keyboard-response","563","495185","0.0-1.0-795.0","0","0","28528","","null","","","null","88","NaN","","","","","","","","","","","","","","",""
"","S2","","html-keyboard-response","564","495438","0.0-1.0-796.0","0","0","28528","","null","","","null","88","","NaN","","","","","","","","","","","","","",""
"","response","","html-keyboard-response","565","495945","0.0-1.0-797.0-0.0","0","0","28528","","505","","","75","88","","","2","88","training","adjacent","EF","5","6","N.jpg","O.jpg","0","1","0","",""
"","feedback","","html-keyboard-response","566","496947","0.0-1.0-798.0-0.0","0","0","28528","","null","","","null","88","","","","","","","","","","","","","","","",""
"","time_out","","html-keyboard-response","567","498949","0.0-1.0-800.0-0.0","0","0","28528","","null","","","null","88","","","","","","","","","","","","","","","",""
"","ITI","","html-keyboard-response","568","499952","0.0-1.0-801.0","0","0","28528","","null","","","null","88","","","","","","","","","","","","","","","NaN",""
"","S1","","html-keyboard-response","569","500204","0.0-1.0-803.0","0","0","28528","","null","","","null","89","","","","","","","","","","","","","","","",""
"","ISI","","html-keyboard-response","570","500706","0.0-1.0-804.0","0","0","28528","","null","","","null","89","NaN","","","","","","","","","","","","","","",""
"","S2","","html-keyboard-response","571","500958","0.0-1.0-805.0","0","0","28528","","null","","","null","89","","NaN","","","","","","","","","","","","","",""
"","response","","html-keyboard-response","572","501485","0.0-1.0-806.0-0.0","0","0","28528","","526","","","68","89","","","2","89","training","adjacent","DE","4","5","R.jpg","N.jpg","1","1","1","",""
"","feedback","","html-keyboard-response","573","502487","0.0-1.0-807.0-0.0","0","0","28528","","null","","","null","89","","","","","","","","","","","","","","","",""
"","ITI","","html-keyboard-response","574","503491","0.0-1.0-810.0","0","0","28528","","null","","","null","89","","","","","","","","","","","","","","","NaN",""
"","S1","","html-keyboard-response","575","503743","0.0-1.0-812.0","0","0","28528","","null","","","null","90","","","","","","","","","","","","","","","",""
"","ISI","","html-keyboard-response","576","504246","0.0-1.0-813.0","0","0","28528","","null","","","null","90","NaN","","","","","","","","","","","","","","",""
"","S2","","html-keyboard-response","577","504499","0.0-1.0-814.0","0","0","28528","","null","","","null","90","","NaN","","","","","","","","","","","","","",""
"","response","","html-keyboard-response","578","504991","0.0-1.0-815.0-0.0","0","0","28528","","491","","","75","90","","","2","90","training","adjacent","CD","3","4","Q.jpg","R.jpg","0","1","0","",""
"","feedback","","html-keyboard-response","579","505993","0.0-1.0-816.0-0.0","0","0","28528","","null","","","null","90","","","","","","","","","","","","","","","",""
"","time_out","","html-keyboard-response","580","507995","0.0-1.0-818.0-0.0","0","0","28528","","null","","","null","90","","","","","","","","","","","","","","","",""
