"success","ttype","start_time","trial_type","trial_index","time_elapsed","internal_node_id","warning","missed_checkup","PID","view_history","rt","responses","repeat_instructions","key_press","index","keypress_isi","keypress_S2","block","trial_num","phase","group_type","pair_type","S1_stim","S2_stim","S1_img","S2_img","S1_chosen","S1_higher","accuracy","keypress_iti","total_bonus_tally"
"true","full_screen","d03072023hr1917","fullscreen","0","7436","0.0-0.0","0","0","92891","","","","","","","","","","","","","","","","","","","","","",""
"","instructions","","instructions","1","42028","0.0-1.0-0.0-0.0","0","0","92891","[{""page_index"":0,""viewing_time"":3275},{""page_index"":1,""viewing_time"":20515},{""page_index"":2,""viewing_time"":9151},{""page_index"":3,""viewing_time"":1650}]","34591","","","","","","","","","","","","","","","","","","","",""
"","comprehension_check","","survey-multi-choice","2","66228","0.0-1.0-0.0-1.0","0","0","92891","","24196","{""Q0"":""True"",""Q1"":""K"",""Q2"":""Only when the screen 'MAKE A CHOICE' is shown"",""Q3"":""Green mark"",""Q4"":""either D or K""}","1","","","","","","","","","","","","","","","","","",""
"","missed_instruction_checkup","","html-keyboard-response","3","67978","0.0-1.0-0.0-2.0-0.0","0","1","92891","","1748","","","32","","","","","","","","","","","","","","","","",""
"","instructions","","instructions","4","82461","0.0-1.0-0.1-0.1","0","0","92891","[{""page_index"":0,""viewing_time"":3897},{""page_index"":1,""viewing_time"":8517},{""page_index"":2,""viewing_time"":1266},{""page_index"":3,""viewing_time"":801}]","14481","","","","","","","","","","","","","","","","","","","",""
"","comprehension_check","","survey-multi-choice","5","95945","0.0-1.0-0.1-1.1","0","0","92891","","13481","{""Q0"":""True"",""Q1"":""K"",""Q2"":""Once the second image appears and while the screen 'MAKE A CHOICE' is shown"",""Q3"":""Green mark"",""Q4"":""either D or K""}","0","","","","","","","","","","","","","","","","","",""
"","start_exp","","html-keyboard-response","6","97539","0.0-1.0-1.0","0","0","92891","","1592","","","32","","","","","","","","","","","","","","","","",""
"","S1","","html-keyboard-response","7","97798","0.0-1.0-2.0","0","0","92891","","null","","","null","0","","","","","","","","","","","","","","","",""
"","ISI","","html-keyboard-response","8","98806","0.0-1.0-3.0","0","0","92891","","null","","","null","0","NaN","","","","","","","","","","","","","","",""
"","S2","","html-keyboard-response","9","99062","0.0-1.0-4.0","0","0","92891","","null","","","null","0","","NaN","","","","","","","","","","","","","",""
"","response","","html-keyboard-response","10","99914","0.0-1.0-5.0-0.0","0","0","92891","","850","","","75","0","","","1","0","training","adjacent","DE","4","5","L.jpg","N.jpg","1","1","1","",""
"","feedback","","html-keyboard-response","11","100923","0.0-1.0-6.0-0.0","0","0","92891","","null","","","null","0","","","","","","","","","","","","","","","",""
"","ITI","","html-keyboard-response","12","101931","0.0-1.0-9.0","0","0","92891","","null","","","null","0","","","","","","","","","","","","","","","NaN",""
"","S1","","html-keyboard-response","13","102187","0.0-1.0-11.0","0","0","92891","","null","","","null","1","","","","","","","","","","","","","","","",""
"","ISI","","html-keyboard-response","14","103195","0.0-1.0-12.0","0","0","92891","","null","","","null","1","NaN","","","","","","","","","","","","","","",""
"","S2","","html-keyboard-response","15","103451","0.0-1.0-13.0","0","0","92891","","null","","","null","1","","NaN","","","","","","","","","","","","","",""
"","response","","html-keyboard-response","16","104653","0.0-1.0-14.0-0.0","0","0","92891","","1201","","","75","1","","","1","1","training","adjacent","BC","2","3","O.jpg","P.jpg","1","1","1","",""
"","feedback","","html-keyboard-response","17","105659","0.0-1.0-15.0-0.0","0","0","92891","","null","","","null","1","","","","","","","","","","","","","","","",""
"","ITI","","html-keyboard-response","18","106667","0.0-1.0-18.0","0","0","92891","","null","","","null","1","","","","","","","","","","","","","","","NaN",""
"","S1","","html-keyboard-response","19","106923","0.0-1.0-20.0","0","0","92891","","null","","","null","2","","","","","","","","","","","","","","","",""
"","ISI","","html-keyboard-response","20","107931","0.0-1.0-21.0","0","0","92891","","null","","","null","2","NaN","","","","","","","","","","","","","","",""
"","S2","","html-keyboard-response","21","108187","0.0-1.0-22.0","0","0","92891","","null","","","null","2","","NaN","","","","","","","","","","","","","",""
"","response","","html-keyboard-response","22","109946","0.0-1.0-23.0-0.0","0","0","92891","","1757","","","75","2","","","1","2","training","adjacent","GF","7","6","M.jpg","R.jpg","1","0","0","",""
"","feedback","","html-keyboard-response","23","110955","0.0-1.0-24.0-0.0","0","0","92891","","null","","","null","2","","","","","","","","","","","","","","","",""
"","time_out","","html-keyboard-response","24","112966","0.0-1.0-26.0-0.0","0","0","92891","","null","","","null","2","","","","","","","","","","","","","","","",""
"","ITI","","html-keyboard-response","25","113974","0.0-1.0-27.0","0","0","92891","","null","","","null","2","","","","","","","","","","","","","","","NaN",""
"","S1","","html-keyboard-response","26","114230","0.0-1.0-29.0","0","0","92891","","null","","","null","3","","","","","","","","","","","","","","","",""
"","ISI","","html-keyboard-response","27","115238","0.0-1.0-30.0","0","0","92891","","null","","","null","3","NaN","","","","","","","","","","","","","","",""
"","S2","","html-keyboard-response","28","115494","0.0-1.0-31.0","0","0","92891","","null","","","null","3","","NaN","","","","","","","","","","","","","",""
"","response","","html-keyboard-response","29","116359","0.0-1.0-32.0-0.0","0","0","92891","","864","","","68","3","","","1","3","training","adjacent","FE","6","5","R.jpg","N.jpg","0","0","1","",""
"","feedback","","html-keyboard-response","30","117366","0.0-1.0-33.0-0.0","0","0","92891","","null","","","null","3","","","","","","","","","","","","","","","",""
"","ITI","","html-keyboard-response","31","118374","0.0-1.0-36.0","0","0","92891","","null","","","null","3","","","","","","","","","","","","","","","NaN",""
"","S1","","html-keyboard-response","32","118630","0.0-1.0-38.0","0","0","92891","","null","","","null","4","","","","","","","","","","","","","","","",""
"","ISI","","html-keyboard-response","33","119635","0.0-1.0-39.0","0","0","92891","","null","","","null","4","NaN","","","","","","","","","","","","","","",""
"","S2","","html-keyboard-response","34","119894","0.0-1.0-40.0","0","0","92891","","null","","","null","4","","NaN","","","","","","","","","","","","","",""
"","response","","html-keyboard-response","35","120815","0.0-1.0-41.0-0.0","0","0","92891","","920","","","68","4","","","1","4","training","adjacent","EF","5","6","N.jpg","R.jpg","0","1","0","",""
"","feedback","","html-keyboard-response","36","121819","0.0-1.0-42.0-0.0","0","0","92891","","null","","","null","4","","","","","","","","","","","","","","","",""
"","time_out","","html-keyboard-response","37","123830","0.0-1.0-44.0-0.0","0","0","92891","","null","","","null","4","","","","","","","","","","","","","","","",""
"","ITI","","html-keyboard-response","38","124838","0.0-1.0-45.0","0","0","92891","","null","","","null","4","","","","","","","","","","","","","","","NaN",""
"","S1","","html-keyboard-response","39","125094","0.0-1.0-47.0","0","0","92891","","null","","","null","5","","","","","","","","","","","","","","","",""
"","ISI","","html-keyboard-response","40","126101","0.0-1.0-48.0","0","0","92891","","null","","","null","5","NaN","","","","","","","","","","","","","","",""
"","S2","","html-keyboard-response","41","126358","0.0-1.0-49.0","0","0","92891","","null","","","null","5","","NaN","","","","","","","","","","","","","",""
"","response","","html-keyboard-response","42","127009","0.0-1.0-50.0-0.0","0","0","92891","","650","","","75","5","","","1","5","training","adjacent","DC","4","3","L.jpg","P.jpg","1","0","0","",""
"","feedback","","html-keyboard-response","43","128021","0.0-1.0-51.0-0.0","0","0","92891","","null","","","null","5","","","","","","","","","","","","","","","",""
"","time_out","","html-keyboard-response","44","130027","0.0-1.0-53.0-0.0","0","0","92891","","null","","","null","5","","","","","","","","","","","","","","","",""
"","ITI","","html-keyboard-response","45","131035","0.0-1.0-54.0","0","0","92891","","null","","","null","5","","","","","","","","","","","","","","","NaN",""
"","S1","","html-keyboard-response","46","131291","0.0-1.0-56.0","0","0","92891","","null","","","null","6","","","","","","","","","","","","","","","",""
"","ISI","","html-keyboard-response","47","132299","0.0-1.0-57.0","0","0","92891","","null","","","null","6","NaN","","","","","","","","","","","","","","",""
"","S2","","html-keyboard-response","48","132555","0.0-1.0-58.0","0","0","92891","","null","","","null","6","","NaN","","","","","","","","","","","","","",""
"","response","","html-keyboard-response","49","133158","0.0-1.0-59.0-0.0","0","0","92891","","602","","","75","6","","","1","6","training","adjacent","AB","1","2","Q.jpg","O.jpg","1","1","1","",""
"","feedback","","html-keyboard-response","50","134166","0.0-1.0-60.0-0.0","0","0","92891","","null","","","null","6","","","","","","","","","","","","","","","",""
"","ITI","","html-keyboard-response","51","135174","0.0-1.0-63.0","0","0","92891","","null","","","null","6","","","","","","","","","","","","","","","NaN",""
"","S1","","html-keyboard-response","52","135430","0.0-1.0-65.0","0","0","92891","","null","","","null","7","","","","","","","","","","","","","","","",""
"","ISI","","html-keyboard-response","53","136438","0.0-1.0-66.0","0","0","92891","","null","","","null","7","NaN","","","","","","","","","","","","","","",""
"","S2","","html-keyboard-response","54","136694","0.0-1.0-67.0","0","0","92891","","null","","","null","7","","NaN","","","","","","","","","","","","","",""
"","response","","html-keyboard-response","55","137171","0.0-1.0-68.0-0.0","0","0","92891","","476","","","68","7","","","1","7","training","adjacent","ED","5","4","N.jpg","L.jpg","0","0","1","",""
"","feedback","","html-keyboard-response","56","138182","0.0-1.0-69.0-0.0","0","0","92891","","null","","","null","7","","","","","","","","","","","","","","","",""
"","ITI","","html-keyboard-response","57","139189","0.0-1.0-72.0","0","0","92891","","null","","","null","7","","","","","","","","","","","","","","","NaN",""
"","S1","","html-keyboard-response","58","139446","0.0-1.0-74.0","0","0","92891","","null","","","null","8","","","","","","","","","","","","","","","",""
"","ISI","","html-keyboard-response","59","140454","0.0-1.0-75.0","0","0","92891","","null","","","null","8","NaN","","","","","","","","","","","","","","",""
"","S2","","html-keyboard-response","60","140715","0.0-1.0-76.0","0","0","92891","","null","","","null","8","","NaN","","","","","","","","","","","","","",""
"","response","","html-keyboard-response","61","141154","0.0-1.0-77.0-0.0","0","0","92891","","437","","","75","8","","","1","8","training","adjacent","CD","3","4","P.jpg","L.jpg","1","1","1","",""
"","feedback","","html-keyboard-response","62","142165","0.0-1.0-78.0-0.0","0","0","92891","","null","","","null","8","","","","","","","","","","","","","","","",""
"","ITI","","html-keyboard-response","63","143174","0.0-1.0-81.0","0","0","92891","","null","","","null","8","","","","","","","","","","","","","","","NaN",""
"","S1","","html-keyboard-response","64","143430","0.0-1.0-83.0","0","0","92891","","null","","","null","9","","","","","","","","","","","","","","","",""
"","ISI","","html-keyboard-response","65","144438","0.0-1.0-84.0","0","0","92891","","null","","","null","9","NaN","","","","","","","","","","","","","","",""
"","S2","","html-keyboard-response","66","144694","0.0-1.0-85.0","0","0","92891","","null","","","null","9","","NaN","","","","","","","","","","","","","",""
"","response","","html-keyboard-response","67","145361","0.0-1.0-86.0-0.0","0","0","92891","","665","","","68","9","","","1","9","training","adjacent","DE","4","5","L.jpg","N.jpg","0","1","0","",""
"","feedback","","html-keyboard-response","68","146374","0.0-1.0-87.0-0.0","0","0","92891","","null","","","null","9","","","","","","","","","","","","","","","",""
"","time_out","","html-keyboard-response","69","148379","0.0-1.0-89.0-0.0","0","0","92891","","null","","","null","9","","","","","","","","","","","","","","","",""
"","ITI","","html-keyboard-response","70","149387","0.0-1.0-90.0","0","0","92891","","null","","","null","9","","","","","","","","","","","","","","","NaN",""
"","S1","","html-keyboard-response","71","149643","0.0-1.0-92.0","0","0","92891","","null","","","null","10","","","","","","","","","","","","","","","",""
"","ISI","","html-keyboard-response","72","150651","0.0-1.0-93.0","0","0","92891","","null","","","null","10","NaN","","","","","","","","","","","","","","",""
"","S2","","html-keyboard-response","73","150907","0.0-1.0-94.0","0","0","92891","","null","","","null","10","","NaN","","","","","","","","","","","","","",""
"","response","","html-keyboard-response","74","151342","0.0-1.0-95.0-0.0","0","0","92891","","435","","","75","10","","","1","10","training","adjacent","FE","6","5","R.jpg","N.jpg","1","0","0","",""
"","feedback","","html-keyboard-response","75","152347","0.0-1.0-96.0-0.0","0","0","92891","","null","","","null","10","","","","","","","","","","","","","","","",""
"","time_out","","html-keyboard-response","76","154357","0.0-1.0-98.0-0.0","0","0","92891","","null","","","null","10","","","","","","","","","","","","","","","",""
"","ITI","","html-keyboard-response","77","155366","0.0-1.0-99.0","0","0","92891","","null","","","null","10","","","","","","","","","","","","","","","NaN",""
"","S1","","html-keyboard-response","78","155621","0.0-1.0-101.0","0","0","92891","","null","","","null","11","","","","","","","","","","","","","","","",""
"","ISI","","html-keyboard-response","79","156630","0.0-1.0-102.0","0","0","92891","","null","","","null","11","NaN","","","","","","","","","","","","","","",""
"","S2","","html-keyboard-response","80","156885","0.0-1.0-103.0","0","0","92891","","null","","","null","11","","NaN","","","","","","","","","","","","","",""
"","response","","html-keyboard-response","81","157307","0.0-1.0-104.0-0.0","0","0","92891","","419","","","68","11","","","1","11","training","adjacent","BC","2","3","O.jpg","P.jpg","0","1","0","",""
"","feedback","","html-keyboard-response","82","158315","0.0-1.0-105.0-0.0","0","0","92891","","null","","","null","11","","","","","","","","","","","","","","","",""
"","time_out","","html-keyboard-response","83","160326","0.0-1.0-107.0-0.0","0","0","92891","","null","","","null","11","","","","","","","","","","","","","","","",""
"","ITI","","html-keyboard-response","84","161334","0.0-1.0-108.0","0","0","92891","","null","","","null","11","","","","","","","","","","","","","","","NaN",""
"","S1","","html-keyboard-response","85","161590","0.0-1.0-110.0","0","0","92891","","null","","","null","12","","","","","","","","","","","","","","","",""
"","ISI","","html-keyboard-response","86","162597","0.0-1.0-111.0","0","0","92891","","null","","","null","12","NaN","","","","","","","","","","","","","","",""
"","S2","","html-keyboard-response","87","162854","0.0-1.0-112.0","0","0","92891","","null","","","null","12","","NaN","","","","","","","","","","","","","",""
"","response","","html-keyboard-response","88","162971","0.0-1.0-113.0-0.0","0","0","92891","","116","","","75","12","","","1","12","training","adjacent","CD","3","4","P.jpg","L.jpg","1","1","1","",""
"","feedback","","html-keyboard-response","89","163979","0.0-1.0-114.0-0.0","0","0","92891","","null","","","null","12","","","","","","","","","","","","","","","",""
"","ITI","","html-keyboard-response","90","164987","0.0-1.0-117.0","0","0","92891","","null","","","null","12","","","","","","","","","","","","","","","NaN",""
"","S1","","html-keyboard-response","91","165243","0.0-1.0-119.0","0","0","92891","","null","","","null","13","","","","","","","","","","","","","","","",""
"","ISI","","html-keyboard-response","92","166251","0.0-1.0-120.0","0","0","92891","","null","","","null","13","NaN","","","","","","","","","","","","","","",""
"","S2","","html-keyboard-response","93","166507","0.0-1.0-121.0","0","0","92891","","null","","","null","13","","NaN","","","","","","","","","","","","","",""
"","response","","html-keyboard-response","94","167430","0.0-1.0-122.0-0.0","0","0","92891","","922","","","68","13","","","1","13","training","adjacent","AB","1","2","Q.jpg","O.jpg","0","1","0","",""
"","feedback","","html-keyboard-response","95","168437","0.0-1.0-123.0-0.0","0","0","92891","","null","","","null","13","","","","","","","","","","","","","","","",""
"","time_out","","html-keyboard-response","96","170443","0.0-1.0-125.0-0.0","0","0","92891","","null","","","null","13","","","","","","","","","","","","","","","",""
"","ITI","","html-keyboard-response","97","171451","0.0-1.0-126.0","0","0","92891","","null","","","null","13","","","","","","","","","","","","","","","NaN",""
"","S1","","html-keyboard-response","98","171707","0.0-1.0-128.0","0","0","92891","","null","","","null","14","","","","","","","","","","","","","","","",""
"","ISI","","html-keyboard-response","99","172715","0.0-1.0-129.0","0","0","92891","","null","","","null","14","NaN","","","","","","","","","","","","","","",""
"","S2","","html-keyboard-response","100","172971","0.0-1.0-130.0","0","0","92891","","null","","","null","14","","NaN","","","","","","","","","","","","","",""
"","response","","html-keyboard-response","101","173501","0.0-1.0-131.0-0.0","0","0","92891","","529","","","68","14","","","1","14","training","adjacent","EF","5","6","N.jpg","R.jpg","0","1","0","",""
"","feedback","","html-keyboard-response","102","174507","0.0-1.0-132.0-0.0","0","0","92891","","null","","","null","14","","","","","","","","","","","","","","","",""
"","time_out","","html-keyboard-response","103","176517","0.0-1.0-134.0-0.0","0","0","92891","","null","","","null","14","","","","","","","","","","","","","","","",""
"","ITI","","html-keyboard-response","104","177525","0.0-1.0-135.0","0","0","92891","","null","","","null","14","","","","","","","","","","","","","","","NaN",""
"","S1","","html-keyboard-response","105","177781","0.0-1.0-137.0","0","0","92891","","null","","","null","15","","","","","","","","","","","","","","","",""
"","ISI","","html-keyboard-response","106","178790","0.0-1.0-138.0","0","0","92891","","null","","","null","15","NaN","","","","","","","","","","","","","","",""
"","S2","","html-keyboard-response","107","179045","0.0-1.0-139.0","0","0","92891","","null","","","null","15","","NaN","","","","","","","","","","","","","",""
"","response","","html-keyboard-response","108","179422","0.0-1.0-140.0-0.0","0","0","92891","","375","","","75","15","","","1","15","training","adjacent","AB","1","2","Q.jpg","O.jpg","1","1","1","",""
"","feedback","","html-keyboard-response","109","180427","0.0-1.0-141.0-0.0","0","0","92891","","null","","","null","15","","","","","","","","","","","","","","","",""
"","ITI","","html-keyboard-response","110","181435","0.0-1.0-144.0","0","0","92891","","null","","","null","15","","","","","","","","","","","","","","","NaN",""
"","S1","","html-keyboard-response","111","181691","0.0-1.0-146.0","0","0","92891","","null","","","null","16","","","","","","","","","","","","","","","",""
"","ISI","","html-keyboard-response","112","182699","0.0-1.0-147.0","0","0","92891","","null","","","null","16","NaN","","","","","","","","","","","","","","",""
"","S2","","html-keyboard-response","113","182954","0.0-1.0-148.0","0","0","92891","","null","","","null","16","","NaN","","","","","","","","","","","","","",""
"","response","","html-keyboard-response","114","183231","0.0-1.0-149.0-0.0","0","0","92891","","276","","","75","16","","","1","16","training","adjacent","GF","7","6","M.jpg","R.jpg","1","0","0","",""
"","feedback","","html-keyboard-response","115","184235","0.0-1.0-150.0-0.0","0","0","92891","","null","","","null","16","","","","","","","","","","","","","","","",""
"","time_out","","html-keyboard-response","116","186246","0.0-1.0-152.0-0.0","0","0","92891","","null","","","null","16","","","","","","","","","","","","","","","",""
"","ITI","","html-keyboard-response","117","187253","0.0-1.0-153.0","0","0","92891","","null","","","null","16","","","","","","","","","","","","","","","NaN",""
"","S1","","html-keyboard-response","118","187509","0.0-1.0-155.0","0","0","92891","","null","","","null","17","","","","","","","","","","","","","","","",""
"","ISI","","html-keyboard-response","119","188517","0.0-1.0-156.0","0","0","92891","","null","","","null","17","NaN","","","","","","","","","","","","","","",""
"","S2","","html-keyboard-response","120","188774","0.0-1.0-157.0","0","0","92891","","null","","","null","17","","NaN","","","","","","","","","","","","","",""
"","response","","html-keyboard-response","121","189109","0.0-1.0-158.0-0.0","0","0","92891","","334","","","68","17","","","1","17","training","adjacent","BA","2","1","O.jpg","Q.jpg","0","0","1","",""
"","feedback","","html-keyboard-response","122","190117","0.0-1.0-159.0-0.0","0","0","92891","","null","","","null","17","","","","","","","","","","","","","","","",""
"","ITI","","html-keyboard-response","123","191125","0.0-1.0-162.0","0","0","92891","","null","","","null","17","","","","","","","","","","","","","","","NaN",""
"","S1","","html-keyboard-response","124","191382","0.0-1.0-164.0","0","0","92891","","null","","","null","18","","","","","","","","","","","","","","","",""
"","ISI","","html-keyboard-response","125","192389","0.0-1.0-165.0","0","0","92891","","null","","","null","18","NaN","","","","","","","","","","","","","","",""
"","S2","","html-keyboard-response","126","192645","0.0-1.0-166.0","0","0","92891","","null","","","null","18","","NaN","","","","","","","","","","","","","",""
"","response","","html-keyboard-response","127","194302","0.0-1.0-167.0-0.0","0","0","92891","","1655","","","75","18","","","1","18","training","adjacent","FG","6","7","R.jpg","M.jpg","1","1","1","",""
"","feedback","","html-keyboard-response","128","195306","0.0-1.0-168.0-0.0","0","0","92891","","null","","","null","18","","","","","","","","","","","","","","","",""
"","ITI","","html-keyboard-response","129","196315","0.0-1.0-171.0","0","0","92891","","null","","","null","18","","","","","","","","","","","","","","","NaN",""
"","S1","","html-keyboard-response","130","196571","0.0-1.0-173.0","0","0","92891","","null","","","null","19","","","","","","","","","","","","","","","",""
"","ISI","","html-keyboard-response","131","197579","0.0-1.0-174.0","0","0","92891","","null","","","null","19","NaN","","","","","","","","","","","","","","",""
"","S2","","html-keyboard-response","132","197835","0.0-1.0-175.0","0","0","92891","","null","","","null","19","","NaN","","","","","","","","","","","","","",""
"","response","","html-keyboard-response","133","199393","0.0-1.0-176.0-0.0","0","0","92891","","1557","","","75","19","","","1","19","training","adjacent","BA","2","1","O.jpg","Q.jpg","1","0","0","",""
"","feedback","","html-keyboard-response","134","200405","0.0-1.0-177.0-0.0","0","0","92891","","null","","","null","19","","","","","","","","","","","","","","","",""
"","time_out","","html-keyboard-response","135","202411","0.0-1.0-179.0-0.0","0","0","92891","","null","","","null","19","","","","","","","","","","","","","","","",""
"","ITI","","html-keyboard-response","136","203419","0.0-1.0-180.0","0","0","92891","","null","","","null","19","","","","","","","","","","","","","","","NaN",""
"","S1","","html-keyboard-response","137","203675","0.0-1.0-182.0","0","0","92891","","null","","","null","20","","","","","","","","","","","","","","","",""
"","ISI","","html-keyboard-response","138","204683","0.0-1.0-183.0","0","0","92891","","null","","","null","20","NaN","","","","","","","","","","","","","","",""
"","S2","","html-keyboard-response","139","204939","0.0-1.0-184.0","0","0","92891","","null","","","null","20","","NaN","","","","","","","","","","","","","",""
"","response","","html-keyboard-response","140","205334","0.0-1.0-185.0-0.0","0","0","92891","","394","","","75","20","","","1","20","training","adjacent","DE","4","5","L.jpg","N.jpg","1","1","1","",""
"","feedback","","html-keyboard-response","141","206341","0.0-1.0-186.0-0.0","0","0","92891","","null","","","null","20","","","","","","","","","","","","","","","",""
"","ITI","","html-keyboard-response","142","207349","0.0-1.0-189.0","0","0","92891","","null","","","null","20","","","","","","","","","","","","","","","NaN",""
"","S1","","html-keyboard-response","143","207605","0.0-1.0-191.0","0","0","92891","","null","","","null","21","","","","","","","","","","","","","","","",""
"","ISI","","html-keyboard-response","144","208613","0.0-1.0-192.0","0","0","92891","","null","","","null","21","NaN","","","","","","","","","","","","","","",""
"","S2","","html-keyboard-response","145","208869","0.0-1.0-193.0","0","0","92891","","null","","","null","21","","NaN","","","","","","","","","","","","","",""
"","response","","html-keyboard-response","146","209216","0.0-1.0-194.0-0.0","0","0","92891","","345","","","75","21","","","1","21","training","adjacent","DE","4","5","L.jpg","N.jpg","1","1","1","",""
"","feedback","","html-keyboard-response","147","210229","0.0-1.0-195.0-0.0","0","0","92891","","null","","","null","21","","","","","","","","","","","","","","","",""
"","ITI","","html-keyboard-response","148","211237","0.0-1.0-198.0","0","0","92891","","null","","","null","21","","","","","","","","","","","","","","","NaN",""
"","S1","","html-keyboard-response","149","211491","0.0-1.0-200.0","0","0","92891","","null","","","null","22","","","","","","","","","","","","","","","",""
"","ISI","","html-keyboard-response","150","212499","0.0-1.0-201.0","0","0","92891","","null","","","null","22","NaN","","","","","","","","","","","","","","",""
"","S2","","html-keyboard-response","151","212757","0.0-1.0-202.0","0","0","92891","","null","","","null","22","","NaN","","","","","","","","","","","","","",""
"","response","","html-keyboard-response","152","213060","0.0-1.0-203.0-0.0","0","0","92891","","302","","","75","22","","","1","22","training","adjacent","BC","2","3","O.jpg","P.jpg","1","1","1","",""
"","feedback","","html-keyboard-response","153","214069","0.0-1.0-204.0-0.0","0","0","92891","","null","","","null","22","","","","","","","","","","","","","","","",""
"","ITI","","html-keyboard-response","154","215077","0.0-1.0-207.0","0","0","92891","","null","","","null","22","","","","","","","","","","","","","","","NaN",""
"","S1","","html-keyboard-response","155","215333","0.0-1.0-209.0","0","0","92891","","null","","","null","23","","","","","","","","","","","","","","","",""
"","ISI","","html-keyboard-response","156","216341","0.0-1.0-210.0","0","0","92891","","null","","","null","23","NaN","","","","","","","","","","","","","","",""
"","S2","","html-keyboard-response","157","216596","0.0-1.0-211.0","0","0","92891","","null","","","null","23","","NaN","","","","","","","","","","","","","",""
"","response","","html-keyboard-response","158","216922","0.0-1.0-212.0-0.0","0","0","92891","","324","","","75","23","","","1","23","training","adjacent","BC","2","3","O.jpg","P.jpg","1","1","1","",""
"","feedback","","html-keyboard-response","159","217931","0.0-1.0-213.0-0.0","0","0","92891","","null","","","null","23","","","","","","","","","","","","","","","",""
"","ITI","","html-keyboard-response","160","218938","0.0-1.0-216.0","0","0","92891","","null","","","null","23","","","","","","","","","","","","","","","NaN",""
"","S1","","html-keyboard-response","161","219194","0.0-1.0-218.0","0","0","92891","","null","","","null","24","","","","","","","","","","","","","","","",""
"","ISI","","html-keyboard-response","162","220202","0.0-1.0-219.0","0","0","92891","","null","","","null","24","NaN","","","","","","","","","","","","","","",""
"","S2","","html-keyboard-response","163","220458","0.0-1.0-220.0","0","0","92891","","null","","","null","24","","NaN","","","","","","","","","","","","","",""
"","response","","html-keyboard-response","164","220830","0.0-1.0-221.0-0.0","0","0","92891","","370","","","75","24","","","1","24","training","adjacent","EF","5","6","N.jpg","R.jpg","1","1","1","",""
"","feedback","","html-keyboard-response","165","221835","0.0-1.0-222.0-0.0","0","0","92891","","null","","","null","24","","","","","","","","","","","","","","","",""
"","ITI","","html-keyboard-response","166","222842","0.0-1.0-225.0","0","0","92891","","null","","","null","24","","","","","","","","","","","","","","","NaN",""
"","S1","","html-keyboard-response","167","223101","0.0-1.0-227.0","0","0","92891","","null","","","null","25","","","","","","","","","","","","","","","",""
"","ISI","","html-keyboard-response","168","224106","0.0-1.0-228.0","0","0","92891","","null","","","null","25","NaN","","","","","","","","","","","","","","",""
"","S2","","html-keyboard-response","169","224366","0.0-1.0-229.0","0","0","92891","","null","","","null","25","","NaN","","","","","","","","","","","","","",""
"","response","","html-keyboard-response","170","224793","0.0-1.0-230.0-0.0","0","0","92891","","424","","","68","25","","","1","25","training","adjacent","CB","3","2","P.jpg","O.jpg","0","0","1","",""
"","feedback","","html-keyboard-response","171","225802","0.0-1.0-231.0-0.0","0","0","92891","","null","","","null","25","","","","","","","","","","","","","","","",""
"","ITI","","html-keyboard-response","172","226810","0.0-1.0-234.0","0","0","92891","","null","","","null","25","","","","","","","","","","","","","","","NaN",""
"","S1","","html-keyboard-response","173","227066","0.0-1.0-236.0","0","0","92891","","null","","","null","26","","","","","","","","","","","","","","","",""
"","ISI","","html-keyboard-response","174","228075","0.0-1.0-237.0","0","0","92891","","null","","","null","26","NaN","","","","","","","","","","","","","","",""
"","S2","","html-keyboard-response","175","228330","0.0-1.0-238.0","0","0","92891","","null","","","null","26","","NaN","","","","","","","","","","","","","",""
"","response","","html-keyboard-response","176","229112","0.0-1.0-239.0-0.0","0","0","92891","","780","","","75","26","","","1","26","training","adjacent","ED","5","4","N.jpg","L.jpg","1","0","0","",""
"","feedback","","html-keyboard-response","177","230123","0.0-1.0-240.0-0.0","0","0","92891","","null","","","null","26","","","","","","","","","","","","","","","",""
"","time_out","","html-keyboard-response","178","232133","0.0-1.0-242.0-0.0","0","0","92891","","null","","","null","26","","","","","","","","","","","","","","","",""
"","ITI","","html-keyboard-response","179","233141","0.0-1.0-243.0","0","0","92891","","null","","","null","26","","","","","","","","","","","","","","","NaN",""
"","S1","","html-keyboard-response","180","233397","0.0-1.0-245.0","0","0","92891","","null","","","null","27","","","","","","","","","","","","","","","",""
"","ISI","","html-keyboard-response","181","234405","0.0-1.0-246.0","0","0","92891","","null","","","null","27","NaN","","","","","","","","","","","","","","",""
"","S2","","html-keyboard-response","182","234661","0.0-1.0-247.0","0","0","92891","","null","","","null","27","","NaN","","","","","","","","","","","","","",""
"","response","","html-keyboard-response","183","235038","0.0-1.0-248.0-0.0","0","0","92891","","375","","","68","27","","","1","27","training","adjacent","FE","6","5","R.jpg","N.jpg","0","0","1","",""
"","feedback","","html-keyboard-response","184","236043","0.0-1.0-249.0-0.0","0","0","92891","","null","","","null","27","","","","","","","","","","","","","","","",""
"","ITI","","html-keyboard-response","185","237050","0.0-1.0-252.0","0","0","92891","","null","","","null","27","","","","","","","","","","","","","","","NaN",""
"","S1","","html-keyboard-response","186","237307","0.0-1.0-254.0","0","0","92891","","null","","","null","28","","","","","","","","","","","","","","","",""
"","ISI","","html-keyboard-response","187","238314","0.0-1.0-255.0","0","0","92891","","null","","","null","28","NaN","","","","","","","","","","","","","","",""
"","S2","","html-keyboard-response","188","238570","0.0-1.0-256.0","0","0","92891","","null","","","null","28","","NaN","","","","","","","","","","","","","",""
"","response","","html-keyboard-response","189","239731","0.0-1.0-257.0-0.0","0","0","92891","","1159","","","75","28","","","1","28","training","adjacent","EF","5","6","N.jpg","R.jpg","1","1","1","",""
"","feedback","","html-keyboard-response","190","240741","0.0-1.0-258.0-0.0","0","0","92891","","null","","","null","28","","","","","","","","","","","","","","","",""
"","ITI","","html-keyboard-response","191","241749","0.0-1.0-261.0","0","0","92891","","null","","","null","28","","","","","","","","","","","","","","","NaN",""
"","S1","","html-keyboard-response","192","242011","0.0-1.0-263.0","0","0","92891","","null","","","null","29","","","","","","","","","","","","","","","",""
"","ISI","","html-keyboard-response","193","243018","0.0-1.0-264.0","0","0","92891","","null","","","null","29","NaN","","","","","","","","","","","","","","",""
"","S2","","html-keyboard-response","194","243274","0.0-1.0-265.0","0","0","92891","","null","","","null","29","","NaN","","","","","","","","","","","","","",""
"","response","","html-keyboard-response","195","244656","0.0-1.0-266.0-0.0","0","0","92891","","1381","","","68","29","","","1","29","training","adjacent","GF","7","6","M.jpg","R.jpg","0","0","1","",""
"","feedback","","html-keyboard-response","196","245669","0.0-1.0-267.0-0.0","0","0","92891","","null","","","null","29","","","","","","","","","","","","","","","",""
"","ITI","","html-keyboard-response","197","246677","0.0-1.0-270.0","0","0","92891","","null","","","null","29","","","","","","","","","","","","","","","NaN",""
"","S1","","html-keyboard-response","198","246933","0.0-1.0-272.0","0","0","92891","","null","","","null","30","","","","","","","","","","","","","","","",""
"","ISI","","html-keyboard-response","199","247940","0.0-1.0-273.0","0","0","92891","","null","","","null","30","NaN","","","","","","","","","","","","","","",""
"","S2","","html-keyboard-response","200","248197","0.0-1.0-274.0","0","0","92891","","null","","","null","30","","NaN","","","","","","","","","","","","","",""
"","response","","html-keyboard-response","201","248986","0.0-1.0-275.0-0.0","0","0","92891","","788","","","68","30","","","1","30","training","adjacent","FG","6","7","R.jpg","M.jpg","0","1","0","",""
"","feedback","","html-keyboard-response","202","249994","0.0-1.0-276.0-0.0","0","0","92891","","null","","","null","30","","","","","","","","","","","","","","","",""
"","time_out","","html-keyboard-response","203","252005","0.0-1.0-278.0-0.0","0","0","92891","","null","","","null","30","","","","","","","","","","","","","","","",""
"","ITI","","html-keyboard-response","204","253013","0.0-1.0-279.0","0","0","92891","","null","","","null","30","","","","","","","","","","","","","","","NaN",""
"","S1","","html-keyboard-response","205","253269","0.0-1.0-281.0","0","0","92891","","null","","","null","31","","","","","","","","","","","","","","","",""
"","ISI","","html-keyboard-response","206","254277","0.0-1.0-282.0","0","0","92891","","null","","","null","31","NaN","","","","","","","","","","","","","","",""
"","S2","","html-keyboard-response","207","254533","0.0-1.0-283.0","0","0","92891","","null","","","null","31","","NaN","","","","","","","","","","","","","",""
"","response","","html-keyboard-response","208","255263","0.0-1.0-284.0-0.0","0","0","92891","","730","","","68","31","","","1","31","training","adjacent","AB","1","2","Q.jpg","O.jpg","0","1","0","",""
"","feedback","","html-keyboard-response","209","256270","0.0-1.0-285.0-0.0","0","0","92891","","null","","","null","31","","","","","","","","","","","","","","","",""
"","time_out","","html-keyboard-response","210","258285","0.0-1.0-287.0-0.0","0","0","92891","","null","","","null","31","","","","","","","","","","","","","","","",""
"","ITI","","html-keyboard-response","211","259295","0.0-1.0-288.0","0","0","92891","","null","","","null","31","","","","","","","","","","","","","","","NaN",""
"","S1","","html-keyboard-response","212","259551","0.0-1.0-290.0","0","0","92891","","null","","","null","32","","","","","","","","","","","","","","","",""
"","ISI","","html-keyboard-response","213","260561","0.0-1.0-291.0","0","0","92891","","null","","","null","32","NaN","","","","","","","","","","","","","","",""
"","S2","","html-keyboard-response","214","260818","0.0-1.0-292.0","0","0","92891","","null","","","null","32","","NaN","","","","","","","","","","","","","",""
"","response","","html-keyboard-response","215","261656","0.0-1.0-293.0-0.0","0","0","92891","","837","","","75","32","","","1","32","training","adjacent","FG","6","7","R.jpg","M.jpg","1","1","1","",""
"","feedback","","html-keyboard-response","216","262666","0.0-1.0-294.0-0.0","0","0","92891","","null","","","null","32","","","","","","","","","","","","","","","",""
"","ITI","","html-keyboard-response","217","263676","0.0-1.0-297.0","0","0","92891","","null","","","null","32","","","","","","","","","","","","","","","NaN",""
"","S1","","html-keyboard-response","218","263932","0.0-1.0-299.0","0","0","92891","","null","","","null","33","","","","","","","","","","","","","","","",""
"","ISI","","html-keyboard-response","219","264941","0.0-1.0-300.0","0","0","92891","","null","","","null","33","NaN","","","","","","","","","","","","","","",""
"","S2","","html-keyboard-response","220","265198","0.0-1.0-301.0","0","0","92891","","null","","","null","33","","NaN","","","","","","","","","","","","","",""
"","response","","html-keyboard-response","221","266176","0.0-1.0-302.0-0.0","0","0","92891","","977","","","75","33","","","1","33","training","adjacent","DC","4","3","L.jpg","P.jpg","1","0","0","",""
"","feedback","","html-keyboard-response","222","267184","0.0-1.0-303.0-0.0","0","0","92891","","null","","","null","33","","","","","","","","","","","","","","","",""
"","time_out","","html-keyboard-response","223","269196","0.0-1.0-305.0-0.0","0","0","92891","","null","","","null","33","","","","","","","","","","","","","","","",""
"","ITI","","html-keyboard-response","224","270206","0.0-1.0-306.0","0","0","92891","","null","","","null","33","","","","","","","","","","","","","","","NaN",""
"","S1","","html-keyboard-response","225","270462","0.0-1.0-308.0","0","0","92891","","null","","","null","34","","","","","","","","","","","","","","","",""
"","ISI","","html-keyboard-response","226","271471","0.0-1.0-309.0","0","0","92891","","null","","","null","34","NaN","","","","","","","","","","","","","","",""
"","S2","","html-keyboard-response","227","271727","0.0-1.0-310.0","0","0","92891","","null","","","null","34","","NaN","","","","","","","","","","","","","",""
"","response","","html-keyboard-response","228","272102","0.0-1.0-311.0-0.0","0","0","92891","","373","","","75","34","","","1","34","training","adjacent","BA","2","1","O.jpg","Q.jpg","1","0","0","",""
"","feedback","","html-keyboard-response","229","273109","0.0-1.0-312.0-0.0","0","0","92891","","null","","","null","34","","","","","","","","","","","","","","","",""
"","time_out","","html-keyboard-response","230","275122","0.0-1.0-314.0-0.0","0","0","92891","","null","","","null","34","","","","","","","","","","","","","","","",""
"","ITI","","html-keyboard-response","231","276130","0.0-1.0-315.0","0","0","92891","","null","","","null","34","","","","","","","","","","","","","","","NaN",""
"","S1","","html-keyboard-response","232","276387","0.0-1.0-317.0","0","0","92891","","null","","","null","35","","","","","","","","","","","","","","","",""
"","ISI","","html-keyboard-response","233","277395","0.0-1.0-318.0","0","0","92891","","null","","","null","35","NaN","","","","","","","","","","","","","","",""
"","S2","","html-keyboard-response","234","277652","0.0-1.0-319.0","0","0","92891","","null","","","null","35","","NaN","","","","","","","","","","","","","",""
"","response","","html-keyboard-response","235","278181","0.0-1.0-320.0-0.0","0","0","92891","","528","","","75","35","","","1","35","training","adjacent","ED","5","4","N.jpg","L.jpg","1","0","0","",""
"","feedback","","html-keyboard-response","236","279188","0.0-1.0-321.0-0.0","0","0","92891","","null","","","null","35","","","","","","","","","","","","","","","",""
"","time_out","","html-keyboard-response","237","281195","0.0-1.0-323.0-0.0","0","0","92891","","null","","","null","35","","","","","","","","","","","","","","","",""
"","ITI","","html-keyboard-response","238","282203","0.0-1.0-324.0","0","0","92891","","null","","","null","35","","","","","","","","","","","","","","","NaN",""
"","S1","","html-keyboard-response","239","282459","0.0-1.0-326.0","0","0","92891","","null","","","null","36","","","","","","","","","","","","","","","",""
"","ISI","","html-keyboard-response","240","283468","0.0-1.0-327.0","0","0","92891","","null","","","null","36","NaN","","","","","","","","","","","","","","",""
"","S2","","html-keyboard-response","241","283724","0.0-1.0-328.0","0","0","92891","","null","","","null","36","","NaN","","","","","","","","","","","","","",""
"","response","","html-keyboard-response","242","284367","0.0-1.0-329.0-0.0","0","0","92891","","642","","","75","36","","","1","36","training","adjacent","ED","5","4","N.jpg","L.jpg","1","0","0","",""
"","feedback","","html-keyboard-response","243","285372","0.0-1.0-330.0-0.0","0","0","92891","","null","","","null","36","","","","","","","","","","","","","","","",""
"","time_out","","html-keyboard-response","244","287384","0.0-1.0-332.0-0.0","0","0","92891","","null","","","null","36","","","","","","","","","","","","","","","",""
"","ITI","","html-keyboard-response","245","288392","0.0-1.0-333.0","0","0","92891","","null","","","null","36","","","","","","","","","","","","","","","NaN",""
"","S1","","html-keyboard-response","246","288647","0.0-1.0-335.0","0","0","92891","","null","","","null","37","","","","","","","","","","","","","","","",""
"","ISI","","html-keyboard-response","247","289656","0.0-1.0-336.0","0","0","92891","","null","","","null","37","NaN","","","","","","","","","","","","","","",""
"","S2","","html-keyboard-response","248","289912","0.0-1.0-337.0","0","0","92891","","null","","","null","37","","NaN","","","","","","","","","","","","","",""
"","response","","html-keyboard-response","249","291181","0.0-1.0-338.0-0.0","0","0","92891","","1267","","","75","37","","","1","37","training","adjacent","BA","2","1","O.jpg","Q.jpg","1","0","0","",""
"","feedback","","html-keyboard-response","250","292190","0.0-1.0-339.0-0.0","0","0","92891","","null","","","null","37","","","","","","","","","","","","","","","",""
"","time_out","","html-keyboard-response","251","294201","0.0-1.0-341.0-0.0","0","0","92891","","null","","","null","37","","","","","","","","","","","","","","","",""
"","ITI","","html-keyboard-response","252","295210","0.0-1.0-342.0","0","0","92891","","null","","","null","37","","","","","","","","","","","","","","","NaN",""
"","S1","","html-keyboard-response","253","295466","0.0-1.0-344.0","0","0","92891","","null","","","null","38","","","","","","","","","","","","","","","",""
"","ISI","","html-keyboard-response","254","296474","0.0-1.0-345.0","0","0","92891","","null","","","null","38","NaN","","","","","","","","","","","","","","",""
"","S2","","html-keyboard-response","255","296730","0.0-1.0-346.0","0","0","92891","","null","","","null","38","","NaN","","","","","","","","","","","","","",""
"","response","","html-keyboard-response","256","297090","0.0-1.0-347.0-0.0","0","0","92891","","359","","","68","38","","","1","38","training","adjacent","CB","3","2","P.jpg","O.jpg","0","0","1","",""
"","feedback","","html-keyboard-response","257","298096","0.0-1.0-348.0-0.0","0","0","92891","","null","","","null","38","","","","","","","","","","","","","","","",""
"","ITI","","html-keyboard-response","258","299103","0.0-1.0-351.0","0","0","92891","","null","","","null","38","","","","","","","","","","","","","","","NaN",""
"","S1","","html-keyboard-response","259","299359","0.0-1.0-353.0","0","0","92891","","null","","","null","39","","","","","","","","","","","","","","","",""
"","ISI","","html-keyboard-response","260","300368","0.0-1.0-354.0","0","0","92891","","null","","","null","39","NaN","","","","","","","","","","","","","","",""
"","S2","","html-keyboard-response","261","300624","0.0-1.0-355.0","0","0","92891","","null","","","null","39","","NaN","","","","","","","","","","","","","",""
"","response","","html-keyboard-response","262","301403","0.0-1.0-356.0-0.0","0","0","92891","","778","","","75","39","","","1","39","training","adjacent","FG","6","7","R.jpg","M.jpg","1","1","1","",""
"","feedback","","html-keyboard-response","263","302411","0.0-1.0-357.0-0.0","0","0","92891","","null","","","null","39","","","","","","","","","","","","","","","",""
"","ITI","","html-keyboard-response","264","303418","0.0-1.0-360.0","0","0","92891","","null","","","null","39","","","","","","","","","","","","","","","NaN",""
"","S1","","html-keyboard-response","265","303675","0.0-1.0-362.0","0","0","92891","","null","","","null","40","","","","","","","","","","","","","","","",""
"","ISI","","html-keyboard-response","266","304683","0.0-1.0-363.0","0","0","92891","","null","","","null","40","NaN","","","","","","","","","","","","","","",""
"","S2","","html-keyboard-response","267","304944","0.0-1.0-364.0","0","0","92891","","null","","","null","40","","NaN","","","","","","","","","","","","","",""
"","response","","html-keyboard-response","268","305743","0.0-1.0-365.0-0.0","0","0","92891","","798","","","68","40","","","1","40","training","adjacent","CD","3","4","P.jpg","L.jpg","0","1","0","",""
"","feedback","","html-keyboard-response","269","306752","0.0-1.0-366.0-0.0","0","0","92891","","null","","","null","40","","","","","","","","","","","","","","","",""
"","time_out","","html-keyboard-response","270","308763","0.0-1.0-368.0-0.0","0","0","92891","","null","","","null","40","","","","","","","","","","","","","","","",""
"","ITI","","html-keyboard-response","271","309771","0.0-1.0-369.0","0","0","92891","","null","","","null","40","","","","","","","","","","","","","","","NaN",""
"","S1","","html-keyboard-response","272","310027","0.0-1.0-371.0","0","0","92891","","null","","","null","41","","","","","","","","","","","","","","","",""
"","ISI","","html-keyboard-response","273","311035","0.0-1.0-372.0","0","0","92891","","null","","","null","41","NaN","","","","","","","","","","","","","","",""
"","S2","","html-keyboard-response","274","311292","0.0-1.0-373.0","0","0","92891","","null","","","null","41","","NaN","","","","","","","","","","","","","",""
"","response","","html-keyboard-response","275","311792","0.0-1.0-374.0-0.0","0","0","92891","","499","","","68","41","","","1","41","training","adjacent","DC","4","3","L.jpg","P.jpg","0","0","1","",""
"","feedback","","html-keyboard-response","276","312795","0.0-1.0-375.0-0.0","0","0","92891","","null","","","null","41","","","","","","","","","","","","","","","",""
"","ITI","","html-keyboard-response","277","313803","0.0-1.0-378.0","0","0","92891","","null","","","null","41","","","","","","","","","","","","","","","NaN",""
"","S1","","html-keyboard-response","278","314059","0.0-1.0-380.0","0","0","92891","","null","","","null","42","","","","","","","","","","","","","","","",""
"","ISI","","html-keyboard-response","279","315068","0.0-1.0-381.0","0","0","92891","","null","","","null","42","NaN","","","","","","","","","","","","","","",""
"","S2","","html-keyboard-response","280","315324","0.0-1.0-382.0","0","0","92891","","null","","","null","42","","NaN","","","","","","","","","","","","","",""
"","response","","html-keyboard-response","281","315756","0.0-1.0-383.0-0.0","0","0","92891","","431","","","68","42","","","1","42","training","adjacent","DC","4","3","L.jpg","P.jpg","0","0","1","",""
"","feedback","","html-keyboard-response","282","316764","0.0-1.0-384.0-0.0","0","0","92891","","null","","","null","42","","","","","","","","","","","","","","","",""
"","ITI","","html-keyboard-response","283","317772","0.0-1.0-387.0","0","0","92891","","null","","","null","42","","","","","","","","","","","","","","","NaN",""
"","S1","","html-keyboard-response","284","318028","0.0-1.0-389.0","0","0","92891","","null","","","null","43","","","","","","","","","","","","","","","",""
"","ISI","","html-keyboard-response","285","319036","0.0-1.0-390.0","0","0","92891","","null","","","null","43","NaN","","","","","","","","","","","","","","",""
"","S2","","html-keyboard-response","286","319292","0.0-1.0-391.0","0","0","92891","","null","","","null","43","","NaN","","","","","","","","","","","","","",""
"","response","","html-keyboard-response","287","319832","0.0-1.0-392.0-0.0","0","0","92891","","539","","","68","43","","","1","43","training","adjacent","CB","3","2","P.jpg","O.jpg","0","0","1","",""
"","feedback","","html-keyboard-response","288","320843","0.0-1.0-393.0-0.0","0","0","92891","","null","","","null","43","","","","","","","","","","","","","","","",""
"","ITI","","html-keyboard-response","289","321852","0.0-1.0-396.0","0","0","92891","","null","","","null","43","","","","","","","","","","","","","","","NaN",""
"","S1","","html-keyboard-response","290","322108","0.0-1.0-398.0","0","0","92891","","null","","","null","44","","","","","","","","","","","","","","","",""
"","ISI","","html-keyboard-response","291","323116","0.0-1.0-399.0","0","0","92891","","null","","","null","44","NaN","","","","","","","","","","","","","","",""
"","S2","","html-keyboard-response","292","323371","0.0-1.0-400.0","0","0","92891","","null","","","null","44","","NaN","","","","","","","","","","","","","",""
"","response","","html-keyboard-response","293","323804","0.0-1.0-401.0-0.0","0","0","92891","","431","","","75","44","","","1","44","training","adjacent","FE","6","5","R.jpg","N.jpg","1","0","0","",""
"","feedback","","html-keyboard-response","294","324812","0.0-1.0-402.0-0.0","0","0","92891","","null","","","null","44","","","","","","","","","","","","","","","",""
"","time_out","","html-keyboard-response","295","326817","0.0-1.0-404.0-0.0","0","0","92891","","null","","","null","44","","","","","","","","","","","","","","","",""
"","ITI","","html-keyboard-response","296","327826","0.0-1.0-405.0","0","0","92891","","null","","","null","44","","","","","","","","","","","","","","","NaN",""
"","S1","","html-keyboard-response","297","328081","0.0-1.0-407.0","0","0","92891","","null","","","null","45","","","","","","","","","","","","","","","",""
"","ISI","","html-keyboard-response","298","329089","0.0-1.0-408.0","0","0","92891","","null","","","null","45","NaN","","","","","","","","","","","","","","",""
"","S2","","html-keyboard-response","299","329345","0.0-1.0-409.0","0","0","92891","","null","","","null","45","","NaN","","","","","","","","","","","","","",""
"","response","","html-keyboard-response","300","329692","0.0-1.0-410.0-0.0","0","0","92891","","345","","","75","45","","","1","45","training","adjacent","CD","3","4","P.jpg","L.jpg","1","1","1","",""
"","feedback","","html-keyboard-response","301","330700","0.0-1.0-411.0-0.0","0","0","92891","","null","","","null","45","","","","","","","","","","","","","","","",""
"","ITI","","html-keyboard-response","302","331708","0.0-1.0-414.0","0","0","92891","","null","","","null","45","","","","","","","","","","","","","","","NaN",""
"","S1","","html-keyboard-response","303","331963","0.0-1.0-416.0","0","0","92891","","null","","","null","46","","","","","","","","","","","","","","","",""
"","ISI","","html-keyboard-response","304","332972","0.0-1.0-417.0","0","0","92891","","null","","","null","46","NaN","","","","","","","","","","","","","","",""
"","S2","","html-keyboard-response","305","333228","0.0-1.0-418.0","0","0","92891","","null","","","null","46","","NaN","","","","","","","","","","","","","",""
"","response","","html-keyboard-response","306","334624","0.0-1.0-419.0-0.0","0","0","92891","","1394","","","68","46","","","1","46","training","adjacent","GF","7","6","M.jpg","R.jpg","0","0","1","",""
"","feedback","","html-keyboard-response","307","335633","0.0-1.0-420.0-0.0","0","0","92891","","null","","","null","46","","","","","","","","","","","","","","","",""
"","ITI","","html-keyboard-response","308","336641","0.0-1.0-423.0","0","0","92891","","null","","","null","46","","","","","","","","","","","","","","","NaN",""
"","S1","","html-keyboard-response","309","336897","0.0-1.0-425.0","0","0","92891","","null","","","null","47","","","","","","","","","","","","","","","",""
"","ISI","","html-keyboard-response","310","337905","0.0-1.0-426.0","0","0","92891","","null","","","null","47","NaN","","","","","","","","","","","","","","",""
"","S2","","html-keyboard-response","311","338162","0.0-1.0-427.0","0","0","92891","","null","","","null","47","","NaN","","","","","","","","","","","","","",""
"","response","","html-keyboard-response","312","338471","0.0-1.0-428.0-0.0","0","0","92891","","308","","","75","47","","","1","47","training","adjacent","CB","3","2","P.jpg","O.jpg","1","0","0","",""
"","feedback","","html-keyboard-response","313","339484","0.0-1.0-429.0-0.0","0","0","92891","","null","","","null","47","","","","","","","","","","","","","","","",""
"","time_out","","html-keyboard-response","314","341489","0.0-1.0-431.0-0.0","0","0","92891","","null","","","null","47","","","","","","","","","","","","","","","",""
"","ITI","","html-keyboard-response","315","342497","0.0-1.0-432.0","0","0","92891","","null","","","null","47","","","","","","","","","","","","","","","NaN",""
"","block_over","","html-keyboard-response","316","463567","0.0-1.0-433.0-0.0","0","0","92891","","121068","","","32","47","","","","","","","","","","","","","","","",""
"","S1","","html-keyboard-response","317","463825","0.0-1.0-434.0","0","0","92891","","null","","","null","48","","","","","","","","","","","","","","","",""
"","ISI","","html-keyboard-response","318","464833","0.0-1.0-435.0","0","0","92891","","null","","","null","48","NaN","","","","","","","","","","","","","","",""
"","S2","","html-keyboard-response","319","465089","0.0-1.0-436.0","0","0","92891","","null","","","null","48","","NaN","","","","","","","","","","","","","",""
"","response","","html-keyboard-response","320","465575","0.0-1.0-437.0-0.0","0","0","92891","","484","","","75","48","","","2","48","training","adjacent","CD","3","4","P.jpg","L.jpg","1","1","1","",""
"","feedback","","html-keyboard-response","321","466588","0.0-1.0-438.0-0.0","0","0","92891","","null","","","null","48","","","","","","","","","","","","","","","",""
"","ITI","","html-keyboard-response","322","467593","0.0-1.0-441.0","0","0","92891","","null","","","null","48","","","","","","","","","","","","","","","NaN",""
"","S1","","html-keyboard-response","323","467852","0.0-1.0-443.0","0","0","92891","","null","","","null","49","","","","","","","","","","","","","","","",""
"","ISI","","html-keyboard-response","324","468860","0.0-1.0-444.0","0","0","92891","","null","","","null","49","NaN","","","","","","","","","","","","","","",""
"","S2","","html-keyboard-response","325","469121","0.0-1.0-445.0","0","0","92891","","null","","","null","49","","NaN","","","","","","","","","","","","","",""
"","response","","html-keyboard-response","326","469490","0.0-1.0-446.0-0.0","0","0","92891","","367","","","75","49","","","2","49","training","adjacent","CB","3","2","P.jpg","O.jpg","1","0","0","",""
"","feedback","","html-keyboard-response","327","470497","0.0-1.0-447.0-0.0","0","0","92891","","null","","","null","49","","","","","","","","","","","","","","","",""
"","time_out","","html-keyboard-response","328","472508","0.0-1.0-449.0-0.0","0","0","92891","","null","","","null","49","","","","","","","","","","","","","","","",""
"","ITI","","html-keyboard-response","329","473516","0.0-1.0-450.0","0","0","92891","","null","","","null","49","","","","","","","","","","","","","","","NaN",""
"","S1","","html-keyboard-response","330","473772","0.0-1.0-452.0","0","0","92891","","null","","","null","50","","","","","","","","","","","","","","","",""
"","ISI","","html-keyboard-response","331","474779","0.0-1.0-453.0","0","0","92891","","null","","","null","50","NaN","","","","","","","","","","","","","","",""
"","S2","","html-keyboard-response","332","475036","0.0-1.0-454.0","0","0","92891","","null","","","null","50","","NaN","","","","","","","","","","","","","",""
"","response","","html-keyboard-response","333","475888","0.0-1.0-455.0-0.0","0","0","92891","","851","","","75","50","","","2","50","training","adjacent","FG","6","7","R.jpg","M.jpg","1","1","1","",""
"","feedback","","html-keyboard-response","334","476897","0.0-1.0-456.0-0.0","0","0","92891","","null","","","null","50","","","","","","","","","","","","","","","",""
"","ITI","","html-keyboard-response","335","477905","0.0-1.0-459.0","0","0","92891","","null","","","null","50","","","","","","","","","","","","","","","NaN",""
"","S1","","html-keyboard-response","336","478161","0.0-1.0-461.0","0","0","92891","","null","","","null","51","","","","","","","","","","","","","","","",""
"","ISI","","html-keyboard-response","337","479169","0.0-1.0-462.0","0","0","92891","","null","","","null","51","NaN","","","","","","","","","","","","","","",""
"","S2","","html-keyboard-response","338","479425","0.0-1.0-463.0","0","0","92891","","null","","","null","51","","NaN","","","","","","","","","","","","","",""
"","response","","html-keyboard-response","339","479786","0.0-1.0-464.0-0.0","0","0","92891","","359","","","75","51","","","2","51","training","adjacent","DE","4","5","L.jpg","N.jpg","1","1","1","",""
"","feedback","","html-keyboard-response","340","480795","0.0-1.0-465.0-0.0","0","0","92891","","null","","","null","51","","","","","","","","","","","","","","","",""
"","ITI","","html-keyboard-response","341","481804","0.0-1.0-468.0","0","0","92891","","null","","","null","51","","","","","","","","","","","","","","","NaN",""
"","S1","","html-keyboard-response","342","482059","0.0-1.0-470.0","0","0","92891","","null","","","null","52","","","","","","","","","","","","","","","",""
"","ISI","","html-keyboard-response","343","483068","0.0-1.0-471.0","0","0","92891","","null","","","null","52","NaN","","","","","","","","","","","","","","",""
"","S2","","html-keyboard-response","344","483324","0.0-1.0-472.0","0","0","92891","","null","","","null","52","","NaN","","","","","","","","","","","","","",""
"","response","","html-keyboard-response","345","483729","0.0-1.0-473.0-0.0","0","0","92891","","404","","","75","52","","","2","52","training","adjacent","BA","2","1","O.jpg","Q.jpg","1","0","0","",""
"","feedback","","html-keyboard-response","346","484736","0.0-1.0-474.0-0.0","0","0","92891","","null","","","null","52","","","","","","","","","","","","","","","",""
"","time_out","","html-keyboard-response","347","486748","0.0-1.0-476.0-0.0","0","0","92891","","null","","","null","52","","","","","","","","","","","","","","","",""
"","ITI","","html-keyboard-response","348","487756","0.0-1.0-477.0","0","0","92891","","null","","","null","52","","","","","","","","","","","","","","","NaN",""
"","S1","","html-keyboard-response","349","488012","0.0-1.0-479.0","0","0","92891","","null","","","null","53","","","","","","","","","","","","","","","",""
"","ISI","","html-keyboard-response","350","489020","0.0-1.0-480.0","0","0","92891","","null","","","null","53","NaN","","","","","","","","","","","","","","",""
"","S2","","html-keyboard-response","351","489276","0.0-1.0-481.0","0","0","92891","","null","","","null","53","","NaN","","","","","","","","","","","","","",""
"","response","","html-keyboard-response","352","489442","0.0-1.0-482.0-0.0","0","0","92891","","165","","","75","53","","","2","53","training","adjacent","CD","3","4","P.jpg","L.jpg","1","1","1","",""
"","feedback","","html-keyboard-response","353","490449","0.0-1.0-483.0-0.0","0","0","92891","","null","","","null","53","","","","","","","","","","","","","","","",""
"","ITI","","html-keyboard-response","354","491457","0.0-1.0-486.0","0","0","92891","","null","","","null","53","","","","","","","","","","","","","","","NaN",""
"","S1","","html-keyboard-response","355","491713","0.0-1.0-488.0","0","0","92891","","null","","","null","54","","","","","","","","","","","","","","","",""
"","ISI","","html-keyboard-response","356","492721","0.0-1.0-489.0","0","0","92891","","null","","","null","54","NaN","","","","","","","","","","","","","","",""
"","S2","","html-keyboard-response","357","492977","0.0-1.0-490.0","0","0","92891","","null","","","null","54","","NaN","","","","","","","","","","","","","",""
"","response","","html-keyboard-response","358","494017","0.0-1.0-491.0-0.0","0","0","92891","","1039","","","75","54","","","2","54","training","adjacent","GF","7","6","M.jpg","R.jpg","1","0","0","",""
"","feedback","","html-keyboard-response","359","495024","0.0-1.0-492.0-0.0","0","0","92891","","null","","","null","54","","","","","","","","","","","","","","","",""
"","time_out","","html-keyboard-response","360","497036","0.0-1.0-494.0-0.0","0","0","92891","","null","","","null","54","","","","","","","","","","","","","","","",""
"","ITI","","html-keyboard-response","361","498044","0.0-1.0-495.0","0","0","92891","","null","","","null","54","","","","","","","","","","","","","","","NaN",""
"","S1","","html-keyboard-response","362","498300","0.0-1.0-497.0","0","0","92891","","null","","","null","55","","","","","","","","","","","","","","","",""
"","ISI","","html-keyboard-response","363","499308","0.0-1.0-498.0","0","0","92891","","null","","","null","55","NaN","","","","","","","","","","","","","","",""
"","S2","","html-keyboard-response","364","499564","0.0-1.0-499.0","0","0","92891","","null","","","null","55","","NaN","","","","","","","","","","","","","",""
"","response","","html-keyboard-response","365","500019","0.0-1.0-500.0-0.0","0","0","92891","","454","","","68","55","","","2","55","training","adjacent","DC","4","3","L.jpg","P.jpg","0","0","1","",""
"","feedback","","html-keyboard-response","366","501025","0.0-1.0-501.0-0.0","0","0","92891","","null","","","null","55","","","","","","","","","","","","","","","",""
"","ITI","","html-keyboard-response","367","502033","0.0-1.0-504.0","0","0","92891","","null","","","null","55","","","","","","","","","","","","","","","NaN",""
"","S1","","html-keyboard-response","368","502289","0.0-1.0-506.0","0","0","92891","","null","","","null","56","","","","","","","","","","","","","","","",""
"","ISI","","html-keyboard-response","369","503297","0.0-1.0-507.0","0","0","92891","","null","","","null","56","NaN","","","","","","","","","","","","","","",""
"","S2","","html-keyboard-response","370","503553","0.0-1.0-508.0","0","0","92891","","null","","","null","56","","NaN","","","","","","","","","","","","","",""
"","response","","html-keyboard-response","371","504683","0.0-1.0-509.0-0.0","0","0","92891","","1129","","","75","56","","","2","56","training","adjacent","DC","4","3","L.jpg","P.jpg","1","0","0","",""
"","feedback","","html-keyboard-response","372","505692","0.0-1.0-510.0-0.0","0","0","92891","","null","","","null","56","","","","","","","","","","","","","","","",""
"","time_out","","html-keyboard-response","373","507696","0.0-1.0-512.0-0.0","0","0","92891","","null","","","null","56","","","","","","","","","","","","","","","",""
"","ITI","","html-keyboard-response","374","508705","0.0-1.0-513.0","0","0","92891","","null","","","null","56","","","","","","","","","","","","","","","NaN",""
"","S1","","html-keyboard-response","375","508961","0.0-1.0-515.0","0","0","92891","","null","","","null","57","","","","","","","","","","","","","","","",""
"","ISI","","html-keyboard-response","376","509971","0.0-1.0-516.0","0","0","92891","","null","","","null","57","NaN","","","","","","","","","","","","","","",""
"","S2","","html-keyboard-response","377","510225","0.0-1.0-517.0","0","0","92891","","null","","","null","57","","NaN","","","","","","","","","","","","","",""
"","response","","html-keyboard-response","378","510806","0.0-1.0-518.0-0.0","0","0","92891","","581","","","68","57","","","2","57","training","adjacent","FE","6","5","R.jpg","N.jpg","0","0","1","",""
"","feedback","","html-keyboard-response","379","511820","0.0-1.0-519.0-0.0","0","0","92891","","null","","","null","57","","","","","","","","","","","","","","","",""
"","ITI","","html-keyboard-response","380","512827","0.0-1.0-522.0","0","0","92891","","null","","","null","57","","","","","","","","","","","","","","","NaN",""
"","S1","","html-keyboard-response","381","513083","0.0-1.0-524.0","0","0","92891","","null","","","null","58","","","","","","","","","","","","","","","",""
"","ISI","","html-keyboard-response","382","514091","0.0-1.0-525.0","0","0","92891","","null","","","null","58","NaN","","","","","","","","","","","","","","",""
"","S2","","html-keyboard-response","383","514348","0.0-1.0-526.0","0","0","92891","","null","","","null","58","","NaN","","","","","","","","","","","","","",""
"","response","","html-keyboard-response","384","514761","0.0-1.0-527.0-0.0","0","0","92891","","412","","","75","58","","","2","58","training","adjacent","CD","3","4","P.jpg","L.jpg","1","1","1","",""
"","feedback","","html-keyboard-response","385","515770","0.0-1.0-528.0-0.0","0","0","92891","","null","","","null","58","","","","","","","","","","","","","","","",""
"","ITI","","html-keyboard-response","386","516777","0.0-1.0-531.0","0","0","92891","","null","","","null","58","","","","","","","","","","","","","","","NaN",""
"","S1","","html-keyboard-response","387","517036","0.0-1.0-533.0","0","0","92891","","null","","","null","59","","","","","","","","","","","","","","","",""
"","ISI","","html-keyboard-response","388","518044","0.0-1.0-534.0","0","0","92891","","null","","","null","59","NaN","","","","","","","","","","","","","","",""
"","S2","","html-keyboard-response","389","518300","0.0-1.0-535.0","0","0","92891","","null","","","null","59","","NaN","","","","","","","","","","","","","",""
"","response","","html-keyboard-response","390","518814","0.0-1.0-536.0-0.0","0","0","92891","","513","","","75","59","","","2","59","training","adjacent","FG","6","7","R.jpg","M.jpg","1","1","1","",""
"","feedback","","html-keyboard-response","391","519825","0.0-1.0-537.0-0.0","0","0","92891","","null","","","null","59","","","","","","","","","","","","","","","",""
"","ITI","","html-keyboard-response","392","520833","0.0-1.0-540.0","0","0","92891","","null","","","null","59","","","","","","","","","","","","","","","NaN",""
"","S1","","html-keyboard-response","393","521089","0.0-1.0-542.0","0","0","92891","","null","","","null","60","","","","","","","","","","","","","","","",""
"","ISI","","html-keyboard-response","394","522097","0.0-1.0-543.0","0","0","92891","","null","","","null","60","NaN","","","","","","","","","","","","","","",""
"","S2","","html-keyboard-response","395","522353","0.0-1.0-544.0","0","0","92891","","null","","","null","60","","NaN","","","","","","","","","","","","","",""
"","response","","html-keyboard-response","396","522688","0.0-1.0-545.0-0.0","0","0","92891","","334","","","68","60","","","2","60","training","adjacent","DE","4","5","L.jpg","N.jpg","0","1","0","",""
"","feedback","","html-keyboard-response","397","523697","0.0-1.0-546.0-0.0","0","0","92891","","null","","","null","60","","","","","","","","","","","","","","","",""
"","time_out","","html-keyboard-response","398","525708","0.0-1.0-548.0-0.0","0","0","92891","","null","","","null","60","","","","","","","","","","","","","","","",""
"","ITI","","html-keyboard-response","399","526716","0.0-1.0-549.0","0","0","92891","","null","","","null","60","","","","","","","","","","","","","","","NaN",""
"","S1","","html-keyboard-response","400","526971","0.0-1.0-551.0","0","0","92891","","null","","","null","61","","","","","","","","","","","","","","","",""
"","ISI","","html-keyboard-response","401","527980","0.0-1.0-552.0","0","0","92891","","null","","","null","61","NaN","","","","","","","","","","","","","","",""
"","S2","","html-keyboard-response","402","528241","0.0-1.0-553.0","0","0","92891","","null","","","null","61","","NaN","","","","","","","","","","","","","",""
"","response","","html-keyboard-response","403","529274","0.0-1.0-554.0-0.0","0","0","92891","","1032","","","68","61","","","2","61","training","adjacent","FE","6","5","R.jpg","N.jpg","0","0","1","",""
"","feedback","","html-keyboard-response","404","530283","0.0-1.0-555.0-0.0","0","0","92891","","null","","","null","61","","","","","","","","","","","","","","","",""
"","ITI","","html-keyboard-response","405","531292","0.0-1.0-558.0","0","0","92891","","null","","","null","61","","","","","","","","","","","","","","","NaN",""
"","S1","","html-keyboard-response","406","531553","0.0-1.0-560.0","0","0","92891","","null","","","null","62","","","","","","","","","","","","","","","",""
"","ISI","","html-keyboard-response","407","532561","0.0-1.0-561.0","0","0","92891","","null","","","null","62","NaN","","","","","","","","","","","","","","",""
"","S2","","html-keyboard-response","408","532817","0.0-1.0-562.0","0","0","92891","","null","","","null","62","","NaN","","","","","","","","","","","","","",""
"","response","","html-keyboard-response","409","533427","0.0-1.0-563.0-0.0","0","0","92891","","609","","","68","62","","","2","62","training","adjacent","BC","2","3","O.jpg","P.jpg","0","1","0","",""
"","feedback","","html-keyboard-response","410","534433","0.0-1.0-564.0-0.0","0","0","92891","","null","","","null","62","","","","","","","","","","","","","","","",""
"","time_out","","html-keyboard-response","411","536443","0.0-1.0-566.0-0.0","0","0","92891","","null","","","null","62","","","","","","","","","","","","","","","",""
"","ITI","","html-keyboard-response","412","537451","0.0-1.0-567.0","0","0","92891","","null","","","null","62","","","","","","","","","","","","","","","NaN",""
"","S1","","html-keyboard-response","413","537707","0.0-1.0-569.0","0","0","92891","","null","","","null","63","","","","","","","","","","","","","","","",""
"","ISI","","html-keyboard-response","414","538715","0.0-1.0-570.0","0","0","92891","","null","","","null","63","NaN","","","","","","","","","","","","","","",""
"","S2","","html-keyboard-response","415","538971","0.0-1.0-571.0","0","0","92891","","null","","","null","63","","NaN","","","","","","","","","","","","","",""
"","response","","html-keyboard-response","416","539576","0.0-1.0-572.0-0.0","0","0","92891","","602","","","75","63","","","2","63","training","adjacent","EF","5","6","N.jpg","R.jpg","1","1","1","",""
"","feedback","","html-keyboard-response","417","540587","0.0-1.0-573.0-0.0","0","0","92891","","null","","","null","63","","","","","","","","","","","","","","","",""
"","ITI","","html-keyboard-response","418","541595","0.0-1.0-576.0","0","0","92891","","null","","","null","63","","","","","","","","","","","","","","","NaN",""
"","S1","","html-keyboard-response","419","541851","0.0-1.0-578.0","0","0","92891","","null","","","null","64","","","","","","","","","","","","","","","",""
"","ISI","","html-keyboard-response","420","542859","0.0-1.0-579.0","0","0","92891","","null","","","null","64","NaN","","","","","","","","","","","","","","",""
"","S2","","html-keyboard-response","421","543115","0.0-1.0-580.0","0","0","92891","","null","","","null","64","","NaN","","","","","","","","","","","","","",""
"","response","","html-keyboard-response","422","543880","0.0-1.0-581.0-0.0","0","0","92891","","764","","","68","64","","","2","64","training","adjacent","CB","3","2","P.jpg","O.jpg","0","0","1","",""
"","feedback","","html-keyboard-response","423","544892","0.0-1.0-582.0-0.0","0","0","92891","","null","","","null","64","","","","","","","","","","","","","","","",""
"","ITI","","html-keyboard-response","424","545899","0.0-1.0-585.0","0","0","92891","","null","","","null","64","","","","","","","","","","","","","","","NaN",""
"","S1","","html-keyboard-response","425","546156","0.0-1.0-587.0","0","0","92891","","null","","","null","65","","","","","","","","","","","","","","","",""
"","ISI","","html-keyboard-response","426","547164","0.0-1.0-588.0","0","0","92891","","null","","","null","65","NaN","","","","","","","","","","","","","","",""
"","S2","","html-keyboard-response","427","547425","0.0-1.0-589.0","0","0","92891","","null","","","null","65","","NaN","","","","","","","","","","","","","",""
"","response","","html-keyboard-response","428","547785","0.0-1.0-590.0-0.0","0","0","92891","","359","","","75","65","","","2","65","training","adjacent","EF","5","6","N.jpg","R.jpg","1","1","1","",""
"","feedback","","html-keyboard-response","429","548795","0.0-1.0-591.0-0.0","0","0","92891","","null","","","null","65","","","","","","","","","","","","","","","",""
"","ITI","","html-keyboard-response","430","549803","0.0-1.0-594.0","0","0","92891","","null","","","null","65","","","","","","","","","","","","","","","NaN",""
"","S1","","html-keyboard-response","431","550060","0.0-1.0-596.0","0","0","92891","","null","","","null","66","","","","","","","","","","","","","","","",""
"","ISI","","html-keyboard-response","432","551067","0.0-1.0-597.0","0","0","92891","","null","","","null","66","NaN","","","","","","","","","","","","","","",""
"","S2","","html-keyboard-response","433","551323","0.0-1.0-598.0","0","0","92891","","null","","","null","66","","NaN","","","","","","","","","","","","","",""
"","response","","html-keyboard-response","434","551717","0.0-1.0-599.0-0.0","0","0","92891","","392","","","75","66","","","2","66","training","adjacent","BA","2","1","O.jpg","Q.jpg","1","0","0","",""
"","feedback","","html-keyboard-response","435","552721","0.0-1.0-600.0-0.0","0","0","92891","","null","","","null","66","","","","","","","","","","","","","","","",""
"","time_out","","html-keyboard-response","436","554731","0.0-1.0-602.0-0.0","0","0","92891","","null","","","null","66","","","","","","","","","","","","","","","",""
"","ITI","","html-keyboard-response","437","555740","0.0-1.0-603.0","0","0","92891","","null","","","null","66","","","","","","","","","","","","","","","NaN",""
"","S1","","html-keyboard-response","438","556001","0.0-1.0-605.0","0","0","92891","","null","","","null","67","","","","","","","","","","","","","","","",""
"","ISI","","html-keyboard-response","439","557009","0.0-1.0-606.0","0","0","92891","","null","","","null","67","NaN","","","","","","","","","","","","","","",""
"","S2","","html-keyboard-response","440","557265","0.0-1.0-607.0","0","0","92891","","null","","","null","67","","NaN","","","","","","","","","","","","","",""
"","response","","html-keyboard-response","441","557851","0.0-1.0-608.0-0.0","0","0","92891","","585","","","68","67","","","2","67","training","adjacent","BC","2","3","O.jpg","P.jpg","0","1","0","",""
"","feedback","","html-keyboard-response","442","558860","0.0-1.0-609.0-0.0","0","0","92891","","null","","","null","67","","","","","","","","","","","","","","","",""
"","time_out","","html-keyboard-response","443","560865","0.0-1.0-611.0-0.0","0","0","92891","","null","","","null","67","","","","","","","","","","","","","","","",""
"","ITI","","html-keyboard-response","444","561873","0.0-1.0-612.0","0","0","92891","","null","","","null","67","","","","","","","","","","","","","","","NaN",""
"","S1","","html-keyboard-response","445","562129","0.0-1.0-614.0","0","0","92891","","null","","","null","68","","","","","","","","","","","","","","","",""
"","ISI","","html-keyboard-response","446","563137","0.0-1.0-615.0","0","0","92891","","null","","","null","68","NaN","","","","","","","","","","","","","","",""
"","S2","","html-keyboard-response","447","563393","0.0-1.0-616.0","0","0","92891","","null","","","null","68","","NaN","","","","","","","","","","","","","",""
"","response","","html-keyboard-response","448","564388","0.0-1.0-617.0-0.0","0","0","92891","","994","","","75","68","","","2","68","training","adjacent","GF","7","6","M.jpg","R.jpg","1","0","0","",""
"","feedback","","html-keyboard-response","449","565393","0.0-1.0-618.0-0.0","0","0","92891","","null","","","null","68","","","","","","","","","","","","","","","",""
"","time_out","","html-keyboard-response","450","567403","0.0-1.0-620.0-0.0","0","0","92891","","null","","","null","68","","","","","","","","","","","","","","","",""
"","ITI","","html-keyboard-response","451","568411","0.0-1.0-621.0","0","0","92891","","null","","","null","68","","","","","","","","","","","","","","","NaN",""
"","S1","","html-keyboard-response","452","568667","0.0-1.0-623.0","0","0","92891","","null","","","null","69","","","","","","","","","","","","","","","",""
"","ISI","","html-keyboard-response","453","569676","0.0-1.0-624.0","0","0","92891","","null","","","null","69","NaN","","","","","","","","","","","","","","",""
"","S2","","html-keyboard-response","454","569937","0.0-1.0-625.0","0","0","92891","","null","","","null","69","","NaN","","","","","","","","","","","","","",""
"","response","","html-keyboard-response","455","570630","0.0-1.0-626.0-0.0","0","0","92891","","692","","","75","69","","","2","69","training","adjacent","EF","5","6","N.jpg","R.jpg","1","1","1","",""
"","feedback","","html-keyboard-response","456","571643","0.0-1.0-627.0-0.0","0","0","92891","","null","","","null","69","","","","","","","","","","","","","","","",""
"","ITI","","html-keyboard-response","457","572651","0.0-1.0-630.0","0","0","92891","","null","","","null","69","","","","","","","","","","","","","","","NaN",""
"","S1","","html-keyboard-response","458","572907","0.0-1.0-632.0","0","0","92891","","null","","","null","70","","","","","","","","","","","","","","","",""
"","ISI","","html-keyboard-response","459","573914","0.0-1.0-633.0","0","0","92891","","null","","","null","70","NaN","","","","","","","","","","","","","","",""
"","S2","","html-keyboard-response","460","574171","0.0-1.0-634.0","0","0","92891","","null","","","null","70","","NaN","","","","","","","","","","","","","",""
"","response","","html-keyboard-response","461","575242","0.0-1.0-635.0-0.0","0","0","92891","","1069","","","75","70","","","2","70","training","adjacent","GF","7","6","M.jpg","R.jpg","1","0","0","",""
"","feedback","","html-keyboard-response","462","576251","0.0-1.0-636.0-0.0","0","0","92891","","null","","","null","70","","","","","","","","","","","","","","","",""
"","time_out","","html-keyboard-response","463","578257","0.0-1.0-638.0-0.0","0","0","92891","","null","","","null","70","","","","","","","","","","","","","","","",""
"","ITI","","html-keyboard-response","464","579265","0.0-1.0-639.0","0","0","92891","","null","","","null","70","","","","","","","","","","","","","","","NaN",""
"","S1","","html-keyboard-response","465","579521","0.0-1.0-641.0","0","0","92891","","null","","","null","71","","","","","","","","","","","","","","","",""
"","ISI","","html-keyboard-response","466","580533","0.0-1.0-642.0","0","0","92891","","null","","","null","71","NaN","","","","","","","","","","","","","","",""
"","S2","","html-keyboard-response","467","580795","0.0-1.0-643.0","0","0","92891","","null","","","null","71","","NaN","","","","","","","","","","","","","",""
"","response","","html-keyboard-response","468","581061","0.0-1.0-644.0-0.0","0","0","92891","","264","","","75","71","","","2","71","training","adjacent","BA","2","1","O.jpg","Q.jpg","1","0","0","",""
"","feedback","","html-keyboard-response","469","582064","0.0-1.0-645.0-0.0","0","0","92891","","null","","","null","71","","","","","","","","","","","","","","","",""
"","time_out","","html-keyboard-response","470","584075","0.0-1.0-647.0-0.0","0","0","92891","","null","","","null","71","","","","","","","","","","","","","","","",""
"","ITI","","html-keyboard-response","471","585083","0.0-1.0-648.0","0","0","92891","","null","","","null","71","","","","","","","","","","","","","","","NaN",""
"","S1","","html-keyboard-response","472","585339","0.0-1.0-650.0","0","0","92891","","null","","","null","72","","","","","","","","","","","","","","","",""
"","ISI","","html-keyboard-response","473","586347","0.0-1.0-651.0","0","0","92891","","null","","","null","72","NaN","","","","","","","","","","","","","","",""
"","S2","","html-keyboard-response","474","586603","0.0-1.0-652.0","0","0","92891","","null","","","null","72","","NaN","","","","","","","","","","","","","",""
"","response","","html-keyboard-response","475","588344","0.0-1.0-653.0-0.0","0","0","92891","","1739","","","75","72","","","2","72","training","adjacent","AB","1","2","Q.jpg","O.jpg","1","1","1","",""
"","feedback","","html-keyboard-response","476","589355","0.0-1.0-654.0-0.0","0","0","92891","","null","","","null","72","","","","","","","","","","","","","","","",""
"","ITI","","html-keyboard-response","477","590363","0.0-1.0-657.0","0","0","92891","","null","","","null","72","","","","","","","","","","","","","","","NaN",""
"","S1","","html-keyboard-response","478","590619","0.0-1.0-659.0","0","0","92891","","null","","","null","73","","","","","","","","","","","","","","","",""
"","ISI","","html-keyboard-response","479","591627","0.0-1.0-660.0","0","0","92891","","null","","","null","73","NaN","","","","","","","","","","","","","","",""
"","S2","","html-keyboard-response","480","591883","0.0-1.0-661.0","0","0","92891","","null","","","null","73","","NaN","","","","","","","","","","","","","",""
"","response","","html-keyboard-response","481","591964","0.0-1.0-662.0-0.0","0","0","92891","","79","","","75","73","","","2","73","training","adjacent","AB","1","2","Q.jpg","O.jpg","1","1","1","",""
"","feedback","","html-keyboard-response","482","592971","0.0-1.0-663.0-0.0","0","0","92891","","null","","","null","73","","","","","","","","","","","","","","","",""
"","ITI","","html-keyboard-response","483","593979","0.0-1.0-666.0","0","0","92891","","null","","","null","73","","","","","","","","","","","","","","","NaN",""
"","S1","","html-keyboard-response","484","594235","0.0-1.0-668.0","0","0","92891","","null","","","null","74","","","","","","","","","","","","","","","",""
"","ISI","","html-keyboard-response","485","595243","0.0-1.0-669.0","0","0","92891","","null","","","null","74","NaN","","","","","","","","","","","","","","",""
"","S2","","html-keyboard-response","486","595504","0.0-1.0-670.0","0","0","92891","","null","","","null","74","","NaN","","","","","","","","","","","","","",""
"","response","","html-keyboard-response","487","595900","0.0-1.0-671.0-0.0","0","0","92891","","394","","","75","74","","","2","74","training","adjacent","ED","5","4","N.jpg","L.jpg","1","0","0","",""
"","feedback","","html-keyboard-response","488","596907","0.0-1.0-672.0-0.0","0","0","92891","","null","","","null","74","","","","","","","","","","","","","","","",""
"","time_out","","html-keyboard-response","489","598912","0.0-1.0-674.0-0.0","0","0","92891","","null","","","null","74","","","","","","","","","","","","","","","",""
"","ITI","","html-keyboard-response","490","599921","0.0-1.0-675.0","0","0","92891","","null","","","null","74","","","","","","","","","","","","","","","NaN",""
"","S1","","html-keyboard-response","491","600176","0.0-1.0-677.0","0","0","92891","","null","","","null","75","","","","","","","","","","","","","","","",""
"","ISI","","html-keyboard-response","492","601184","0.0-1.0-678.0","0","0","92891","","null","","","null","75","NaN","","","","","","","","","","","","","","",""
"","S2","","html-keyboard-response","493","601441","0.0-1.0-679.0","0","0","92891","","null","","","null","75","","NaN","","","","","","","","","","","","","",""
"","response","","html-keyboard-response","494","602561","0.0-1.0-680.0-0.0","0","0","92891","","1119","","","68","75","","","2","75","training","adjacent","FE","6","5","R.jpg","N.jpg","0","0","1","",""
"","feedback","","html-keyboard-response","495","603568","0.0-1.0-681.0-0.0","0","0","92891","","null","","","null","75","","","","","","","","","","","","","","","",""
"","ITI","","html-keyboard-response","496","604576","0.0-1.0-684.0","0","0","92891","","null","","","null","75","","","","","","","","","","","","","","","NaN",""
"","S1","","html-keyboard-response","497","604832","0.0-1.0-686.0","0","0","92891","","null","","","null","76","","","","","","","","","","","","","","","",""
"","ISI","","html-keyboard-response","498","605841","0.0-1.0-687.0","0","0","92891","","null","","","null","76","NaN","","","","","","","","","","","","","","",""
"","S2","","html-keyboard-response","499","606097","0.0-1.0-688.0","0","0","92891","","null","","","null","76","","NaN","","","","","","","","","","","","","",""
"","response","","html-keyboard-response","500","606448","0.0-1.0-689.0-0.0","0","0","92891","","350","","","75","76","","","2","76","training","adjacent","ED","5","4","N.jpg","L.jpg","1","0","0","",""
"","feedback","","html-keyboard-response","501","607456","0.0-1.0-690.0-0.0","0","0","92891","","null","","","null","76","","","","","","","","","","","","","","","",""
"","time_out","","html-keyboard-response","502","609467","0.0-1.0-692.0-0.0","0","0","92891","","null","","","null","76","","","","","","","","","","","","","","","",""
"","ITI","","html-keyboard-response","503","610475","0.0-1.0-693.0","0","0","92891","","null","","","null","76","","","","","","","","","","","","","","","NaN",""
"","S1","","html-keyboard-response","504","610737","0.0-1.0-695.0","0","0","92891","","null","","","null","77","","","","","","","","","","","","","","","",""
"","ISI","","html-keyboard-response","505","611745","0.0-1.0-696.0","0","0","92891","","null","","","null","77","NaN","","","","","","","","","","","","","","",""
"","S2","","html-keyboard-response","506","612001","0.0-1.0-697.0","0","0","92891","","null","","","null","77","","NaN","","","","","","","","","","","","","",""
"","response","","html-keyboard-response","507","612307","0.0-1.0-698.0-0.0","0","0","92891","","306","","","75","77","","","2","77","training","adjacent","ED","5","4","N.jpg","L.jpg","1","0","0","",""
"","feedback","","html-keyboard-response","508","613312","0.0-1.0-699.0-0.0","0","0","92891","","null","","","null","77","","","","","","","","","","","","","","","",""
"","time_out","","html-keyboard-response","509","615323","0.0-1.0-701.0-0.0","0","0","92891","","null","","","null","77","","","","","","","","","","","","","","","",""
"","ITI","","html-keyboard-response","510","616331","0.0-1.0-702.0","0","0","92891","","null","","","null","77","","","","","","","","","","","","","","","NaN",""
"","S1","","html-keyboard-response","511","616587","0.0-1.0-704.0","0","0","92891","","null","","","null","78","","","","","","","","","","","","","","","",""
"","ISI","","html-keyboard-response","512","617595","0.0-1.0-705.0","0","0","92891","","null","","","null","78","NaN","","","","","","","","","","","","","","",""
"","S2","","html-keyboard-response","513","617851","0.0-1.0-706.0","0","0","92891","","null","","","null","78","","NaN","","","","","","","","","","","","","",""
"","response","","html-keyboard-response","514","618259","0.0-1.0-707.0-0.0","0","0","92891","","406","","","68","78","","","2","78","training","adjacent","AB","1","2","Q.jpg","O.jpg","0","1","0","",""
"","feedback","","html-keyboard-response","515","619264","0.0-1.0-708.0-0.0","0","0","92891","","null","","","null","78","","","","","","","","","","","","","","","",""
"","time_out","","html-keyboard-response","516","621275","0.0-1.0-710.0-0.0","0","0","92891","","null","","","null","78","","","","","","","","","","","","","","","",""
"","ITI","","html-keyboard-response","517","622283","0.0-1.0-711.0","0","0","92891","","null","","","null","78","","","","","","","","","","","","","","","NaN",""
"","S1","","html-keyboard-response","518","622538","0.0-1.0-713.0","0","0","92891","","null","","","null","79","","","","","","","","","","","","","","","",""
"","ISI","","html-keyboard-response","519","623547","0.0-1.0-714.0","0","0","92891","","null","","","null","79","NaN","","","","","","","","","","","","","","",""
"","S2","","html-keyboard-response","520","623809","0.0-1.0-715.0","0","0","92891","","null","","","null","79","","NaN","","","","","","","","","","","","","",""
"","response","","html-keyboard-response","521","624084","0.0-1.0-716.0-0.0","0","0","92891","","273","","","75","79","","","2","79","training","adjacent","BC","2","3","O.jpg","P.jpg","1","1","1","",""
"","feedback","","html-keyboard-response","522","625088","0.0-1.0-717.0-0.0","0","0","92891","","null","","","null","79","","","","","","","","","","","","","","","",""
"","ITI","","html-keyboard-response","523","626096","0.0-1.0-720.0","0","0","92891","","null","","","null","79","","","","","","","","","","","","","","","NaN",""
"","S1","","html-keyboard-response","524","626353","0.0-1.0-722.0","0","0","92891","","null","","","null","80","","","","","","","","","","","","","","","",""
"","ISI","","html-keyboard-response","525","627361","0.0-1.0-723.0","0","0","92891","","null","","","null","80","NaN","","","","","","","","","","","","","","",""
"","S2","","html-keyboard-response","526","627616","0.0-1.0-724.0","0","0","92891","","null","","","null","80","","NaN","","","","","","","","","","","","","",""
"","response","","html-keyboard-response","527","627944","0.0-1.0-725.0-0.0","0","0","92891","","327","","","75","80","","","2","80","training","adjacent","FE","6","5","R.jpg","N.jpg","1","0","0","",""
"","feedback","","html-keyboard-response","528","628955","0.0-1.0-726.0-0.0","0","0","92891","","null","","","null","80","","","","","","","","","","","","","","","",""
"","time_out","","html-keyboard-response","529","630961","0.0-1.0-728.0-0.0","0","0","92891","","null","","","null","80","","","","","","","","","","","","","","","",""
"","ITI","","html-keyboard-response","530","631968","0.0-1.0-729.0","0","0","92891","","null","","","null","80","","","","","","","","","","","","","","","NaN",""
"","S1","","html-keyboard-response","531","632225","0.0-1.0-731.0","0","0","92891","","null","","","null","81","","","","","","","","","","","","","","","",""
"","ISI","","html-keyboard-response","532","633233","0.0-1.0-732.0","0","0","92891","","null","","","null","81","NaN","","","","","","","","","","","","","","",""
"","S2","","html-keyboard-response","533","633488","0.0-1.0-733.0","0","0","92891","","null","","","null","81","","NaN","","","","","","","","","","","","","",""
"","response","","html-keyboard-response","534","633956","0.0-1.0-734.0-0.0","0","0","92891","","466","","","68","81","","","2","81","training","adjacent","DE","4","5","L.jpg","N.jpg","0","1","0","",""
"","feedback","","html-keyboard-response","535","634960","0.0-1.0-735.0-0.0","0","0","92891","","null","","","null","81","","","","","","","","","","","","","","","",""
"","time_out","","html-keyboard-response","536","636971","0.0-1.0-737.0-0.0","0","0","92891","","null","","","null","81","","","","","","","","","","","","","","","",""
"","ITI","","html-keyboard-response","537","637978","0.0-1.0-738.0","0","0","92891","","null","","","null","81","","","","","","","","","","","","","","","NaN",""
"","S1","","html-keyboard-response","538","638235","0.0-1.0-740.0","0","0","92891","","null","","","null","82","","","","","","","","","","","","","","","",""
"","ISI","","html-keyboard-response","539","639243","0.0-1.0-741.0","0","0","92891","","null","","","null","82","NaN","","","","","","","","","","","","","","",""
"","S2","","html-keyboard-response","540","639505","0.0-1.0-742.0","0","0","92891","","null","","","null","82","","NaN","","","","","","","","","","","","","",""
"","response","","html-keyboard-response","541","639812","0.0-1.0-743.0-0.0","0","0","92891","","306","","","75","82","","","2","82","training","adjacent","BC","2","3","O.jpg","P.jpg","1","1","1","",""
"","feedback","","html-keyboard-response","542","640816","0.0-1.0-744.0-0.0","0","0","92891","","null","","","null","82","","","","","","","","","","","","","","","",""
"","ITI","","html-keyboard-response","543","641824","0.0-1.0-747.0","0","0","92891","","null","","","null","82","","","","","","","","","","","","","","","NaN",""
"","S1","","html-keyboard-response","544","642081","0.0-1.0-749.0","0","0","92891","","null","","","null","83","","","","","","","","","","","","","","","",""
"","ISI","","html-keyboard-response","545","643088","0.0-1.0-750.0","0","0","92891","","null","","","null","83","NaN","","","","","","","","","","","","","","",""
"","S2","","html-keyboard-response","546","643344","0.0-1.0-751.0","0","0","92891","","null","","","null","83","","NaN","","","","","","","","","","","","","",""
"","response","","html-keyboard-response","547","643417","0.0-1.0-752.0-0.0","0","0","92891","","71","","","75","83","","","2","83","training","adjacent","CB","3","2","P.jpg","O.jpg","1","0","0","",""
"","feedback","","html-keyboard-response","548","644427","0.0-1.0-753.0-0.0","0","0","92891","","null","","","null","83","","","","","","","","","","","","","","","",""
"","time_out","","html-keyboard-response","549","646432","0.0-1.0-755.0-0.0","0","0","92891","","null","","","null","83","","","","","","","","","","","","","","","",""
"","ITI","","html-keyboard-response","550","647440","0.0-1.0-756.0","0","0","92891","","null","","","null","83","","","","","","","","","","","","","","","NaN",""
"","S1","","html-keyboard-response","551","647696","0.0-1.0-758.0","0","0","92891","","null","","","null","84","","","","","","","","","","","","","","","",""
"","ISI","","html-keyboard-response","552","648704","0.0-1.0-759.0","0","0","92891","","null","","","null","84","NaN","","","","","","","","","","","","","","",""
"","S2","","html-keyboard-response","553","648959","0.0-1.0-760.0","0","0","92891","","null","","","null","84","","NaN","","","","","","","","","","","","","",""
"","response","","html-keyboard-response","554","648960","0.0-1.0-761.0-0.0","0","0","92891","","0","","","75","84","","","2","84","training","adjacent","BA","2","1","O.jpg","Q.jpg","1","0","0","",""
"","feedback","","html-keyboard-response","555","649968","0.0-1.0-762.0-0.0","0","0","92891","","null","","","null","84","","","","","","","","","","","","","","","",""
"","time_out","","html-keyboard-response","556","651979","0.0-1.0-764.0-0.0","0","0","92891","","null","","","null","84","","","","","","","","","","","","","","","",""
"","ITI","","html-keyboard-response","557","652987","0.0-1.0-765.0","0","0","92891","","null","","","null","84","","","","","","","","","","","","","","","NaN",""
"","S1","","html-keyboard-response","558","653243","0.0-1.0-767.0","0","0","92891","","null","","","null","85","","","","","","","","","","","","","","","",""
"","ISI","","html-keyboard-response","559","654251","0.0-1.0-768.0","0","0","92891","","null","","","null","85","NaN","","","","","","","","","","","","","","",""
"","S2","","html-keyboard-response","560","654507","0.0-1.0-769.0","0","0","92891","","null","","","null","85","","NaN","","","","","","","","","","","","","",""
"","response","","html-keyboard-response","561","654655","0.0-1.0-770.0-0.0","0","0","92891","","145","","","75","85","","","2","85","training","adjacent","CD","3","4","P.jpg","L.jpg","1","1","1","",""
"","feedback","","html-keyboard-response","562","655665","0.0-1.0-771.0-0.0","0","0","92891","","null","","","null","85","","","","","","","","","","","","","","","",""
"","ITI","","html-keyboard-response","563","656672","0.0-1.0-774.0","0","0","92891","","null","","","null","85","","","","","","","","","","","","","","","NaN",""
"","S1","","html-keyboard-response","564","656928","0.0-1.0-776.0","0","0","92891","","null","","","null","86","","","","","","","","","","","","","","","",""
"","ISI","","html-keyboard-response","565","657936","0.0-1.0-777.0","0","0","92891","","null","","","null","86","NaN","","","","","","","","","","","","","","",""
"","S2","","html-keyboard-response","566","658192","0.0-1.0-778.0","0","0","92891","","null","","","null","86","","NaN","","","","","","","","","","","","","",""
"","response","","html-keyboard-response","567","658930","0.0-1.0-779.0-0.0","0","0","92891","","737","","","68","86","","","2","86","training","adjacent","GF","7","6","M.jpg","R.jpg","0","0","1","",""
"","feedback","","html-keyboard-response","568","659936","0.0-1.0-780.0-0.0","0","0","92891","","null","","","null","86","","","","","","","","","","","","","","","",""
"","ITI","","html-keyboard-response","569","660945","0.0-1.0-783.0","0","0","92891","","null","","","null","86","","","","","","","","","","","","","","","NaN",""
"","S1","","html-keyboard-response","570","661200","0.0-1.0-785.0","0","0","92891","","null","","","null","87","","","","","","","","","","","","","","","",""
"","ISI","","html-keyboard-response","571","662208","0.0-1.0-786.0","0","0","92891","","null","","","null","87","NaN","","","","","","","","","","","","","","",""
"","S2","","html-keyboard-response","572","662465","0.0-1.0-787.0","0","0","92891","","null","","","null","87","","NaN","","","","","","","","","","","","","",""
"","response","","html-keyboard-response","573","662831","0.0-1.0-788.0-0.0","0","0","92891","","365","","","68","87","","","2","87","training","adjacent","CB","3","2","P.jpg","O.jpg","0","0","1","",""
"","feedback","","html-keyboard-response","574","663840","0.0-1.0-789.0-0.0","0","0","92891","","null","","","null","87","","","","","","","","","","","","","","","",""
"","ITI","","html-keyboard-response","575","664848","0.0-1.0-792.0","0","0","92891","","null","","","null","87","","","","","","","","","","","","","","","NaN",""
"","S1","","html-keyboard-response","576","665104","0.0-1.0-794.0","0","0","92891","","null","","","null","88","","","","","","","","","","","","","","","",""
"","ISI","","html-keyboard-response","577","666112","0.0-1.0-795.0","0","0","92891","","null","","","null","88","NaN","","","","","","","","","","","","","","",""
"","S2","","html-keyboard-response","578","666368","0.0-1.0-796.0","0","0","92891","","null","","","null","88","","NaN","","","","","","","","","","","","","",""
"","response","","html-keyboard-response","579","666788","0.0-1.0-797.0-0.0","0","0","92891","","418","","","68","88","","","2","88","training","adjacent","DC","4","3","L.jpg","P.jpg","0","0","1","",""
"","feedback","","html-keyboard-response","580","667792","0.0-1.0-798.0-0.0","0","0","92891","","null","","","null","88","","","","","","","","","","","","","","","",""
