"success","ttype","start_time","trial_type","trial_index","time_elapsed","internal_node_id","warning","missed_checkup","PID","view_history","rt","responses","repeat_instructions","key_press","index","keypress_isi","keypress_S2","block","trial_num","phase","group_type","pair_type","S1_stim","S2_stim","S1_img","S2_img","S1_chosen","S1_higher","accuracy","keypress_iti","total_bonus_tally"
"true","full_screen","d04142023hr1545","fullscreen","0","6338","0.0-0.0","0","0","51720","","","","","","","","","","","","","","","","","","","","","",""
"","instructions","","instructions","1","53772","0.0-1.0-0.0-0.0","0","0","51720","[{""page_index"":0,""viewing_time"":4406},{""page_index"":1,""viewing_time"":32711},{""page_index"":2,""viewing_time"":7903},{""page_index"":3,""viewing_time"":2409}]","47430","","","","","","","","","","","","","","","","","","","",""
"","comprehension_check","","survey-multi-choice","2","94191","0.0-1.0-0.0-1.0","0","0","51720","","40413","{""Q0"":""True"",""Q1"":""D"",""Q2"":""Once the second image appears and while the screen 'MAKE A CHOICE' is shown"",""Q3"":""Green mark"",""Q4"":""either D or K""}","0","","","","","","","","","","","","","","","","","",""
"","start_exp","","html-keyboard-response","3","96404","0.0-1.0-1.0","0","0","51720","","2208","","","32","","","","","","","","","","","","","","","","",""
"","S1","","html-keyboard-response","4","96659","0.0-1.0-2.0","0","0","51720","","null","","","null","0","","","","","","","","","","","","","","","",""
"","ISI","","html-keyboard-response","5","97664","0.0-1.0-3.0","0","0","51720","","null","","","null","0","NaN","","","","","","","","","","","","","","",""
"","S2","","html-keyboard-response","6","97920","0.0-1.0-4.0","0","0","51720","","null","","","null","0","","NaN","","","","","","","","","","","","","",""
"","response","","html-keyboard-response","7","98756","0.0-1.0-5.0-0.0","0","0","51720","","832","","","68","0","","","1","0","training","adjacent","BC","2","3","O.jpg","R.jpg","1","1","1","",""
"","feedback","","html-keyboard-response","8","99761","0.0-1.0-6.0-0.0","0","0","51720","","null","","","null","0","","","","","","","","","","","","","","","",""
"","ITI","","html-keyboard-response","9","100766","0.0-1.0-9.0","0","0","51720","","null","","","null","0","","","","","","","","","","","","","","","NaN",""
"","S1","","html-keyboard-response","10","101021","0.0-1.0-11.0","0","0","51720","","null","","","null","1","","","","","","","","","","","","","","","",""
"","ISI","","html-keyboard-response","11","102025","0.0-1.0-12.0","0","0","51720","","null","","","null","1","NaN","","","","","","","","","","","","","","",""
"","S2","","html-keyboard-response","12","102280","0.0-1.0-13.0","0","0","51720","","null","","","null","1","","NaN","","","","","","","","","","","","","",""
"","response","","html-keyboard-response","13","102785","0.0-1.0-14.0-0.0","0","0","51720","","501","","","75","1","","","1","1","training","adjacent","ED","5","4","P.jpg","M.jpg","0","0","1","",""
"","feedback","","html-keyboard-response","14","103791","0.0-1.0-15.0-0.0","0","0","51720","","null","","","null","1","","","","","","","","","","","","","","","",""
"","ITI","","html-keyboard-response","15","104794","0.0-1.0-18.0","0","0","51720","","null","","","null","1","","","","","","","","","","","","","","","NaN",""
"","S1","","html-keyboard-response","16","105050","0.0-1.0-20.0","0","0","51720","","null","","","null","2","","","","","","","","","","","","","","","",""
"","ISI","","html-keyboard-response","17","106053","0.0-1.0-21.0","0","0","51720","","null","","","null","2","NaN","","","","","","","","","","","","","","",""
"","S2","","html-keyboard-response","18","106308","0.0-1.0-22.0","0","0","51720","","null","","","null","2","","NaN","","","","","","","","","","","","","",""
"","response","","html-keyboard-response","19","106973","0.0-1.0-23.0-0.0","0","0","51720","","663","","","75","2","","","1","2","training","adjacent","BC","2","3","O.jpg","R.jpg","0","1","0","",""
"","feedback","","html-keyboard-response","20","107978","0.0-1.0-24.0-0.0","0","0","51720","","null","","","null","2","","","","","","","","","","","","","","","",""
"","time_out","","html-keyboard-response","21","109981","0.0-1.0-26.0-0.0","0","0","51720","","null","","","null","2","","","","","","","","","","","","","","","",""
"","ITI","","html-keyboard-response","22","110986","0.0-1.0-27.0","0","0","51720","","null","","","null","2","","","","","","","","","","","","","","","NaN",""
"","S1","","html-keyboard-response","23","111241","0.0-1.0-29.0","0","0","51720","","null","","","null","3","","","","","","","","","","","","","","","",""
"","ISI","","html-keyboard-response","24","112245","0.0-1.0-30.0","0","0","51720","","null","","","null","3","NaN","","","","","","","","","","","","","","",""
"","S2","","html-keyboard-response","25","112501","0.0-1.0-31.0","0","0","51720","","null","","","null","3","","NaN","","","","","","","","","","","","","",""
"","response","","html-keyboard-response","26","112918","0.0-1.0-32.0-0.0","0","0","51720","","413","","","75","3","","","1","3","training","adjacent","EF","5","6","P.jpg","Q.jpg","0","1","0","",""
"","feedback","","html-keyboard-response","27","113922","0.0-1.0-33.0-0.0","0","0","51720","","null","","","null","3","","","","","","","","","","","","","","","",""
"","time_out","","html-keyboard-response","28","115926","0.0-1.0-35.0-0.0","0","0","51720","","null","","","null","3","","","","","","","","","","","","","","","",""
"","ITI","","html-keyboard-response","29","116930","0.0-1.0-36.0","0","0","51720","","null","","","null","3","","","","","","","","","","","","","","","NaN",""
"","S1","","html-keyboard-response","30","117184","0.0-1.0-38.0","0","0","51720","","null","","","null","4","","","","","","","","","","","","","","","",""
"","ISI","","html-keyboard-response","31","118188","0.0-1.0-39.0","0","0","51720","","null","","","null","4","NaN","","","","","","","","","","","","","","",""
"","S2","","html-keyboard-response","32","118443","0.0-1.0-40.0","0","0","51720","","null","","","null","4","","NaN","","","","","","","","","","","","","",""
"","response","","html-keyboard-response","33","118766","0.0-1.0-41.0-0.0","0","0","51720","","319","","","68","4","","","1","4","training","adjacent","BC","2","3","O.jpg","R.jpg","1","1","1","",""
"","feedback","","html-keyboard-response","34","119770","0.0-1.0-42.0-0.0","0","0","51720","","null","","","null","4","","","","","","","","","","","","","","","",""
"","ITI","","html-keyboard-response","35","120775","0.0-1.0-45.0","0","0","51720","","null","","","null","4","","","","","","","","","","","","","","","NaN",""
"","S1","","html-keyboard-response","36","121030","0.0-1.0-47.0","0","0","51720","","null","","","null","5","","","","","","","","","","","","","","","",""
"","ISI","","html-keyboard-response","37","122033","0.0-1.0-48.0","0","0","51720","","null","","","null","5","NaN","","","","","","","","","","","","","","",""
"","S2","","html-keyboard-response","38","122298","0.0-1.0-49.0","0","0","51720","","null","","","null","5","","NaN","","","","","","","","","","","","","",""
"","response","","html-keyboard-response","39","122638","0.0-1.0-50.0-0.0","0","0","51720","","337","","","68","5","","","1","5","training","adjacent","AB","1","2","L.jpg","O.jpg","1","1","1","",""
"","feedback","","html-keyboard-response","40","123643","0.0-1.0-51.0-0.0","0","0","51720","","null","","","null","5","","","","","","","","","","","","","","","",""
"","ITI","","html-keyboard-response","41","124647","0.0-1.0-54.0","0","0","51720","","null","","","null","5","","","","","","","","","","","","","","","NaN",""
"","S1","","html-keyboard-response","42","124902","0.0-1.0-56.0","0","0","51720","","null","","","null","6","","","","","","","","","","","","","","","",""
"","ISI","","html-keyboard-response","43","125905","0.0-1.0-57.0","0","0","51720","","null","","","null","6","NaN","","","","","","","","","","","","","","",""
"","S2","","html-keyboard-response","44","126159","0.0-1.0-58.0","0","0","51720","","null","","","null","6","","NaN","","","","","","","","","","","","","",""
"","response","","html-keyboard-response","45","126523","0.0-1.0-59.0-0.0","0","0","51720","","361","","","68","6","","","1","6","training","adjacent","ED","5","4","P.jpg","M.jpg","1","0","0","",""
"","feedback","","html-keyboard-response","46","127527","0.0-1.0-60.0-0.0","0","0","51720","","null","","","null","6","","","","","","","","","","","","","","","",""
"","time_out","","html-keyboard-response","47","129530","0.0-1.0-62.0-0.0","0","0","51720","","null","","","null","6","","","","","","","","","","","","","","","",""
"","ITI","","html-keyboard-response","48","130535","0.0-1.0-63.0","0","0","51720","","null","","","null","6","","","","","","","","","","","","","","","NaN",""
"","S1","","html-keyboard-response","49","130790","0.0-1.0-65.0","0","0","51720","","null","","","null","7","","","","","","","","","","","","","","","",""
"","ISI","","html-keyboard-response","50","131794","0.0-1.0-66.0","0","0","51720","","null","","","null","7","NaN","","","","","","","","","","","","","","",""
"","S2","","html-keyboard-response","51","132049","0.0-1.0-67.0","0","0","51720","","null","","","null","7","","NaN","","","","","","","","","","","","","",""
"","response","","html-keyboard-response","52","132846","0.0-1.0-68.0-0.0","0","0","51720","","794","","","75","7","","","1","7","training","adjacent","DC","4","3","M.jpg","R.jpg","0","0","1","",""
"","feedback","","html-keyboard-response","53","133850","0.0-1.0-69.0-0.0","0","0","51720","","null","","","null","7","","","","","","","","","","","","","","","",""
"","ITI","","html-keyboard-response","54","134854","0.0-1.0-72.0","0","0","51720","","null","","","null","7","","","","","","","","","","","","","","","NaN",""
"","S1","","html-keyboard-response","55","135108","0.0-1.0-74.0","0","0","51720","","null","","","null","8","","","","","","","","","","","","","","","",""
"","ISI","","html-keyboard-response","56","136112","0.0-1.0-75.0","0","0","51720","","null","","","null","8","NaN","","","","","","","","","","","","","","",""
"","S2","","html-keyboard-response","57","136367","0.0-1.0-76.0","0","0","51720","","null","","","null","8","","NaN","","","","","","","","","","","","","",""
"","response","","html-keyboard-response","58","136802","0.0-1.0-77.0-0.0","0","0","51720","","431","","","75","8","","","1","8","training","adjacent","FG","6","7","Q.jpg","N.jpg","0","1","0","",""
"","feedback","","html-keyboard-response","59","137806","0.0-1.0-78.0-0.0","0","0","51720","","null","","","null","8","","","","","","","","","","","","","","","",""
"","time_out","","html-keyboard-response","60","139811","0.0-1.0-80.0-0.0","0","0","51720","","null","","","null","8","","","","","","","","","","","","","","","",""
"","ITI","","html-keyboard-response","61","140814","0.0-1.0-81.0","0","0","51720","","null","","","null","8","","","","","","","","","","","","","","","NaN",""
"","S1","","html-keyboard-response","62","141068","0.0-1.0-83.0","0","0","51720","","null","","","null","9","","","","","","","","","","","","","","","",""
"","ISI","","html-keyboard-response","63","142072","0.0-1.0-84.0","0","0","51720","","null","","","null","9","NaN","","","","","","","","","","","","","","",""
"","S2","","html-keyboard-response","64","142328","0.0-1.0-85.0","0","0","51720","","null","","","null","9","","NaN","","","","","","","","","","","","","",""
"","response","","html-keyboard-response","65","142897","0.0-1.0-86.0-0.0","0","0","51720","","565","","","75","9","","","1","9","training","adjacent","BC","2","3","O.jpg","R.jpg","0","1","0","",""
"","feedback","","html-keyboard-response","66","143902","0.0-1.0-87.0-0.0","0","0","51720","","null","","","null","9","","","","","","","","","","","","","","","",""
"","time_out","","html-keyboard-response","67","145905","0.0-1.0-89.0-0.0","0","0","51720","","null","","","null","9","","","","","","","","","","","","","","","",""
"","ITI","","html-keyboard-response","68","146910","0.0-1.0-90.0","0","0","51720","","null","","","null","9","","","","","","","","","","","","","","","NaN",""
"","S1","","html-keyboard-response","69","147164","0.0-1.0-92.0","0","0","51720","","null","","","null","10","","","","","","","","","","","","","","","",""
"","ISI","","html-keyboard-response","70","148168","0.0-1.0-93.0","0","0","51720","","null","","","null","10","NaN","","","","","","","","","","","","","","",""
"","S2","","html-keyboard-response","71","148422","0.0-1.0-94.0","0","0","51720","","null","","","null","10","","NaN","","","","","","","","","","","","","",""
"","response","","html-keyboard-response","72","149095","0.0-1.0-95.0-0.0","0","0","51720","","669","","","68","10","","","1","10","training","adjacent","GF","7","6","N.jpg","Q.jpg","1","0","0","",""
"","feedback","","html-keyboard-response","73","150099","0.0-1.0-96.0-0.0","0","0","51720","","null","","","null","10","","","","","","","","","","","","","","","",""
"","time_out","","html-keyboard-response","74","152103","0.0-1.0-98.0-0.0","0","0","51720","","null","","","null","10","","","","","","","","","","","","","","","",""
"","ITI","","html-keyboard-response","75","153107","0.0-1.0-99.0","0","0","51720","","null","","","null","10","","","","","","","","","","","","","","","NaN",""
"","S1","","html-keyboard-response","76","153362","0.0-1.0-101.0","0","0","51720","","null","","","null","11","","","","","","","","","","","","","","","",""
"","ISI","","html-keyboard-response","77","154367","0.0-1.0-102.0","0","0","51720","","null","","","null","11","NaN","","","","","","","","","","","","","","",""
"","S2","","html-keyboard-response","78","154623","0.0-1.0-103.0","0","0","51720","","null","","","null","11","","NaN","","","","","","","","","","","","","",""
"","response","","html-keyboard-response","79","155166","0.0-1.0-104.0-0.0","0","0","51720","","539","","","68","11","","","1","11","training","adjacent","ED","5","4","P.jpg","M.jpg","1","0","0","",""
"","feedback","","html-keyboard-response","80","156170","0.0-1.0-105.0-0.0","0","0","51720","","null","","","null","11","","","","","","","","","","","","","","","",""
"","time_out","","html-keyboard-response","81","158174","0.0-1.0-107.0-0.0","0","0","51720","","null","","","null","11","","","","","","","","","","","","","","","",""
"","ITI","","html-keyboard-response","82","159178","0.0-1.0-108.0","0","0","51720","","null","","","null","11","","","","","","","","","","","","","","","NaN",""
"","S1","","html-keyboard-response","83","159432","0.0-1.0-110.0","0","0","51720","","null","","","null","12","","","","","","","","","","","","","","","",""
"","ISI","","html-keyboard-response","84","160435","0.0-1.0-111.0","0","0","51720","","null","","","null","12","NaN","","","","","","","","","","","","","","",""
"","S2","","html-keyboard-response","85","160690","0.0-1.0-112.0","0","0","51720","","null","","","null","12","","NaN","","","","","","","","","","","","","",""
"","response","","html-keyboard-response","86","160996","0.0-1.0-113.0-0.0","0","0","51720","","303","","","75","12","","","1","12","training","adjacent","FE","6","5","Q.jpg","P.jpg","0","0","1","",""
"","feedback","","html-keyboard-response","87","162000","0.0-1.0-114.0-0.0","0","0","51720","","null","","","null","12","","","","","","","","","","","","","","","",""
"","ITI","","html-keyboard-response","88","163005","0.0-1.0-117.0","0","0","51720","","null","","","null","12","","","","","","","","","","","","","","","NaN",""
"","S1","","html-keyboard-response","89","163259","0.0-1.0-119.0","0","0","51720","","null","","","null","13","","","","","","","","","","","","","","","",""
"","ISI","","html-keyboard-response","90","164264","0.0-1.0-120.0","0","0","51720","","null","","","null","13","NaN","","","","","","","","","","","","","","",""
"","S2","","html-keyboard-response","91","164517","0.0-1.0-121.0","0","0","51720","","null","","","null","13","","NaN","","","","","","","","","","","","","",""
"","response","","html-keyboard-response","92","164760","0.0-1.0-122.0-0.0","0","0","51720","","239","","","75","13","","","1","13","training","adjacent","AB","1","2","L.jpg","O.jpg","0","1","0","",""
"","feedback","","html-keyboard-response","93","165764","0.0-1.0-123.0-0.0","0","0","51720","","null","","","null","13","","","","","","","","","","","","","","","",""
"","time_out","","html-keyboard-response","94","167768","0.0-1.0-125.0-0.0","0","0","51720","","null","","","null","13","","","","","","","","","","","","","","","",""
"","ITI","","html-keyboard-response","95","168772","0.0-1.0-126.0","0","0","51720","","null","","","null","13","","","","","","","","","","","","","","","NaN",""
"","S1","","html-keyboard-response","96","169026","0.0-1.0-128.0","0","0","51720","","null","","","null","14","","","","","","","","","","","","","","","",""
"","ISI","","html-keyboard-response","97","170030","0.0-1.0-129.0","0","0","51720","","null","","","null","14","NaN","","","","","","","","","","","","","","",""
"","S2","","html-keyboard-response","98","170285","0.0-1.0-130.0","0","0","51720","","null","","","null","14","","NaN","","","","","","","","","","","","","",""
"","response","","html-keyboard-response","99","170958","0.0-1.0-131.0-0.0","0","0","51720","","669","","","75","14","","","1","14","training","adjacent","CB","3","2","R.jpg","O.jpg","0","0","1","",""
"","feedback","","html-keyboard-response","100","171962","0.0-1.0-132.0-0.0","0","0","51720","","null","","","null","14","","","","","","","","","","","","","","","",""
"","ITI","","html-keyboard-response","101","172966","0.0-1.0-135.0","0","0","51720","","null","","","null","14","","","","","","","","","","","","","","","NaN",""
"","S1","","html-keyboard-response","102","173219","0.0-1.0-137.0","0","0","51720","","null","","","null","15","","","","","","","","","","","","","","","",""
"","ISI","","html-keyboard-response","103","174222","0.0-1.0-138.0","0","0","51720","","null","","","null","15","NaN","","","","","","","","","","","","","","",""
"","S2","","html-keyboard-response","104","174484","0.0-1.0-139.0","0","0","51720","","null","","","null","15","","NaN","","","","","","","","","","","","","",""
"","response","","html-keyboard-response","105","174875","0.0-1.0-140.0-0.0","0","0","51720","","387","","","68","15","","","1","15","training","adjacent","BA","2","1","O.jpg","L.jpg","1","0","0","",""
"","feedback","","html-keyboard-response","106","175879","0.0-1.0-141.0-0.0","0","0","51720","","null","","","null","15","","","","","","","","","","","","","","","",""
"","time_out","","html-keyboard-response","107","177882","0.0-1.0-143.0-0.0","0","0","51720","","null","","","null","15","","","","","","","","","","","","","","","",""
"","ITI","","html-keyboard-response","108","178886","0.0-1.0-144.0","0","0","51720","","null","","","null","15","","","","","","","","","","","","","","","NaN",""
"","S1","","html-keyboard-response","109","179140","0.0-1.0-146.0","0","0","51720","","null","","","null","16","","","","","","","","","","","","","","","",""
"","ISI","","html-keyboard-response","110","180144","0.0-1.0-147.0","0","0","51720","","null","","","null","16","NaN","","","","","","","","","","","","","","",""
"","S2","","html-keyboard-response","111","180399","0.0-1.0-148.0","0","0","51720","","null","","","null","16","","NaN","","","","","","","","","","","","","",""
"","response","","html-keyboard-response","112","180792","0.0-1.0-149.0-0.0","0","0","51720","","389","","","75","16","","","1","16","training","adjacent","GF","7","6","N.jpg","Q.jpg","0","0","1","",""
"","feedback","","html-keyboard-response","113","181798","0.0-1.0-150.0-0.0","0","0","51720","","null","","","null","16","","","","","","","","","","","","","","","",""
"","ITI","","html-keyboard-response","114","182802","0.0-1.0-153.0","0","0","51720","","null","","","null","16","","","","","","","","","","","","","","","NaN",""
"","S1","","html-keyboard-response","115","183056","0.0-1.0-155.0","0","0","51720","","null","","","null","17","","","","","","","","","","","","","","","",""
"","ISI","","html-keyboard-response","116","184060","0.0-1.0-156.0","0","0","51720","","null","","","null","17","NaN","","","","","","","","","","","","","","",""
"","S2","","html-keyboard-response","117","184314","0.0-1.0-157.0","0","0","51720","","null","","","null","17","","NaN","","","","","","","","","","","","","",""
"","response","","html-keyboard-response","118","184758","0.0-1.0-158.0-0.0","0","0","51720","","440","","","75","17","","","1","17","training","adjacent","EF","5","6","P.jpg","Q.jpg","0","1","0","",""
"","feedback","","html-keyboard-response","119","185762","0.0-1.0-159.0-0.0","0","0","51720","","null","","","null","17","","","","","","","","","","","","","","","",""
"","time_out","","html-keyboard-response","120","187766","0.0-1.0-161.0-0.0","0","0","51720","","null","","","null","17","","","","","","","","","","","","","","","",""
"","ITI","","html-keyboard-response","121","188770","0.0-1.0-162.0","0","0","51720","","null","","","null","17","","","","","","","","","","","","","","","NaN",""
"","S1","","html-keyboard-response","122","189025","0.0-1.0-164.0","0","0","51720","","null","","","null","18","","","","","","","","","","","","","","","",""
"","ISI","","html-keyboard-response","123","190030","0.0-1.0-165.0","0","0","51720","","null","","","null","18","NaN","","","","","","","","","","","","","","",""
"","S2","","html-keyboard-response","124","190284","0.0-1.0-166.0","0","0","51720","","null","","","null","18","","NaN","","","","","","","","","","","","","",""
"","response","","html-keyboard-response","125","191067","0.0-1.0-167.0-0.0","0","0","51720","","779","","","75","18","","","1","18","training","adjacent","BA","2","1","O.jpg","L.jpg","0","0","1","",""
"","feedback","","html-keyboard-response","126","192071","0.0-1.0-168.0-0.0","0","0","51720","","null","","","null","18","","","","","","","","","","","","","","","",""
"","ITI","","html-keyboard-response","127","193076","0.0-1.0-171.0","0","0","51720","","null","","","null","18","","","","","","","","","","","","","","","NaN",""
"","S1","","html-keyboard-response","128","193331","0.0-1.0-173.0","0","0","51720","","null","","","null","19","","","","","","","","","","","","","","","",""
"","ISI","","html-keyboard-response","129","194335","0.0-1.0-174.0","0","0","51720","","null","","","null","19","NaN","","","","","","","","","","","","","","",""
"","S2","","html-keyboard-response","130","194589","0.0-1.0-175.0","0","0","51720","","null","","","null","19","","NaN","","","","","","","","","","","","","",""
"","response","","html-keyboard-response","131","195134","0.0-1.0-176.0-0.0","0","0","51720","","541","","","68","19","","","1","19","training","adjacent","FG","6","7","Q.jpg","N.jpg","1","1","1","",""
"","feedback","","html-keyboard-response","132","196141","0.0-1.0-177.0-0.0","0","0","51720","","null","","","null","19","","","","","","","","","","","","","","","",""
"","ITI","","html-keyboard-response","133","197145","0.0-1.0-180.0","0","0","51720","","null","","","null","19","","","","","","","","","","","","","","","NaN",""
"","S1","","html-keyboard-response","134","197399","0.0-1.0-182.0","0","0","51720","","null","","","null","20","","","","","","","","","","","","","","","",""
"","ISI","","html-keyboard-response","135","198403","0.0-1.0-183.0","0","0","51720","","null","","","null","20","NaN","","","","","","","","","","","","","","",""
"","S2","","html-keyboard-response","136","198658","0.0-1.0-184.0","0","0","51720","","null","","","null","20","","NaN","","","","","","","","","","","","","",""
"","response","","html-keyboard-response","137","199126","0.0-1.0-185.0-0.0","0","0","51720","","465","","","75","20","","","1","20","training","adjacent","DE","4","5","M.jpg","P.jpg","0","1","0","",""
"","feedback","","html-keyboard-response","138","200131","0.0-1.0-186.0-0.0","0","0","51720","","null","","","null","20","","","","","","","","","","","","","","","",""
"","time_out","","html-keyboard-response","139","202134","0.0-1.0-188.0-0.0","0","0","51720","","null","","","null","20","","","","","","","","","","","","","","","",""
"","ITI","","html-keyboard-response","140","203137","0.0-1.0-189.0","0","0","51720","","null","","","null","20","","","","","","","","","","","","","","","NaN",""
"","S1","","html-keyboard-response","141","203391","0.0-1.0-191.0","0","0","51720","","null","","","null","21","","","","","","","","","","","","","","","",""
"","ISI","","html-keyboard-response","142","204395","0.0-1.0-192.0","0","0","51720","","null","","","null","21","NaN","","","","","","","","","","","","","","",""
"","S2","","html-keyboard-response","143","204649","0.0-1.0-193.0","0","0","51720","","null","","","null","21","","NaN","","","","","","","","","","","","","",""
"","response","","html-keyboard-response","144","204995","0.0-1.0-194.0-0.0","0","0","51720","","342","","","75","21","","","1","21","training","adjacent","EF","5","6","P.jpg","Q.jpg","0","1","0","",""
"","feedback","","html-keyboard-response","145","205999","0.0-1.0-195.0-0.0","0","0","51720","","null","","","null","21","","","","","","","","","","","","","","","",""
"","time_out","","html-keyboard-response","146","208003","0.0-1.0-197.0-0.0","0","0","51720","","null","","","null","21","","","","","","","","","","","","","","","",""
"","ITI","","html-keyboard-response","147","209008","0.0-1.0-198.0","0","0","51720","","null","","","null","21","","","","","","","","","","","","","","","NaN",""
"","S1","","html-keyboard-response","148","209262","0.0-1.0-200.0","0","0","51720","","null","","","null","22","","","","","","","","","","","","","","","",""
"","ISI","","html-keyboard-response","149","210266","0.0-1.0-201.0","0","0","51720","","null","","","null","22","NaN","","","","","","","","","","","","","","",""
"","S2","","html-keyboard-response","150","210520","0.0-1.0-202.0","0","0","51720","","null","","","null","22","","NaN","","","","","","","","","","","","","",""
"","response","","html-keyboard-response","151","211015","0.0-1.0-203.0-0.0","0","0","51720","","491","","","68","22","","","1","22","training","adjacent","AB","1","2","L.jpg","O.jpg","1","1","1","",""
"","feedback","","html-keyboard-response","152","212028","0.0-1.0-204.0-0.0","0","0","51720","","null","","","null","22","","","","","","","","","","","","","","","",""
"","ITI","","html-keyboard-response","153","213031","0.0-1.0-207.0","0","0","51720","","null","","","null","22","","","","","","","","","","","","","","","NaN",""
"","S1","","html-keyboard-response","154","213285","0.0-1.0-209.0","0","0","51720","","null","","","null","23","","","","","","","","","","","","","","","",""
"","ISI","","html-keyboard-response","155","214289","0.0-1.0-210.0","0","0","51720","","null","","","null","23","NaN","","","","","","","","","","","","","","",""
"","S2","","html-keyboard-response","156","214543","0.0-1.0-211.0","0","0","51720","","null","","","null","23","","NaN","","","","","","","","","","","","","",""
"","response","","html-keyboard-response","157","215080","0.0-1.0-212.0-0.0","0","0","51720","","533","","","68","23","","","1","23","training","adjacent","CB","3","2","R.jpg","O.jpg","1","0","0","",""
"","feedback","","html-keyboard-response","158","216084","0.0-1.0-213.0-0.0","0","0","51720","","null","","","null","23","","","","","","","","","","","","","","","",""
"","time_out","","html-keyboard-response","159","218089","0.0-1.0-215.0-0.0","0","0","51720","","null","","","null","23","","","","","","","","","","","","","","","",""
"","ITI","","html-keyboard-response","160","219092","0.0-1.0-216.0","0","0","51720","","null","","","null","23","","","","","","","","","","","","","","","NaN",""
"","S1","","html-keyboard-response","161","219345","0.0-1.0-218.0","0","0","51720","","null","","","null","24","","","","","","","","","","","","","","","",""
"","ISI","","html-keyboard-response","162","220349","0.0-1.0-219.0","0","0","51720","","null","","","null","24","NaN","","","","","","","","","","","","","","",""
"","S2","","html-keyboard-response","163","220603","0.0-1.0-220.0","0","0","51720","","null","","","null","24","","NaN","","","","","","","","","","","","","",""
"","response","","html-keyboard-response","164","221195","0.0-1.0-221.0-0.0","0","0","51720","","589","","","68","24","","","1","24","training","adjacent","CD","3","4","R.jpg","M.jpg","1","1","1","",""
"","feedback","","html-keyboard-response","165","222200","0.0-1.0-222.0-0.0","0","0","51720","","null","","","null","24","","","","","","","","","","","","","","","",""
"","ITI","","html-keyboard-response","166","223204","0.0-1.0-225.0","0","0","51720","","null","","","null","24","","","","","","","","","","","","","","","NaN",""
"","S1","","html-keyboard-response","167","223459","0.0-1.0-227.0","0","0","51720","","null","","","null","25","","","","","","","","","","","","","","","",""
"","ISI","","html-keyboard-response","168","224475","0.0-1.0-228.0","0","0","51720","","null","","","null","25","NaN","","","","","","","","","","","","","","",""
"","S2","","html-keyboard-response","169","224729","0.0-1.0-229.0","0","0","51720","","null","","","null","25","","NaN","","","","","","","","","","","","","",""
"","response","","html-keyboard-response","170","225258","0.0-1.0-230.0-0.0","0","0","51720","","525","","","68","25","","","1","25","training","adjacent","CD","3","4","R.jpg","M.jpg","1","1","1","",""
"","feedback","","html-keyboard-response","171","226263","0.0-1.0-231.0-0.0","0","0","51720","","null","","","null","25","","","","","","","","","","","","","","","",""
"","ITI","","html-keyboard-response","172","227266","0.0-1.0-234.0","0","0","51720","","null","","","null","25","","","","","","","","","","","","","","","NaN",""
"","S1","","html-keyboard-response","173","227520","0.0-1.0-236.0","0","0","51720","","null","","","null","26","","","","","","","","","","","","","","","",""
"","ISI","","html-keyboard-response","174","228524","0.0-1.0-237.0","0","0","51720","","null","","","null","26","NaN","","","","","","","","","","","","","","",""
"","S2","","html-keyboard-response","175","228779","0.0-1.0-238.0","0","0","51720","","null","","","null","26","","NaN","","","","","","","","","","","","","",""
"","response","","html-keyboard-response","176","229297","0.0-1.0-239.0-0.0","0","0","51720","","514","","","68","26","","","1","26","training","adjacent","DC","4","3","M.jpg","R.jpg","1","0","0","",""
"","feedback","","html-keyboard-response","177","230301","0.0-1.0-240.0-0.0","0","0","51720","","null","","","null","26","","","","","","","","","","","","","","","",""
"","time_out","","html-keyboard-response","178","232306","0.0-1.0-242.0-0.0","0","0","51720","","null","","","null","26","","","","","","","","","","","","","","","",""
"","ITI","","html-keyboard-response","179","233310","0.0-1.0-243.0","0","0","51720","","null","","","null","26","","","","","","","","","","","","","","","NaN",""
"","S1","","html-keyboard-response","180","233571","0.0-1.0-245.0","0","0","51720","","null","","","null","27","","","","","","","","","","","","","","","",""
"","ISI","","html-keyboard-response","181","234575","0.0-1.0-246.0","0","0","51720","","null","","","null","27","NaN","","","","","","","","","","","","","","",""
"","S2","","html-keyboard-response","182","234830","0.0-1.0-247.0","0","0","51720","","null","","","null","27","","NaN","","","","","","","","","","","","","",""
"","response","","html-keyboard-response","183","235844","0.0-1.0-248.0-0.0","0","0","51720","","1011","","","75","27","","","1","27","training","adjacent","EF","5","6","P.jpg","Q.jpg","0","1","0","",""
"","feedback","","html-keyboard-response","184","236849","0.0-1.0-249.0-0.0","0","0","51720","","null","","","null","27","","","","","","","","","","","","","","","",""
"","time_out","","html-keyboard-response","185","238853","0.0-1.0-251.0-0.0","0","0","51720","","null","","","null","27","","","","","","","","","","","","","","","",""
"","ITI","","html-keyboard-response","186","239857","0.0-1.0-252.0","0","0","51720","","null","","","null","27","","","","","","","","","","","","","","","NaN",""
"","S1","","html-keyboard-response","187","240111","0.0-1.0-254.0","0","0","51720","","null","","","null","28","","","","","","","","","","","","","","","",""
"","ISI","","html-keyboard-response","188","241117","0.0-1.0-255.0","0","0","51720","","null","","","null","28","NaN","","","","","","","","","","","","","","",""
"","S2","","html-keyboard-response","189","241371","0.0-1.0-256.0","0","0","51720","","null","","","null","28","","NaN","","","","","","","","","","","","","",""
"","response","","html-keyboard-response","190","241643","0.0-1.0-257.0-0.0","0","0","51720","","269","","","75","28","","","1","28","training","adjacent","ED","5","4","P.jpg","M.jpg","0","0","1","",""
"","feedback","","html-keyboard-response","191","242648","0.0-1.0-258.0-0.0","0","0","51720","","null","","","null","28","","","","","","","","","","","","","","","",""
"","ITI","","html-keyboard-response","192","243652","0.0-1.0-261.0","0","0","51720","","null","","","null","28","","","","","","","","","","","","","","","NaN",""
"","S1","","html-keyboard-response","193","243908","0.0-1.0-263.0","0","0","51720","","null","","","null","29","","","","","","","","","","","","","","","",""
"","ISI","","html-keyboard-response","194","244911","0.0-1.0-264.0","0","0","51720","","null","","","null","29","NaN","","","","","","","","","","","","","","",""
"","S2","","html-keyboard-response","195","245165","0.0-1.0-265.0","0","0","51720","","null","","","null","29","","NaN","","","","","","","","","","","","","",""
"","response","","html-keyboard-response","196","245496","0.0-1.0-266.0-0.0","0","0","51720","","328","","","68","29","","","1","29","training","adjacent","FG","6","7","Q.jpg","N.jpg","1","1","1","",""
"","feedback","","html-keyboard-response","197","246501","0.0-1.0-267.0-0.0","0","0","51720","","null","","","null","29","","","","","","","","","","","","","","","",""
"","ITI","","html-keyboard-response","198","247504","0.0-1.0-270.0","0","0","51720","","null","","","null","29","","","","","","","","","","","","","","","NaN",""
"","S1","","html-keyboard-response","199","247758","0.0-1.0-272.0","0","0","51720","","null","","","null","30","","","","","","","","","","","","","","","",""
"","ISI","","html-keyboard-response","200","248762","0.0-1.0-273.0","0","0","51720","","null","","","null","30","NaN","","","","","","","","","","","","","","",""
"","S2","","html-keyboard-response","201","249017","0.0-1.0-274.0","0","0","51720","","null","","","null","30","","NaN","","","","","","","","","","","","","",""
"","response","","html-keyboard-response","202","249507","0.0-1.0-275.0-0.0","0","0","51720","","487","","","68","30","","","1","30","training","adjacent","BA","2","1","O.jpg","L.jpg","1","0","0","",""
"","feedback","","html-keyboard-response","203","250511","0.0-1.0-276.0-0.0","0","0","51720","","null","","","null","30","","","","","","","","","","","","","","","",""
"","time_out","","html-keyboard-response","204","252515","0.0-1.0-278.0-0.0","0","0","51720","","null","","","null","30","","","","","","","","","","","","","","","",""
"","ITI","","html-keyboard-response","205","253518","0.0-1.0-279.0","0","0","51720","","null","","","null","30","","","","","","","","","","","","","","","NaN",""
"","S1","","html-keyboard-response","206","253773","0.0-1.0-281.0","0","0","51720","","null","","","null","31","","","","","","","","","","","","","","","",""
"","ISI","","html-keyboard-response","207","254778","0.0-1.0-282.0","0","0","51720","","null","","","null","31","NaN","","","","","","","","","","","","","","",""
"","S2","","html-keyboard-response","208","255031","0.0-1.0-283.0","0","0","51720","","null","","","null","31","","NaN","","","","","","","","","","","","","",""
"","response","","html-keyboard-response","209","255813","0.0-1.0-284.0-0.0","0","0","51720","","778","","","68","31","","","1","31","training","adjacent","DE","4","5","M.jpg","P.jpg","1","1","1","",""
"","feedback","","html-keyboard-response","210","256818","0.0-1.0-285.0-0.0","0","0","51720","","null","","","null","31","","","","","","","","","","","","","","","",""
"","ITI","","html-keyboard-response","211","257823","0.0-1.0-288.0","0","0","51720","","null","","","null","31","","","","","","","","","","","","","","","NaN",""
"","S1","","html-keyboard-response","212","258078","0.0-1.0-290.0","0","0","51720","","null","","","null","32","","","","","","","","","","","","","","","",""
"","ISI","","html-keyboard-response","213","259082","0.0-1.0-291.0","0","0","51720","","null","","","null","32","NaN","","","","","","","","","","","","","","",""
"","S2","","html-keyboard-response","214","259337","0.0-1.0-292.0","0","0","51720","","null","","","null","32","","NaN","","","","","","","","","","","","","",""
"","response","","html-keyboard-response","215","259723","0.0-1.0-293.0-0.0","0","0","51720","","383","","","68","32","","","1","32","training","adjacent","CB","3","2","R.jpg","O.jpg","1","0","0","",""
"","feedback","","html-keyboard-response","216","260727","0.0-1.0-294.0-0.0","0","0","51720","","null","","","null","32","","","","","","","","","","","","","","","",""
"","time_out","","html-keyboard-response","217","262731","0.0-1.0-296.0-0.0","0","0","51720","","null","","","null","32","","","","","","","","","","","","","","","",""
"","ITI","","html-keyboard-response","218","263734","0.0-1.0-297.0","0","0","51720","","null","","","null","32","","","","","","","","","","","","","","","NaN",""
"","S1","","html-keyboard-response","219","263989","0.0-1.0-299.0","0","0","51720","","null","","","null","33","","","","","","","","","","","","","","","",""
"","ISI","","html-keyboard-response","220","264992","0.0-1.0-300.0","0","0","51720","","null","","","null","33","NaN","","","","","","","","","","","","","","",""
"","S2","","html-keyboard-response","221","265247","0.0-1.0-301.0","0","0","51720","","null","","","null","33","","NaN","","","","","","","","","","","","","",""
"","response","","html-keyboard-response","222","265902","0.0-1.0-302.0-0.0","0","0","51720","","652","","","68","33","","","1","33","training","adjacent","DC","4","3","M.jpg","R.jpg","1","0","0","",""
"","feedback","","html-keyboard-response","223","266907","0.0-1.0-303.0-0.0","0","0","51720","","null","","","null","33","","","","","","","","","","","","","","","",""
"","time_out","","html-keyboard-response","224","268911","0.0-1.0-305.0-0.0","0","0","51720","","null","","","null","33","","","","","","","","","","","","","","","",""
"","ITI","","html-keyboard-response","225","269915","0.0-1.0-306.0","0","0","51720","","null","","","null","33","","","","","","","","","","","","","","","NaN",""
"","S1","","html-keyboard-response","226","270169","0.0-1.0-308.0","0","0","51720","","null","","","null","34","","","","","","","","","","","","","","","",""
"","ISI","","html-keyboard-response","227","271173","0.0-1.0-309.0","0","0","51720","","null","","","null","34","NaN","","","","","","","","","","","","","","",""
"","S2","","html-keyboard-response","228","271428","0.0-1.0-310.0","0","0","51720","","null","","","null","34","","NaN","","","","","","","","","","","","","",""
"","response","","html-keyboard-response","229","271913","0.0-1.0-311.0-0.0","0","0","51720","","481","","","68","34","","","1","34","training","adjacent","DE","4","5","M.jpg","P.jpg","1","1","1","",""
"","feedback","","html-keyboard-response","230","272918","0.0-1.0-312.0-0.0","0","0","51720","","null","","","null","34","","","","","","","","","","","","","","","",""
"","ITI","","html-keyboard-response","231","273923","0.0-1.0-315.0","0","0","51720","","null","","","null","34","","","","","","","","","","","","","","","NaN",""
"","S1","","html-keyboard-response","232","274178","0.0-1.0-317.0","0","0","51720","","null","","","null","35","","","","","","","","","","","","","","","",""
"","ISI","","html-keyboard-response","233","275182","0.0-1.0-318.0","0","0","51720","","null","","","null","35","NaN","","","","","","","","","","","","","","",""
"","S2","","html-keyboard-response","234","275436","0.0-1.0-319.0","0","0","51720","","null","","","null","35","","NaN","","","","","","","","","","","","","",""
"","response","","html-keyboard-response","235","275770","0.0-1.0-320.0-0.0","0","0","51720","","330","","","68","35","","","1","35","training","adjacent","DE","4","5","M.jpg","P.jpg","1","1","1","",""
"","feedback","","html-keyboard-response","236","276774","0.0-1.0-321.0-0.0","0","0","51720","","null","","","null","35","","","","","","","","","","","","","","","",""
"","ITI","","html-keyboard-response","237","277778","0.0-1.0-324.0","0","0","51720","","null","","","null","35","","","","","","","","","","","","","","","NaN",""
"","S1","","html-keyboard-response","238","278033","0.0-1.0-326.0","0","0","51720","","null","","","null","36","","","","","","","","","","","","","","","",""
"","ISI","","html-keyboard-response","239","279037","0.0-1.0-327.0","0","0","51720","","null","","","null","36","NaN","","","","","","","","","","","","","","",""
"","S2","","html-keyboard-response","240","279291","0.0-1.0-328.0","0","0","51720","","null","","","null","36","","NaN","","","","","","","","","","","","","",""
"","response","","html-keyboard-response","241","280017","0.0-1.0-329.0-0.0","0","0","51720","","722","","","68","36","","","1","36","training","adjacent","FE","6","5","Q.jpg","P.jpg","1","0","0","",""
"","feedback","","html-keyboard-response","242","281021","0.0-1.0-330.0-0.0","0","0","51720","","null","","","null","36","","","","","","","","","","","","","","","",""
"","time_out","","html-keyboard-response","243","283026","0.0-1.0-332.0-0.0","0","0","51720","","null","","","null","36","","","","","","","","","","","","","","","",""
"","ITI","","html-keyboard-response","244","284030","0.0-1.0-333.0","0","0","51720","","null","","","null","36","","","","","","","","","","","","","","","NaN",""
"","S1","","html-keyboard-response","245","284284","0.0-1.0-335.0","0","0","51720","","null","","","null","37","","","","","","","","","","","","","","","",""
"","ISI","","html-keyboard-response","246","285289","0.0-1.0-336.0","0","0","51720","","null","","","null","37","NaN","","","","","","","","","","","","","","",""
"","S2","","html-keyboard-response","247","285543","0.0-1.0-337.0","0","0","51720","","null","","","null","37","","NaN","","","","","","","","","","","","","",""
"","response","","html-keyboard-response","248","285948","0.0-1.0-338.0-0.0","0","0","51720","","401","","","68","37","","","1","37","training","adjacent","CB","3","2","R.jpg","O.jpg","1","0","0","",""
"","feedback","","html-keyboard-response","249","286953","0.0-1.0-339.0-0.0","0","0","51720","","null","","","null","37","","","","","","","","","","","","","","","",""
"","time_out","","html-keyboard-response","250","288958","0.0-1.0-341.0-0.0","0","0","51720","","null","","","null","37","","","","","","","","","","","","","","","",""
"","ITI","","html-keyboard-response","251","289961","0.0-1.0-342.0","0","0","51720","","null","","","null","37","","","","","","","","","","","","","","","NaN",""
"","S1","","html-keyboard-response","252","290219","0.0-1.0-344.0","0","0","51720","","null","","","null","38","","","","","","","","","","","","","","","",""
"","ISI","","html-keyboard-response","253","291225","0.0-1.0-345.0","0","0","51720","","null","","","null","38","NaN","","","","","","","","","","","","","","",""
"","S2","","html-keyboard-response","254","291480","0.0-1.0-346.0","0","0","51720","","null","","","null","38","","NaN","","","","","","","","","","","","","",""
"","response","","html-keyboard-response","255","292278","0.0-1.0-347.0-0.0","0","0","51720","","794","","","68","38","","","1","38","training","adjacent","CD","3","4","R.jpg","M.jpg","1","1","1","",""
"","feedback","","html-keyboard-response","256","293281","0.0-1.0-348.0-0.0","0","0","51720","","null","","","null","38","","","","","","","","","","","","","","","",""
"","ITI","","html-keyboard-response","257","294286","0.0-1.0-351.0","0","0","51720","","null","","","null","38","","","","","","","","","","","","","","","NaN",""
"","S1","","html-keyboard-response","258","294541","0.0-1.0-353.0","0","0","51720","","null","","","null","39","","","","","","","","","","","","","","","",""
"","ISI","","html-keyboard-response","259","295546","0.0-1.0-354.0","0","0","51720","","null","","","null","39","NaN","","","","","","","","","","","","","","",""
"","S2","","html-keyboard-response","260","295801","0.0-1.0-355.0","0","0","51720","","null","","","null","39","","NaN","","","","","","","","","","","","","",""
"","response","","html-keyboard-response","261","296432","0.0-1.0-356.0-0.0","0","0","51720","","629","","","75","39","","","1","39","training","adjacent","GF","7","6","N.jpg","Q.jpg","0","0","1","",""
"","feedback","","html-keyboard-response","262","297437","0.0-1.0-357.0-0.0","0","0","51720","","null","","","null","39","","","","","","","","","","","","","","","",""
"","ITI","","html-keyboard-response","263","298441","0.0-1.0-360.0","0","0","51720","","null","","","null","39","","","","","","","","","","","","","","","NaN",""
"","S1","","html-keyboard-response","264","298695","0.0-1.0-362.0","0","0","51720","","null","","","null","40","","","","","","","","","","","","","","","",""
"","ISI","","html-keyboard-response","265","299700","0.0-1.0-363.0","0","0","51720","","null","","","null","40","NaN","","","","","","","","","","","","","","",""
"","S2","","html-keyboard-response","266","299954","0.0-1.0-364.0","0","0","51720","","null","","","null","40","","NaN","","","","","","","","","","","","","",""
"","response","","html-keyboard-response","267","300363","0.0-1.0-365.0-0.0","0","0","51720","","405","","","75","40","","","1","40","training","adjacent","GF","7","6","N.jpg","Q.jpg","0","0","1","",""
"","feedback","","html-keyboard-response","268","301368","0.0-1.0-366.0-0.0","0","0","51720","","null","","","null","40","","","","","","","","","","","","","","","",""
"","ITI","","html-keyboard-response","269","302372","0.0-1.0-369.0","0","0","51720","","null","","","null","40","","","","","","","","","","","","","","","NaN",""
"","S1","","html-keyboard-response","270","302627","0.0-1.0-371.0","0","0","51720","","null","","","null","41","","","","","","","","","","","","","","","",""
"","ISI","","html-keyboard-response","271","303630","0.0-1.0-372.0","0","0","51720","","null","","","null","41","NaN","","","","","","","","","","","","","","",""
"","S2","","html-keyboard-response","272","303885","0.0-1.0-373.0","0","0","51720","","null","","","null","41","","NaN","","","","","","","","","","","","","",""
"","response","","html-keyboard-response","273","304248","0.0-1.0-374.0-0.0","0","0","51720","","359","","","68","41","","","1","41","training","adjacent","FG","6","7","Q.jpg","N.jpg","1","1","1","",""
"","feedback","","html-keyboard-response","274","305253","0.0-1.0-375.0-0.0","0","0","51720","","null","","","null","41","","","","","","","","","","","","","","","",""
"","ITI","","html-keyboard-response","275","306258","0.0-1.0-378.0","0","0","51720","","null","","","null","41","","","","","","","","","","","","","","","NaN",""
"","S1","","html-keyboard-response","276","306513","0.0-1.0-380.0","0","0","51720","","null","","","null","42","","","","","","","","","","","","","","","",""
"","ISI","","html-keyboard-response","277","307518","0.0-1.0-381.0","0","0","51720","","null","","","null","42","NaN","","","","","","","","","","","","","","",""
"","S2","","html-keyboard-response","278","307773","0.0-1.0-382.0","0","0","51720","","null","","","null","42","","NaN","","","","","","","","","","","","","",""
"","response","","html-keyboard-response","279","308439","0.0-1.0-383.0-0.0","0","0","51720","","661","","","75","42","","","1","42","training","adjacent","DC","4","3","M.jpg","R.jpg","0","0","1","",""
"","feedback","","html-keyboard-response","280","309443","0.0-1.0-384.0-0.0","0","0","51720","","null","","","null","42","","","","","","","","","","","","","","","",""
"","ITI","","html-keyboard-response","281","310447","0.0-1.0-387.0","0","0","51720","","null","","","null","42","","","","","","","","","","","","","","","NaN",""
"","S1","","html-keyboard-response","282","310702","0.0-1.0-389.0","0","0","51720","","null","","","null","43","","","","","","","","","","","","","","","",""
"","ISI","","html-keyboard-response","283","311706","0.0-1.0-390.0","0","0","51720","","null","","","null","43","NaN","","","","","","","","","","","","","","",""
"","S2","","html-keyboard-response","284","311961","0.0-1.0-391.0","0","0","51720","","null","","","null","43","","NaN","","","","","","","","","","","","","",""
"","response","","html-keyboard-response","285","312551","0.0-1.0-392.0-0.0","0","0","51720","","587","","","68","43","","","1","43","training","adjacent","BA","2","1","O.jpg","L.jpg","1","0","0","",""
"","feedback","","html-keyboard-response","286","313556","0.0-1.0-393.0-0.0","0","0","51720","","null","","","null","43","","","","","","","","","","","","","","","",""
"","time_out","","html-keyboard-response","287","315560","0.0-1.0-395.0-0.0","0","0","51720","","null","","","null","43","","","","","","","","","","","","","","","",""
"","ITI","","html-keyboard-response","288","316564","0.0-1.0-396.0","0","0","51720","","null","","","null","43","","","","","","","","","","","","","","","NaN",""
"","S1","","html-keyboard-response","289","316819","0.0-1.0-398.0","0","0","51720","","null","","","null","44","","","","","","","","","","","","","","","",""
"","ISI","","html-keyboard-response","290","317822","0.0-1.0-399.0","0","0","51720","","null","","","null","44","NaN","","","","","","","","","","","","","","",""
"","S2","","html-keyboard-response","291","318077","0.0-1.0-400.0","0","0","51720","","null","","","null","44","","NaN","","","","","","","","","","","","","",""
"","response","","html-keyboard-response","292","318304","0.0-1.0-401.0-0.0","0","0","51720","","223","","","68","44","","","1","44","training","adjacent","AB","1","2","L.jpg","O.jpg","1","1","1","",""
"","feedback","","html-keyboard-response","293","319309","0.0-1.0-402.0-0.0","0","0","51720","","null","","","null","44","","","","","","","","","","","","","","","",""
"","ITI","","html-keyboard-response","294","320313","0.0-1.0-405.0","0","0","51720","","null","","","null","44","","","","","","","","","","","","","","","NaN",""
"","S1","","html-keyboard-response","295","320567","0.0-1.0-407.0","0","0","51720","","null","","","null","45","","","","","","","","","","","","","","","",""
"","ISI","","html-keyboard-response","296","321571","0.0-1.0-408.0","0","0","51720","","null","","","null","45","NaN","","","","","","","","","","","","","","",""
"","S2","","html-keyboard-response","297","321826","0.0-1.0-409.0","0","0","51720","","null","","","null","45","","NaN","","","","","","","","","","","","","",""
"","response","","html-keyboard-response","298","322126","0.0-1.0-410.0-0.0","0","0","51720","","297","","","68","45","","","1","45","training","adjacent","FE","6","5","Q.jpg","P.jpg","1","0","0","",""
"","feedback","","html-keyboard-response","299","323131","0.0-1.0-411.0-0.0","0","0","51720","","null","","","null","45","","","","","","","","","","","","","","","",""
"","time_out","","html-keyboard-response","300","325135","0.0-1.0-413.0-0.0","0","0","51720","","null","","","null","45","","","","","","","","","","","","","","","",""
"","ITI","","html-keyboard-response","301","326139","0.0-1.0-414.0","0","0","51720","","null","","","null","45","","","","","","","","","","","","","","","NaN",""
"","S1","","html-keyboard-response","302","326394","0.0-1.0-416.0","0","0","51720","","null","","","null","46","","","","","","","","","","","","","","","",""
"","ISI","","html-keyboard-response","303","327398","0.0-1.0-417.0","0","0","51720","","null","","","null","46","NaN","","","","","","","","","","","","","","",""
"","S2","","html-keyboard-response","304","327653","0.0-1.0-418.0","0","0","51720","","null","","","null","46","","NaN","","","","","","","","","","","","","",""
"","response","","html-keyboard-response","305","327906","0.0-1.0-419.0-0.0","0","0","51720","","249","","","68","46","","","1","46","training","adjacent","CD","3","4","R.jpg","M.jpg","1","1","1","",""
"","feedback","","html-keyboard-response","306","328911","0.0-1.0-420.0-0.0","0","0","51720","","null","","","null","46","","","","","","","","","","","","","","","",""
"","ITI","","html-keyboard-response","307","329915","0.0-1.0-423.0","0","0","51720","","null","","","null","46","","","","","","","","","","","","","","","NaN",""
"","S1","","html-keyboard-response","308","330181","0.0-1.0-425.0","0","0","51720","","null","","","null","47","","","","","","","","","","","","","","","",""
"","ISI","","html-keyboard-response","309","331185","0.0-1.0-426.0","0","0","51720","","null","","","null","47","NaN","","","","","","","","","","","","","","",""
"","S2","","html-keyboard-response","310","331439","0.0-1.0-427.0","0","0","51720","","null","","","null","47","","NaN","","","","","","","","","","","","","",""
"","response","","html-keyboard-response","311","331683","0.0-1.0-428.0-0.0","0","0","51720","","241","","","75","47","","","1","47","training","adjacent","FE","6","5","Q.jpg","P.jpg","0","0","1","",""
"","feedback","","html-keyboard-response","312","332688","0.0-1.0-429.0-0.0","0","0","51720","","null","","","null","47","","","","","","","","","","","","","","","",""
"","ITI","","html-keyboard-response","313","333691","0.0-1.0-432.0","0","0","51720","","null","","","null","47","","","","","","","","","","","","","","","NaN",""
"","block_over","","html-keyboard-response","314","338306","0.0-1.0-433.0-0.0","0","0","51720","","4611","","","32","47","","","","","","","","","","","","","","","",""
"","S1","","html-keyboard-response","315","338560","0.0-1.0-434.0","0","0","51720","","null","","","null","48","","","","","","","","","","","","","","","",""
"","ISI","","html-keyboard-response","316","339563","0.0-1.0-435.0","0","0","51720","","null","","","null","48","NaN","","","","","","","","","","","","","","",""
"","S2","","html-keyboard-response","317","339818","0.0-1.0-436.0","0","0","51720","","null","","","null","48","","NaN","","","","","","","","","","","","","",""
"","response","","html-keyboard-response","318","340848","0.0-1.0-437.0-0.0","0","0","51720","","1026","","","68","48","","","2","48","training","adjacent","BA","2","1","O.jpg","L.jpg","1","0","0","",""
"","feedback","","html-keyboard-response","319","341853","0.0-1.0-438.0-0.0","0","0","51720","","null","","","null","48","","","","","","","","","","","","","","","",""
"","time_out","","html-keyboard-response","320","343857","0.0-1.0-440.0-0.0","0","0","51720","","null","","","null","48","","","","","","","","","","","","","","","",""
"","ITI","","html-keyboard-response","321","344861","0.0-1.0-441.0","0","0","51720","","null","","","null","48","","","","","","","","","","","","","","","NaN",""
"","S1","","html-keyboard-response","322","345116","0.0-1.0-443.0","0","0","51720","","null","","","null","49","","","","","","","","","","","","","","","",""
"","ISI","","html-keyboard-response","323","346120","0.0-1.0-444.0","0","0","51720","","null","","","null","49","NaN","","","","","","","","","","","","","","",""
"","S2","","html-keyboard-response","324","346375","0.0-1.0-445.0","0","0","51720","","null","","","null","49","","NaN","","","","","","","","","","","","","",""
"","response","","html-keyboard-response","325","347308","0.0-1.0-446.0-0.0","0","0","51720","","929","","","68","49","","","2","49","training","adjacent","GF","7","6","N.jpg","Q.jpg","1","0","0","",""
"","feedback","","html-keyboard-response","326","348313","0.0-1.0-447.0-0.0","0","0","51720","","null","","","null","49","","","","","","","","","","","","","","","",""
"","time_out","","html-keyboard-response","327","350316","0.0-1.0-449.0-0.0","0","0","51720","","null","","","null","49","","","","","","","","","","","","","","","",""
"","ITI","","html-keyboard-response","328","351320","0.0-1.0-450.0","0","0","51720","","null","","","null","49","","","","","","","","","","","","","","","NaN",""
"","S1","","html-keyboard-response","329","351575","0.0-1.0-452.0","0","0","51720","","null","","","null","50","","","","","","","","","","","","","","","",""
"","ISI","","html-keyboard-response","330","352580","0.0-1.0-453.0","0","0","51720","","null","","","null","50","NaN","","","","","","","","","","","","","","",""
"","S2","","html-keyboard-response","331","352834","0.0-1.0-454.0","0","0","51720","","null","","","null","50","","NaN","","","","","","","","","","","","","",""
"","response","","html-keyboard-response","332","353382","0.0-1.0-455.0-0.0","0","0","51720","","545","","","75","50","","","2","50","training","adjacent","DE","4","5","M.jpg","P.jpg","0","1","0","",""
"","feedback","","html-keyboard-response","333","354388","0.0-1.0-456.0-0.0","0","0","51720","","null","","","null","50","","","","","","","","","","","","","","","",""
"","time_out","","html-keyboard-response","334","356393","0.0-1.0-458.0-0.0","0","0","51720","","null","","","null","50","","","","","","","","","","","","","","","",""
"","ITI","","html-keyboard-response","335","357398","0.0-1.0-459.0","0","0","51720","","null","","","null","50","","","","","","","","","","","","","","","NaN",""
"","S1","","html-keyboard-response","336","357652","0.0-1.0-461.0","0","0","51720","","null","","","null","51","","","","","","","","","","","","","","","",""
"","ISI","","html-keyboard-response","337","358656","0.0-1.0-462.0","0","0","51720","","null","","","null","51","NaN","","","","","","","","","","","","","","",""
"","S2","","html-keyboard-response","338","358910","0.0-1.0-463.0","0","0","51720","","null","","","null","51","","NaN","","","","","","","","","","","","","",""
"","response","","html-keyboard-response","339","359594","0.0-1.0-464.0-0.0","0","0","51720","","680","","","75","51","","","2","51","training","adjacent","DE","4","5","M.jpg","P.jpg","0","1","0","",""
"","feedback","","html-keyboard-response","340","360605","0.0-1.0-465.0-0.0","0","0","51720","","null","","","null","51","","","","","","","","","","","","","","","",""
"","time_out","","html-keyboard-response","341","362609","0.0-1.0-467.0-0.0","0","0","51720","","null","","","null","51","","","","","","","","","","","","","","","",""
"","ITI","","html-keyboard-response","342","363613","0.0-1.0-468.0","0","0","51720","","null","","","null","51","","","","","","","","","","","","","","","NaN",""
"","S1","","html-keyboard-response","343","363867","0.0-1.0-470.0","0","0","51720","","null","","","null","52","","","","","","","","","","","","","","","",""
"","ISI","","html-keyboard-response","344","364871","0.0-1.0-471.0","0","0","51720","","null","","","null","52","NaN","","","","","","","","","","","","","","",""
"","S2","","html-keyboard-response","345","365126","0.0-1.0-472.0","0","0","51720","","null","","","null","52","","NaN","","","","","","","","","","","","","",""
"","response","","html-keyboard-response","346","365604","0.0-1.0-473.0-0.0","0","0","51720","","475","","","68","52","","","2","52","training","adjacent","GF","7","6","N.jpg","Q.jpg","1","0","0","",""
"","feedback","","html-keyboard-response","347","366609","0.0-1.0-474.0-0.0","0","0","51720","","null","","","null","52","","","","","","","","","","","","","","","",""
"","time_out","","html-keyboard-response","348","368613","0.0-1.0-476.0-0.0","0","0","51720","","null","","","null","52","","","","","","","","","","","","","","","",""
"","ITI","","html-keyboard-response","349","369618","0.0-1.0-477.0","0","0","51720","","null","","","null","52","","","","","","","","","","","","","","","NaN",""
"","S1","","html-keyboard-response","350","369872","0.0-1.0-479.0","0","0","51720","","null","","","null","53","","","","","","","","","","","","","","","",""
"","ISI","","html-keyboard-response","351","370877","0.0-1.0-480.0","0","0","51720","","null","","","null","53","NaN","","","","","","","","","","","","","","",""
"","S2","","html-keyboard-response","352","371131","0.0-1.0-481.0","0","0","51720","","null","","","null","53","","NaN","","","","","","","","","","","","","",""
"","response","","html-keyboard-response","353","371404","0.0-1.0-482.0-0.0","0","0","51720","","269","","","68","53","","","2","53","training","adjacent","FE","6","5","Q.jpg","P.jpg","1","0","0","",""
"","feedback","","html-keyboard-response","354","372409","0.0-1.0-483.0-0.0","0","0","51720","","null","","","null","53","","","","","","","","","","","","","","","",""
"","time_out","","html-keyboard-response","355","374413","0.0-1.0-485.0-0.0","0","0","51720","","null","","","null","53","","","","","","","","","","","","","","","",""
"","ITI","","html-keyboard-response","356","375418","0.0-1.0-486.0","0","0","51720","","null","","","null","53","","","","","","","","","","","","","","","NaN",""
"","S1","","html-keyboard-response","357","375673","0.0-1.0-488.0","0","0","51720","","null","","","null","54","","","","","","","","","","","","","","","",""
"","ISI","","html-keyboard-response","358","376677","0.0-1.0-489.0","0","0","51720","","null","","","null","54","NaN","","","","","","","","","","","","","","",""
"","S2","","html-keyboard-response","359","376931","0.0-1.0-490.0","0","0","51720","","null","","","null","54","","NaN","","","","","","","","","","","","","",""
"","response","","html-keyboard-response","360","377352","0.0-1.0-491.0-0.0","0","0","51720","","417","","","75","54","","","2","54","training","adjacent","BC","2","3","O.jpg","R.jpg","0","1","0","",""
"","feedback","","html-keyboard-response","361","378357","0.0-1.0-492.0-0.0","0","0","51720","","null","","","null","54","","","","","","","","","","","","","","","",""
"","time_out","","html-keyboard-response","362","380362","0.0-1.0-494.0-0.0","0","0","51720","","null","","","null","54","","","","","","","","","","","","","","","",""
"","ITI","","html-keyboard-response","363","381366","0.0-1.0-495.0","0","0","51720","","null","","","null","54","","","","","","","","","","","","","","","NaN",""
"","S1","","html-keyboard-response","364","381621","0.0-1.0-497.0","0","0","51720","","null","","","null","55","","","","","","","","","","","","","","","",""
"","ISI","","html-keyboard-response","365","382625","0.0-1.0-498.0","0","0","51720","","null","","","null","55","NaN","","","","","","","","","","","","","","",""
"","S2","","html-keyboard-response","366","382880","0.0-1.0-499.0","0","0","51720","","null","","","null","55","","NaN","","","","","","","","","","","","","",""
"","response","","html-keyboard-response","367","383397","0.0-1.0-500.0-0.0","0","0","51720","","514","","","68","55","","","2","55","training","adjacent","CB","3","2","R.jpg","O.jpg","1","0","0","",""
"","feedback","","html-keyboard-response","368","384402","0.0-1.0-501.0-0.0","0","0","51720","","null","","","null","55","","","","","","","","","","","","","","","",""
"","time_out","","html-keyboard-response","369","386406","0.0-1.0-503.0-0.0","0","0","51720","","null","","","null","55","","","","","","","","","","","","","","","",""
"","ITI","","html-keyboard-response","370","387411","0.0-1.0-504.0","0","0","51720","","null","","","null","55","","","","","","","","","","","","","","","NaN",""
"","S1","","html-keyboard-response","371","387664","0.0-1.0-506.0","0","0","51720","","null","","","null","56","","","","","","","","","","","","","","","",""
"","ISI","","html-keyboard-response","372","388668","0.0-1.0-507.0","0","0","51720","","null","","","null","56","NaN","","","","","","","","","","","","","","",""
"","S2","","html-keyboard-response","373","388923","0.0-1.0-508.0","0","0","51720","","null","","","null","56","","NaN","","","","","","","","","","","","","",""
"","response","","html-keyboard-response","374","389434","0.0-1.0-509.0-0.0","0","0","51720","","507","","","75","56","","","2","56","training","adjacent","DE","4","5","M.jpg","P.jpg","0","1","0","",""
"","feedback","","html-keyboard-response","375","390438","0.0-1.0-510.0-0.0","0","0","51720","","null","","","null","56","","","","","","","","","","","","","","","",""
"","time_out","","html-keyboard-response","376","392443","0.0-1.0-512.0-0.0","0","0","51720","","null","","","null","56","","","","","","","","","","","","","","","",""
"","ITI","","html-keyboard-response","377","393447","0.0-1.0-513.0","0","0","51720","","null","","","null","56","","","","","","","","","","","","","","","NaN",""
"","S1","","html-keyboard-response","378","393701","0.0-1.0-515.0","0","0","51720","","null","","","null","57","","","","","","","","","","","","","","","",""
"","ISI","","html-keyboard-response","379","394705","0.0-1.0-516.0","0","0","51720","","null","","","null","57","NaN","","","","","","","","","","","","","","",""
"","S2","","html-keyboard-response","380","394960","0.0-1.0-517.0","0","0","51720","","null","","","null","57","","NaN","","","","","","","","","","","","","",""
"","response","","html-keyboard-response","381","395192","0.0-1.0-518.0-0.0","0","0","51720","","228","","","68","57","","","2","57","training","adjacent","AB","1","2","L.jpg","O.jpg","1","1","1","",""
"","feedback","","html-keyboard-response","382","396197","0.0-1.0-519.0-0.0","0","0","51720","","null","","","null","57","","","","","","","","","","","","","","","",""
"","ITI","","html-keyboard-response","383","397201","0.0-1.0-522.0","0","0","51720","","null","","","null","57","","","","","","","","","","","","","","","NaN",""
"","S1","","html-keyboard-response","384","397455","0.0-1.0-524.0","0","0","51720","","null","","","null","58","","","","","","","","","","","","","","","",""
"","ISI","","html-keyboard-response","385","398458","0.0-1.0-525.0","0","0","51720","","null","","","null","58","NaN","","","","","","","","","","","","","","",""
"","S2","","html-keyboard-response","386","398712","0.0-1.0-526.0","0","0","51720","","null","","","null","58","","NaN","","","","","","","","","","","","","",""
"","response","","html-keyboard-response","387","399271","0.0-1.0-527.0-0.0","0","0","51720","","555","","","75","58","","","2","58","training","adjacent","EF","5","6","P.jpg","Q.jpg","0","1","0","",""
"","feedback","","html-keyboard-response","388","400276","0.0-1.0-528.0-0.0","0","0","51720","","null","","","null","58","","","","","","","","","","","","","","","",""
"","time_out","","html-keyboard-response","389","402280","0.0-1.0-530.0-0.0","0","0","51720","","null","","","null","58","","","","","","","","","","","","","","","",""
"","ITI","","html-keyboard-response","390","403284","0.0-1.0-531.0","0","0","51720","","null","","","null","58","","","","","","","","","","","","","","","NaN",""
"","S1","","html-keyboard-response","391","403538","0.0-1.0-533.0","0","0","51720","","null","","","null","59","","","","","","","","","","","","","","","",""
"","ISI","","html-keyboard-response","392","404542","0.0-1.0-534.0","0","0","51720","","null","","","null","59","NaN","","","","","","","","","","","","","","",""
"","S2","","html-keyboard-response","393","404795","0.0-1.0-535.0","0","0","51720","","null","","","null","59","","NaN","","","","","","","","","","","","","",""
"","response","","html-keyboard-response","394","404910","0.0-1.0-536.0-0.0","0","0","51720","","111","","","68","59","","","2","59","training","adjacent","EF","5","6","P.jpg","Q.jpg","1","1","1","",""
"","feedback","","html-keyboard-response","395","405915","0.0-1.0-537.0-0.0","0","0","51720","","null","","","null","59","","","","","","","","","","","","","","","",""
"","ITI","","html-keyboard-response","396","406919","0.0-1.0-540.0","0","0","51720","","null","","","null","59","","","","","","","","","","","","","","","NaN",""
"","S1","","html-keyboard-response","397","407173","0.0-1.0-542.0","0","0","51720","","null","","","null","60","","","","","","","","","","","","","","","",""
"","ISI","","html-keyboard-response","398","408178","0.0-1.0-543.0","0","0","51720","","null","","","null","60","NaN","","","","","","","","","","","","","","",""
"","S2","","html-keyboard-response","399","408433","0.0-1.0-544.0","0","0","51720","","null","","","null","60","","NaN","","","","","","","","","","","","","",""
"","response","","html-keyboard-response","400","408674","0.0-1.0-545.0-0.0","0","0","51720","","237","","","75","60","","","2","60","training","adjacent","FG","6","7","Q.jpg","N.jpg","0","1","0","",""
"","feedback","","html-keyboard-response","401","409679","0.0-1.0-546.0-0.0","0","0","51720","","null","","","null","60","","","","","","","","","","","","","","","",""
"","time_out","","html-keyboard-response","402","411683","0.0-1.0-548.0-0.0","0","0","51720","","null","","","null","60","","","","","","","","","","","","","","","",""
"","ITI","","html-keyboard-response","403","412687","0.0-1.0-549.0","0","0","51720","","null","","","null","60","","","","","","","","","","","","","","","NaN",""
"","S1","","html-keyboard-response","404","412942","0.0-1.0-551.0","0","0","51720","","null","","","null","61","","","","","","","","","","","","","","","",""
"","ISI","","html-keyboard-response","405","413946","0.0-1.0-552.0","0","0","51720","","null","","","null","61","NaN","","","","","","","","","","","","","","",""
"","S2","","html-keyboard-response","406","414214","0.0-1.0-553.0","0","0","51720","","null","","","null","61","","NaN","","","","","","","","","","","","","",""
"","response","","html-keyboard-response","407","414648","0.0-1.0-554.0-0.0","0","0","51720","","430","","","68","61","","","2","61","training","adjacent","DC","4","3","M.jpg","R.jpg","1","0","0","",""
"","feedback","","html-keyboard-response","408","415652","0.0-1.0-555.0-0.0","0","0","51720","","null","","","null","61","","","","","","","","","","","","","","","",""
"","time_out","","html-keyboard-response","409","417658","0.0-1.0-557.0-0.0","0","0","51720","","null","","","null","61","","","","","","","","","","","","","","","",""
"","ITI","","html-keyboard-response","410","418662","0.0-1.0-558.0","0","0","51720","","null","","","null","61","","","","","","","","","","","","","","","NaN",""
"","S1","","html-keyboard-response","411","418916","0.0-1.0-560.0","0","0","51720","","null","","","null","62","","","","","","","","","","","","","","","",""
"","ISI","","html-keyboard-response","412","419920","0.0-1.0-561.0","0","0","51720","","null","","","null","62","NaN","","","","","","","","","","","","","","",""
"","S2","","html-keyboard-response","413","420178","0.0-1.0-562.0","0","0","51720","","null","","","null","62","","NaN","","","","","","","","","","","","","",""
"","response","","html-keyboard-response","414","420397","0.0-1.0-563.0-0.0","0","0","51720","","215","","","68","62","","","2","62","training","adjacent","EF","5","6","P.jpg","Q.jpg","1","1","1","",""
"","feedback","","html-keyboard-response","415","421401","0.0-1.0-564.0-0.0","0","0","51720","","null","","","null","62","","","","","","","","","","","","","","","",""
"","ITI","","html-keyboard-response","416","422406","0.0-1.0-567.0","0","0","51720","","null","","","null","62","","","","","","","","","","","","","","","NaN",""
"","S1","","html-keyboard-response","417","422659","0.0-1.0-569.0","0","0","51720","","null","","","null","63","","","","","","","","","","","","","","","",""
"","ISI","","html-keyboard-response","418","423665","0.0-1.0-570.0","0","0","51720","","null","","","null","63","NaN","","","","","","","","","","","","","","",""
"","S2","","html-keyboard-response","419","423919","0.0-1.0-571.0","0","0","51720","","null","","","null","63","","NaN","","","","","","","","","","","","","",""
"","response","","html-keyboard-response","420","424423","0.0-1.0-572.0-0.0","0","0","51720","","500","","","68","63","","","2","63","training","adjacent","DC","4","3","M.jpg","R.jpg","1","0","0","",""
"","feedback","","html-keyboard-response","421","425428","0.0-1.0-573.0-0.0","0","0","51720","","null","","","null","63","","","","","","","","","","","","","","","",""
"","time_out","","html-keyboard-response","422","427433","0.0-1.0-575.0-0.0","0","0","51720","","null","","","null","63","","","","","","","","","","","","","","","",""
"","ITI","","html-keyboard-response","423","428437","0.0-1.0-576.0","0","0","51720","","null","","","null","63","","","","","","","","","","","","","","","NaN",""
"","S1","","html-keyboard-response","424","428692","0.0-1.0-578.0","0","0","51720","","null","","","null","64","","","","","","","","","","","","","","","",""
"","ISI","","html-keyboard-response","425","429696","0.0-1.0-579.0","0","0","51720","","null","","","null","64","NaN","","","","","","","","","","","","","","",""
"","S2","","html-keyboard-response","426","429951","0.0-1.0-580.0","0","0","51720","","null","","","null","64","","NaN","","","","","","","","","","","","","",""
"","response","","html-keyboard-response","427","430477","0.0-1.0-581.0-0.0","0","0","51720","","522","","","75","64","","","2","64","training","adjacent","ED","5","4","P.jpg","M.jpg","0","0","1","",""
"","feedback","","html-keyboard-response","428","431481","0.0-1.0-582.0-0.0","0","0","51720","","null","","","null","64","","","","","","","","","","","","","","","",""
"","ITI","","html-keyboard-response","429","432486","0.0-1.0-585.0","0","0","51720","","null","","","null","64","","","","","","","","","","","","","","","NaN",""
"","S1","","html-keyboard-response","430","432740","0.0-1.0-587.0","0","0","51720","","null","","","null","65","","","","","","","","","","","","","","","",""
"","ISI","","html-keyboard-response","431","433744","0.0-1.0-588.0","0","0","51720","","null","","","null","65","NaN","","","","","","","","","","","","","","",""
"","S2","","html-keyboard-response","432","433998","0.0-1.0-589.0","0","0","51720","","null","","","null","65","","NaN","","","","","","","","","","","","","",""
"","response","","html-keyboard-response","433","434337","0.0-1.0-590.0-0.0","0","0","51720","","336","","","75","65","","","2","65","training","adjacent","BC","2","3","O.jpg","R.jpg","0","1","0","",""
"","feedback","","html-keyboard-response","434","435341","0.0-1.0-591.0-0.0","0","0","51720","","null","","","null","65","","","","","","","","","","","","","","","",""
"","time_out","","html-keyboard-response","435","437345","0.0-1.0-593.0-0.0","0","0","51720","","null","","","null","65","","","","","","","","","","","","","","","",""
"","ITI","","html-keyboard-response","436","438350","0.0-1.0-594.0","0","0","51720","","null","","","null","65","","","","","","","","","","","","","","","NaN",""
"","S1","","html-keyboard-response","437","438605","0.0-1.0-596.0","0","0","51720","","null","","","null","66","","","","","","","","","","","","","","","",""
"","ISI","","html-keyboard-response","438","439609","0.0-1.0-597.0","0","0","51720","","null","","","null","66","NaN","","","","","","","","","","","","","","",""
"","S2","","html-keyboard-response","439","439863","0.0-1.0-598.0","0","0","51720","","null","","","null","66","","NaN","","","","","","","","","","","","","",""
"","response","","html-keyboard-response","440","440221","0.0-1.0-599.0-0.0","0","0","51720","","354","","","75","66","","","2","66","training","adjacent","BA","2","1","O.jpg","L.jpg","0","0","1","",""
"","feedback","","html-keyboard-response","441","441225","0.0-1.0-600.0-0.0","0","0","51720","","null","","","null","66","","","","","","","","","","","","","","","",""
"","ITI","","html-keyboard-response","442","442230","0.0-1.0-603.0","0","0","51720","","null","","","null","66","","","","","","","","","","","","","","","NaN",""
"","S1","","html-keyboard-response","443","442484","0.0-1.0-605.0","0","0","51720","","null","","","null","67","","","","","","","","","","","","","","","",""
"","ISI","","html-keyboard-response","444","443488","0.0-1.0-606.0","0","0","51720","","null","","","null","67","NaN","","","","","","","","","","","","","","",""
"","S2","","html-keyboard-response","445","443743","0.0-1.0-607.0","0","0","51720","","null","","","null","67","","NaN","","","","","","","","","","","","","",""
"","response","","html-keyboard-response","446","444384","0.0-1.0-608.0-0.0","0","0","51720","","637","","","68","67","","","2","67","training","adjacent","CD","3","4","R.jpg","M.jpg","1","1","1","",""
"","feedback","","html-keyboard-response","447","445388","0.0-1.0-609.0-0.0","0","0","51720","","null","","","null","67","","","","","","","","","","","","","","","",""
"","ITI","","html-keyboard-response","448","446393","0.0-1.0-612.0","0","0","51720","","null","","","null","67","","","","","","","","","","","","","","","NaN",""
"","S1","","html-keyboard-response","449","446648","0.0-1.0-614.0","0","0","51720","","null","","","null","68","","","","","","","","","","","","","","","",""
"","ISI","","html-keyboard-response","450","447652","0.0-1.0-615.0","0","0","51720","","null","","","null","68","NaN","","","","","","","","","","","","","","",""
"","S2","","html-keyboard-response","451","447906","0.0-1.0-616.0","0","0","51720","","null","","","null","68","","NaN","","","","","","","","","","","","","",""
"","response","","html-keyboard-response","452","448620","0.0-1.0-617.0-0.0","0","0","51720","","710","","","68","68","","","2","68","training","adjacent","CB","3","2","R.jpg","O.jpg","1","0","0","",""
"","feedback","","html-keyboard-response","453","449624","0.0-1.0-618.0-0.0","0","0","51720","","null","","","null","68","","","","","","","","","","","","","","","",""
"","time_out","","html-keyboard-response","454","451628","0.0-1.0-620.0-0.0","0","0","51720","","null","","","null","68","","","","","","","","","","","","","","","",""
"","ITI","","html-keyboard-response","455","452633","0.0-1.0-621.0","0","0","51720","","null","","","null","68","","","","","","","","","","","","","","","NaN",""
"","S1","","html-keyboard-response","456","452888","0.0-1.0-623.0","0","0","51720","","null","","","null","69","","","","","","","","","","","","","","","",""
"","ISI","","html-keyboard-response","457","453892","0.0-1.0-624.0","0","0","51720","","null","","","null","69","NaN","","","","","","","","","","","","","","",""
"","S2","","html-keyboard-response","458","454148","0.0-1.0-625.0","0","0","51720","","null","","","null","69","","NaN","","","","","","","","","","","","","",""
"","response","","html-keyboard-response","459","454409","0.0-1.0-626.0-0.0","0","0","51720","","257","","","68","69","","","2","69","training","adjacent","AB","1","2","L.jpg","O.jpg","1","1","1","",""
"","feedback","","html-keyboard-response","460","455413","0.0-1.0-627.0-0.0","0","0","51720","","null","","","null","69","","","","","","","","","","","","","","","",""
"","ITI","","html-keyboard-response","461","456418","0.0-1.0-630.0","0","0","51720","","null","","","null","69","","","","","","","","","","","","","","","NaN",""
"","S1","","html-keyboard-response","462","456672","0.0-1.0-632.0","0","0","51720","","null","","","null","70","","","","","","","","","","","","","","","",""
"","ISI","","html-keyboard-response","463","457676","0.0-1.0-633.0","0","0","51720","","null","","","null","70","NaN","","","","","","","","","","","","","","",""
"","S2","","html-keyboard-response","464","457930","0.0-1.0-634.0","0","0","51720","","null","","","null","70","","NaN","","","","","","","","","","","","","",""
"","response","","html-keyboard-response","465","458588","0.0-1.0-635.0-0.0","0","0","51720","","654","","","68","70","","","2","70","training","adjacent","CB","3","2","R.jpg","O.jpg","1","0","0","",""
"","feedback","","html-keyboard-response","466","459593","0.0-1.0-636.0-0.0","0","0","51720","","null","","","null","70","","","","","","","","","","","","","","","",""
"","time_out","","html-keyboard-response","467","461598","0.0-1.0-638.0-0.0","0","0","51720","","null","","","null","70","","","","","","","","","","","","","","","",""
"","ITI","","html-keyboard-response","468","462602","0.0-1.0-639.0","0","0","51720","","null","","","null","70","","","","","","","","","","","","","","","NaN",""
"","S1","","html-keyboard-response","469","462861","0.0-1.0-641.0","0","0","51720","","null","","","null","71","","","","","","","","","","","","","","","",""
"","ISI","","html-keyboard-response","470","463865","0.0-1.0-642.0","0","0","51720","","null","","","null","71","NaN","","","","","","","","","","","","","","",""
"","S2","","html-keyboard-response","471","464120","0.0-1.0-643.0","0","0","51720","","null","","","null","71","","NaN","","","","","","","","","","","","","",""
"","response","","html-keyboard-response","472","464582","0.0-1.0-644.0-0.0","0","0","51720","","458","","","68","71","","","2","71","training","adjacent","CD","3","4","R.jpg","M.jpg","1","1","1","",""
"","feedback","","html-keyboard-response","473","465588","0.0-1.0-645.0-0.0","0","0","51720","","null","","","null","71","","","","","","","","","","","","","","","",""
"","ITI","","html-keyboard-response","474","466601","0.0-1.0-648.0","0","0","51720","","null","","","null","71","","","","","","","","","","","","","","","NaN",""
"","S1","","html-keyboard-response","475","466856","0.0-1.0-650.0","0","0","51720","","null","","","null","72","","","","","","","","","","","","","","","",""
"","ISI","","html-keyboard-response","476","467860","0.0-1.0-651.0","0","0","51720","","null","","","null","72","NaN","","","","","","","","","","","","","","",""
"","S2","","html-keyboard-response","477","468114","0.0-1.0-652.0","0","0","51720","","null","","","null","72","","NaN","","","","","","","","","","","","","",""
"","response","","html-keyboard-response","478","468670","0.0-1.0-653.0-0.0","0","0","51720","","551","","","75","72","","","2","72","training","adjacent","BA","2","1","O.jpg","L.jpg","0","0","1","",""
"","feedback","","html-keyboard-response","479","469678","0.0-1.0-654.0-0.0","0","0","51720","","null","","","null","72","","","","","","","","","","","","","","","",""
"","ITI","","html-keyboard-response","480","470682","0.0-1.0-657.0","0","0","51720","","null","","","null","72","","","","","","","","","","","","","","","NaN",""
"","S1","","html-keyboard-response","481","470937","0.0-1.0-659.0","0","0","51720","","null","","","null","73","","","","","","","","","","","","","","","",""
"","ISI","","html-keyboard-response","482","471942","0.0-1.0-660.0","0","0","51720","","null","","","null","73","NaN","","","","","","","","","","","","","","",""
"","S2","","html-keyboard-response","483","472194","0.0-1.0-661.0","0","0","51720","","248","","","68","73","","d","2","73","training","adjacent","AB","1","2","L.jpg","O.jpg","1","1","1","",""
"","feedback","","html-keyboard-response","484","473200","0.0-1.0-663.0-0.0","0","0","51720","","null","","","null","73","","","","","","","","","","","","","","","",""
"","ITI","","html-keyboard-response","485","474204","0.0-1.0-666.0","0","0","51720","","null","","","null","73","","","","","","","","","","","","","","","NaN",""
"","S1","","html-keyboard-response","486","474459","0.0-1.0-668.0","0","0","51720","","null","","","null","74","","","","","","","","","","","","","","","",""
"","ISI","","html-keyboard-response","487","475463","0.0-1.0-669.0","0","0","51720","","null","","","null","74","NaN","","","","","","","","","","","","","","",""
"","S2","","html-keyboard-response","488","475717","0.0-1.0-670.0","0","0","51720","","null","","","null","74","","NaN","","","","","","","","","","","","","",""
"","response","","html-keyboard-response","489","475958","0.0-1.0-671.0-0.0","0","0","51720","","237","","","68","74","","","2","74","training","adjacent","BC","2","3","O.jpg","R.jpg","1","1","1","",""
"","feedback","","html-keyboard-response","490","476962","0.0-1.0-672.0-0.0","0","0","51720","","null","","","null","74","","","","","","","","","","","","","","","",""
"","ITI","","html-keyboard-response","491","477966","0.0-1.0-675.0","0","0","51720","","null","","","null","74","","","","","","","","","","","","","","","NaN",""
"","S1","","html-keyboard-response","492","478220","0.0-1.0-677.0","0","0","51720","","null","","","null","75","","","","","","","","","","","","","","","",""
"","ISI","","html-keyboard-response","493","479228","0.0-1.0-678.0","0","0","51720","","null","","","null","75","NaN","","","","","","","","","","","","","","",""
"","S2","","html-keyboard-response","494","479482","0.0-1.0-679.0","0","0","51720","","null","","","null","75","","NaN","","","","","","","","","","","","","",""
"","response","","html-keyboard-response","495","479991","0.0-1.0-680.0-0.0","0","0","51720","","506","","","68","75","","","2","75","training","adjacent","ED","5","4","P.jpg","M.jpg","1","0","0","",""
"","feedback","","html-keyboard-response","496","480996","0.0-1.0-681.0-0.0","0","0","51720","","null","","","null","75","","","","","","","","","","","","","","","",""
"","time_out","","html-keyboard-response","497","483002","0.0-1.0-683.0-0.0","0","0","51720","","null","","","null","75","","","","","","","","","","","","","","","",""
"","ITI","","html-keyboard-response","498","484006","0.0-1.0-684.0","0","0","51720","","null","","","null","75","","","","","","","","","","","","","","","NaN",""
"","S1","","html-keyboard-response","499","484262","0.0-1.0-686.0","0","0","51720","","null","","","null","76","","","","","","","","","","","","","","","",""
"","ISI","","html-keyboard-response","500","485266","0.0-1.0-687.0","0","0","51720","","null","","","null","76","NaN","","","","","","","","","","","","","","",""
"","S2","","html-keyboard-response","501","485519","0.0-1.0-688.0","0","0","51720","","null","","","null","76","","NaN","","","","","","","","","","","","","",""
"","response","","html-keyboard-response","502","485928","0.0-1.0-689.0-0.0","0","0","51720","","406","","","75","76","","","2","76","training","adjacent","DC","4","3","M.jpg","R.jpg","0","0","1","",""
"","feedback","","html-keyboard-response","503","486933","0.0-1.0-690.0-0.0","0","0","51720","","null","","","null","76","","","","","","","","","","","","","","","",""
"","ITI","","html-keyboard-response","504","487937","0.0-1.0-693.0","0","0","51720","","null","","","null","76","","","","","","","","","","","","","","","NaN",""
"","S1","","html-keyboard-response","505","488191","0.0-1.0-695.0","0","0","51720","","null","","","null","77","","","","","","","","","","","","","","","",""
"","ISI","","html-keyboard-response","506","489196","0.0-1.0-696.0","0","0","51720","","null","","","null","77","NaN","","","","","","","","","","","","","","",""
"","S2","","html-keyboard-response","507","489450","0.0-1.0-697.0","0","0","51720","","null","","","null","77","","NaN","","","","","","","","","","","","","",""
"","response","","html-keyboard-response","508","489893","0.0-1.0-698.0-0.0","0","0","51720","","440","","","75","77","","","2","77","training","adjacent","FE","6","5","Q.jpg","P.jpg","0","0","1","",""
"","feedback","","html-keyboard-response","509","490899","0.0-1.0-699.0-0.0","0","0","51720","","null","","","null","77","","","","","","","","","","","","","","","",""
"","ITI","","html-keyboard-response","510","491903","0.0-1.0-702.0","0","0","51720","","null","","","null","77","","","","","","","","","","","","","","","NaN",""
"","S1","","html-keyboard-response","511","492157","0.0-1.0-704.0","0","0","51720","","null","","","null","78","","","","","","","","","","","","","","","",""
"","ISI","","html-keyboard-response","512","493162","0.0-1.0-705.0","0","0","51720","","null","","","null","78","NaN","","","","","","","","","","","","","","",""
"","S2","","html-keyboard-response","513","493417","0.0-1.0-706.0","0","0","51720","","null","","","null","78","","NaN","","","","","","","","","","","","","",""
"","response","","html-keyboard-response","514","494459","0.0-1.0-707.0-0.0","0","0","51720","","1038","","","68","78","","","2","78","training","adjacent","GF","7","6","N.jpg","Q.jpg","1","0","0","",""
"","feedback","","html-keyboard-response","515","495464","0.0-1.0-708.0-0.0","0","0","51720","","null","","","null","78","","","","","","","","","","","","","","","",""
"","time_out","","html-keyboard-response","516","497468","0.0-1.0-710.0-0.0","0","0","51720","","null","","","null","78","","","","","","","","","","","","","","","",""
"","ITI","","html-keyboard-response","517","498473","0.0-1.0-711.0","0","0","51720","","null","","","null","78","","","","","","","","","","","","","","","NaN",""
"","S1","","html-keyboard-response","518","498728","0.0-1.0-713.0","0","0","51720","","null","","","null","79","","","","","","","","","","","","","","","",""
"","ISI","","html-keyboard-response","519","499733","0.0-1.0-714.0","0","0","51720","","null","","","null","79","NaN","","","","","","","","","","","","","","",""
"","S2","","html-keyboard-response","520","499986","0.0-1.0-715.0","0","0","51720","","249","","","75","79","","k","2","79","training","adjacent","FG","6","7","Q.jpg","N.jpg","0","1","0","",""
"","feedback","","html-keyboard-response","521","500990","0.0-1.0-717.0-0.0","0","0","51720","","null","","","null","79","","","","","","","","","","","","","","","",""
"","time_out","","html-keyboard-response","522","502994","0.0-1.0-719.0-0.0","0","0","51720","","null","","","null","79","","","","","","","","","","","","","","","",""
"","ITI","","html-keyboard-response","523","503999","0.0-1.0-720.0","0","0","51720","","null","","","null","79","","","","","","","","","","","","","","","NaN",""
"","S1","","html-keyboard-response","524","504253","0.0-1.0-722.0","0","0","51720","","null","","","null","80","","","","","","","","","","","","","","","",""
"","ISI","","html-keyboard-response","525","505258","0.0-1.0-723.0","0","0","51720","","null","","","null","80","NaN","","","","","","","","","","","","","","",""
"","S2","","html-keyboard-response","526","505512","0.0-1.0-724.0","0","0","51720","","null","","","null","80","","NaN","","","","","","","","","","","","","",""
"","response","","html-keyboard-response","527","505815","0.0-1.0-725.0-0.0","0","0","51720","","300","","","75","80","","","2","80","training","adjacent","FE","6","5","Q.jpg","P.jpg","0","0","1","",""
"","feedback","","html-keyboard-response","528","506820","0.0-1.0-726.0-0.0","0","0","51720","","null","","","null","80","","","","","","","","","","","","","","","",""
"","ITI","","html-keyboard-response","529","507824","0.0-1.0-729.0","0","0","51720","","null","","","null","80","","","","","","","","","","","","","","","NaN",""
"","S1","","html-keyboard-response","530","508080","0.0-1.0-731.0","0","0","51720","","null","","","null","81","","","","","","","","","","","","","","","",""
"","ISI","","html-keyboard-response","531","509083","0.0-1.0-732.0","0","0","51720","","null","","","null","81","NaN","","","","","","","","","","","","","","",""
"","S2","","html-keyboard-response","532","509338","0.0-1.0-733.0","0","0","51720","","null","","","null","81","","NaN","","","","","","","","","","","","","",""
"","response","","html-keyboard-response","533","509759","0.0-1.0-734.0-0.0","0","0","51720","","417","","","68","81","","","2","81","training","adjacent","DE","4","5","M.jpg","P.jpg","1","1","1","",""
"","feedback","","html-keyboard-response","534","510763","0.0-1.0-735.0-0.0","0","0","51720","","null","","","null","81","","","","","","","","","","","","","","","",""
"","ITI","","html-keyboard-response","535","511767","0.0-1.0-738.0","0","0","51720","","null","","","null","81","","","","","","","","","","","","","","","NaN",""
"","S1","","html-keyboard-response","536","512022","0.0-1.0-740.0","0","0","51720","","null","","","null","82","","","","","","","","","","","","","","","",""
"","ISI","","html-keyboard-response","537","513026","0.0-1.0-741.0","0","0","51720","","null","","","null","82","NaN","","","","","","","","","","","","","","",""
"","S2","","html-keyboard-response","538","513280","0.0-1.0-742.0","0","0","51720","","null","","","null","82","","NaN","","","","","","","","","","","","","",""
"","response","","html-keyboard-response","539","513787","0.0-1.0-743.0-0.0","0","0","51720","","503","","","68","82","","","2","82","training","adjacent","ED","5","4","P.jpg","M.jpg","1","0","0","",""
"","feedback","","html-keyboard-response","540","514791","0.0-1.0-744.0-0.0","0","0","51720","","null","","","null","82","","","","","","","","","","","","","","","",""
"","time_out","","html-keyboard-response","541","516795","0.0-1.0-746.0-0.0","0","0","51720","","null","","","null","82","","","","","","","","","","","","","","","",""
"","ITI","","html-keyboard-response","542","517800","0.0-1.0-747.0","0","0","51720","","null","","","null","82","","","","","","","","","","","","","","","NaN",""
"","S1","","html-keyboard-response","543","518058","0.0-1.0-749.0","0","0","51720","","null","","","null","83","","","","","","","","","","","","","","","",""
"","ISI","","html-keyboard-response","544","519062","0.0-1.0-750.0","0","0","51720","","null","","","null","83","NaN","","","","","","","","","","","","","","",""
"","S2","","html-keyboard-response","545","519316","0.0-1.0-751.0","0","0","51720","","null","","","null","83","","NaN","","","","","","","","","","","","","",""
"","response","","html-keyboard-response","546","519867","0.0-1.0-752.0-0.0","0","0","51720","","547","","","68","83","","","2","83","training","adjacent","EF","5","6","P.jpg","Q.jpg","1","1","1","",""
"","feedback","","html-keyboard-response","547","520871","0.0-1.0-753.0-0.0","0","0","51720","","null","","","null","83","","","","","","","","","","","","","","","",""
"","ITI","","html-keyboard-response","548","521876","0.0-1.0-756.0","0","0","51720","","null","","","null","83","","","","","","","","","","","","","","","NaN",""
"","S1","","html-keyboard-response","549","522130","0.0-1.0-758.0","0","0","51720","","null","","","null","84","","","","","","","","","","","","","","","",""
"","ISI","","html-keyboard-response","550","523134","0.0-1.0-759.0","0","0","51720","","null","","","null","84","NaN","","","","","","","","","","","","","","",""
"","S2","","html-keyboard-response","551","523389","0.0-1.0-760.0","0","0","51720","","null","","","null","84","","NaN","","","","","","","","","","","","","",""
"","response","","html-keyboard-response","552","524079","0.0-1.0-761.0-0.0","0","0","51720","","685","","","75","84","","","2","84","training","adjacent","GF","7","6","N.jpg","Q.jpg","0","0","1","",""
"","feedback","","html-keyboard-response","553","525084","0.0-1.0-762.0-0.0","0","0","51720","","null","","","null","84","","","","","","","","","","","","","","","",""
"","ITI","","html-keyboard-response","554","526088","0.0-1.0-765.0","0","0","51720","","null","","","null","84","","","","","","","","","","","","","","","NaN",""
"","S1","","html-keyboard-response","555","526343","0.0-1.0-767.0","0","0","51720","","null","","","null","85","","","","","","","","","","","","","","","",""
"","ISI","","html-keyboard-response","556","527346","0.0-1.0-768.0","0","0","51720","","null","","","null","85","NaN","","","","","","","","","","","","","","",""
"","S2","","html-keyboard-response","557","527600","0.0-1.0-769.0","0","0","51720","","null","","","null","85","","NaN","","","","","","","","","","","","","",""
"","response","","html-keyboard-response","558","528015","0.0-1.0-770.0-0.0","0","0","51720","","411","","","75","85","","","2","85","training","adjacent","BA","2","1","O.jpg","L.jpg","0","0","1","",""
"","feedback","","html-keyboard-response","559","529021","0.0-1.0-771.0-0.0","0","0","51720","","null","","","null","85","","","","","","","","","","","","","","","",""
"","ITI","","html-keyboard-response","560","530025","0.0-1.0-774.0","0","0","51720","","null","","","null","85","","","","","","","","","","","","","","","NaN",""
"","S1","","html-keyboard-response","561","530279","0.0-1.0-776.0","0","0","51720","","null","","","null","86","","","","","","","","","","","","","","","",""
"","ISI","","html-keyboard-response","562","531283","0.0-1.0-777.0","0","0","51720","","null","","","null","86","NaN","","","","","","","","","","","","","","",""
"","S2","","html-keyboard-response","563","531538","0.0-1.0-778.0","0","0","51720","","null","","","null","86","","NaN","","","","","","","","","","","","","",""
"","response","","html-keyboard-response","564","532207","0.0-1.0-779.0-0.0","0","0","51720","","666","","","68","86","","","2","86","training","adjacent","FG","6","7","Q.jpg","N.jpg","1","1","1","",""
"","feedback","","html-keyboard-response","565","533211","0.0-1.0-780.0-0.0","0","0","51720","","null","","","null","86","","","","","","","","","","","","","","","",""
"","ITI","","html-keyboard-response","566","534215","0.0-1.0-783.0","0","0","51720","","null","","","null","86","","","","","","","","","","","","","","","NaN",""
"","S1","","html-keyboard-response","567","534479","0.0-1.0-785.0","0","0","51720","","null","","","null","87","","","","","","","","","","","","","","","",""
"","ISI","","html-keyboard-response","568","535483","0.0-1.0-786.0","0","0","51720","","null","","","null","87","NaN","","","","","","","","","","","","","","",""
"","S2","","html-keyboard-response","569","535738","0.0-1.0-787.0","0","0","51720","","null","","","null","87","","NaN","","","","","","","","","","","","","",""
"","response","","html-keyboard-response","570","536184","0.0-1.0-788.0-0.0","0","0","51720","","442","","","68","87","","","2","87","training","adjacent","CD","3","4","R.jpg","M.jpg","1","1","1","",""
"","feedback","","html-keyboard-response","571","537189","0.0-1.0-789.0-0.0","0","0","51720","","null","","","null","87","","","","","","","","","","","","","","","",""
"","ITI","","html-keyboard-response","572","538193","0.0-1.0-792.0","0","0","51720","","null","","","null","87","","","","","","","","","","","","","","","NaN",""
"","S1","","html-keyboard-response","573","538448","0.0-1.0-794.0","0","0","51720","","null","","","null","88","","","","","","","","","","","","","","","",""
"","ISI","","html-keyboard-response","574","539451","0.0-1.0-795.0","0","0","51720","","null","","","null","88","NaN","","","","","","","","","","","","","","",""
"","S2","","html-keyboard-response","575","539705","0.0-1.0-796.0","0","0","51720","","null","","","null","88","","NaN","","","","","","","","","","","","","",""
"","response","","html-keyboard-response","576","540005","0.0-1.0-797.0-0.0","0","0","51720","","295","","","68","88","","","2","88","training","adjacent","FE","6","5","Q.jpg","P.jpg","1","0","0","",""
"","feedback","","html-keyboard-response","577","541010","0.0-1.0-798.0-0.0","0","0","51720","","null","","","null","88","","","","","","","","","","","","","","","",""
"","time_out","","html-keyboard-response","578","543013","0.0-1.0-800.0-0.0","0","0","51720","","null","","","null","88","","","","","","","","","","","","","","","",""
"","ITI","","html-keyboard-response","579","544017","0.0-1.0-801.0","0","0","51720","","null","","","null","88","","","","","","","","","","","","","","","NaN",""
"","S1","","html-keyboard-response","580","544271","0.0-1.0-803.0","0","0","51720","","null","","","null","89","","","","","","","","","","","","","","","",""
"","ISI","","html-keyboard-response","581","545275","0.0-1.0-804.0","0","0","51720","","null","","","null","89","NaN","","","","","","","","","","","","","","",""
"","S2","","html-keyboard-response","582","545528","0.0-1.0-805.0","0","0","51720","","null","","","null","89","","NaN","","","","","","","","","","","","","",""
