"success","ttype","start_time","trial_type","trial_index","time_elapsed","internal_node_id","warning","missed_checkup","PID","view_history","rt","responses","repeat_instructions","key_press","index","keypress_isi","keypress_S2","block","trial_num","phase","group_type","pair_type","S1_stim","S2_stim","S1_img","S2_img","S1_chosen","S1_higher","accuracy","keypress_iti","total_bonus_tally"
"true","full_screen","d03082023hr1553","fullscreen","0","2151","0.0-0.0","0","0","13492","","","","","","","","","","","","","","","","","","","","","",""
"","instructions","","instructions","1","37016","0.0-1.0-0.0-0.0","0","0","13492","[{""page_index"":0,""viewing_time"":2110},{""page_index"":1,""viewing_time"":26296},{""page_index"":2,""viewing_time"":4652},{""page_index"":3,""viewing_time"":1804}]","34862","","","","","","","","","","","","","","","","","","","",""
"","comprehension_check","","survey-multi-choice","2","54023","0.0-1.0-0.0-1.0","0","0","13492","","17002","{""Q0"":""True"",""Q1"":""D"",""Q2"":""Only when the screen 'MAKE A CHOICE' is shown"",""Q3"":""Green mark"",""Q4"":""either D or K""}","1","","","","","","","","","","","","","","","","","",""
"","missed_instruction_checkup","","html-keyboard-response","3","56568","0.0-1.0-0.0-2.0-0.0","0","1","13492","","2542","","","32","","","","","","","","","","","","","","","","",""
"","instructions","","instructions","4","82132","0.0-1.0-0.1-0.1","0","0","13492","[{""page_index"":0,""viewing_time"":1629},{""page_index"":1,""viewing_time"":21716},{""page_index"":2,""viewing_time"":1144},{""page_index"":3,""viewing_time"":1072}]","25561","","","","","","","","","","","","","","","","","","","",""
"","comprehension_check","","survey-multi-choice","5","93156","0.0-1.0-0.1-1.1","0","0","13492","","11018","{""Q0"":""True"",""Q1"":""D"",""Q2"":""Once the second image appears and while the screen 'MAKE A CHOICE' is shown"",""Q3"":""Green mark"",""Q4"":""either D or K""}","0","","","","","","","","","","","","","","","","","",""
"","start_exp","","html-keyboard-response","6","95287","0.0-1.0-1.0","0","0","13492","","2129","","","32","","","","","","","","","","","","","","","","",""
"","S1","","html-keyboard-response","7","95540","0.0-1.0-2.0","0","0","13492","","null","","","null","0","","","","","","","","","","","","","","","",""
"","ISI","","html-keyboard-response","8","95693","0.0-1.0-3.0","0","0","13492","","null","","","null","0","NaN","","","","","","","","","","","","","","",""
"","S2","","html-keyboard-response","9","95947","0.0-1.0-4.0","0","0","13492","","null","","","null","0","","NaN","","","","","","","","","","","","","",""
"","response","","html-keyboard-response","10","97032","0.0-1.0-5.0-0.0","0","0","13492","","1082","","","68","0","","","1","0","training","adjacent","BA","2","1","N.jpg","P.jpg","1","0","0","",""
"","feedback","","html-keyboard-response","11","98035","0.0-1.0-6.0-0.0","0","0","13492","","null","","","null","0","","","","","","","","","","","","","","","",""
"","time_out","","html-keyboard-response","12","100037","0.0-1.0-8.0-0.0","0","0","13492","","null","","","null","0","","","","","","","","","","","","","","","",""
"","ITI","","html-keyboard-response","13","101040","0.0-1.0-9.0","0","0","13492","","705","","","32","0","","","","","","","","","","","","","","","space",""
"","S1","","html-keyboard-response","14","101293","0.0-1.0-11.0","0","0","13492","","null","","","null","1","","","","","","","","","","","","","","","",""
"","ISI","","html-keyboard-response","15","101445","0.0-1.0-12.0","0","0","13492","","null","","","null","1","NaN","","","","","","","","","","","","","","",""
"","S2","","html-keyboard-response","16","101698","0.0-1.0-13.0","0","0","13492","","null","","","null","1","","NaN","","","","","","","","","","","","","",""
"","response","","html-keyboard-response","17","102103","0.0-1.0-14.0-0.0","0","0","13492","","403","","","75","1","","","1","1","training","adjacent","ED","5","4","L.jpg","Q.jpg","0","0","1","",""
"","feedback","","html-keyboard-response","18","103107","0.0-1.0-15.0-0.0","0","0","13492","","null","","","null","1","","","","","","","","","","","","","","","",""
"","ITI","","html-keyboard-response","19","104110","0.0-1.0-18.0","0","0","13492","","null","","","null","1","","","","","","","","","","","","","","","NaN",""
"","S1","","html-keyboard-response","20","104362","0.0-1.0-20.0","0","0","13492","","null","","","null","2","","","","","","","","","","","","","","","",""
"","ISI","","html-keyboard-response","21","104514","0.0-1.0-21.0","0","0","13492","","null","","","null","2","NaN","","","","","","","","","","","","","","",""
"","S2","","html-keyboard-response","22","104768","0.0-1.0-22.0","0","0","13492","","null","","","null","2","","NaN","","","","","","","","","","","","","",""
"","response","","html-keyboard-response","23","105198","0.0-1.0-23.0-0.0","0","0","13492","","429","","","68","2","","","1","2","training","adjacent","EF","5","6","L.jpg","O.jpg","1","1","1","",""
"","feedback","","html-keyboard-response","24","106200","0.0-1.0-24.0-0.0","0","0","13492","","null","","","null","2","","","","","","","","","","","","","","","",""
"","ITI","","html-keyboard-response","25","107203","0.0-1.0-27.0","0","0","13492","","null","","","null","2","","","","","","","","","","","","","","","NaN",""
"","S1","","html-keyboard-response","26","107457","0.0-1.0-29.0","0","0","13492","","null","","","null","3","","","","","","","","","","","","","","","",""
"","ISI","","html-keyboard-response","27","107609","0.0-1.0-30.0","0","0","13492","","null","","","null","3","NaN","","","","","","","","","","","","","","",""
"","S2","","html-keyboard-response","28","107862","0.0-1.0-31.0","0","0","13492","","null","","","null","3","","NaN","","","","","","","","","","","","","",""
"","response","","html-keyboard-response","29","108176","0.0-1.0-32.0-0.0","0","0","13492","","311","","","68","3","","","1","3","training","adjacent","BA","2","1","N.jpg","P.jpg","1","0","0","",""
"","feedback","","html-keyboard-response","30","109179","0.0-1.0-33.0-0.0","0","0","13492","","null","","","null","3","","","","","","","","","","","","","","","",""
"","time_out","","html-keyboard-response","31","111182","0.0-1.0-35.0-0.0","0","0","13492","","null","","","null","3","","","","","","","","","","","","","","","",""
"","ITI","","html-keyboard-response","32","112185","0.0-1.0-36.0","0","0","13492","","null","","","null","3","","","","","","","","","","","","","","","NaN",""
"","S1","","html-keyboard-response","33","112438","0.0-1.0-38.0","0","0","13492","","null","","","null","4","","","","","","","","","","","","","","","",""
"","ISI","","html-keyboard-response","34","112591","0.0-1.0-39.0","0","0","13492","","null","","","null","4","NaN","","","","","","","","","","","","","","",""
"","S2","","html-keyboard-response","35","112855","0.0-1.0-40.0","0","0","13492","","null","","","null","4","","NaN","","","","","","","","","","","","","",""
"","response","","html-keyboard-response","36","113153","0.0-1.0-41.0-0.0","0","0","13492","","296","","","75","4","","","1","4","training","adjacent","DE","4","5","Q.jpg","L.jpg","0","1","0","",""
"","feedback","","html-keyboard-response","37","114155","0.0-1.0-42.0-0.0","0","0","13492","","null","","","null","4","","","","","","","","","","","","","","","",""
"","time_out","","html-keyboard-response","38","116173","0.0-1.0-44.0-0.0","0","0","13492","","null","","","null","4","","","","","","","","","","","","","","","",""
"","ITI","","html-keyboard-response","39","117175","0.0-1.0-45.0","0","0","13492","","737","","","32","4","","","","","","","","","","","","","","","space",""
"","S1","","html-keyboard-response","40","117429","0.0-1.0-47.0","0","0","13492","","null","","","null","5","","","","","","","","","","","","","","","",""
"","ISI","","html-keyboard-response","41","117581","0.0-1.0-48.0","0","0","13492","","null","","","null","5","NaN","","","","","","","","","","","","","","",""
"","S2","","html-keyboard-response","42","117833","0.0-1.0-49.0","0","0","13492","","null","","","null","5","","NaN","","","","","","","","","","","","","",""
"","response","","html-keyboard-response","43","118193","0.0-1.0-50.0-0.0","0","0","13492","","357","","","75","5","","","1","5","training","adjacent","FG","6","7","O.jpg","R.jpg","0","1","0","",""
"","feedback","","html-keyboard-response","44","119196","0.0-1.0-51.0-0.0","0","0","13492","","null","","","null","5","","","","","","","","","","","","","","","",""
"","time_out","","html-keyboard-response","45","121198","0.0-1.0-53.0-0.0","0","0","13492","","null","","","null","5","","","","","","","","","","","","","","","",""
"","ITI","","html-keyboard-response","46","122201","0.0-1.0-54.0","0","0","13492","","88","","","68","5","","","","","","","","","","","","","","","d",""
"","S1","","html-keyboard-response","47","122455","0.0-1.0-56.0","0","0","13492","","null","","","null","6","","","","","","","","","","","","","","","",""
"","ISI","","html-keyboard-response","48","122621","0.0-1.0-57.0","0","0","13492","","null","","","null","6","NaN","","","","","","","","","","","","","","",""
"","S2","","html-keyboard-response","49","122875","0.0-1.0-58.0","0","0","13492","","null","","","null","6","","NaN","","","","","","","","","","","","","",""
"","response","","html-keyboard-response","50","123056","0.0-1.0-59.0-0.0","0","0","13492","","179","","","68","6","","","1","6","training","adjacent","CB","3","2","M.jpg","N.jpg","1","0","0","",""
"","feedback","","html-keyboard-response","51","124059","0.0-1.0-60.0-0.0","0","0","13492","","null","","","null","6","","","","","","","","","","","","","","","",""
"","time_out","","html-keyboard-response","52","126063","0.0-1.0-62.0-0.0","0","0","13492","","null","","","null","6","","","","","","","","","","","","","","","",""
"","ITI","","html-keyboard-response","53","127065","0.0-1.0-63.0","0","0","13492","","688","","","13","6","","","","","","","","","","","","","","","enter",""
"","S1","","html-keyboard-response","54","127318","0.0-1.0-65.0","0","0","13492","","null","","","null","7","","","","","","","","","","","","","","","",""
"","ISI","","html-keyboard-response","55","127471","0.0-1.0-66.0","0","0","13492","","null","","","null","7","NaN","","","","","","","","","","","","","","",""
"","S2","","html-keyboard-response","56","127724","0.0-1.0-67.0","0","0","13492","","null","","","null","7","","NaN","","","","","","","","","","","","","",""
"","response","","html-keyboard-response","57","127791","0.0-1.0-68.0-0.0","0","0","13492","","66","","","75","7","","","1","7","training","adjacent","ED","5","4","L.jpg","Q.jpg","0","0","1","",""
"","feedback","","html-keyboard-response","58","128794","0.0-1.0-69.0-0.0","0","0","13492","","null","","","null","7","","","","","","","","","","","","","","","",""
"","ITI","","html-keyboard-response","59","129808","0.0-1.0-72.0","0","0","13492","","null","","","null","7","","","","","","","","","","","","","","","NaN",""
"","S1","","html-keyboard-response","60","130061","0.0-1.0-74.0","0","0","13492","","null","","","null","8","","","","","","","","","","","","","","","",""
"","ISI","","html-keyboard-response","61","130217","0.0-1.0-75.0","0","0","13492","","null","","","null","8","NaN","","","","","","","","","","","","","","",""
"","S2","","html-keyboard-response","62","130469","0.0-1.0-76.0","0","0","13492","","null","","","null","8","","NaN","","","","","","","","","","","","","",""
"","response","","html-keyboard-response","63","130848","0.0-1.0-77.0-0.0","0","0","13492","","378","","","75","8","","","1","8","training","adjacent","AB","1","2","P.jpg","N.jpg","0","1","0","",""
"","feedback","","html-keyboard-response","64","131850","0.0-1.0-78.0-0.0","0","0","13492","","null","","","null","8","","","","","","","","","","","","","","","",""
"","time_out","","html-keyboard-response","65","133853","0.0-1.0-80.0-0.0","0","0","13492","","null","","","null","8","","","","","","","","","","","","","","","",""
"","ITI","","html-keyboard-response","66","134856","0.0-1.0-81.0","0","0","13492","","null","","","null","8","","","","","","","","","","","","","","","NaN",""
"","S1","","html-keyboard-response","67","135110","0.0-1.0-83.0","0","0","13492","","null","","","null","9","","","","","","","","","","","","","","","",""
"","ISI","","html-keyboard-response","68","135262","0.0-1.0-84.0","0","0","13492","","null","","","null","9","NaN","","","","","","","","","","","","","","",""
"","S2","","html-keyboard-response","69","135526","0.0-1.0-85.0","0","0","13492","","null","","","null","9","","NaN","","","","","","","","","","","","","",""
"","response","","html-keyboard-response","70","135705","0.0-1.0-86.0-0.0","0","0","13492","","176","","","68","9","","","1","9","training","adjacent","AB","1","2","P.jpg","N.jpg","1","1","1","",""
"","feedback","","html-keyboard-response","71","136708","0.0-1.0-87.0-0.0","0","0","13492","","null","","","null","9","","","","","","","","","","","","","","","",""
"","ITI","","html-keyboard-response","72","137710","0.0-1.0-90.0","0","0","13492","","null","","","null","9","","","","","","","","","","","","","","","NaN",""
"","S1","","html-keyboard-response","73","137962","0.0-1.0-92.0","0","0","13492","","null","","","null","10","","","","","","","","","","","","","","","",""
"","ISI","","html-keyboard-response","74","138115","0.0-1.0-93.0","0","0","13492","","null","","","null","10","NaN","","","","","","","","","","","","","","",""
"","S2","","html-keyboard-response","75","138368","0.0-1.0-94.0","0","0","13492","","null","","","null","10","","NaN","","","","","","","","","","","","","",""
"","response","","html-keyboard-response","76","138744","0.0-1.0-95.0-0.0","0","0","13492","","375","","","68","10","","","1","10","training","adjacent","EF","5","6","L.jpg","O.jpg","1","1","1","",""
"","feedback","","html-keyboard-response","77","139747","0.0-1.0-96.0-0.0","0","0","13492","","null","","","null","10","","","","","","","","","","","","","","","",""
"","ITI","","html-keyboard-response","78","140749","0.0-1.0-99.0","0","0","13492","","null","","","null","10","","","","","","","","","","","","","","","NaN",""
"","S1","","html-keyboard-response","79","141001","0.0-1.0-101.0","0","0","13492","","null","","","null","11","","","","","","","","","","","","","","","",""
"","ISI","","html-keyboard-response","80","141154","0.0-1.0-102.0","0","0","13492","","null","","","null","11","NaN","","","","","","","","","","","","","","",""
"","S2","","html-keyboard-response","81","141406","0.0-1.0-103.0","0","0","13492","","null","","","null","11","","NaN","","","","","","","","","","","","","",""
"","response","","html-keyboard-response","82","141688","0.0-1.0-104.0-0.0","0","0","13492","","281","","","75","11","","","1","11","training","adjacent","DC","4","3","Q.jpg","M.jpg","0","0","1","",""
"","feedback","","html-keyboard-response","83","142691","0.0-1.0-105.0-0.0","0","0","13492","","null","","","null","11","","","","","","","","","","","","","","","",""
"","ITI","","html-keyboard-response","84","143694","0.0-1.0-108.0","0","0","13492","","null","","","null","11","","","","","","","","","","","","","","","NaN",""
"","S1","","html-keyboard-response","85","143946","0.0-1.0-110.0","0","0","13492","","null","","","null","12","","","","","","","","","","","","","","","",""
"","ISI","","html-keyboard-response","86","144099","0.0-1.0-111.0","0","0","13492","","null","","","null","12","NaN","","","","","","","","","","","","","","",""
"","S2","","html-keyboard-response","87","144351","0.0-1.0-112.0","0","0","13492","","null","","","null","12","","NaN","","","","","","","","","","","","","",""
"","response","","html-keyboard-response","88","144601","0.0-1.0-113.0-0.0","0","0","13492","","247","","","68","12","","","1","12","training","adjacent","FG","6","7","O.jpg","R.jpg","1","1","1","",""
"","feedback","","html-keyboard-response","89","145604","0.0-1.0-114.0-0.0","0","0","13492","","null","","","null","12","","","","","","","","","","","","","","","",""
"","ITI","","html-keyboard-response","90","146607","0.0-1.0-117.0","0","0","13492","","null","","","null","12","","","","","","","","","","","","","","","NaN",""
"","S1","","html-keyboard-response","91","146860","0.0-1.0-119.0","0","0","13492","","null","","","null","13","","","","","","","","","","","","","","","",""
"","ISI","","html-keyboard-response","92","147012","0.0-1.0-120.0","0","0","13492","","null","","","null","13","NaN","","","","","","","","","","","","","","",""
"","S2","","html-keyboard-response","93","147266","0.0-1.0-121.0","0","0","13492","","null","","","null","13","","NaN","","","","","","","","","","","","","",""
"","response","","html-keyboard-response","94","147568","0.0-1.0-122.0-0.0","0","0","13492","","300","","","68","13","","","1","13","training","adjacent","BC","2","3","N.jpg","M.jpg","1","1","1","",""
"","feedback","","html-keyboard-response","95","148570","0.0-1.0-123.0-0.0","0","0","13492","","null","","","null","13","","","","","","","","","","","","","","","",""
"","ITI","","html-keyboard-response","96","149572","0.0-1.0-126.0","0","0","13492","","null","","","null","13","","","","","","","","","","","","","","","NaN",""
"","S1","","html-keyboard-response","97","149825","0.0-1.0-128.0","0","0","13492","","null","","","null","14","","","","","","","","","","","","","","","",""
"","ISI","","html-keyboard-response","98","149978","0.0-1.0-129.0","0","0","13492","","null","","","null","14","NaN","","","","","","","","","","","","","","",""
"","S2","","html-keyboard-response","99","150230","0.0-1.0-130.0","0","0","13492","","null","","","null","14","","NaN","","","","","","","","","","","","","",""
"","response","","html-keyboard-response","100","150384","0.0-1.0-131.0-0.0","0","0","13492","","152","","","68","14","","","1","14","training","adjacent","DE","4","5","Q.jpg","L.jpg","1","1","1","",""
"","feedback","","html-keyboard-response","101","151387","0.0-1.0-132.0-0.0","0","0","13492","","null","","","null","14","","","","","","","","","","","","","","","",""
"","ITI","","html-keyboard-response","102","152390","0.0-1.0-135.0","0","0","13492","","null","","","null","14","","","","","","","","","","","","","","","NaN",""
"","S1","","html-keyboard-response","103","152643","0.0-1.0-137.0","0","0","13492","","null","","","null","15","","","","","","","","","","","","","","","",""
"","ISI","","html-keyboard-response","104","152797","0.0-1.0-138.0","0","0","13492","","null","","","null","15","NaN","","","","","","","","","","","","","","",""
"","S2","","html-keyboard-response","105","153050","0.0-1.0-139.0","0","0","13492","","null","","","null","15","","NaN","","","","","","","","","","","","","",""
"","response","","html-keyboard-response","106","153120","0.0-1.0-140.0-0.0","0","0","13492","","69","","","75","15","","","1","15","training","adjacent","FG","6","7","O.jpg","R.jpg","0","1","0","",""
"","feedback","","html-keyboard-response","107","154123","0.0-1.0-141.0-0.0","0","0","13492","","null","","","null","15","","","","","","","","","","","","","","","",""
"","time_out","","html-keyboard-response","108","156126","0.0-1.0-143.0-0.0","0","0","13492","","null","","","null","15","","","","","","","","","","","","","","","",""
"","ITI","","html-keyboard-response","109","157129","0.0-1.0-144.0","0","0","13492","","null","","","null","15","","","","","","","","","","","","","","","NaN",""
"","S1","","html-keyboard-response","110","157383","0.0-1.0-146.0","0","0","13492","","null","","","null","16","","","","","","","","","","","","","","","",""
"","ISI","","html-keyboard-response","111","157536","0.0-1.0-147.0","0","0","13492","","null","","","null","16","NaN","","","","","","","","","","","","","","",""
"","S2","","html-keyboard-response","112","157789","0.0-1.0-148.0","0","0","13492","","null","","","null","16","","NaN","","","","","","","","","","","","","",""
"","response","","html-keyboard-response","113","158025","0.0-1.0-149.0-0.0","0","0","13492","","233","","","68","16","","","1","16","training","adjacent","GF","7","6","R.jpg","O.jpg","1","0","0","",""
"","feedback","","html-keyboard-response","114","159028","0.0-1.0-150.0-0.0","0","0","13492","","null","","","null","16","","","","","","","","","","","","","","","",""
"","time_out","","html-keyboard-response","115","161032","0.0-1.0-152.0-0.0","0","0","13492","","null","","","null","16","","","","","","","","","","","","","","","",""
"","ITI","","html-keyboard-response","116","162035","0.0-1.0-153.0","0","0","13492","","null","","","null","16","","","","","","","","","","","","","","","NaN",""
"","S1","","html-keyboard-response","117","162288","0.0-1.0-155.0","0","0","13492","","null","","","null","17","","","","","","","","","","","","","","","",""
"","ISI","","html-keyboard-response","118","162440","0.0-1.0-156.0","0","0","13492","","null","","","null","17","NaN","","","","","","","","","","","","","","",""
"","S2","","html-keyboard-response","119","162693","0.0-1.0-157.0","0","0","13492","","null","","","null","17","","NaN","","","","","","","","","","","","","",""
"","response","","html-keyboard-response","120","163081","0.0-1.0-158.0-0.0","0","0","13492","","385","","","68","17","","","1","17","training","adjacent","FG","6","7","O.jpg","R.jpg","1","1","1","",""
"","feedback","","html-keyboard-response","121","164084","0.0-1.0-159.0-0.0","0","0","13492","","null","","","null","17","","","","","","","","","","","","","","","",""
"","ITI","","html-keyboard-response","122","165088","0.0-1.0-162.0","0","0","13492","","null","","","null","17","","","","","","","","","","","","","","","NaN",""
"","S1","","html-keyboard-response","123","165349","0.0-1.0-164.0","0","0","13492","","null","","","null","18","","","","","","","","","","","","","","","",""
"","ISI","","html-keyboard-response","124","165503","0.0-1.0-165.0","0","0","13492","","null","","","null","18","NaN","","","","","","","","","","","","","","",""
"","S2","","html-keyboard-response","125","165757","0.0-1.0-166.0","0","0","13492","","null","","","null","18","","NaN","","","","","","","","","","","","","",""
"","response","","html-keyboard-response","126","165993","0.0-1.0-167.0-0.0","0","0","13492","","233","","","75","18","","","1","18","training","adjacent","BA","2","1","N.jpg","P.jpg","0","0","1","",""
"","feedback","","html-keyboard-response","127","166996","0.0-1.0-168.0-0.0","0","0","13492","","null","","","null","18","","","","","","","","","","","","","","","",""
"","ITI","","html-keyboard-response","128","167999","0.0-1.0-171.0","0","0","13492","","null","","","null","18","","","","","","","","","","","","","","","NaN",""
"","S1","","html-keyboard-response","129","168251","0.0-1.0-173.0","0","0","13492","","null","","","null","19","","","","","","","","","","","","","","","",""
"","ISI","","html-keyboard-response","130","168405","0.0-1.0-174.0","0","0","13492","","null","","","null","19","NaN","","","","","","","","","","","","","","",""
"","S2","","html-keyboard-response","131","168658","0.0-1.0-175.0","0","0","13492","","null","","","null","19","","NaN","","","","","","","","","","","","","",""
"","response","","html-keyboard-response","132","168824","0.0-1.0-176.0-0.0","0","0","13492","","164","","","68","19","","","1","19","training","adjacent","FE","6","5","O.jpg","L.jpg","1","0","0","",""
"","feedback","","html-keyboard-response","133","169827","0.0-1.0-177.0-0.0","0","0","13492","","null","","","null","19","","","","","","","","","","","","","","","",""
"","time_out","","html-keyboard-response","134","171829","0.0-1.0-179.0-0.0","0","0","13492","","null","","","null","19","","","","","","","","","","","","","","","",""
"","ITI","","html-keyboard-response","135","172831","0.0-1.0-180.0","0","0","13492","","null","","","null","19","","","","","","","","","","","","","","","NaN",""
"","S1","","html-keyboard-response","136","173084","0.0-1.0-182.0","0","0","13492","","null","","","null","20","","","","","","","","","","","","","","","",""
"","ISI","","html-keyboard-response","137","173242","0.0-1.0-183.0","0","0","13492","","null","","","null","20","NaN","","","","","","","","","","","","","","",""
"","S2","","html-keyboard-response","138","173495","0.0-1.0-184.0","0","0","13492","","null","","","null","20","","NaN","","","","","","","","","","","","","",""
"","response","","html-keyboard-response","139","173656","0.0-1.0-185.0-0.0","0","0","13492","","159","","","75","20","","","1","20","training","adjacent","GF","7","6","R.jpg","O.jpg","0","0","1","",""
"","feedback","","html-keyboard-response","140","174659","0.0-1.0-186.0-0.0","0","0","13492","","null","","","null","20","","","","","","","","","","","","","","","",""
"","ITI","","html-keyboard-response","141","175662","0.0-1.0-189.0","0","0","13492","","null","","","null","20","","","","","","","","","","","","","","","NaN",""
"","S1","","html-keyboard-response","142","175915","0.0-1.0-191.0","0","0","13492","","null","","","null","21","","","","","","","","","","","","","","","",""
"","ISI","","html-keyboard-response","143","176067","0.0-1.0-192.0","0","0","13492","","null","","","null","21","NaN","","","","","","","","","","","","","","",""
"","S2","","html-keyboard-response","144","176320","0.0-1.0-193.0","0","0","13492","","null","","","null","21","","NaN","","","","","","","","","","","","","",""
"","response","","html-keyboard-response","145","176624","0.0-1.0-194.0-0.0","0","0","13492","","301","","","68","21","","","1","21","training","adjacent","BA","2","1","N.jpg","P.jpg","1","0","0","",""
"","feedback","","html-keyboard-response","146","177627","0.0-1.0-195.0-0.0","0","0","13492","","null","","","null","21","","","","","","","","","","","","","","","",""
"","time_out","","html-keyboard-response","147","179630","0.0-1.0-197.0-0.0","0","0","13492","","null","","","null","21","","","","","","","","","","","","","","","",""
"","ITI","","html-keyboard-response","148","180632","0.0-1.0-198.0","0","0","13492","","null","","","null","21","","","","","","","","","","","","","","","NaN",""
"","S1","","html-keyboard-response","149","180886","0.0-1.0-200.0","0","0","13492","","null","","","null","22","","","","","","","","","","","","","","","",""
"","ISI","","html-keyboard-response","150","181038","0.0-1.0-201.0","0","0","13492","","null","","","null","22","NaN","","","","","","","","","","","","","","",""
"","S2","","html-keyboard-response","151","181290","0.0-1.0-202.0","0","0","13492","","null","","","null","22","","NaN","","","","","","","","","","","","","",""
"","response","","html-keyboard-response","152","182151","0.0-1.0-203.0-0.0","0","0","13492","","860","","","68","22","","","1","22","training","adjacent","ED","5","4","L.jpg","Q.jpg","1","0","0","",""
"","feedback","","html-keyboard-response","153","183153","0.0-1.0-204.0-0.0","0","0","13492","","null","","","null","22","","","","","","","","","","","","","","","",""
"","time_out","","html-keyboard-response","154","185156","0.0-1.0-206.0-0.0","0","0","13492","","null","","","null","22","","","","","","","","","","","","","","","",""
"","ITI","","html-keyboard-response","155","186158","0.0-1.0-207.0","0","0","13492","","null","","","null","22","","","","","","","","","","","","","","","NaN",""
"","S1","","html-keyboard-response","156","186410","0.0-1.0-209.0","0","0","13492","","null","","","null","23","","","","","","","","","","","","","","","",""
"","ISI","","html-keyboard-response","157","186563","0.0-1.0-210.0","0","0","13492","","null","","","null","23","NaN","","","","","","","","","","","","","","",""
"","S2","","html-keyboard-response","158","186818","0.0-1.0-211.0","0","0","13492","","null","","","null","23","","NaN","","","","","","","","","","","","","",""
"","response","","html-keyboard-response","159","187096","0.0-1.0-212.0-0.0","0","0","13492","","276","","","68","23","","","1","23","training","adjacent","CD","3","4","M.jpg","Q.jpg","1","1","1","",""
"","feedback","","html-keyboard-response","160","188099","0.0-1.0-213.0-0.0","0","0","13492","","null","","","null","23","","","","","","","","","","","","","","","",""
"","ITI","","html-keyboard-response","161","189102","0.0-1.0-216.0","0","0","13492","","null","","","null","23","","","","","","","","","","","","","","","NaN",""
"","S1","","html-keyboard-response","162","189354","0.0-1.0-218.0","0","0","13492","","null","","","null","24","","","","","","","","","","","","","","","",""
"","ISI","","html-keyboard-response","163","189507","0.0-1.0-219.0","0","0","13492","","null","","","null","24","NaN","","","","","","","","","","","","","","",""
"","S2","","html-keyboard-response","164","189760","0.0-1.0-220.0","0","0","13492","","null","","","null","24","","NaN","","","","","","","","","","","","","",""
"","response","","html-keyboard-response","165","189958","0.0-1.0-221.0-0.0","0","0","13492","","197","","","68","24","","","1","24","training","adjacent","AB","1","2","P.jpg","N.jpg","1","1","1","",""
"","feedback","","html-keyboard-response","166","190961","0.0-1.0-222.0-0.0","0","0","13492","","null","","","null","24","","","","","","","","","","","","","","","",""
"","ITI","","html-keyboard-response","167","191964","0.0-1.0-225.0","0","0","13492","","null","","","null","24","","","","","","","","","","","","","","","NaN",""
"","S1","","html-keyboard-response","168","192217","0.0-1.0-227.0","0","0","13492","","null","","","null","25","","","","","","","","","","","","","","","",""
"","ISI","","html-keyboard-response","169","192370","0.0-1.0-228.0","0","0","13492","","null","","","null","25","NaN","","","","","","","","","","","","","","",""
"","S2","","html-keyboard-response","170","192635","0.0-1.0-229.0","0","0","13492","","null","","","null","25","","NaN","","","","","","","","","","","","","",""
"","response","","html-keyboard-response","171","192767","0.0-1.0-230.0-0.0","0","0","13492","","130","","","75","25","","","1","25","training","adjacent","GF","7","6","R.jpg","O.jpg","0","0","1","",""
"","feedback","","html-keyboard-response","172","193770","0.0-1.0-231.0-0.0","0","0","13492","","null","","","null","25","","","","","","","","","","","","","","","",""
"","ITI","","html-keyboard-response","173","194773","0.0-1.0-234.0","0","0","13492","","null","","","null","25","","","","","","","","","","","","","","","NaN",""
"","S1","","html-keyboard-response","174","195026","0.0-1.0-236.0","0","0","13492","","null","","","null","26","","","","","","","","","","","","","","","",""
"","ISI","","html-keyboard-response","175","195178","0.0-1.0-237.0","0","0","13492","","null","","","null","26","NaN","","","","","","","","","","","","","","",""
"","S2","","html-keyboard-response","176","195431","0.0-1.0-238.0","0","0","13492","","null","","","null","26","","NaN","","","","","","","","","","","","","",""
"","response","","html-keyboard-response","177","195560","0.0-1.0-239.0-0.0","0","0","13492","","126","","","68","26","","","1","26","training","adjacent","DC","4","3","Q.jpg","M.jpg","1","0","0","",""
"","feedback","","html-keyboard-response","178","196563","0.0-1.0-240.0-0.0","0","0","13492","","null","","","null","26","","","","","","","","","","","","","","","",""
"","time_out","","html-keyboard-response","179","198565","0.0-1.0-242.0-0.0","0","0","13492","","null","","","null","26","","","","","","","","","","","","","","","",""
"","ITI","","html-keyboard-response","180","199567","0.0-1.0-243.0","0","0","13492","","null","","","null","26","","","","","","","","","","","","","","","NaN",""
"","S1","","html-keyboard-response","181","199821","0.0-1.0-245.0","0","0","13492","","null","","","null","27","","","","","","","","","","","","","","","",""
"","ISI","","html-keyboard-response","182","199974","0.0-1.0-246.0","0","0","13492","","null","","","null","27","NaN","","","","","","","","","","","","","","",""
"","S2","","html-keyboard-response","183","200228","0.0-1.0-247.0","0","0","13492","","null","","","null","27","","NaN","","","","","","","","","","","","","",""
"","response","","html-keyboard-response","184","200519","0.0-1.0-248.0-0.0","0","0","13492","","289","","","68","27","","","1","27","training","adjacent","FE","6","5","O.jpg","L.jpg","1","0","0","",""
"","feedback","","html-keyboard-response","185","201522","0.0-1.0-249.0-0.0","0","0","13492","","null","","","null","27","","","","","","","","","","","","","","","",""
"","time_out","","html-keyboard-response","186","203525","0.0-1.0-251.0-0.0","0","0","13492","","null","","","null","27","","","","","","","","","","","","","","","",""
"","ITI","","html-keyboard-response","187","204528","0.0-1.0-252.0","0","0","13492","","null","","","null","27","","","","","","","","","","","","","","","NaN",""
"","S1","","html-keyboard-response","188","204781","0.0-1.0-254.0","0","0","13492","","null","","","null","28","","","","","","","","","","","","","","","",""
"","ISI","","html-keyboard-response","189","204934","0.0-1.0-255.0","0","0","13492","","null","","","null","28","NaN","","","","","","","","","","","","","","",""
"","S2","","html-keyboard-response","190","205187","0.0-1.0-256.0","0","0","13492","","null","","","null","28","","NaN","","","","","","","","","","","","","",""
"","response","","html-keyboard-response","191","205519","0.0-1.0-257.0-0.0","0","0","13492","","330","","","68","28","","","1","28","training","adjacent","DC","4","3","Q.jpg","M.jpg","1","0","0","",""
"","feedback","","html-keyboard-response","192","206522","0.0-1.0-258.0-0.0","0","0","13492","","null","","","null","28","","","","","","","","","","","","","","","",""
"","time_out","","html-keyboard-response","193","208524","0.0-1.0-260.0-0.0","0","0","13492","","null","","","null","28","","","","","","","","","","","","","","","",""
"","ITI","","html-keyboard-response","194","209527","0.0-1.0-261.0","0","0","13492","","null","","","null","28","","","","","","","","","","","","","","","NaN",""
"","S1","","html-keyboard-response","195","209780","0.0-1.0-263.0","0","0","13492","","null","","","null","29","","","","","","","","","","","","","","","",""
"","ISI","","html-keyboard-response","196","209933","0.0-1.0-264.0","0","0","13492","","null","","","null","29","NaN","","","","","","","","","","","","","","",""
"","S2","","html-keyboard-response","197","210186","0.0-1.0-265.0","0","0","13492","","null","","","null","29","","NaN","","","","","","","","","","","","","",""
"","response","","html-keyboard-response","198","210230","0.0-1.0-266.0-0.0","0","0","13492","","43","","","75","29","","","1","29","training","adjacent","BC","2","3","N.jpg","M.jpg","0","1","0","",""
"","feedback","","html-keyboard-response","199","211233","0.0-1.0-267.0-0.0","0","0","13492","","null","","","null","29","","","","","","","","","","","","","","","",""
"","time_out","","html-keyboard-response","200","213236","0.0-1.0-269.0-0.0","0","0","13492","","null","","","null","29","","","","","","","","","","","","","","","",""
"","ITI","","html-keyboard-response","201","214239","0.0-1.0-270.0","0","0","13492","","null","","","null","29","","","","","","","","","","","","","","","NaN",""
"","S1","","html-keyboard-response","202","214492","0.0-1.0-272.0","0","0","13492","","null","","","null","30","","","","","","","","","","","","","","","",""
"","ISI","","html-keyboard-response","203","214644","0.0-1.0-273.0","0","0","13492","","null","","","null","30","NaN","","","","","","","","","","","","","","",""
"","S2","","html-keyboard-response","204","214897","0.0-1.0-274.0","0","0","13492","","null","","","null","30","","NaN","","","","","","","","","","","","","",""
"","response","","html-keyboard-response","205","215145","0.0-1.0-275.0-0.0","0","0","13492","","244","","","75","30","","","1","30","training","adjacent","EF","5","6","L.jpg","O.jpg","0","1","0","",""
"","feedback","","html-keyboard-response","206","216149","0.0-1.0-276.0-0.0","0","0","13492","","null","","","null","30","","","","","","","","","","","","","","","",""
"","time_out","","html-keyboard-response","207","218152","0.0-1.0-278.0-0.0","0","0","13492","","null","","","null","30","","","","","","","","","","","","","","","",""
"","ITI","","html-keyboard-response","208","219168","0.0-1.0-279.0","0","0","13492","","null","","","null","30","","","","","","","","","","","","","","","NaN",""
"","S1","","html-keyboard-response","209","219421","0.0-1.0-281.0","0","0","13492","","null","","","null","31","","","","","","","","","","","","","","","",""
"","ISI","","html-keyboard-response","210","219573","0.0-1.0-282.0","0","0","13492","","null","","","null","31","NaN","","","","","","","","","","","","","","",""
"","S2","","html-keyboard-response","211","219826","0.0-1.0-283.0","0","0","13492","","null","","","null","31","","NaN","","","","","","","","","","","","","",""
"","response","","html-keyboard-response","212","219991","0.0-1.0-284.0-0.0","0","0","13492","","163","","","68","31","","","1","31","training","adjacent","CB","3","2","M.jpg","N.jpg","1","0","0","",""
"","feedback","","html-keyboard-response","213","220994","0.0-1.0-285.0-0.0","0","0","13492","","null","","","null","31","","","","","","","","","","","","","","","",""
"","time_out","","html-keyboard-response","214","222997","0.0-1.0-287.0-0.0","0","0","13492","","null","","","null","31","","","","","","","","","","","","","","","",""
"","ITI","","html-keyboard-response","215","223999","0.0-1.0-288.0","0","0","13492","","null","","","null","31","","","","","","","","","","","","","","","NaN",""
"","S1","","html-keyboard-response","216","224252","0.0-1.0-290.0","0","0","13492","","null","","","null","32","","","","","","","","","","","","","","","",""
"","ISI","","html-keyboard-response","217","224403","0.0-1.0-291.0","0","0","13492","","null","","","null","32","NaN","","","","","","","","","","","","","","",""
"","S2","","html-keyboard-response","218","224657","0.0-1.0-292.0","0","0","13492","","null","","","null","32","","NaN","","","","","","","","","","","","","",""
"","response","","html-keyboard-response","219","224775","0.0-1.0-293.0-0.0","0","0","13492","","117","","","68","32","","","1","32","training","adjacent","FE","6","5","O.jpg","L.jpg","1","0","0","",""
"","feedback","","html-keyboard-response","220","225780","0.0-1.0-294.0-0.0","0","0","13492","","null","","","null","32","","","","","","","","","","","","","","","",""
"","time_out","","html-keyboard-response","221","227782","0.0-1.0-296.0-0.0","0","0","13492","","null","","","null","32","","","","","","","","","","","","","","","",""
"","ITI","","html-keyboard-response","222","228785","0.0-1.0-297.0","0","0","13492","","null","","","null","32","","","","","","","","","","","","","","","NaN",""
"","S1","","html-keyboard-response","223","229040","0.0-1.0-299.0","0","0","13492","","null","","","null","33","","","","","","","","","","","","","","","",""
"","ISI","","html-keyboard-response","224","229192","0.0-1.0-300.0","0","0","13492","","null","","","null","33","NaN","","","","","","","","","","","","","","",""
"","S2","","html-keyboard-response","225","229447","0.0-1.0-301.0","0","0","13492","","null","","","null","33","","NaN","","","","","","","","","","","","","",""
"","response","","html-keyboard-response","226","230087","0.0-1.0-302.0-0.0","0","0","13492","","638","","","68","33","","","1","33","training","adjacent","AB","1","2","P.jpg","N.jpg","1","1","1","",""
"","feedback","","html-keyboard-response","227","231089","0.0-1.0-303.0-0.0","0","0","13492","","null","","","null","33","","","","","","","","","","","","","","","",""
"","ITI","","html-keyboard-response","228","232094","0.0-1.0-306.0","0","0","13492","","null","","","null","33","","","","","","","","","","","","","","","NaN",""
"","S1","","html-keyboard-response","229","232347","0.0-1.0-308.0","0","0","13492","","null","","","null","34","","","","","","","","","","","","","","","",""
"","ISI","","html-keyboard-response","230","232499","0.0-1.0-309.0","0","0","13492","","null","","","null","34","NaN","","","","","","","","","","","","","","",""
"","S2","","html-keyboard-response","231","232752","0.0-1.0-310.0","0","0","13492","","null","","","null","34","","NaN","","","","","","","","","","","","","",""
"","response","","html-keyboard-response","232","233655","0.0-1.0-311.0-0.0","0","0","13492","","902","","","68","34","","","1","34","training","adjacent","CD","3","4","M.jpg","Q.jpg","1","1","1","",""
"","feedback","","html-keyboard-response","233","234657","0.0-1.0-312.0-0.0","0","0","13492","","null","","","null","34","","","","","","","","","","","","","","","",""
"","ITI","","html-keyboard-response","234","235659","0.0-1.0-315.0","0","0","13492","","null","","","null","34","","","","","","","","","","","","","","","NaN",""
"","S1","","html-keyboard-response","235","235912","0.0-1.0-317.0","0","0","13492","","null","","","null","35","","","","","","","","","","","","","","","",""
"","ISI","","html-keyboard-response","236","236065","0.0-1.0-318.0","0","0","13492","","null","","","null","35","NaN","","","","","","","","","","","","","","",""
"","S2","","html-keyboard-response","237","236318","0.0-1.0-319.0","0","0","13492","","null","","","null","35","","NaN","","","","","","","","","","","","","",""
"","response","","html-keyboard-response","238","236767","0.0-1.0-320.0-0.0","0","0","13492","","447","","","68","35","","","1","35","training","adjacent","CD","3","4","M.jpg","Q.jpg","1","1","1","",""
"","feedback","","html-keyboard-response","239","237769","0.0-1.0-321.0-0.0","0","0","13492","","null","","","null","35","","","","","","","","","","","","","","","",""
"","ITI","","html-keyboard-response","240","238772","0.0-1.0-324.0","0","0","13492","","null","","","null","35","","","","","","","","","","","","","","","NaN",""
"","S1","","html-keyboard-response","241","239024","0.0-1.0-326.0","0","0","13492","","null","","","null","36","","","","","","","","","","","","","","","",""
"","ISI","","html-keyboard-response","242","239177","0.0-1.0-327.0","0","0","13492","","null","","","null","36","NaN","","","","","","","","","","","","","","",""
"","S2","","html-keyboard-response","243","239430","0.0-1.0-328.0","0","0","13492","","null","","","null","36","","NaN","","","","","","","","","","","","","",""
"","response","","html-keyboard-response","244","239504","0.0-1.0-329.0-0.0","0","0","13492","","71","","","68","36","","","1","36","training","adjacent","BC","2","3","N.jpg","M.jpg","1","1","1","",""
"","feedback","","html-keyboard-response","245","240508","0.0-1.0-330.0-0.0","0","0","13492","","null","","","null","36","","","","","","","","","","","","","","","",""
"","ITI","","html-keyboard-response","246","241511","0.0-1.0-333.0","0","0","13492","","null","","","null","36","","","","","","","","","","","","","","","NaN",""
"","S1","","html-keyboard-response","247","241763","0.0-1.0-335.0","0","0","13492","","null","","","null","37","","","","","","","","","","","","","","","",""
"","ISI","","html-keyboard-response","248","241915","0.0-1.0-336.0","0","0","13492","","null","","","null","37","NaN","","","","","","","","","","","","","","",""
"","S2","","html-keyboard-response","249","242169","0.0-1.0-337.0","0","0","13492","","null","","","null","37","","NaN","","","","","","","","","","","","","",""
"","response","","html-keyboard-response","250","242183","0.0-1.0-338.0-0.0","0","0","13492","","13","","","68","37","","","1","37","training","adjacent","GF","7","6","R.jpg","O.jpg","1","0","0","",""
"","feedback","","html-keyboard-response","251","243186","0.0-1.0-339.0-0.0","0","0","13492","","null","","","null","37","","","","","","","","","","","","","","","",""
"","time_out","","html-keyboard-response","252","245189","0.0-1.0-341.0-0.0","0","0","13492","","null","","","null","37","","","","","","","","","","","","","","","",""
"","ITI","","html-keyboard-response","253","246191","0.0-1.0-342.0","0","0","13492","","null","","","null","37","","","","","","","","","","","","","","","NaN",""
"","S1","","html-keyboard-response","254","246444","0.0-1.0-344.0","0","0","13492","","null","","","null","38","","","","","","","","","","","","","","","",""
"","ISI","","html-keyboard-response","255","246598","0.0-1.0-345.0","0","0","13492","","null","","","null","38","NaN","","","","","","","","","","","","","","",""
"","S2","","html-keyboard-response","256","246850","0.0-1.0-346.0","0","0","13492","","null","","","null","38","","NaN","","","","","","","","","","","","","",""
"","response","","html-keyboard-response","257","246958","0.0-1.0-347.0-0.0","0","0","13492","","106","","","68","38","","","1","38","training","adjacent","CB","3","2","M.jpg","N.jpg","1","0","0","",""
"","feedback","","html-keyboard-response","258","247962","0.0-1.0-348.0-0.0","0","0","13492","","null","","","null","38","","","","","","","","","","","","","","","",""
"","time_out","","html-keyboard-response","259","249964","0.0-1.0-350.0-0.0","0","0","13492","","null","","","null","38","","","","","","","","","","","","","","","",""
"","ITI","","html-keyboard-response","260","250968","0.0-1.0-351.0","0","0","13492","","null","","","null","38","","","","","","","","","","","","","","","NaN",""
"","S1","","html-keyboard-response","261","251220","0.0-1.0-353.0","0","0","13492","","null","","","null","39","","","","","","","","","","","","","","","",""
"","ISI","","html-keyboard-response","262","251379","0.0-1.0-354.0","0","0","13492","","null","","","null","39","NaN","","","","","","","","","","","","","","",""
"","S2","","html-keyboard-response","263","251631","0.0-1.0-355.0","0","0","13492","","null","","","null","39","","NaN","","","","","","","","","","","","","",""
"","response","","html-keyboard-response","264","252641","0.0-1.0-356.0-0.0","0","0","13492","","1007","","","68","39","","","1","39","training","adjacent","DE","4","5","Q.jpg","L.jpg","1","1","1","",""
"","feedback","","html-keyboard-response","265","253647","0.0-1.0-357.0-0.0","0","0","13492","","null","","","null","39","","","","","","","","","","","","","","","",""
"","ITI","","html-keyboard-response","266","254650","0.0-1.0-360.0","0","0","13492","","null","","","null","39","","","","","","","","","","","","","","","NaN",""
"","S1","","html-keyboard-response","267","254913","0.0-1.0-362.0","0","0","13492","","null","","","null","40","","","","","","","","","","","","","","","",""
"","ISI","","html-keyboard-response","268","255071","0.0-1.0-363.0","0","0","13492","","null","","","null","40","NaN","","","","","","","","","","","","","","",""
"","S2","","html-keyboard-response","269","255324","0.0-1.0-364.0","0","0","13492","","null","","","null","40","","NaN","","","","","","","","","","","","","",""
"","response","","html-keyboard-response","270","255782","0.0-1.0-365.0-0.0","0","0","13492","","452","","","68","40","","","1","40","training","adjacent","CB","3","2","M.jpg","N.jpg","1","0","0","",""
"","feedback","","html-keyboard-response","271","256784","0.0-1.0-366.0-0.0","0","0","13492","","null","","","null","40","","","","","","","","","","","","","","","",""
"","time_out","","html-keyboard-response","272","258956","0.0-1.0-368.0-0.0","0","0","13492","","null","","","null","40","","","","","","","","","","","","","","","",""
"","ITI","","html-keyboard-response","273","259960","0.0-1.0-369.0","0","0","13492","","null","","","null","40","","","","","","","","","","","","","","","NaN",""
"","S1","","html-keyboard-response","274","260212","0.0-1.0-371.0","0","0","13492","","null","","","null","41","","","","","","","","","","","","","","","",""
"","ISI","","html-keyboard-response","275","260365","0.0-1.0-372.0","0","0","13492","","null","","","null","41","NaN","","","","","","","","","","","","","","",""
"","S2","","html-keyboard-response","276","260619","0.0-1.0-373.0","0","0","13492","","null","","","null","41","","NaN","","","","","","","","","","","","","",""
"","response","","html-keyboard-response","277","260712","0.0-1.0-374.0-0.0","0","0","13492","","92","","","68","41","","","1","41","training","adjacent","FE","6","5","O.jpg","L.jpg","1","0","0","",""
"","feedback","","html-keyboard-response","278","261714","0.0-1.0-375.0-0.0","0","0","13492","","null","","","null","41","","","","","","","","","","","","","","","",""
"","time_out","","html-keyboard-response","279","263724","0.0-1.0-377.0-0.0","0","0","13492","","null","","","null","41","","","","","","","","","","","","","","","",""
"","ITI","","html-keyboard-response","280","264733","0.0-1.0-378.0","0","0","13492","","null","","","null","41","","","","","","","","","","","","","","","NaN",""
"","S1","","html-keyboard-response","281","264994","0.0-1.0-380.0","0","0","13492","","null","","","null","42","","","","","","","","","","","","","","","",""
"","ISI","","html-keyboard-response","282","265149","0.0-1.0-381.0","0","0","13492","","null","","","null","42","NaN","","","","","","","","","","","","","","",""
"","S2","","html-keyboard-response","283","265409","0.0-1.0-382.0","0","0","13492","","null","","","null","42","","NaN","","","","","","","","","","","","","",""
"","response","","html-keyboard-response","284","267167","0.0-1.0-383.0-0.0","0","0","13492","","null","","","null","42","","","1","42","training","adjacent","CD","3","4","M.jpg","Q.jpg","NaN","1","0","",""
"","too_slow_prompt","","html-keyboard-response","285","268174","0.0-1.0-385.0-0.0","1","0","13492","","null","","","null","","","","","","","","","","","","","","","","",""
"","time_out","","html-keyboard-response","286","270178","0.0-1.0-386.0-0.0","0","0","13492","","null","","","null","42","","","","","","","","","","","","","","","",""
"","ITI","","html-keyboard-response","287","271181","0.0-1.0-387.0","0","0","13492","","null","","","null","42","","","","","","","","","","","","","","","NaN",""
"","S1","","html-keyboard-response","288","271443","0.0-1.0-389.0","0","0","13492","","null","","","null","43","","","","","","","","","","","","","","","",""
"","ISI","","html-keyboard-response","289","271597","0.0-1.0-390.0","0","0","13492","","null","","","null","43","NaN","","","","","","","","","","","","","","",""
"","S2","","html-keyboard-response","290","271850","0.0-1.0-391.0","0","0","13492","","null","","","null","43","","NaN","","","","","","","","","","","","","",""
"","response","","html-keyboard-response","291","273603","0.0-1.0-392.0-0.0","0","0","13492","","null","","","null","43","","","1","43","training","adjacent","BC","2","3","N.jpg","M.jpg","NaN","1","0","",""
"","too_slow_prompt","","html-keyboard-response","292","274606","0.0-1.0-394.0-0.0","1","0","13492","","null","","","null","","","","","","","","","","","","","","","","",""
"","time_out","","html-keyboard-response","293","276608","0.0-1.0-395.0-0.0","0","0","13492","","null","","","null","43","","","","","","","","","","","","","","","",""
"","ITI","","html-keyboard-response","294","277611","0.0-1.0-396.0","0","0","13492","","null","","","null","43","","","","","","","","","","","","","","","NaN",""
"","S1","","html-keyboard-response","295","277864","0.0-1.0-398.0","0","0","13492","","null","","","null","44","","","","","","","","","","","","","","","",""
"","ISI","","html-keyboard-response","296","278016","0.0-1.0-399.0","0","0","13492","","null","","","null","44","NaN","","","","","","","","","","","","","","",""
"","S2","","html-keyboard-response","297","278269","0.0-1.0-400.0","0","0","13492","","null","","","null","44","","NaN","","","","","","","","","","","","","",""
"","response","","html-keyboard-response","298","278439","0.0-1.0-401.0-0.0","0","0","13492","","169","","","68","44","","","1","44","training","adjacent","ED","5","4","L.jpg","Q.jpg","1","0","0","",""
"","feedback","","html-keyboard-response","299","279441","0.0-1.0-402.0-0.0","0","0","13492","","null","","","null","44","","","","","","","","","","","","","","","",""
"","time_out","","html-keyboard-response","300","281446","0.0-1.0-404.0-0.0","0","0","13492","","null","","","null","44","","","","","","","","","","","","","","","",""
"","ITI","","html-keyboard-response","301","282448","0.0-1.0-405.0","0","0","13492","","null","","","null","44","","","","","","","","","","","","","","","NaN",""
"","S1","","html-keyboard-response","302","282703","0.0-1.0-407.0","0","0","13492","","null","","","null","45","","","","","","","","","","","","","","","",""
"","ISI","","html-keyboard-response","303","282865","0.0-1.0-408.0","0","0","13492","","null","","","null","45","NaN","","","","","","","","","","","","","","",""
"","S2","","html-keyboard-response","304","283123","0.0-1.0-409.0","0","0","13492","","null","","","null","45","","NaN","","","","","","","","","","","","","",""
"","response","","html-keyboard-response","305","284096","0.0-1.0-410.0-0.0","0","0","13492","","970","","","68","45","","","1","45","training","adjacent","DE","4","5","Q.jpg","L.jpg","1","1","1","",""
"","feedback","","html-keyboard-response","306","285106","0.0-1.0-411.0-0.0","0","0","13492","","null","","","null","45","","","","","","","","","","","","","","","",""
"","ITI","","html-keyboard-response","307","286108","0.0-1.0-414.0","0","0","13492","","null","","","null","45","","","","","","","","","","","","","","","NaN",""
"","S1","","html-keyboard-response","308","286361","0.0-1.0-416.0","0","0","13492","","null","","","null","46","","","","","","","","","","","","","","","",""
"","ISI","","html-keyboard-response","309","286513","0.0-1.0-417.0","0","0","13492","","null","","","null","46","NaN","","","","","","","","","","","","","","",""
"","S2","","html-keyboard-response","310","286765","0.0-1.0-418.0","0","0","13492","","null","","","null","46","","NaN","","","","","","","","","","","","","",""
"","response","","html-keyboard-response","311","287439","0.0-1.0-419.0-0.0","0","0","13492","","673","","","75","46","","","1","46","training","adjacent","DC","4","3","Q.jpg","M.jpg","0","0","1","",""
"","feedback","","html-keyboard-response","312","288441","0.0-1.0-420.0-0.0","0","0","13492","","null","","","null","46","","","","","","","","","","","","","","","",""
"","ITI","","html-keyboard-response","313","289446","0.0-1.0-423.0","0","0","13492","","null","","","null","46","","","","","","","","","","","","","","","NaN",""
"","S1","","html-keyboard-response","314","289698","0.0-1.0-425.0","0","0","13492","","null","","","null","47","","","","","","","","","","","","","","","",""
"","ISI","","html-keyboard-response","315","289852","0.0-1.0-426.0","0","0","13492","","null","","","null","47","NaN","","","","","","","","","","","","","","",""
"","S2","","html-keyboard-response","316","290105","0.0-1.0-427.0","0","0","13492","","null","","","null","47","","NaN","","","","","","","","","","","","","",""
"","response","","html-keyboard-response","317","291239","0.0-1.0-428.0-0.0","0","0","13492","","1132","","","68","47","","","1","47","training","adjacent","EF","5","6","L.jpg","O.jpg","1","1","1","",""
"","feedback","","html-keyboard-response","318","292241","0.0-1.0-429.0-0.0","0","0","13492","","null","","","null","47","","","","","","","","","","","","","","","",""
"","ITI","","html-keyboard-response","319","293243","0.0-1.0-432.0","0","0","13492","","null","","","null","47","","","","","","","","","","","","","","","NaN",""
"","block_over","","html-keyboard-response","320","319432","0.0-1.0-433.0-0.0","0","0","13492","","26187","","","32","47","","","","","","","","","","","","","","","",""
"","S1","","html-keyboard-response","321","319689","0.0-1.0-434.0","0","0","13492","","null","","","null","48","","","","","","","","","","","","","","","",""
"","ISI","","html-keyboard-response","322","319847","0.0-1.0-435.0","0","0","13492","","null","","","null","48","NaN","","","","","","","","","","","","","","",""
"","S2","","html-keyboard-response","323","320101","0.0-1.0-436.0","0","0","13492","","null","","","null","48","","NaN","","","","","","","","","","","","","",""
"","response","","html-keyboard-response","324","320897","0.0-1.0-437.0-0.0","0","0","13492","","793","","","68","48","","","2","48","training","adjacent","CD","3","4","M.jpg","Q.jpg","1","1","1","",""
"","feedback","","html-keyboard-response","325","321913","0.0-1.0-438.0-0.0","0","0","13492","","null","","","null","48","","","","","","","","","","","","","","","",""
"","ITI","","html-keyboard-response","326","322917","0.0-1.0-441.0","0","0","13492","","null","","","null","48","","","","","","","","","","","","","","","NaN",""
"","S1","","html-keyboard-response","327","323170","0.0-1.0-443.0","0","0","13492","","null","","","null","49","","","","","","","","","","","","","","","",""
"","ISI","","html-keyboard-response","328","323322","0.0-1.0-444.0","0","0","13492","","null","","","null","49","NaN","","","","","","","","","","","","","","",""
"","S2","","html-keyboard-response","329","323575","0.0-1.0-445.0","0","0","13492","","null","","","null","49","","NaN","","","","","","","","","","","","","",""
"","response","","html-keyboard-response","330","323647","0.0-1.0-446.0-0.0","0","0","13492","","71","","","68","49","","","2","49","training","adjacent","EF","5","6","L.jpg","O.jpg","1","1","1","",""
"","feedback","","html-keyboard-response","331","324651","0.0-1.0-447.0-0.0","0","0","13492","","null","","","null","49","","","","","","","","","","","","","","","",""
"","ITI","","html-keyboard-response","332","325655","0.0-1.0-450.0","0","0","13492","","null","","","null","49","","","","","","","","","","","","","","","NaN",""
"","S1","","html-keyboard-response","333","325908","0.0-1.0-452.0","0","0","13492","","null","","","null","50","","","","","","","","","","","","","","","",""
"","ISI","","html-keyboard-response","334","326061","0.0-1.0-453.0","0","0","13492","","null","","","null","50","NaN","","","","","","","","","","","","","","",""
"","S2","","html-keyboard-response","335","326314","0.0-1.0-454.0","0","0","13492","","null","","","null","50","","NaN","","","","","","","","","","","","","",""
"","response","","html-keyboard-response","336","326326","0.0-1.0-455.0-0.0","0","0","13492","","12","","","68","50","","","2","50","training","adjacent","GF","7","6","R.jpg","O.jpg","1","0","0","",""
"","feedback","","html-keyboard-response","337","327329","0.0-1.0-456.0-0.0","0","0","13492","","null","","","null","50","","","","","","","","","","","","","","","",""
"","time_out","","html-keyboard-response","338","329330","0.0-1.0-458.0-0.0","0","0","13492","","null","","","null","50","","","","","","","","","","","","","","","",""
"","ITI","","html-keyboard-response","339","330333","0.0-1.0-459.0","0","0","13492","","347","","","68","50","","","","","","","","","","","","","","","d",""
"","S1","","html-keyboard-response","340","330586","0.0-1.0-461.0","0","0","13492","","null","","","null","51","","","","","","","","","","","","","","","",""
"","ISI","","html-keyboard-response","341","330738","0.0-1.0-462.0","0","0","13492","","null","","","null","51","NaN","","","","","","","","","","","","","","",""
"","S2","","html-keyboard-response","342","330887","0.0-1.0-463.0","0","0","13492","","147","","","68","51","","d","2","51","training","adjacent","CD","3","4","M.jpg","Q.jpg","1","1","1","",""
"","feedback","","html-keyboard-response","343","331890","0.0-1.0-465.0-0.0","0","0","13492","","null","","","null","51","","","","","","","","","","","","","","","",""
"","ITI","","html-keyboard-response","344","332893","0.0-1.0-468.0","0","0","13492","","null","","","null","51","","","","","","","","","","","","","","","NaN",""
"","S1","","html-keyboard-response","345","333147","0.0-1.0-470.0","0","0","13492","","null","","","null","52","","","","","","","","","","","","","","","",""
"","ISI","","html-keyboard-response","346","333299","0.0-1.0-471.0","0","0","13492","","null","","","null","52","NaN","","","","","","","","","","","","","","",""
"","S2","","html-keyboard-response","347","333551","0.0-1.0-472.0","0","0","13492","","null","","","null","52","","NaN","","","","","","","","","","","","","",""
"","response","","html-keyboard-response","348","333824","0.0-1.0-473.0-0.0","0","0","13492","","270","","","68","52","","","2","52","training","adjacent","FE","6","5","O.jpg","L.jpg","1","0","0","",""
"","feedback","","html-keyboard-response","349","334827","0.0-1.0-474.0-0.0","0","0","13492","","null","","","null","52","","","","","","","","","","","","","","","",""
"","time_out","","html-keyboard-response","350","336829","0.0-1.0-476.0-0.0","0","0","13492","","null","","","null","52","","","","","","","","","","","","","","","",""
"","ITI","","html-keyboard-response","351","337831","0.0-1.0-477.0","0","0","13492","","753","","","75","52","","","","","","","","","","","","","","","k",""
"","S1","","html-keyboard-response","352","338084","0.0-1.0-479.0","0","0","13492","","null","","","null","53","","","","","","","","","","","","","","","",""
"","ISI","","html-keyboard-response","353","338236","0.0-1.0-480.0","0","0","13492","","null","","","null","53","NaN","","","","","","","","","","","","","","",""
"","S2","","html-keyboard-response","354","338465","0.0-1.0-481.0","0","0","13492","","225","","","68","53","","d","2","53","training","adjacent","DE","4","5","Q.jpg","L.jpg","1","1","1","",""
"","feedback","","html-keyboard-response","355","339469","0.0-1.0-483.0-0.0","0","0","13492","","null","","","null","53","","","","","","","","","","","","","","","",""
"","ITI","","html-keyboard-response","356","340472","0.0-1.0-486.0","0","0","13492","","null","","","null","53","","","","","","","","","","","","","","","NaN",""
"","S1","","html-keyboard-response","357","340728","0.0-1.0-488.0","0","0","13492","","null","","","null","54","","","","","","","","","","","","","","","",""
"","ISI","","html-keyboard-response","358","340882","0.0-1.0-489.0","0","0","13492","","null","","","null","54","NaN","","","","","","","","","","","","","","",""
"","S2","","html-keyboard-response","359","341109","0.0-1.0-490.0","0","0","13492","","220","","","68","54","","d","2","54","training","adjacent","EF","5","6","L.jpg","O.jpg","1","1","1","",""
"","feedback","","html-keyboard-response","360","342113","0.0-1.0-492.0-0.0","0","0","13492","","null","","","null","54","","","","","","","","","","","","","","","",""
"","ITI","","html-keyboard-response","361","343116","0.0-1.0-495.0","0","0","13492","","null","","","null","54","","","","","","","","","","","","","","","NaN",""
"","S1","","html-keyboard-response","362","343369","0.0-1.0-497.0","0","0","13492","","null","","","null","55","","","","","","","","","","","","","","","",""
"","ISI","","html-keyboard-response","363","343521","0.0-1.0-498.0","0","0","13492","","null","","","null","55","NaN","","","","","","","","","","","","","","",""
"","S2","","html-keyboard-response","364","343774","0.0-1.0-499.0","0","0","13492","","null","","","null","55","","NaN","","","","","","","","","","","","","",""
"","response","","html-keyboard-response","365","344848","0.0-1.0-500.0-0.0","0","0","13492","","1072","","","68","55","","","2","55","training","adjacent","CB","3","2","M.jpg","N.jpg","1","0","0","",""
"","feedback","","html-keyboard-response","366","345852","0.0-1.0-501.0-0.0","0","0","13492","","null","","","null","55","","","","","","","","","","","","","","","",""
"","time_out","","html-keyboard-response","367","347855","0.0-1.0-503.0-0.0","0","0","13492","","null","","","null","55","","","","","","","","","","","","","","","",""
"","ITI","","html-keyboard-response","368","348859","0.0-1.0-504.0","0","0","13492","","null","","","null","55","","","","","","","","","","","","","","","NaN",""
"","S1","","html-keyboard-response","369","349111","0.0-1.0-506.0","0","0","13492","","null","","","null","56","","","","","","","","","","","","","","","",""
"","ISI","","html-keyboard-response","370","349264","0.0-1.0-507.0","0","0","13492","","70","","","75","56","k","","","","","","","","","","","","","","",""
"","S2","","html-keyboard-response","371","349518","0.0-1.0-508.0","0","0","13492","","null","","","null","56","","NaN","","","","","","","","","","","","","",""
"","response","","html-keyboard-response","372","349784","0.0-1.0-509.0-0.0","0","0","13492","","263","","","75","56","","","2","56","training","adjacent","GF","7","6","R.jpg","O.jpg","0","0","1","",""
"","feedback","","html-keyboard-response","373","350787","0.0-1.0-510.0-0.0","0","0","13492","","null","","","null","56","","","","","","","","","","","","","","","",""
"","ITI","","html-keyboard-response","374","351791","0.0-1.0-513.0","0","0","13492","","null","","","null","56","","","","","","","","","","","","","","","NaN",""
"","S1","","html-keyboard-response","375","352043","0.0-1.0-515.0","0","0","13492","","null","","","null","57","","","","","","","","","","","","","","","",""
"","ISI","","html-keyboard-response","376","352195","0.0-1.0-516.0","0","0","13492","","null","","","null","57","NaN","","","","","","","","","","","","","","",""
"","S2","","html-keyboard-response","377","352448","0.0-1.0-517.0","0","0","13492","","null","","","null","57","","NaN","","","","","","","","","","","","","",""
"","response","","html-keyboard-response","378","352576","0.0-1.0-518.0-0.0","0","0","13492","","125","","","75","57","","","2","57","training","adjacent","BC","2","3","N.jpg","M.jpg","0","1","0","",""
"","feedback","","html-keyboard-response","379","353580","0.0-1.0-519.0-0.0","0","0","13492","","null","","","null","57","","","","","","","","","","","","","","","",""
"","time_out","","html-keyboard-response","380","355583","0.0-1.0-521.0-0.0","0","0","13492","","null","","","null","57","","","","","","","","","","","","","","","",""
"","ITI","","html-keyboard-response","381","356586","0.0-1.0-522.0","0","0","13492","","null","","","null","57","","","","","","","","","","","","","","","NaN",""
"","S1","","html-keyboard-response","382","356839","0.0-1.0-524.0","0","0","13492","","null","","","null","58","","","","","","","","","","","","","","","",""
"","ISI","","html-keyboard-response","383","356992","0.0-1.0-525.0","0","0","13492","","null","","","null","58","NaN","","","","","","","","","","","","","","",""
"","S2","","html-keyboard-response","384","357080","0.0-1.0-526.0","0","0","13492","","85","","","68","58","","d","2","58","training","adjacent","FG","6","7","O.jpg","R.jpg","1","1","1","",""
"","feedback","","html-keyboard-response","385","358083","0.0-1.0-528.0-0.0","0","0","13492","","null","","","null","58","","","","","","","","","","","","","","","",""
"","ITI","","html-keyboard-response","386","359087","0.0-1.0-531.0","0","0","13492","","null","","","null","58","","","","","","","","","","","","","","","NaN",""
"","S1","","html-keyboard-response","387","359340","0.0-1.0-533.0","0","0","13492","","null","","","null","59","","","","","","","","","","","","","","","",""
"","ISI","","html-keyboard-response","388","359494","0.0-1.0-534.0","0","0","13492","","null","","","null","59","NaN","","","","","","","","","","","","","","",""
"","S2","","html-keyboard-response","389","359672","0.0-1.0-535.0","0","0","13492","","175","","","75","59","","k","2","59","training","adjacent","DE","4","5","Q.jpg","L.jpg","0","1","0","",""
"","feedback","","html-keyboard-response","390","360676","0.0-1.0-537.0-0.0","0","0","13492","","null","","","null","59","","","","","","","","","","","","","","","",""
"","time_out","","html-keyboard-response","391","362679","0.0-1.0-539.0-0.0","0","0","13492","","null","","","null","59","","","","","","","","","","","","","","","",""
"","ITI","","html-keyboard-response","392","363681","0.0-1.0-540.0","0","0","13492","","null","","","null","59","","","","","","","","","","","","","","","NaN",""
"","S1","","html-keyboard-response","393","363933","0.0-1.0-542.0","0","0","13492","","null","","","null","60","","","","","","","","","","","","","","","",""
"","ISI","","html-keyboard-response","394","364087","0.0-1.0-543.0","0","0","13492","","null","","","null","60","NaN","","","","","","","","","","","","","","",""
"","S2","","html-keyboard-response","395","364145","0.0-1.0-544.0","0","0","13492","","56","","","75","60","","k","2","60","training","adjacent","ED","5","4","L.jpg","Q.jpg","0","0","1","",""
"","feedback","","html-keyboard-response","396","365148","0.0-1.0-546.0-0.0","0","0","13492","","null","","","null","60","","","","","","","","","","","","","","","",""
"","ITI","","html-keyboard-response","397","366151","0.0-1.0-549.0","0","0","13492","","null","","","null","60","","","","","","","","","","","","","","","NaN",""
"","S1","","html-keyboard-response","398","366405","0.0-1.0-551.0","0","0","13492","","null","","","null","61","","","","","","","","","","","","","","","",""
"","ISI","","html-keyboard-response","399","366558","0.0-1.0-552.0","0","0","13492","","null","","","null","61","NaN","","","","","","","","","","","","","","",""
"","S2","","html-keyboard-response","400","366812","0.0-1.0-553.0","0","0","13492","","null","","","null","61","","NaN","","","","","","","","","","","","","",""
"","response","","html-keyboard-response","401","367047","0.0-1.0-554.0-0.0","0","0","13492","","234","","","75","61","","","2","61","training","adjacent","DC","4","3","Q.jpg","M.jpg","0","0","1","",""
"","feedback","","html-keyboard-response","402","368051","0.0-1.0-555.0-0.0","0","0","13492","","null","","","null","61","","","","","","","","","","","","","","","",""
"","ITI","","html-keyboard-response","403","369059","0.0-1.0-558.0","0","0","13492","","null","","","null","61","","","","","","","","","","","","","","","NaN",""
"","S1","","html-keyboard-response","404","369312","0.0-1.0-560.0","0","0","13492","","null","","","null","62","","","","","","","","","","","","","","","",""
"","ISI","","html-keyboard-response","405","369464","0.0-1.0-561.0","0","0","13492","","null","","","null","62","NaN","","","","","","","","","","","","","","",""
"","S2","","html-keyboard-response","406","369642","0.0-1.0-562.0","0","0","13492","","175","","","75","62","","k","2","62","training","adjacent","EF","5","6","L.jpg","O.jpg","0","1","0","",""
"","feedback","","html-keyboard-response","407","370645","0.0-1.0-564.0-0.0","0","0","13492","","null","","","null","62","","","","","","","","","","","","","","","",""
"","time_out","","html-keyboard-response","408","372648","0.0-1.0-566.0-0.0","0","0","13492","","null","","","null","62","","","","","","","","","","","","","","","",""
"","ITI","","html-keyboard-response","409","373650","0.0-1.0-567.0","0","0","13492","","375","","","75","62","","","","","","","","","","","","","","","k",""
"","S1","","html-keyboard-response","410","373904","0.0-1.0-569.0","0","0","13492","","null","","","null","63","","","","","","","","","","","","","","","",""
"","ISI","","html-keyboard-response","411","374056","0.0-1.0-570.0","0","0","13492","","null","","","null","63","NaN","","","","","","","","","","","","","","",""
"","S2","","html-keyboard-response","412","374309","0.0-1.0-571.0","0","0","13492","","null","","","null","63","","NaN","","","","","","","","","","","","","",""
"","response","","html-keyboard-response","413","376061","0.0-1.0-572.0-0.0","0","0","13492","","null","","","null","63","","","2","63","training","adjacent","AB","1","2","P.jpg","N.jpg","NaN","1","0","",""
"","too_slow_prompt","","html-keyboard-response","414","377063","0.0-1.0-574.0-0.0","1","0","13492","","null","","","null","","","","","","","","","","","","","","","","",""
"","time_out","","html-keyboard-response","415","379066","0.0-1.0-575.0-0.0","0","0","13492","","null","","","null","63","","","","","","","","","","","","","","","",""
"","ITI","","html-keyboard-response","416","380071","0.0-1.0-576.0","0","0","13492","","null","","","null","63","","","","","","","","","","","","","","","NaN",""
"","S1","","html-keyboard-response","417","380324","0.0-1.0-578.0","0","0","13492","","null","","","null","64","","","","","","","","","","","","","","","",""
"","ISI","","html-keyboard-response","418","380477","0.0-1.0-579.0","0","0","13492","","null","","","null","64","NaN","","","","","","","","","","","","","","",""
"","S2","","html-keyboard-response","419","380543","0.0-1.0-580.0","0","0","13492","","64","","","68","64","","d","2","64","training","adjacent","FE","6","5","O.jpg","L.jpg","1","0","0","",""
"","feedback","","html-keyboard-response","420","381545","0.0-1.0-582.0-0.0","0","0","13492","","null","","","null","64","","","","","","","","","","","","","","","",""
"","time_out","","html-keyboard-response","421","383549","0.0-1.0-584.0-0.0","0","0","13492","","null","","","null","64","","","","","","","","","","","","","","","",""
"","ITI","","html-keyboard-response","422","384552","0.0-1.0-585.0","0","0","13492","","null","","","null","64","","","","","","","","","","","","","","","NaN",""
"","S1","","html-keyboard-response","423","384805","0.0-1.0-587.0","0","0","13492","","null","","","null","65","","","","","","","","","","","","","","","",""
"","ISI","","html-keyboard-response","424","384958","0.0-1.0-588.0","0","0","13492","","null","","","null","65","NaN","","","","","","","","","","","","","","",""
"","S2","","html-keyboard-response","425","385211","0.0-1.0-589.0","0","0","13492","","null","","","null","65","","NaN","","","","","","","","","","","","","",""
"","response","","html-keyboard-response","426","385231","0.0-1.0-590.0-0.0","0","0","13492","","19","","","68","65","","","2","65","training","adjacent","ED","5","4","L.jpg","Q.jpg","1","0","0","",""
"","feedback","","html-keyboard-response","427","386233","0.0-1.0-591.0-0.0","0","0","13492","","null","","","null","65","","","","","","","","","","","","","","","",""
"","time_out","","html-keyboard-response","428","388239","0.0-1.0-593.0-0.0","0","0","13492","","null","","","null","65","","","","","","","","","","","","","","","",""
"","ITI","","html-keyboard-response","429","389242","0.0-1.0-594.0","0","0","13492","","null","","","null","65","","","","","","","","","","","","","","","NaN",""
"","S1","","html-keyboard-response","430","389494","0.0-1.0-596.0","0","0","13492","","null","","","null","66","","","","","","","","","","","","","","","",""
"","ISI","","html-keyboard-response","431","389647","0.0-1.0-597.0","0","0","13492","","null","","","null","66","NaN","","","","","","","","","","","","","","",""
"","S2","","html-keyboard-response","432","389728","0.0-1.0-598.0","0","0","13492","","78","","","68","66","","d","2","66","training","adjacent","EF","5","6","L.jpg","O.jpg","1","1","1","",""
"","feedback","","html-keyboard-response","433","390730","0.0-1.0-600.0-0.0","0","0","13492","","null","","","null","66","","","","","","","","","","","","","","","",""
"","ITI","","html-keyboard-response","434","391733","0.0-1.0-603.0","0","0","13492","","null","","","null","66","","","","","","","","","","","","","","","NaN",""
"","S1","","html-keyboard-response","435","391986","0.0-1.0-605.0","0","0","13492","","null","","","null","67","","","","","","","","","","","","","","","",""
"","ISI","","html-keyboard-response","436","392140","0.0-1.0-606.0","0","0","13492","","null","","","null","67","NaN","","","","","","","","","","","","","","",""
"","S2","","html-keyboard-response","437","392393","0.0-1.0-607.0","0","0","13492","","null","","","null","67","","NaN","","","","","","","","","","","","","",""
"","response","","html-keyboard-response","438","392422","0.0-1.0-608.0-0.0","0","0","13492","","27","","","68","67","","","2","67","training","adjacent","GF","7","6","R.jpg","O.jpg","1","0","0","",""
"","feedback","","html-keyboard-response","439","393425","0.0-1.0-609.0-0.0","0","0","13492","","null","","","null","67","","","","","","","","","","","","","","","",""
"","time_out","","html-keyboard-response","440","395428","0.0-1.0-611.0-0.0","0","0","13492","","null","","","null","67","","","","","","","","","","","","","","","",""
"","ITI","","html-keyboard-response","441","396431","0.0-1.0-612.0","0","0","13492","","null","","","null","67","","","","","","","","","","","","","","","NaN",""
"","S1","","html-keyboard-response","442","396684","0.0-1.0-614.0","0","0","13492","","null","","","null","68","","","","","","","","","","","","","","","",""
"","ISI","","html-keyboard-response","443","396837","0.0-1.0-615.0","0","0","13492","","145","","","68","68","d","","","","","","","","","","","","","","",""
"","S2","","html-keyboard-response","444","397090","0.0-1.0-616.0","0","0","13492","","null","","","null","68","","NaN","","","","","","","","","","","","","",""
"","response","","html-keyboard-response","445","398336","0.0-1.0-617.0-0.0","0","0","13492","","1243","","","68","68","","","2","68","training","adjacent","FG","6","7","O.jpg","R.jpg","1","1","1","",""
"","feedback","","html-keyboard-response","446","399339","0.0-1.0-618.0-0.0","0","0","13492","","null","","","null","68","","","","","","","","","","","","","","","",""
"","ITI","","html-keyboard-response","447","400342","0.0-1.0-621.0","0","0","13492","","null","","","null","68","","","","","","","","","","","","","","","NaN",""
"","S1","","html-keyboard-response","448","400597","0.0-1.0-623.0","0","0","13492","","null","","","null","69","","","","","","","","","","","","","","","",""
"","ISI","","html-keyboard-response","449","400749","0.0-1.0-624.0","0","0","13492","","null","","","null","69","NaN","","","","","","","","","","","","","","",""
"","S2","","html-keyboard-response","450","401001","0.0-1.0-625.0","0","0","13492","","null","","","null","69","","NaN","","","","","","","","","","","","","",""
"","response","","html-keyboard-response","451","402025","0.0-1.0-626.0-0.0","0","0","13492","","1017","","","68","69","","","2","69","training","adjacent","DC","4","3","Q.jpg","M.jpg","1","0","0","",""
"","feedback","","html-keyboard-response","452","403030","0.0-1.0-627.0-0.0","0","0","13492","","null","","","null","69","","","","","","","","","","","","","","","",""
"","time_out","","html-keyboard-response","453","405033","0.0-1.0-629.0-0.0","0","0","13492","","null","","","null","69","","","","","","","","","","","","","","","",""
"","ITI","","html-keyboard-response","454","406038","0.0-1.0-630.0","0","0","13492","","null","","","null","69","","","","","","","","","","","","","","","NaN",""
"","S1","","html-keyboard-response","455","406290","0.0-1.0-632.0","0","0","13492","","null","","","null","70","","","","","","","","","","","","","","","",""
"","ISI","","html-keyboard-response","456","406443","0.0-1.0-633.0","0","0","13492","","null","","","null","70","NaN","","","","","","","","","","","","","","",""
"","S2","","html-keyboard-response","457","406648","0.0-1.0-634.0","0","0","13492","","202","","","75","70","","k","2","70","training","adjacent","FG","6","7","O.jpg","R.jpg","0","1","0","",""
"","feedback","","html-keyboard-response","458","407652","0.0-1.0-636.0-0.0","0","0","13492","","null","","","null","70","","","","","","","","","","","","","","","",""
"","time_out","","html-keyboard-response","459","409655","0.0-1.0-638.0-0.0","0","0","13492","","null","","","null","70","","","","","","","","","","","","","","","",""
"","ITI","","html-keyboard-response","460","410657","0.0-1.0-639.0","0","0","13492","","664","","","68","70","","","","","","","","","","","","","","","d",""
"","S1","","html-keyboard-response","461","410910","0.0-1.0-641.0","0","0","13492","","null","","","null","71","","","","","","","","","","","","","","","",""
"","ISI","","html-keyboard-response","462","411062","0.0-1.0-642.0","0","0","13492","","null","","","null","71","NaN","","","","","","","","","","","","","","",""
"","S2","","html-keyboard-response","463","411152","0.0-1.0-643.0","0","0","13492","","88","","","68","71","","d","2","71","training","adjacent","FE","6","5","O.jpg","L.jpg","1","0","0","",""
"","feedback","","html-keyboard-response","464","412155","0.0-1.0-645.0-0.0","0","0","13492","","null","","","null","71","","","","","","","","","","","","","","","",""
"","time_out","","html-keyboard-response","465","414158","0.0-1.0-647.0-0.0","0","0","13492","","null","","","null","71","","","","","","","","","","","","","","","",""
"","ITI","","html-keyboard-response","466","415161","0.0-1.0-648.0","0","0","13492","","688","","","68","71","","","","","","","","","","","","","","","d",""
"","S1","","html-keyboard-response","467","415413","0.0-1.0-650.0","0","0","13492","","null","","","null","72","","","","","","","","","","","","","","","",""
"","ISI","","html-keyboard-response","468","415566","0.0-1.0-651.0","0","0","13492","","null","","","null","72","NaN","","","","","","","","","","","","","","",""
"","S2","","html-keyboard-response","469","415820","0.0-1.0-652.0","0","0","13492","","null","","","null","72","","NaN","","","","","","","","","","","","","",""
"","response","","html-keyboard-response","470","415880","0.0-1.0-653.0-0.0","0","0","13492","","58","","","75","72","","","2","72","training","adjacent","AB","1","2","P.jpg","N.jpg","0","1","0","",""
"","feedback","","html-keyboard-response","471","416883","0.0-1.0-654.0-0.0","0","0","13492","","null","","","null","72","","","","","","","","","","","","","","","",""
"","time_out","","html-keyboard-response","472","418888","0.0-1.0-656.0-0.0","0","0","13492","","null","","","null","72","","","","","","","","","","","","","","","",""
"","ITI","","html-keyboard-response","473","419890","0.0-1.0-657.0","0","0","13492","","null","","","null","72","","","","","","","","","","","","","","","NaN",""
"","S1","","html-keyboard-response","474","420143","0.0-1.0-659.0","0","0","13492","","null","","","null","73","","","","","","","","","","","","","","","",""
"","ISI","","html-keyboard-response","475","420295","0.0-1.0-660.0","0","0","13492","","150","","","75","73","k","","","","","","","","","","","","","","",""
"","S2","","html-keyboard-response","476","420319","0.0-1.0-661.0","0","0","13492","","22","","","68","73","","d","2","73","training","adjacent","FE","6","5","O.jpg","L.jpg","1","0","0","",""
"","feedback","","html-keyboard-response","477","421322","0.0-1.0-663.0-0.0","0","0","13492","","null","","","null","73","","","","","","","","","","","","","","","",""
"","time_out","","html-keyboard-response","478","423325","0.0-1.0-665.0-0.0","0","0","13492","","null","","","null","73","","","","","","","","","","","","","","","",""
"","ITI","","html-keyboard-response","479","424328","0.0-1.0-666.0","0","0","13492","","305","","","68","73","","","","","","","","","","","","","","","d",""
"","S1","","html-keyboard-response","480","424581","0.0-1.0-668.0","0","0","13492","","null","","","null","74","","","","","","","","","","","","","","","",""
"","ISI","","html-keyboard-response","481","424733","0.0-1.0-669.0","0","0","13492","","40","","","75","74","k","","","","","","","","","","","","","","",""
"","S2","","html-keyboard-response","482","424987","0.0-1.0-670.0","0","0","13492","","null","","","null","74","","NaN","","","","","","","","","","","","","",""
"","response","","html-keyboard-response","483","426740","0.0-1.0-671.0-0.0","0","0","13492","","null","","","null","74","","","2","74","training","adjacent","BA","2","1","N.jpg","P.jpg","NaN","0","0","",""
"","too_slow_prompt","","html-keyboard-response","484","427742","0.0-1.0-673.0-0.0","1","0","13492","","null","","","null","","","","","","","","","","","","","","","","",""
"","time_out","","html-keyboard-response","485","429745","0.0-1.0-674.0-0.0","0","0","13492","","null","","","null","74","","","","","","","","","","","","","","","",""
"","ITI","","html-keyboard-response","486","430747","0.0-1.0-675.0","0","0","13492","","478","","","32","74","","","","","","","","","","","","","","","space",""
"","S1","","html-keyboard-response","487","431001","0.0-1.0-677.0","0","0","13492","","null","","","null","75","","","","","","","","","","","","","","","",""
"","ISI","","html-keyboard-response","488","431155","0.0-1.0-678.0","0","0","13492","","null","","","null","75","NaN","","","","","","","","","","","","","","",""
"","S2","","html-keyboard-response","489","431408","0.0-1.0-679.0","0","0","13492","","null","","","null","75","","NaN","","","","","","","","","","","","","",""
"","response","","html-keyboard-response","490","432056","0.0-1.0-680.0-0.0","0","0","13492","","645","","","68","75","","","2","75","training","adjacent","BC","2","3","N.jpg","M.jpg","1","1","1","",""
"","feedback","","html-keyboard-response","491","433060","0.0-1.0-681.0-0.0","0","0","13492","","null","","","null","75","","","","","","","","","","","","","","","",""
"","ITI","","html-keyboard-response","492","434063","0.0-1.0-684.0","0","0","13492","","null","","","null","75","","","","","","","","","","","","","","","NaN",""
"","S1","","html-keyboard-response","493","434316","0.0-1.0-686.0","0","0","13492","","null","","","null","76","","","","","","","","","","","","","","","",""
"","ISI","","html-keyboard-response","494","434469","0.0-1.0-687.0","0","0","13492","","null","","","null","76","NaN","","","","","","","","","","","","","","",""
"","S2","","html-keyboard-response","495","434722","0.0-1.0-688.0","0","0","13492","","null","","","null","76","","NaN","","","","","","","","","","","","","",""
"","response","","html-keyboard-response","496","435040","0.0-1.0-689.0-0.0","0","0","13492","","317","","","68","76","","","2","76","training","adjacent","ED","5","4","L.jpg","Q.jpg","1","0","0","",""
"","feedback","","html-keyboard-response","497","436044","0.0-1.0-690.0-0.0","0","0","13492","","null","","","null","76","","","","","","","","","","","","","","","",""
"","time_out","","html-keyboard-response","498","438046","0.0-1.0-692.0-0.0","0","0","13492","","null","","","null","76","","","","","","","","","","","","","","","",""
"","ITI","","html-keyboard-response","499","439049","0.0-1.0-693.0","0","0","13492","","null","","","null","76","","","","","","","","","","","","","","","NaN",""
"","S1","","html-keyboard-response","500","439302","0.0-1.0-695.0","0","0","13492","","null","","","null","77","","","","","","","","","","","","","","","",""
"","ISI","","html-keyboard-response","501","439455","0.0-1.0-696.0","0","0","13492","","null","","","null","77","NaN","","","","","","","","","","","","","","",""
"","S2","","html-keyboard-response","502","439708","0.0-1.0-697.0","0","0","13492","","null","","","null","77","","NaN","","","","","","","","","","","","","",""
"","response","","html-keyboard-response","503","439993","0.0-1.0-698.0-0.0","0","0","13492","","282","","","68","77","","","2","77","training","adjacent","DE","4","5","Q.jpg","L.jpg","1","1","1","",""
"","feedback","","html-keyboard-response","504","440998","0.0-1.0-699.0-0.0","0","0","13492","","null","","","null","77","","","","","","","","","","","","","","","",""
"","ITI","","html-keyboard-response","505","442002","0.0-1.0-702.0","0","0","13492","","null","","","null","77","","","","","","","","","","","","","","","NaN",""
"","S1","","html-keyboard-response","506","442261","0.0-1.0-704.0","0","0","13492","","null","","","null","78","","","","","","","","","","","","","","","",""
"","ISI","","html-keyboard-response","507","442414","0.0-1.0-705.0","0","0","13492","","null","","","null","78","NaN","","","","","","","","","","","","","","",""
"","S2","","html-keyboard-response","508","442668","0.0-1.0-706.0","0","0","13492","","null","","","null","78","","NaN","","","","","","","","","","","","","",""
"","response","","html-keyboard-response","509","443040","0.0-1.0-707.0-0.0","0","0","13492","","371","","","68","78","","","2","78","training","adjacent","DC","4","3","Q.jpg","M.jpg","1","0","0","",""
"","feedback","","html-keyboard-response","510","444043","0.0-1.0-708.0-0.0","0","0","13492","","null","","","null","78","","","","","","","","","","","","","","","",""
"","time_out","","html-keyboard-response","511","446047","0.0-1.0-710.0-0.0","0","0","13492","","null","","","null","78","","","","","","","","","","","","","","","",""
"","ITI","","html-keyboard-response","512","447050","0.0-1.0-711.0","0","0","13492","","null","","","null","78","","","","","","","","","","","","","","","NaN",""
"","S1","","html-keyboard-response","513","447303","0.0-1.0-713.0","0","0","13492","","null","","","null","79","","","","","","","","","","","","","","","",""
"","ISI","","html-keyboard-response","514","447454","0.0-1.0-714.0","0","0","13492","","null","","","null","79","NaN","","","","","","","","","","","","","","",""
"","S2","","html-keyboard-response","515","447708","0.0-1.0-715.0","0","0","13492","","null","","","null","79","","NaN","","","","","","","","","","","","","",""
"","response","","html-keyboard-response","516","448073","0.0-1.0-716.0-0.0","0","0","13492","","363","","","68","79","","","2","79","training","adjacent","BA","2","1","N.jpg","P.jpg","1","0","0","",""
"","feedback","","html-keyboard-response","517","449076","0.0-1.0-717.0-0.0","0","0","13492","","null","","","null","79","","","","","","","","","","","","","","","",""
"","time_out","","html-keyboard-response","518","451079","0.0-1.0-719.0-0.0","0","0","13492","","null","","","null","79","","","","","","","","","","","","","","","",""
"","ITI","","html-keyboard-response","519","452083","0.0-1.0-720.0","0","0","13492","","null","","","null","79","","","","","","","","","","","","","","","NaN",""
"","S1","","html-keyboard-response","520","452336","0.0-1.0-722.0","0","0","13492","","null","","","null","80","","","","","","","","","","","","","","","",""
"","ISI","","html-keyboard-response","521","452488","0.0-1.0-723.0","0","0","13492","","53","","","76","80","l","","","","","","","","","","","","","","",""
"","S2","","html-keyboard-response","522","452742","0.0-1.0-724.0","0","0","13492","","null","","","null","80","","NaN","","","","","","","","","","","","","",""
"","response","","html-keyboard-response","523","453472","0.0-1.0-725.0-0.0","0","0","13492","","729","","","68","80","","","2","80","training","adjacent","AB","1","2","P.jpg","N.jpg","1","1","1","",""
"","feedback","","html-keyboard-response","524","454476","0.0-1.0-726.0-0.0","0","0","13492","","null","","","null","80","","","","","","","","","","","","","","","",""
"","ITI","","html-keyboard-response","525","455479","0.0-1.0-729.0","0","0","13492","","null","","","null","80","","","","","","","","","","","","","","","NaN",""
"","S1","","html-keyboard-response","526","455732","0.0-1.0-731.0","0","0","13492","","null","","","null","81","","","","","","","","","","","","","","","",""
"","ISI","","html-keyboard-response","527","455885","0.0-1.0-732.0","0","0","13492","","null","","","null","81","NaN","","","","","","","","","","","","","","",""
"","S2","","html-keyboard-response","528","456139","0.0-1.0-733.0","0","0","13492","","null","","","null","81","","NaN","","","","","","","","","","","","","",""
"","response","","html-keyboard-response","529","456153","0.0-1.0-734.0-0.0","0","0","13492","","11","","","68","81","","","2","81","training","adjacent","CB","3","2","M.jpg","N.jpg","1","0","0","",""
"","feedback","","html-keyboard-response","530","457157","0.0-1.0-735.0-0.0","0","0","13492","","null","","","null","81","","","","","","","","","","","","","","","",""
"","time_out","","html-keyboard-response","531","459159","0.0-1.0-737.0-0.0","0","0","13492","","null","","","null","81","","","","","","","","","","","","","","","",""
"","ITI","","html-keyboard-response","532","460162","0.0-1.0-738.0","0","0","13492","","null","","","null","81","","","","","","","","","","","","","","","NaN",""
"","S1","","html-keyboard-response","533","460415","0.0-1.0-740.0","0","0","13492","","null","","","null","82","","","","","","","","","","","","","","","",""
"","ISI","","html-keyboard-response","534","460568","0.0-1.0-741.0","0","0","13492","","143","","","76","82","l","","","","","","","","","","","","","","",""
"","S2","","html-keyboard-response","535","460821","0.0-1.0-742.0","0","0","13492","","null","","","null","82","","NaN","","","","","","","","","","","","","",""
"","response","","html-keyboard-response","536","461640","0.0-1.0-743.0-0.0","0","0","13492","","817","","","68","82","","","2","82","training","adjacent","CD","3","4","M.jpg","Q.jpg","1","1","1","",""
"","feedback","","html-keyboard-response","537","462645","0.0-1.0-744.0-0.0","0","0","13492","","null","","","null","82","","","","","","","","","","","","","","","",""
"","ITI","","html-keyboard-response","538","463648","0.0-1.0-747.0","0","0","13492","","null","","","null","82","","","","","","","","","","","","","","","NaN",""
"","S1","","html-keyboard-response","539","463901","0.0-1.0-749.0","0","0","13492","","null","","","null","83","","","","","","","","","","","","","","","",""
"","ISI","","html-keyboard-response","540","464055","0.0-1.0-750.0","0","0","13492","","null","","","null","83","NaN","","","","","","","","","","","","","","",""
"","S2","","html-keyboard-response","541","464309","0.0-1.0-751.0","0","0","13492","","null","","","null","83","","NaN","","","","","","","","","","","","","",""
"","response","","html-keyboard-response","542","464608","0.0-1.0-752.0-0.0","0","0","13492","","297","","","68","83","","","2","83","training","adjacent","DC","4","3","Q.jpg","M.jpg","1","0","0","",""
"","feedback","","html-keyboard-response","543","465611","0.0-1.0-753.0-0.0","0","0","13492","","null","","","null","83","","","","","","","","","","","","","","","",""
"","time_out","","html-keyboard-response","544","467615","0.0-1.0-755.0-0.0","0","0","13492","","null","","","null","83","","","","","","","","","","","","","","","",""
"","ITI","","html-keyboard-response","545","468618","0.0-1.0-756.0","0","0","13492","","null","","","null","83","","","","","","","","","","","","","","","NaN",""
"","S1","","html-keyboard-response","546","468871","0.0-1.0-758.0","0","0","13492","","null","","","null","84","","","","","","","","","","","","","","","",""
"","ISI","","html-keyboard-response","547","469024","0.0-1.0-759.0","0","0","13492","","null","","","null","84","NaN","","","","","","","","","","","","","","",""
"","S2","","html-keyboard-response","548","469128","0.0-1.0-760.0","0","0","13492","","101","","","68","84","","d","2","84","training","adjacent","CD","3","4","M.jpg","Q.jpg","1","1","1","",""
"","feedback","","html-keyboard-response","549","470131","0.0-1.0-762.0-0.0","0","0","13492","","null","","","null","84","","","","","","","","","","","","","","","",""
"","ITI","","html-keyboard-response","550","471134","0.0-1.0-765.0","0","0","13492","","null","","","null","84","","","","","","","","","","","","","","","NaN",""
"","S1","","html-keyboard-response","551","471387","0.0-1.0-767.0","0","0","13492","","null","","","null","85","","","","","","","","","","","","","","","",""
"","ISI","","html-keyboard-response","552","471539","0.0-1.0-768.0","0","0","13492","","null","","","null","85","NaN","","","","","","","","","","","","","","",""
"","S2","","html-keyboard-response","553","471551","0.0-1.0-769.0","0","0","13492","","11","","","68","85","","d","2","85","training","adjacent","CB","3","2","M.jpg","N.jpg","1","0","0","",""
"","feedback","","html-keyboard-response","554","472554","0.0-1.0-771.0-0.0","0","0","13492","","null","","","null","85","","","","","","","","","","","","","","","",""
"","time_out","","html-keyboard-response","555","474556","0.0-1.0-773.0-0.0","0","0","13492","","null","","","null","85","","","","","","","","","","","","","","","",""
"","ITI","","html-keyboard-response","556","475560","0.0-1.0-774.0","0","0","13492","","null","","","null","85","","","","","","","","","","","","","","","NaN",""
"","S1","","html-keyboard-response","557","475813","0.0-1.0-776.0","0","0","13492","","null","","","null","86","","","","","","","","","","","","","","","",""
"","ISI","","html-keyboard-response","558","475966","0.0-1.0-777.0","0","0","13492","","89","","","75","86","k","","","","","","","","","","","","","","",""
"","S2","","html-keyboard-response","559","476183","0.0-1.0-778.0","0","0","13492","","216","","","68","86","","d","2","86","training","adjacent","GF","7","6","R.jpg","O.jpg","1","0","0","",""
"","feedback","","html-keyboard-response","560","477186","0.0-1.0-780.0-0.0","0","0","13492","","null","","","null","86","","","","","","","","","","","","","","","",""
"","time_out","","html-keyboard-response","561","479190","0.0-1.0-782.0-0.0","0","0","13492","","null","","","null","86","","","","","","","","","","","","","","","",""
"","ITI","","html-keyboard-response","562","480193","0.0-1.0-783.0","0","0","13492","","null","","","null","86","","","","","","","","","","","","","","","NaN",""
"","S1","","html-keyboard-response","563","480447","0.0-1.0-785.0","0","0","13492","","null","","","null","87","","","","","","","","","","","","","","","",""
"","ISI","","html-keyboard-response","564","480600","0.0-1.0-786.0","0","0","13492","","null","","","null","87","NaN","","","","","","","","","","","","","","",""
"","S2","","html-keyboard-response","565","480609","0.0-1.0-787.0","0","0","13492","","6","","","75","87","","k","2","87","training","adjacent","DE","4","5","Q.jpg","L.jpg","0","1","0","",""
"","feedback","","html-keyboard-response","566","481612","0.0-1.0-789.0-0.0","0","0","13492","","null","","","null","87","","","","","","","","","","","","","","","",""
"","time_out","","html-keyboard-response","567","483619","0.0-1.0-791.0-0.0","0","0","13492","","null","","","null","87","","","","","","","","","","","","","","","",""
"","ITI","","html-keyboard-response","568","484621","0.0-1.0-792.0","0","0","13492","","null","","","null","87","","","","","","","","","","","","","","","NaN",""
"","S1","","html-keyboard-response","569","484881","0.0-1.0-794.0","0","0","13492","","null","","","null","88","","","","","","","","","","","","","","","",""
"","ISI","","html-keyboard-response","570","485034","0.0-1.0-795.0","0","0","13492","","null","","","null","88","NaN","","","","","","","","","","","","","","",""
"","S2","","html-keyboard-response","571","485287","0.0-1.0-796.0","0","0","13492","","null","","","null","88","","NaN","","","","","","","","","","","","","",""
"","response","","html-keyboard-response","572","485479","0.0-1.0-797.0-0.0","0","0","13492","","190","","","68","88","","","2","88","training","adjacent","BC","2","3","N.jpg","M.jpg","1","1","1","",""
"","feedback","","html-keyboard-response","573","486483","0.0-1.0-798.0-0.0","0","0","13492","","null","","","null","88","","","","","","","","","","","","","","","",""
"","ITI","","html-keyboard-response","574","487487","0.0-1.0-801.0","0","0","13492","","null","","","null","88","","","","","","","","","","","","","","","NaN",""
"","S1","","html-keyboard-response","575","487740","0.0-1.0-803.0","0","0","13492","","null","","","null","89","","","","","","","","","","","","","","","",""
"","ISI","","html-keyboard-response","576","487893","0.0-1.0-804.0","0","0","13492","","null","","","null","89","NaN","","","","","","","","","","","","","","",""
"","S2","","html-keyboard-response","577","488150","0.0-1.0-805.0","0","0","13492","","null","","","null","89","","NaN","","","","","","","","","","","","","",""
"","response","","html-keyboard-response","578","488174","0.0-1.0-806.0-0.0","0","0","13492","","22","","","68","89","","","2","89","training","adjacent","CB","3","2","M.jpg","N.jpg","1","0","0","",""
"","feedback","","html-keyboard-response","579","489177","0.0-1.0-807.0-0.0","0","0","13492","","null","","","null","89","","","","","","","","","","","","","","","",""
"","time_out","","html-keyboard-response","580","491182","0.0-1.0-809.0-0.0","0","0","13492","","null","","","null","89","","","","","","","","","","","","","","","",""
"","ITI","","html-keyboard-response","581","492185","0.0-1.0-810.0","0","0","13492","","null","","","null","89","","","","","","","","","","","","","","","NaN",""
