"success","ttype","start_time","trial_type","trial_index","time_elapsed","internal_node_id","warning","missed_checkup","PID","view_history","rt","responses","repeat_instructions","key_press","index","keypress_isi","keypress_S2","block","trial_num","phase","group_type","pair_type","S1_stim","S2_stim","S1_img","S2_img","S1_chosen","S1_higher","accuracy","keypress_iti","total_bonus_tally"
"true","full_screen","d03072023hr1806","fullscreen","0","13481","0.0-0.0","0","0","27070","","","","","","","","","","","","","","","","","","","","","",""
"","instructions","","instructions","1","43465","0.0-1.0-0.0-0.0","0","0","27070","[{""page_index"":0,""viewing_time"":3720},{""page_index"":1,""viewing_time"":16401},{""page_index"":2,""viewing_time"":8205},{""page_index"":3,""viewing_time"":1657}]","29984","","","","","","","","","","","","","","","","","","","",""
"","comprehension_check","","survey-multi-choice","2","75385","0.0-1.0-0.0-1.0","0","0","27070","","31916","{""Q0"":""True"",""Q1"":""D"",""Q2"":""Once the second image appears and while the screen 'MAKE A CHOICE' is shown"",""Q3"":""Green mark"",""Q4"":""either D or K""}","0","","","","","","","","","","","","","","","","","",""
"","start_exp","","html-keyboard-response","3","77337","0.0-1.0-1.0","0","0","27070","","1949","","","32","","","","","","","","","","","","","","","","",""
"","S1","","html-keyboard-response","4","77590","0.0-1.0-2.0","0","0","27070","","null","","","null","0","","","","","","","","","","","","","","","",""
"","ISI","","html-keyboard-response","5","78591","0.0-1.0-3.0","0","0","27070","","null","","","null","0","NaN","","","","","","","","","","","","","","",""
"","S2","","html-keyboard-response","6","78843","0.0-1.0-4.0","0","0","27070","","null","","","null","0","","NaN","","","","","","","","","","","","","",""
"","response","","html-keyboard-response","7","79430","0.0-1.0-5.0-0.0","0","0","27070","","586","","","68","0","","","1","0","training","adjacent","GF","7","6","Q.jpg","N.jpg","1","0","0","",""
"","feedback","","html-keyboard-response","8","80432","0.0-1.0-6.0-0.0","0","0","27070","","null","","","null","0","","","","","","","","","","","","","","","",""
"","time_out","","html-keyboard-response","9","82434","0.0-1.0-8.0-0.0","0","0","27070","","null","","","null","0","","","","","","","","","","","","","","","",""
"","ITI","","html-keyboard-response","10","83436","0.0-1.0-9.0","0","0","27070","","null","","","null","0","","","","","","","","","","","","","","","NaN",""
"","S1","","html-keyboard-response","11","83687","0.0-1.0-11.0","0","0","27070","","null","","","null","1","","","","","","","","","","","","","","","",""
"","ISI","","html-keyboard-response","12","84688","0.0-1.0-12.0","0","0","27070","","null","","","null","1","NaN","","","","","","","","","","","","","","",""
"","S2","","html-keyboard-response","13","84941","0.0-1.0-13.0","0","0","27070","","null","","","null","1","","NaN","","","","","","","","","","","","","",""
"","response","","html-keyboard-response","14","85129","0.0-1.0-14.0-0.0","0","0","27070","","185","","","75","1","","","1","1","training","adjacent","BC","2","3","L.jpg","P.jpg","0","1","0","",""
"","feedback","","html-keyboard-response","15","86131","0.0-1.0-15.0-0.0","0","0","27070","","null","","","null","1","","","","","","","","","","","","","","","",""
"","time_out","","html-keyboard-response","16","88133","0.0-1.0-17.0-0.0","0","0","27070","","null","","","null","1","","","","","","","","","","","","","","","",""
"","ITI","","html-keyboard-response","17","89135","0.0-1.0-18.0","0","0","27070","","null","","","null","1","","","","","","","","","","","","","","","NaN",""
"","S1","","html-keyboard-response","18","89395","0.0-1.0-20.0","0","0","27070","","null","","","null","2","","","","","","","","","","","","","","","",""
"","ISI","","html-keyboard-response","19","90396","0.0-1.0-21.0","0","0","27070","","null","","","null","2","NaN","","","","","","","","","","","","","","",""
"","S2","","html-keyboard-response","20","90647","0.0-1.0-22.0","0","0","27070","","null","","","null","2","","NaN","","","","","","","","","","","","","",""
"","response","","html-keyboard-response","21","90858","0.0-1.0-23.0-0.0","0","0","27070","","209","","","68","2","","","1","2","training","adjacent","FG","6","7","N.jpg","Q.jpg","1","1","1","",""
"","feedback","","html-keyboard-response","22","91864","0.0-1.0-24.0-0.0","0","0","27070","","null","","","null","2","","","","","","","","","","","","","","","",""
"","ITI","","html-keyboard-response","23","92866","0.0-1.0-27.0","0","0","27070","","null","","","null","2","","","","","","","","","","","","","","","NaN",""
"","S1","","html-keyboard-response","24","93117","0.0-1.0-29.0","0","0","27070","","null","","","null","3","","","","","","","","","","","","","","","",""
"","ISI","","html-keyboard-response","25","94118","0.0-1.0-30.0","0","0","27070","","null","","","null","3","NaN","","","","","","","","","","","","","","",""
"","S2","","html-keyboard-response","26","94371","0.0-1.0-31.0","0","0","27070","","null","","","null","3","","NaN","","","","","","","","","","","","","",""
"","response","","html-keyboard-response","27","94828","0.0-1.0-32.0-0.0","0","0","27070","","456","","","68","3","","","1","3","training","adjacent","BA","2","1","L.jpg","O.jpg","1","0","0","",""
"","feedback","","html-keyboard-response","28","95829","0.0-1.0-33.0-0.0","0","0","27070","","null","","","null","3","","","","","","","","","","","","","","","",""
"","time_out","","html-keyboard-response","29","97843","0.0-1.0-35.0-0.0","0","0","27070","","null","","","null","3","","","","","","","","","","","","","","","",""
"","ITI","","html-keyboard-response","30","98845","0.0-1.0-36.0","0","0","27070","","null","","","null","3","","","","","","","","","","","","","","","NaN",""
"","S1","","html-keyboard-response","31","99097","0.0-1.0-38.0","0","0","27070","","null","","","null","4","","","","","","","","","","","","","","","",""
"","ISI","","html-keyboard-response","32","100109","0.0-1.0-39.0","0","0","27070","","null","","","null","4","NaN","","","","","","","","","","","","","","",""
"","S2","","html-keyboard-response","33","100361","0.0-1.0-40.0","0","0","27070","","null","","","null","4","","NaN","","","","","","","","","","","","","",""
"","response","","html-keyboard-response","34","100562","0.0-1.0-41.0-0.0","0","0","27070","","200","","","75","4","","","1","4","training","adjacent","DC","4","3","R.jpg","P.jpg","0","0","1","",""
"","feedback","","html-keyboard-response","35","101564","0.0-1.0-42.0-0.0","0","0","27070","","null","","","null","4","","","","","","","","","","","","","","","",""
"","ITI","","html-keyboard-response","36","102566","0.0-1.0-45.0","0","0","27070","","null","","","null","4","","","","","","","","","","","","","","","NaN",""
"","S1","","html-keyboard-response","37","102818","0.0-1.0-47.0","0","0","27070","","null","","","null","5","","","","","","","","","","","","","","","",""
"","ISI","","html-keyboard-response","38","103819","0.0-1.0-48.0","0","0","27070","","null","","","null","5","NaN","","","","","","","","","","","","","","",""
"","S2","","html-keyboard-response","39","104071","0.0-1.0-49.0","0","0","27070","","null","","","null","5","","NaN","","","","","","","","","","","","","",""
"","response","","html-keyboard-response","40","104533","0.0-1.0-50.0-0.0","0","0","27070","","462","","","68","5","","","1","5","training","adjacent","CB","3","2","P.jpg","L.jpg","1","0","0","",""
"","feedback","","html-keyboard-response","41","105536","0.0-1.0-51.0-0.0","0","0","27070","","null","","","null","5","","","","","","","","","","","","","","","",""
"","time_out","","html-keyboard-response","42","107549","0.0-1.0-53.0-0.0","0","0","27070","","null","","","null","5","","","","","","","","","","","","","","","",""
"","ITI","","html-keyboard-response","43","108550","0.0-1.0-54.0","0","0","27070","","null","","","null","5","","","","","","","","","","","","","","","NaN",""
"","S1","","html-keyboard-response","44","108802","0.0-1.0-56.0","0","0","27070","","null","","","null","6","","","","","","","","","","","","","","","",""
"","ISI","","html-keyboard-response","45","109803","0.0-1.0-57.0","0","0","27070","","null","","","null","6","NaN","","","","","","","","","","","","","","",""
"","S2","","html-keyboard-response","46","110066","0.0-1.0-58.0","0","0","27070","","null","","","null","6","","NaN","","","","","","","","","","","","","",""
"","response","","html-keyboard-response","47","110181","0.0-1.0-59.0-0.0","0","0","27070","","114","","","68","6","","","1","6","training","adjacent","BA","2","1","L.jpg","O.jpg","1","0","0","",""
"","feedback","","html-keyboard-response","48","111182","0.0-1.0-60.0-0.0","0","0","27070","","null","","","null","6","","","","","","","","","","","","","","","",""
"","time_out","","html-keyboard-response","49","113183","0.0-1.0-62.0-0.0","0","0","27070","","null","","","null","6","","","","","","","","","","","","","","","",""
"","ITI","","html-keyboard-response","50","114185","0.0-1.0-63.0","0","0","27070","","null","","","null","6","","","","","","","","","","","","","","","NaN",""
"","S1","","html-keyboard-response","51","114437","0.0-1.0-65.0","0","0","27070","","null","","","null","7","","","","","","","","","","","","","","","",""
"","ISI","","html-keyboard-response","52","115438","0.0-1.0-66.0","0","0","27070","","null","","","null","7","NaN","","","","","","","","","","","","","","",""
"","S2","","html-keyboard-response","53","115690","0.0-1.0-67.0","0","0","27070","","null","","","null","7","","NaN","","","","","","","","","","","","","",""
"","response","","html-keyboard-response","54","115902","0.0-1.0-68.0-0.0","0","0","27070","","211","","","75","7","","","1","7","training","adjacent","DC","4","3","R.jpg","P.jpg","0","0","1","",""
"","feedback","","html-keyboard-response","55","116903","0.0-1.0-69.0-0.0","0","0","27070","","null","","","null","7","","","","","","","","","","","","","","","",""
"","ITI","","html-keyboard-response","56","117905","0.0-1.0-72.0","0","0","27070","","null","","","null","7","","","","","","","","","","","","","","","NaN",""
"","S1","","html-keyboard-response","57","118157","0.0-1.0-74.0","0","0","27070","","null","","","null","8","","","","","","","","","","","","","","","",""
"","ISI","","html-keyboard-response","58","119158","0.0-1.0-75.0","0","0","27070","","null","","","null","8","NaN","","","","","","","","","","","","","","",""
"","S2","","html-keyboard-response","59","119409","0.0-1.0-76.0","0","0","27070","","null","","","null","8","","NaN","","","","","","","","","","","","","",""
"","response","","html-keyboard-response","60","119561","0.0-1.0-77.0-0.0","0","0","27070","","151","","","75","8","","","1","8","training","adjacent","AB","1","2","O.jpg","L.jpg","0","1","0","",""
"","feedback","","html-keyboard-response","61","120563","0.0-1.0-78.0-0.0","0","0","27070","","null","","","null","8","","","","","","","","","","","","","","","",""
"","time_out","","html-keyboard-response","62","122565","0.0-1.0-80.0-0.0","0","0","27070","","null","","","null","8","","","","","","","","","","","","","","","",""
"","ITI","","html-keyboard-response","63","123566","0.0-1.0-81.0","0","0","27070","","null","","","null","8","","","","","","","","","","","","","","","NaN",""
"","S1","","html-keyboard-response","64","123817","0.0-1.0-83.0","0","0","27070","","null","","","null","9","","","","","","","","","","","","","","","",""
"","ISI","","html-keyboard-response","65","124818","0.0-1.0-84.0","0","0","27070","","null","","","null","9","NaN","","","","","","","","","","","","","","",""
"","S2","","html-keyboard-response","66","125070","0.0-1.0-85.0","0","0","27070","","null","","","null","9","","NaN","","","","","","","","","","","","","",""
"","response","","html-keyboard-response","67","125272","0.0-1.0-86.0-0.0","0","0","27070","","201","","","75","9","","","1","9","training","adjacent","DE","4","5","R.jpg","M.jpg","0","1","0","",""
"","feedback","","html-keyboard-response","68","126274","0.0-1.0-87.0-0.0","0","0","27070","","null","","","null","9","","","","","","","","","","","","","","","",""
"","time_out","","html-keyboard-response","69","128275","0.0-1.0-89.0-0.0","0","0","27070","","null","","","null","9","","","","","","","","","","","","","","","",""
"","ITI","","html-keyboard-response","70","129277","0.0-1.0-90.0","0","0","27070","","null","","","null","9","","","","","","","","","","","","","","","NaN",""
"","S1","","html-keyboard-response","71","129528","0.0-1.0-92.0","0","0","27070","","null","","","null","10","","","","","","","","","","","","","","","",""
"","ISI","","html-keyboard-response","72","130530","0.0-1.0-93.0","0","0","27070","","null","","","null","10","NaN","","","","","","","","","","","","","","",""
"","S2","","html-keyboard-response","73","130782","0.0-1.0-94.0","0","0","27070","","null","","","null","10","","NaN","","","","","","","","","","","","","",""
"","response","","html-keyboard-response","74","131142","0.0-1.0-95.0-0.0","0","0","27070","","359","","","68","10","","","1","10","training","adjacent","EF","5","6","M.jpg","N.jpg","1","1","1","",""
"","feedback","","html-keyboard-response","75","132143","0.0-1.0-96.0-0.0","0","0","27070","","null","","","null","10","","","","","","","","","","","","","","","",""
"","ITI","","html-keyboard-response","76","133146","0.0-1.0-99.0","0","0","27070","","null","","","null","10","","","","","","","","","","","","","","","NaN",""
"","S1","","html-keyboard-response","77","133398","0.0-1.0-101.0","0","0","27070","","null","","","null","11","","","","","","","","","","","","","","","",""
"","ISI","","html-keyboard-response","78","134399","0.0-1.0-102.0","0","0","27070","","null","","","null","11","NaN","","","","","","","","","","","","","","",""
"","S2","","html-keyboard-response","79","134652","0.0-1.0-103.0","0","0","27070","","null","","","null","11","","NaN","","","","","","","","","","","","","",""
"","response","","html-keyboard-response","80","135094","0.0-1.0-104.0-0.0","0","0","27070","","441","","","68","11","","","1","11","training","adjacent","AB","1","2","O.jpg","L.jpg","1","1","1","",""
"","feedback","","html-keyboard-response","81","136110","0.0-1.0-105.0-0.0","0","0","27070","","null","","","null","11","","","","","","","","","","","","","","","",""
"","ITI","","html-keyboard-response","82","137111","0.0-1.0-108.0","0","0","27070","","null","","","null","11","","","","","","","","","","","","","","","NaN",""
"","S1","","html-keyboard-response","83","137363","0.0-1.0-110.0","0","0","27070","","null","","","null","12","","","","","","","","","","","","","","","",""
"","ISI","","html-keyboard-response","84","138365","0.0-1.0-111.0","0","0","27070","","null","","","null","12","NaN","","","","","","","","","","","","","","",""
"","S2","","html-keyboard-response","85","138616","0.0-1.0-112.0","0","0","27070","","null","","","null","12","","NaN","","","","","","","","","","","","","",""
"","response","","html-keyboard-response","86","138869","0.0-1.0-113.0-0.0","0","0","27070","","252","","","68","12","","","1","12","training","adjacent","GF","7","6","Q.jpg","N.jpg","1","0","0","",""
"","feedback","","html-keyboard-response","87","139870","0.0-1.0-114.0-0.0","0","0","27070","","null","","","null","12","","","","","","","","","","","","","","","",""
"","time_out","","html-keyboard-response","88","141872","0.0-1.0-116.0-0.0","0","0","27070","","null","","","null","12","","","","","","","","","","","","","","","",""
"","ITI","","html-keyboard-response","89","142874","0.0-1.0-117.0","0","0","27070","","null","","","null","12","","","","","","","","","","","","","","","NaN",""
"","S1","","html-keyboard-response","90","143125","0.0-1.0-119.0","0","0","27070","","null","","","null","13","","","","","","","","","","","","","","","",""
"","ISI","","html-keyboard-response","91","144129","0.0-1.0-120.0","0","0","27070","","null","","","null","13","NaN","","","","","","","","","","","","","","",""
"","S2","","html-keyboard-response","92","144381","0.0-1.0-121.0","0","0","27070","","null","","","null","13","","NaN","","","","","","","","","","","","","",""
"","response","","html-keyboard-response","93","144674","0.0-1.0-122.0-0.0","0","0","27070","","292","","","75","13","","","1","13","training","adjacent","DE","4","5","R.jpg","M.jpg","0","1","0","",""
"","feedback","","html-keyboard-response","94","145676","0.0-1.0-123.0-0.0","0","0","27070","","null","","","null","13","","","","","","","","","","","","","","","",""
"","time_out","","html-keyboard-response","95","147677","0.0-1.0-125.0-0.0","0","0","27070","","null","","","null","13","","","","","","","","","","","","","","","",""
"","ITI","","html-keyboard-response","96","148678","0.0-1.0-126.0","0","0","27070","","null","","","null","13","","","","","","","","","","","","","","","NaN",""
"","S1","","html-keyboard-response","97","148930","0.0-1.0-128.0","0","0","27070","","null","","","null","14","","","","","","","","","","","","","","","",""
"","ISI","","html-keyboard-response","98","149932","0.0-1.0-129.0","0","0","27070","","null","","","null","14","NaN","","","","","","","","","","","","","","",""
"","S2","","html-keyboard-response","99","150184","0.0-1.0-130.0","0","0","27070","","null","","","null","14","","NaN","","","","","","","","","","","","","",""
"","response","","html-keyboard-response","100","150260","0.0-1.0-131.0-0.0","0","0","27070","","75","","","75","14","","","1","14","training","adjacent","BC","2","3","L.jpg","P.jpg","0","1","0","",""
"","feedback","","html-keyboard-response","101","151262","0.0-1.0-132.0-0.0","0","0","27070","","null","","","null","14","","","","","","","","","","","","","","","",""
"","time_out","","html-keyboard-response","102","153263","0.0-1.0-134.0-0.0","0","0","27070","","null","","","null","14","","","","","","","","","","","","","","","",""
"","ITI","","html-keyboard-response","103","154265","0.0-1.0-135.0","0","0","27070","","null","","","null","14","","","","","","","","","","","","","","","NaN",""
"","S1","","html-keyboard-response","104","154516","0.0-1.0-137.0","0","0","27070","","null","","","null","15","","","","","","","","","","","","","","","",""
"","ISI","","html-keyboard-response","105","155519","0.0-1.0-138.0","0","0","27070","","null","","","null","15","NaN","","","","","","","","","","","","","","",""
"","S2","","html-keyboard-response","106","155771","0.0-1.0-139.0","0","0","27070","","null","","","null","15","","NaN","","","","","","","","","","","","","",""
"","response","","html-keyboard-response","107","156065","0.0-1.0-140.0-0.0","0","0","27070","","293","","","68","15","","","1","15","training","adjacent","CB","3","2","P.jpg","L.jpg","1","0","0","",""
"","feedback","","html-keyboard-response","108","157067","0.0-1.0-141.0-0.0","0","0","27070","","null","","","null","15","","","","","","","","","","","","","","","",""
"","time_out","","html-keyboard-response","109","159069","0.0-1.0-143.0-0.0","0","0","27070","","null","","","null","15","","","","","","","","","","","","","","","",""
"","ITI","","html-keyboard-response","110","160071","0.0-1.0-144.0","0","0","27070","","null","","","null","15","","","","","","","","","","","","","","","NaN",""
"","S1","","html-keyboard-response","111","160324","0.0-1.0-146.0","0","0","27070","","null","","","null","16","","","","","","","","","","","","","","","",""
"","ISI","","html-keyboard-response","112","161325","0.0-1.0-147.0","0","0","27070","","null","","","null","16","NaN","","","","","","","","","","","","","","",""
"","S2","","html-keyboard-response","113","161577","0.0-1.0-148.0","0","0","27070","","null","","","null","16","","NaN","","","","","","","","","","","","","",""
"","response","","html-keyboard-response","114","161789","0.0-1.0-149.0-0.0","0","0","27070","","211","","","75","16","","","1","16","training","adjacent","ED","5","4","M.jpg","R.jpg","0","0","1","",""
"","feedback","","html-keyboard-response","115","162791","0.0-1.0-150.0-0.0","0","0","27070","","null","","","null","16","","","","","","","","","","","","","","","",""
"","ITI","","html-keyboard-response","116","163792","0.0-1.0-153.0","0","0","27070","","null","","","null","16","","","","","","","","","","","","","","","NaN",""
"","S1","","html-keyboard-response","117","164044","0.0-1.0-155.0","0","0","27070","","null","","","null","17","","","","","","","","","","","","","","","",""
"","ISI","","html-keyboard-response","118","165046","0.0-1.0-156.0","0","0","27070","","null","","","null","17","NaN","","","","","","","","","","","","","","",""
"","S2","","html-keyboard-response","119","165297","0.0-1.0-157.0","0","0","27070","","null","","","null","17","","NaN","","","","","","","","","","","","","",""
"","response","","html-keyboard-response","120","165596","0.0-1.0-158.0-0.0","0","0","27070","","297","","","75","17","","","1","17","training","adjacent","ED","5","4","M.jpg","R.jpg","0","0","1","",""
"","feedback","","html-keyboard-response","121","166598","0.0-1.0-159.0-0.0","0","0","27070","","null","","","null","17","","","","","","","","","","","","","","","",""
"","ITI","","html-keyboard-response","122","167600","0.0-1.0-162.0","0","0","27070","","null","","","null","17","","","","","","","","","","","","","","","NaN",""
"","S1","","html-keyboard-response","123","167852","0.0-1.0-164.0","0","0","27070","","null","","","null","18","","","","","","","","","","","","","","","",""
"","ISI","","html-keyboard-response","124","168853","0.0-1.0-165.0","0","0","27070","","null","","","null","18","NaN","","","","","","","","","","","","","","",""
"","S2","","html-keyboard-response","125","169105","0.0-1.0-166.0","0","0","27070","","null","","","null","18","","NaN","","","","","","","","","","","","","",""
"","response","","html-keyboard-response","126","169254","0.0-1.0-167.0-0.0","0","0","27070","","147","","","75","18","","","1","18","training","adjacent","CD","3","4","P.jpg","R.jpg","0","1","0","",""
"","feedback","","html-keyboard-response","127","170255","0.0-1.0-168.0-0.0","0","0","27070","","null","","","null","18","","","","","","","","","","","","","","","",""
"","time_out","","html-keyboard-response","128","172257","0.0-1.0-170.0-0.0","0","0","27070","","null","","","null","18","","","","","","","","","","","","","","","",""
"","ITI","","html-keyboard-response","129","173258","0.0-1.0-171.0","0","0","27070","","null","","","null","18","","","","","","","","","","","","","","","NaN",""
"","S1","","html-keyboard-response","130","173510","0.0-1.0-173.0","0","0","27070","","null","","","null","19","","","","","","","","","","","","","","","",""
"","ISI","","html-keyboard-response","131","174512","0.0-1.0-174.0","0","0","27070","","null","","","null","19","NaN","","","","","","","","","","","","","","",""
"","S2","","html-keyboard-response","132","174721","0.0-1.0-175.0","0","0","27070","","208","","","75","19","","k","1","19","training","adjacent","CB","3","2","P.jpg","L.jpg","0","0","1","",""
"","feedback","","html-keyboard-response","133","175723","0.0-1.0-177.0-0.0","0","0","27070","","null","","","null","19","","","","","","","","","","","","","","","",""
"","ITI","","html-keyboard-response","134","176724","0.0-1.0-180.0","0","0","27070","","null","","","null","19","","","","","","","","","","","","","","","NaN",""
"","S1","","html-keyboard-response","135","176975","0.0-1.0-182.0","0","0","27070","","null","","","null","20","","","","","","","","","","","","","","","",""
"","ISI","","html-keyboard-response","136","177976","0.0-1.0-183.0","0","0","27070","","null","","","null","20","NaN","","","","","","","","","","","","","","",""
"","S2","","html-keyboard-response","137","178214","0.0-1.0-184.0","0","0","27070","","236","","","68","20","","d","1","20","training","adjacent","BC","2","3","L.jpg","P.jpg","1","1","1","",""
"","feedback","","html-keyboard-response","138","179216","0.0-1.0-186.0-0.0","0","0","27070","","null","","","null","20","","","","","","","","","","","","","","","",""
"","ITI","","html-keyboard-response","139","180218","0.0-1.0-189.0","0","0","27070","","null","","","null","20","","","","","","","","","","","","","","","NaN",""
"","S1","","html-keyboard-response","140","180471","0.0-1.0-191.0","0","0","27070","","null","","","null","21","","","","","","","","","","","","","","","",""
"","ISI","","html-keyboard-response","141","181472","0.0-1.0-192.0","0","0","27070","","null","","","null","21","NaN","","","","","","","","","","","","","","",""
"","S2","","html-keyboard-response","142","181724","0.0-1.0-193.0","0","0","27070","","null","","","null","21","","NaN","","","","","","","","","","","","","",""
"","response","","html-keyboard-response","143","181993","0.0-1.0-194.0-0.0","0","0","27070","","268","","","75","21","","","1","21","training","adjacent","CB","3","2","P.jpg","L.jpg","0","0","1","",""
"","feedback","","html-keyboard-response","144","182996","0.0-1.0-195.0-0.0","0","0","27070","","null","","","null","21","","","","","","","","","","","","","","","",""
"","ITI","","html-keyboard-response","145","183998","0.0-1.0-198.0","0","0","27070","","null","","","null","21","","","","","","","","","","","","","","","NaN",""
"","S1","","html-keyboard-response","146","184250","0.0-1.0-200.0","0","0","27070","","null","","","null","22","","","","","","","","","","","","","","","",""
"","ISI","","html-keyboard-response","147","185251","0.0-1.0-201.0","0","0","27070","","null","","","null","22","NaN","","","","","","","","","","","","","","",""
"","S2","","html-keyboard-response","148","185503","0.0-1.0-202.0","0","0","27070","","null","","","null","22","","NaN","","","","","","","","","","","","","",""
"","response","","html-keyboard-response","149","185857","0.0-1.0-203.0-0.0","0","0","27070","","352","","","68","22","","","1","22","training","adjacent","DC","4","3","R.jpg","P.jpg","1","0","0","",""
"","feedback","","html-keyboard-response","150","186859","0.0-1.0-204.0-0.0","0","0","27070","","null","","","null","22","","","","","","","","","","","","","","","",""
"","time_out","","html-keyboard-response","151","188860","0.0-1.0-206.0-0.0","0","0","27070","","null","","","null","22","","","","","","","","","","","","","","","",""
"","ITI","","html-keyboard-response","152","189862","0.0-1.0-207.0","0","0","27070","","null","","","null","22","","","","","","","","","","","","","","","NaN",""
"","S1","","html-keyboard-response","153","190114","0.0-1.0-209.0","0","0","27070","","null","","","null","23","","","","","","","","","","","","","","","",""
"","ISI","","html-keyboard-response","154","191115","0.0-1.0-210.0","0","0","27070","","null","","","null","23","NaN","","","","","","","","","","","","","","",""
"","S2","","html-keyboard-response","155","191367","0.0-1.0-211.0","0","0","27070","","null","","","null","23","","NaN","","","","","","","","","","","","","",""
"","response","","html-keyboard-response","156","191568","0.0-1.0-212.0-0.0","0","0","27070","","200","","","75","23","","","1","23","training","adjacent","GF","7","6","Q.jpg","N.jpg","0","0","1","",""
"","feedback","","html-keyboard-response","157","192570","0.0-1.0-213.0-0.0","0","0","27070","","null","","","null","23","","","","","","","","","","","","","","","",""
"","ITI","","html-keyboard-response","158","193576","0.0-1.0-216.0","0","0","27070","","null","","","null","23","","","","","","","","","","","","","","","NaN",""
"","S1","","html-keyboard-response","159","193839","0.0-1.0-218.0","0","0","27070","","null","","","null","24","","","","","","","","","","","","","","","",""
"","ISI","","html-keyboard-response","160","194842","0.0-1.0-219.0","0","0","27070","","null","","","null","24","NaN","","","","","","","","","","","","","","",""
"","S2","","html-keyboard-response","161","195093","0.0-1.0-220.0","0","0","27070","","null","","","null","24","","NaN","","","","","","","","","","","","","",""
"","response","","html-keyboard-response","162","195395","0.0-1.0-221.0-0.0","0","0","27070","","301","","","75","24","","","1","24","training","adjacent","DE","4","5","R.jpg","M.jpg","0","1","0","",""
"","feedback","","html-keyboard-response","163","196397","0.0-1.0-222.0-0.0","0","0","27070","","null","","","null","24","","","","","","","","","","","","","","","",""
"","time_out","","html-keyboard-response","164","198399","0.0-1.0-224.0-0.0","0","0","27070","","null","","","null","24","","","","","","","","","","","","","","","",""
"","ITI","","html-keyboard-response","165","199400","0.0-1.0-225.0","0","0","27070","","null","","","null","24","","","","","","","","","","","","","","","NaN",""
"","S1","","html-keyboard-response","166","199652","0.0-1.0-227.0","0","0","27070","","null","","","null","25","","","","","","","","","","","","","","","",""
"","ISI","","html-keyboard-response","167","200659","0.0-1.0-228.0","0","0","27070","","null","","","null","25","NaN","","","","","","","","","","","","","","",""
"","S2","","html-keyboard-response","168","200910","0.0-1.0-229.0","0","0","27070","","null","","","null","25","","NaN","","","","","","","","","","","","","",""
"","response","","html-keyboard-response","169","200926","0.0-1.0-230.0-0.0","0","0","27070","","15","","","68","25","","","1","25","training","adjacent","EF","5","6","M.jpg","N.jpg","1","1","1","",""
"","feedback","","html-keyboard-response","170","201928","0.0-1.0-231.0-0.0","0","0","27070","","null","","","null","25","","","","","","","","","","","","","","","",""
"","ITI","","html-keyboard-response","171","202929","0.0-1.0-234.0","0","0","27070","","null","","","null","25","","","","","","","","","","","","","","","NaN",""
"","S1","","html-keyboard-response","172","203181","0.0-1.0-236.0","0","0","27070","","null","","","null","26","","","","","","","","","","","","","","","",""
"","ISI","","html-keyboard-response","173","204183","0.0-1.0-237.0","0","0","27070","","null","","","null","26","NaN","","","","","","","","","","","","","","",""
"","S2","","html-keyboard-response","174","204436","0.0-1.0-238.0","0","0","27070","","null","","","null","26","","NaN","","","","","","","","","","","","","",""
"","response","","html-keyboard-response","175","204499","0.0-1.0-239.0-0.0","0","0","27070","","62","","","75","26","","","1","26","training","adjacent","GF","7","6","Q.jpg","N.jpg","0","0","1","",""
"","feedback","","html-keyboard-response","176","205500","0.0-1.0-240.0-0.0","0","0","27070","","null","","","null","26","","","","","","","","","","","","","","","",""
"","ITI","","html-keyboard-response","177","206502","0.0-1.0-243.0","0","0","27070","","null","","","null","26","","","","","","","","","","","","","","","NaN",""
"","S1","","html-keyboard-response","178","206754","0.0-1.0-245.0","0","0","27070","","null","","","null","27","","","","","","","","","","","","","","","",""
"","ISI","","html-keyboard-response","179","207755","0.0-1.0-246.0","0","0","27070","","null","","","null","27","NaN","","","","","","","","","","","","","","",""
"","S2","","html-keyboard-response","180","208007","0.0-1.0-247.0","0","0","27070","","null","","","null","27","","NaN","","","","","","","","","","","","","",""
"","response","","html-keyboard-response","181","208010","0.0-1.0-248.0-0.0","0","0","27070","","2","","","68","27","","","1","27","training","adjacent","FG","6","7","N.jpg","Q.jpg","1","1","1","",""
"","feedback","","html-keyboard-response","182","209012","0.0-1.0-249.0-0.0","0","0","27070","","null","","","null","27","","","","","","","","","","","","","","","",""
"","ITI","","html-keyboard-response","183","210013","0.0-1.0-252.0","0","0","27070","","null","","","null","27","","","","","","","","","","","","","","","NaN",""
"","S1","","html-keyboard-response","184","210265","0.0-1.0-254.0","0","0","27070","","null","","","null","28","","","","","","","","","","","","","","","",""
"","ISI","","html-keyboard-response","185","211267","0.0-1.0-255.0","0","0","27070","","null","","","null","28","NaN","","","","","","","","","","","","","","",""
"","S2","","html-keyboard-response","186","211474","0.0-1.0-256.0","0","0","27070","","205","","","75","28","","k","1","28","training","adjacent","FE","6","5","N.jpg","M.jpg","0","0","1","",""
"","feedback","","html-keyboard-response","187","212476","0.0-1.0-258.0-0.0","0","0","27070","","null","","","null","28","","","","","","","","","","","","","","","",""
"","ITI","","html-keyboard-response","188","213478","0.0-1.0-261.0","0","0","27070","","null","","","null","28","","","","","","","","","","","","","","","NaN",""
"","S1","","html-keyboard-response","189","213730","0.0-1.0-263.0","0","0","27070","","null","","","null","29","","","","","","","","","","","","","","","",""
"","ISI","","html-keyboard-response","190","214731","0.0-1.0-264.0","0","0","27070","","null","","","null","29","NaN","","","","","","","","","","","","","","",""
"","S2","","html-keyboard-response","191","214966","0.0-1.0-265.0","0","0","27070","","235","","","68","29","","d","1","29","training","adjacent","BA","2","1","L.jpg","O.jpg","1","0","0","",""
"","feedback","","html-keyboard-response","192","215969","0.0-1.0-267.0-0.0","0","0","27070","","null","","","null","29","","","","","","","","","","","","","","","",""
"","time_out","","html-keyboard-response","193","217971","0.0-1.0-269.0-0.0","0","0","27070","","null","","","null","29","","","","","","","","","","","","","","","",""
"","ITI","","html-keyboard-response","194","218973","0.0-1.0-270.0","0","0","27070","","null","","","null","29","","","","","","","","","","","","","","","NaN",""
"","S1","","html-keyboard-response","195","219225","0.0-1.0-272.0","0","0","27070","","null","","","null","30","","","","","","","","","","","","","","","",""
"","ISI","","html-keyboard-response","196","220226","0.0-1.0-273.0","0","0","27070","","null","","","null","30","NaN","","","","","","","","","","","","","","",""
"","S2","","html-keyboard-response","197","220443","0.0-1.0-274.0","0","0","27070","","216","","","75","30","","k","1","30","training","adjacent","FE","6","5","N.jpg","M.jpg","0","0","1","",""
"","feedback","","html-keyboard-response","198","221444","0.0-1.0-276.0-0.0","0","0","27070","","null","","","null","30","","","","","","","","","","","","","","","",""
"","ITI","","html-keyboard-response","199","222447","0.0-1.0-279.0","0","0","27070","","null","","","null","30","","","","","","","","","","","","","","","NaN",""
"","S1","","html-keyboard-response","200","222699","0.0-1.0-281.0","0","0","27070","","null","","","null","31","","","","","","","","","","","","","","","",""
"","ISI","","html-keyboard-response","201","223700","0.0-1.0-282.0","0","0","27070","","null","","","null","31","NaN","","","","","","","","","","","","","","",""
"","S2","","html-keyboard-response","202","223951","0.0-1.0-283.0","0","0","27070","","250","","","68","31","","d","1","31","training","adjacent","DE","4","5","R.jpg","M.jpg","1","1","1","",""
"","feedback","","html-keyboard-response","203","224952","0.0-1.0-285.0-0.0","0","0","27070","","null","","","null","31","","","","","","","","","","","","","","","",""
"","ITI","","html-keyboard-response","204","225953","0.0-1.0-288.0","0","0","27070","","null","","","null","31","","","","","","","","","","","","","","","NaN",""
"","S1","","html-keyboard-response","205","226205","0.0-1.0-290.0","0","0","27070","","null","","","null","32","","","","","","","","","","","","","","","",""
"","ISI","","html-keyboard-response","206","227207","0.0-1.0-291.0","0","0","27070","","null","","","null","32","NaN","","","","","","","","","","","","","","",""
"","S2","","html-keyboard-response","207","227429","0.0-1.0-292.0","0","0","27070","","221","","","75","32","","k","1","32","training","adjacent","AB","1","2","O.jpg","L.jpg","0","1","0","",""
"","feedback","","html-keyboard-response","208","228430","0.0-1.0-294.0-0.0","0","0","27070","","null","","","null","32","","","","","","","","","","","","","","","",""
"","time_out","","html-keyboard-response","209","230432","0.0-1.0-296.0-0.0","0","0","27070","","null","","","null","32","","","","","","","","","","","","","","","",""
"","ITI","","html-keyboard-response","210","231434","0.0-1.0-297.0","0","0","27070","","null","","","null","32","","","","","","","","","","","","","","","NaN",""
"","S1","","html-keyboard-response","211","231686","0.0-1.0-299.0","0","0","27070","","null","","","null","33","","","","","","","","","","","","","","","",""
"","ISI","","html-keyboard-response","212","232687","0.0-1.0-300.0","0","0","27070","","null","","","null","33","NaN","","","","","","","","","","","","","","",""
"","S2","","html-keyboard-response","213","232906","0.0-1.0-301.0","0","0","27070","","217","","","68","33","","d","1","33","training","adjacent","CD","3","4","P.jpg","R.jpg","1","1","1","",""
"","feedback","","html-keyboard-response","214","233909","0.0-1.0-303.0-0.0","0","0","27070","","null","","","null","33","","","","","","","","","","","","","","","",""
"","ITI","","html-keyboard-response","215","234910","0.0-1.0-306.0","0","0","27070","","null","","","null","33","","","","","","","","","","","","","","","NaN",""
"","S1","","html-keyboard-response","216","235162","0.0-1.0-308.0","0","0","27070","","null","","","null","34","","","","","","","","","","","","","","","",""
"","ISI","","html-keyboard-response","217","236163","0.0-1.0-309.0","0","0","27070","","null","","","null","34","NaN","","","","","","","","","","","","","","",""
"","S2","","html-keyboard-response","218","236399","0.0-1.0-310.0","0","0","27070","","234","","","75","34","","k","1","34","training","adjacent","AB","1","2","O.jpg","L.jpg","0","1","0","",""
"","feedback","","html-keyboard-response","219","237401","0.0-1.0-312.0-0.0","0","0","27070","","null","","","null","34","","","","","","","","","","","","","","","",""
"","time_out","","html-keyboard-response","220","239402","0.0-1.0-314.0-0.0","0","0","27070","","null","","","null","34","","","","","","","","","","","","","","","",""
"","ITI","","html-keyboard-response","221","240404","0.0-1.0-315.0","0","0","27070","","null","","","null","34","","","","","","","","","","","","","","","NaN",""
"","S1","","html-keyboard-response","222","240656","0.0-1.0-317.0","0","0","27070","","null","","","null","35","","","","","","","","","","","","","","","",""
"","ISI","","html-keyboard-response","223","241657","0.0-1.0-318.0","0","0","27070","","null","","","null","35","NaN","","","","","","","","","","","","","","",""
"","S2","","html-keyboard-response","224","241886","0.0-1.0-319.0","0","0","27070","","227","","","68","35","","d","1","35","training","adjacent","BC","2","3","L.jpg","P.jpg","1","1","1","",""
"","feedback","","html-keyboard-response","225","242889","0.0-1.0-321.0-0.0","0","0","27070","","null","","","null","35","","","","","","","","","","","","","","","",""
"","ITI","","html-keyboard-response","226","243891","0.0-1.0-324.0","0","0","27070","","null","","","null","35","","","","","","","","","","","","","","","NaN",""
"","S1","","html-keyboard-response","227","244142","0.0-1.0-326.0","0","0","27070","","null","","","null","36","","","","","","","","","","","","","","","",""
"","ISI","","html-keyboard-response","228","245144","0.0-1.0-327.0","0","0","27070","","null","","","null","36","NaN","","","","","","","","","","","","","","",""
"","S2","","html-keyboard-response","229","245365","0.0-1.0-328.0","0","0","27070","","221","","","68","36","","d","1","36","training","adjacent","EF","5","6","M.jpg","N.jpg","1","1","1","",""
"","feedback","","html-keyboard-response","230","246367","0.0-1.0-330.0-0.0","0","0","27070","","null","","","null","36","","","","","","","","","","","","","","","",""
"","ITI","","html-keyboard-response","231","247369","0.0-1.0-333.0","0","0","27070","","null","","","null","36","","","","","","","","","","","","","","","NaN",""
"","S1","","html-keyboard-response","232","247621","0.0-1.0-335.0","0","0","27070","","null","","","null","37","","","","","","","","","","","","","","","",""
"","ISI","","html-keyboard-response","233","248623","0.0-1.0-336.0","0","0","27070","","null","","","null","37","NaN","","","","","","","","","","","","","","",""
"","S2","","html-keyboard-response","234","248844","0.0-1.0-337.0","0","0","27070","","221","","","68","37","","d","1","37","training","adjacent","FE","6","5","N.jpg","M.jpg","1","0","0","",""
"","feedback","","html-keyboard-response","235","249846","0.0-1.0-339.0-0.0","0","0","27070","","null","","","null","37","","","","","","","","","","","","","","","",""
"","time_out","","html-keyboard-response","236","251848","0.0-1.0-341.0-0.0","0","0","27070","","null","","","null","37","","","","","","","","","","","","","","","",""
"","ITI","","html-keyboard-response","237","252850","0.0-1.0-342.0","0","0","27070","","null","","","null","37","","","","","","","","","","","","","","","NaN",""
"","S1","","html-keyboard-response","238","253101","0.0-1.0-344.0","0","0","27070","","null","","","null","38","","","","","","","","","","","","","","","",""
"","ISI","","html-keyboard-response","239","254103","0.0-1.0-345.0","0","0","27070","","null","","","null","38","NaN","","","","","","","","","","","","","","",""
"","S2","","html-keyboard-response","240","254310","0.0-1.0-346.0","0","0","27070","","206","","","68","38","","d","1","38","training","adjacent","CD","3","4","P.jpg","R.jpg","1","1","1","",""
"","feedback","","html-keyboard-response","241","255312","0.0-1.0-348.0-0.0","0","0","27070","","null","","","null","38","","","","","","","","","","","","","","","",""
"","ITI","","html-keyboard-response","242","256314","0.0-1.0-351.0","0","0","27070","","null","","","null","38","","","","","","","","","","","","","","","NaN",""
"","S1","","html-keyboard-response","243","256565","0.0-1.0-353.0","0","0","27070","","null","","","null","39","","","","","","","","","","","","","","","",""
"","ISI","","html-keyboard-response","244","257567","0.0-1.0-354.0","0","0","27070","","null","","","null","39","NaN","","","","","","","","","","","","","","",""
"","S2","","html-keyboard-response","245","257809","0.0-1.0-355.0","0","0","27070","","240","","","68","39","","d","1","39","training","adjacent","BA","2","1","L.jpg","O.jpg","1","0","0","",""
"","feedback","","html-keyboard-response","246","258810","0.0-1.0-357.0-0.0","0","0","27070","","null","","","null","39","","","","","","","","","","","","","","","",""
"","time_out","","html-keyboard-response","247","260812","0.0-1.0-359.0-0.0","0","0","27070","","null","","","null","39","","","","","","","","","","","","","","","",""
"","ITI","","html-keyboard-response","248","261814","0.0-1.0-360.0","0","0","27070","","null","","","null","39","","","","","","","","","","","","","","","NaN",""
"","S1","","html-keyboard-response","249","262066","0.0-1.0-362.0","0","0","27070","","null","","","null","40","","","","","","","","","","","","","","","",""
"","ISI","","html-keyboard-response","250","263067","0.0-1.0-363.0","0","0","27070","","null","","","null","40","NaN","","","","","","","","","","","","","","",""
"","S2","","html-keyboard-response","251","263312","0.0-1.0-364.0","0","0","27070","","243","","","68","40","","d","1","40","training","adjacent","CD","3","4","P.jpg","R.jpg","1","1","1","",""
"","feedback","","html-keyboard-response","252","264315","0.0-1.0-366.0-0.0","0","0","27070","","null","","","null","40","","","","","","","","","","","","","","","",""
"","ITI","","html-keyboard-response","253","265316","0.0-1.0-369.0","0","0","27070","","null","","","null","40","","","","","","","","","","","","","","","NaN",""
"","S1","","html-keyboard-response","254","265568","0.0-1.0-371.0","0","0","27070","","null","","","null","41","","","","","","","","","","","","","","","",""
"","ISI","","html-keyboard-response","255","266569","0.0-1.0-372.0","0","0","27070","","null","","","null","41","NaN","","","","","","","","","","","","","","",""
"","S2","","html-keyboard-response","256","266821","0.0-1.0-373.0","0","0","27070","","null","","","null","41","","NaN","","","","","","","","","","","","","",""
"","response","","html-keyboard-response","257","266830","0.0-1.0-374.0-0.0","0","0","27070","","7","","","68","41","","","1","41","training","adjacent","FG","6","7","N.jpg","Q.jpg","1","1","1","",""
"","feedback","","html-keyboard-response","258","267832","0.0-1.0-375.0-0.0","0","0","27070","","null","","","null","41","","","","","","","","","","","","","","","",""
"","ITI","","html-keyboard-response","259","268834","0.0-1.0-378.0","0","0","27070","","null","","","null","41","","","","","","","","","","","","","","","NaN",""
"","S1","","html-keyboard-response","260","269086","0.0-1.0-380.0","0","0","27070","","null","","","null","42","","","","","","","","","","","","","","","",""
"","ISI","","html-keyboard-response","261","270088","0.0-1.0-381.0","0","0","27070","","null","","","null","42","NaN","","","","","","","","","","","","","","",""
"","S2","","html-keyboard-response","262","270325","0.0-1.0-382.0","0","0","27070","","235","","","68","42","","d","1","42","training","adjacent","FG","6","7","N.jpg","Q.jpg","1","1","1","",""
"","feedback","","html-keyboard-response","263","271327","0.0-1.0-384.0-0.0","0","0","27070","","null","","","null","42","","","","","","","","","","","","","","","",""
"","ITI","","html-keyboard-response","264","272328","0.0-1.0-387.0","0","0","27070","","null","","","null","42","","","","","","","","","","","","","","","NaN",""
"","S1","","html-keyboard-response","265","272580","0.0-1.0-389.0","0","0","27070","","null","","","null","43","","","","","","","","","","","","","","","",""
"","ISI","","html-keyboard-response","266","273582","0.0-1.0-390.0","0","0","27070","","null","","","null","43","NaN","","","","","","","","","","","","","","",""
"","S2","","html-keyboard-response","267","273800","0.0-1.0-391.0","0","0","27070","","218","","","68","43","","d","1","43","training","adjacent","ED","5","4","M.jpg","R.jpg","1","0","0","",""
"","feedback","","html-keyboard-response","268","274803","0.0-1.0-393.0-0.0","0","0","27070","","null","","","null","43","","","","","","","","","","","","","","","",""
"","time_out","","html-keyboard-response","269","276805","0.0-1.0-395.0-0.0","0","0","27070","","null","","","null","43","","","","","","","","","","","","","","","",""
"","ITI","","html-keyboard-response","270","277807","0.0-1.0-396.0","0","0","27070","","null","","","null","43","","","","","","","","","","","","","","","NaN",""
"","S1","","html-keyboard-response","271","278059","0.0-1.0-398.0","0","0","27070","","null","","","null","44","","","","","","","","","","","","","","","",""
"","ISI","","html-keyboard-response","272","279061","0.0-1.0-399.0","0","0","27070","","null","","","null","44","NaN","","","","","","","","","","","","","","",""
"","S2","","html-keyboard-response","273","279276","0.0-1.0-400.0","0","0","27070","","215","","","68","44","","d","1","44","training","adjacent","EF","5","6","M.jpg","N.jpg","1","1","1","",""
"","feedback","","html-keyboard-response","274","280278","0.0-1.0-402.0-0.0","0","0","27070","","null","","","null","44","","","","","","","","","","","","","","","",""
"","ITI","","html-keyboard-response","275","281279","0.0-1.0-405.0","0","0","27070","","null","","","null","44","","","","","","","","","","","","","","","NaN",""
"","S1","","html-keyboard-response","276","281531","0.0-1.0-407.0","0","0","27070","","null","","","null","45","","","","","","","","","","","","","","","",""
"","ISI","","html-keyboard-response","277","282533","0.0-1.0-408.0","0","0","27070","","null","","","null","45","NaN","","","","","","","","","","","","","","",""
"","S2","","html-keyboard-response","278","282739","0.0-1.0-409.0","0","0","27070","","204","","","68","45","","d","1","45","training","adjacent","DC","4","3","R.jpg","P.jpg","1","0","0","",""
"","feedback","","html-keyboard-response","279","283741","0.0-1.0-411.0-0.0","0","0","27070","","null","","","null","45","","","","","","","","","","","","","","","",""
"","time_out","","html-keyboard-response","280","285743","0.0-1.0-413.0-0.0","0","0","27070","","null","","","null","45","","","","","","","","","","","","","","","",""
"","ITI","","html-keyboard-response","281","286745","0.0-1.0-414.0","0","0","27070","","null","","","null","45","","","","","","","","","","","","","","","NaN",""
"","S1","","html-keyboard-response","282","286997","0.0-1.0-416.0","0","0","27070","","null","","","null","46","","","","","","","","","","","","","","","",""
"","ISI","","html-keyboard-response","283","287999","0.0-1.0-417.0","0","0","27070","","null","","","null","46","NaN","","","","","","","","","","","","","","",""
"","S2","","html-keyboard-response","284","288223","0.0-1.0-418.0","0","0","27070","","223","","","68","46","","d","1","46","training","adjacent","ED","5","4","M.jpg","R.jpg","1","0","0","",""
"","feedback","","html-keyboard-response","285","289224","0.0-1.0-420.0-0.0","0","0","27070","","null","","","null","46","","","","","","","","","","","","","","","",""
"","time_out","","html-keyboard-response","286","291226","0.0-1.0-422.0-0.0","0","0","27070","","null","","","null","46","","","","","","","","","","","","","","","",""
"","ITI","","html-keyboard-response","287","292228","0.0-1.0-423.0","0","0","27070","","null","","","null","46","","","","","","","","","","","","","","","NaN",""
"","S1","","html-keyboard-response","288","292480","0.0-1.0-425.0","0","0","27070","","null","","","null","47","","","","","","","","","","","","","","","",""
"","ISI","","html-keyboard-response","289","293481","0.0-1.0-426.0","0","0","27070","","null","","","null","47","NaN","","","","","","","","","","","","","","",""
"","S2","","html-keyboard-response","290","293663","0.0-1.0-427.0","0","0","27070","","180","","","68","47","","d","1","47","training","adjacent","FE","6","5","N.jpg","M.jpg","1","0","0","",""
"","feedback","","html-keyboard-response","291","294666","0.0-1.0-429.0-0.0","0","0","27070","","null","","","null","47","","","","","","","","","","","","","","","",""
"","time_out","","html-keyboard-response","292","296667","0.0-1.0-431.0-0.0","0","0","27070","","null","","","null","47","","","","","","","","","","","","","","","",""
"","ITI","","html-keyboard-response","293","297668","0.0-1.0-432.0","0","0","27070","","null","","","null","47","","","","","","","","","","","","","","","NaN",""
"","block_over","","html-keyboard-response","294","303044","0.0-1.0-433.0-0.0","0","0","27070","","5374","","","32","47","","","","","","","","","","","","","","","",""
"","S1","","html-keyboard-response","295","303295","0.0-1.0-434.0","0","0","27070","","null","","","null","48","","","","","","","","","","","","","","","",""
"","ISI","","html-keyboard-response","296","304297","0.0-1.0-435.0","0","0","27070","","null","","","null","48","NaN","","","","","","","","","","","","","","",""
"","S2","","html-keyboard-response","297","304529","0.0-1.0-436.0","0","0","27070","","231","","","68","48","","d","2","48","training","adjacent","FE","6","5","N.jpg","M.jpg","1","0","0","",""
"","feedback","","html-keyboard-response","298","305531","0.0-1.0-438.0-0.0","0","0","27070","","null","","","null","48","","","","","","","","","","","","","","","",""
"","time_out","","html-keyboard-response","299","307533","0.0-1.0-440.0-0.0","0","0","27070","","null","","","null","48","","","","","","","","","","","","","","","",""
"","ITI","","html-keyboard-response","300","308534","0.0-1.0-441.0","0","0","27070","","null","","","null","48","","","","","","","","","","","","","","","NaN",""
"","S1","","html-keyboard-response","301","308786","0.0-1.0-443.0","0","0","27070","","null","","","null","49","","","","","","","","","","","","","","","",""
"","ISI","","html-keyboard-response","302","309795","0.0-1.0-444.0","0","0","27070","","null","","","null","49","NaN","","","","","","","","","","","","","","",""
"","S2","","html-keyboard-response","303","310007","0.0-1.0-445.0","0","0","27070","","212","","","68","49","","d","2","49","training","adjacent","DE","4","5","R.jpg","M.jpg","1","1","1","",""
"","feedback","","html-keyboard-response","304","311009","0.0-1.0-447.0-0.0","0","0","27070","","null","","","null","49","","","","","","","","","","","","","","","",""
"","ITI","","html-keyboard-response","305","312012","0.0-1.0-450.0","0","0","27070","","null","","","null","49","","","","","","","","","","","","","","","NaN",""
"","S1","","html-keyboard-response","306","312264","0.0-1.0-452.0","0","0","27070","","null","","","null","50","","","","","","","","","","","","","","","",""
"","ISI","","html-keyboard-response","307","313265","0.0-1.0-453.0","0","0","27070","","null","","","null","50","NaN","","","","","","","","","","","","","","",""
"","S2","","html-keyboard-response","308","313512","0.0-1.0-454.0","0","0","27070","","245","","","68","50","","d","2","50","training","adjacent","FG","6","7","N.jpg","Q.jpg","1","1","1","",""
"","feedback","","html-keyboard-response","309","314513","0.0-1.0-456.0-0.0","0","0","27070","","null","","","null","50","","","","","","","","","","","","","","","",""
"","ITI","","html-keyboard-response","310","315515","0.0-1.0-459.0","0","0","27070","","null","","","null","50","","","","","","","","","","","","","","","NaN",""
"","S1","","html-keyboard-response","311","315767","0.0-1.0-461.0","0","0","27070","","null","","","null","51","","","","","","","","","","","","","","","",""
"","ISI","","html-keyboard-response","312","316769","0.0-1.0-462.0","0","0","27070","","null","","","null","51","NaN","","","","","","","","","","","","","","",""
"","S2","","html-keyboard-response","313","316983","0.0-1.0-463.0","0","0","27070","","213","","","68","51","","d","2","51","training","adjacent","DC","4","3","R.jpg","P.jpg","1","0","0","",""
"","feedback","","html-keyboard-response","314","317984","0.0-1.0-465.0-0.0","0","0","27070","","null","","","null","51","","","","","","","","","","","","","","","",""
"","time_out","","html-keyboard-response","315","319987","0.0-1.0-467.0-0.0","0","0","27070","","null","","","null","51","","","","","","","","","","","","","","","",""
"","ITI","","html-keyboard-response","316","320989","0.0-1.0-468.0","0","0","27070","","null","","","null","51","","","","","","","","","","","","","","","NaN",""
"","S1","","html-keyboard-response","317","321241","0.0-1.0-470.0","0","0","27070","","null","","","null","52","","","","","","","","","","","","","","","",""
"","ISI","","html-keyboard-response","318","322243","0.0-1.0-471.0","0","0","27070","","null","","","null","52","NaN","","","","","","","","","","","","","","",""
"","S2","","html-keyboard-response","319","322482","0.0-1.0-472.0","0","0","27070","","237","","","68","52","","d","2","52","training","adjacent","CB","3","2","P.jpg","L.jpg","1","0","0","",""
"","feedback","","html-keyboard-response","320","323483","0.0-1.0-474.0-0.0","0","0","27070","","null","","","null","52","","","","","","","","","","","","","","","",""
"","time_out","","html-keyboard-response","321","325496","0.0-1.0-476.0-0.0","0","0","27070","","null","","","null","52","","","","","","","","","","","","","","","",""
"","ITI","","html-keyboard-response","322","326497","0.0-1.0-477.0","0","0","27070","","null","","","null","52","","","","","","","","","","","","","","","NaN",""
"","S1","","html-keyboard-response","323","326749","0.0-1.0-479.0","0","0","27070","","null","","","null","53","","","","","","","","","","","","","","","",""
"","ISI","","html-keyboard-response","324","327751","0.0-1.0-480.0","0","0","27070","","null","","","null","53","NaN","","","","","","","","","","","","","","",""
"","S2","","html-keyboard-response","325","327950","0.0-1.0-481.0","0","0","27070","","198","","","68","53","","d","2","53","training","adjacent","GF","7","6","Q.jpg","N.jpg","1","0","0","",""
"","feedback","","html-keyboard-response","326","328952","0.0-1.0-483.0-0.0","0","0","27070","","null","","","null","53","","","","","","","","","","","","","","","",""
"","time_out","","html-keyboard-response","327","330954","0.0-1.0-485.0-0.0","0","0","27070","","null","","","null","53","","","","","","","","","","","","","","","",""
"","ITI","","html-keyboard-response","328","331957","0.0-1.0-486.0","0","0","27070","","null","","","null","53","","","","","","","","","","","","","","","NaN",""
"","S1","","html-keyboard-response","329","332208","0.0-1.0-488.0","0","0","27070","","null","","","null","54","","","","","","","","","","","","","","","",""
"","ISI","","html-keyboard-response","330","333210","0.0-1.0-489.0","0","0","27070","","null","","","null","54","NaN","","","","","","","","","","","","","","",""
"","S2","","html-keyboard-response","331","333441","0.0-1.0-490.0","0","0","27070","","230","","","68","54","","d","2","54","training","adjacent","EF","5","6","M.jpg","N.jpg","1","1","1","",""
"","feedback","","html-keyboard-response","332","334443","0.0-1.0-492.0-0.0","0","0","27070","","null","","","null","54","","","","","","","","","","","","","","","",""
"","ITI","","html-keyboard-response","333","335445","0.0-1.0-495.0","0","0","27070","","null","","","null","54","","","","","","","","","","","","","","","NaN",""
"","S1","","html-keyboard-response","334","335698","0.0-1.0-497.0","0","0","27070","","null","","","null","55","","","","","","","","","","","","","","","",""
"","ISI","","html-keyboard-response","335","336699","0.0-1.0-498.0","0","0","27070","","null","","","null","55","NaN","","","","","","","","","","","","","","",""
"","S2","","html-keyboard-response","336","336932","0.0-1.0-499.0","0","0","27070","","232","","","68","55","","d","2","55","training","adjacent","AB","1","2","O.jpg","L.jpg","1","1","1","",""
"","feedback","","html-keyboard-response","337","337935","0.0-1.0-501.0-0.0","0","0","27070","","null","","","null","55","","","","","","","","","","","","","","","",""
"","ITI","","html-keyboard-response","338","338936","0.0-1.0-504.0","0","0","27070","","null","","","null","55","","","","","","","","","","","","","","","NaN",""
"","S1","","html-keyboard-response","339","339188","0.0-1.0-506.0","0","0","27070","","null","","","null","56","","","","","","","","","","","","","","","",""
"","ISI","","html-keyboard-response","340","340189","0.0-1.0-507.0","0","0","27070","","null","","","null","56","NaN","","","","","","","","","","","","","","",""
"","S2","","html-keyboard-response","341","340379","0.0-1.0-508.0","0","0","27070","","188","","","68","56","","d","2","56","training","adjacent","FE","6","5","N.jpg","M.jpg","1","0","0","",""
"","feedback","","html-keyboard-response","342","341380","0.0-1.0-510.0-0.0","0","0","27070","","null","","","null","56","","","","","","","","","","","","","","","",""
"","time_out","","html-keyboard-response","343","343382","0.0-1.0-512.0-0.0","0","0","27070","","null","","","null","56","","","","","","","","","","","","","","","",""
"","ITI","","html-keyboard-response","344","344384","0.0-1.0-513.0","0","0","27070","","null","","","null","56","","","","","","","","","","","","","","","NaN",""
"","S1","","html-keyboard-response","345","344636","0.0-1.0-515.0","0","0","27070","","null","","","null","57","","","","","","","","","","","","","","","",""
"","ISI","","html-keyboard-response","346","345637","0.0-1.0-516.0","0","0","27070","","null","","","null","57","NaN","","","","","","","","","","","","","","",""
"","S2","","html-keyboard-response","347","345844","0.0-1.0-517.0","0","0","27070","","205","","","68","57","","d","2","57","training","adjacent","BA","2","1","L.jpg","O.jpg","1","0","0","",""
"","feedback","","html-keyboard-response","348","346845","0.0-1.0-519.0-0.0","0","0","27070","","null","","","null","57","","","","","","","","","","","","","","","",""
"","time_out","","html-keyboard-response","349","348848","0.0-1.0-521.0-0.0","0","0","27070","","null","","","null","57","","","","","","","","","","","","","","","",""
"","ITI","","html-keyboard-response","350","349850","0.0-1.0-522.0","0","0","27070","","null","","","null","57","","","","","","","","","","","","","","","NaN",""
"","S1","","html-keyboard-response","351","350102","0.0-1.0-524.0","0","0","27070","","null","","","null","58","","","","","","","","","","","","","","","",""
"","ISI","","html-keyboard-response","352","351103","0.0-1.0-525.0","0","0","27070","","null","","","null","58","NaN","","","","","","","","","","","","","","",""
"","S2","","html-keyboard-response","353","351316","0.0-1.0-526.0","0","0","27070","","212","","","68","58","","d","2","58","training","adjacent","AB","1","2","O.jpg","L.jpg","1","1","1","",""
"","feedback","","html-keyboard-response","354","352317","0.0-1.0-528.0-0.0","0","0","27070","","null","","","null","58","","","","","","","","","","","","","","","",""
"","ITI","","html-keyboard-response","355","353319","0.0-1.0-531.0","0","0","27070","","null","","","null","58","","","","","","","","","","","","","","","NaN",""
"","S1","","html-keyboard-response","356","353570","0.0-1.0-533.0","0","0","27070","","null","","","null","59","","","","","","","","","","","","","","","",""
"","ISI","","html-keyboard-response","357","354572","0.0-1.0-534.0","0","0","27070","","null","","","null","59","NaN","","","","","","","","","","","","","","",""
"","S2","","html-keyboard-response","358","354818","0.0-1.0-535.0","0","0","27070","","245","","","68","59","","d","2","59","training","adjacent","DE","4","5","R.jpg","M.jpg","1","1","1","",""
"","feedback","","html-keyboard-response","359","355820","0.0-1.0-537.0-0.0","0","0","27070","","null","","","null","59","","","","","","","","","","","","","","","",""
"","ITI","","html-keyboard-response","360","356821","0.0-1.0-540.0","0","0","27070","","null","","","null","59","","","","","","","","","","","","","","","NaN",""
"","S1","","html-keyboard-response","361","357073","0.0-1.0-542.0","0","0","27070","","null","","","null","60","","","","","","","","","","","","","","","",""
"","ISI","","html-keyboard-response","362","358075","0.0-1.0-543.0","0","0","27070","","null","","","null","60","NaN","","","","","","","","","","","","","","",""
"","S2","","html-keyboard-response","363","358290","0.0-1.0-544.0","0","0","27070","","213","","","68","60","","d","2","60","training","adjacent","GF","7","6","Q.jpg","N.jpg","1","0","0","",""
"","feedback","","html-keyboard-response","364","359291","0.0-1.0-546.0-0.0","0","0","27070","","null","","","null","60","","","","","","","","","","","","","","","",""
"","time_out","","html-keyboard-response","365","361293","0.0-1.0-548.0-0.0","0","0","27070","","null","","","null","60","","","","","","","","","","","","","","","",""
"","ITI","","html-keyboard-response","366","362295","0.0-1.0-549.0","0","0","27070","","null","","","null","60","","","","","","","","","","","","","","","NaN",""
"","S1","","html-keyboard-response","367","362546","0.0-1.0-551.0","0","0","27070","","null","","","null","61","","","","","","","","","","","","","","","",""
"","ISI","","html-keyboard-response","368","363548","0.0-1.0-552.0","0","0","27070","","null","","","null","61","NaN","","","","","","","","","","","","","","",""
"","S2","","html-keyboard-response","369","363737","0.0-1.0-553.0","0","0","27070","","189","","","68","61","","d","2","61","training","adjacent","AB","1","2","O.jpg","L.jpg","1","1","1","",""
"","feedback","","html-keyboard-response","370","364739","0.0-1.0-555.0-0.0","0","0","27070","","null","","","null","61","","","","","","","","","","","","","","","",""
"","ITI","","html-keyboard-response","371","365740","0.0-1.0-558.0","0","0","27070","","null","","","null","61","","","","","","","","","","","","","","","NaN",""
"","S1","","html-keyboard-response","372","365991","0.0-1.0-560.0","0","0","27070","","null","","","null","62","","","","","","","","","","","","","","","",""
"","ISI","","html-keyboard-response","373","366993","0.0-1.0-561.0","0","0","27070","","null","","","null","62","NaN","","","","","","","","","","","","","","",""
"","S2","","html-keyboard-response","374","367232","0.0-1.0-562.0","0","0","27070","","237","","","68","62","","d","2","62","training","adjacent","FG","6","7","N.jpg","Q.jpg","1","1","1","",""
"","feedback","","html-keyboard-response","375","368234","0.0-1.0-564.0-0.0","0","0","27070","","null","","","null","62","","","","","","","","","","","","","","","",""
"","ITI","","html-keyboard-response","376","369236","0.0-1.0-567.0","0","0","27070","","null","","","null","62","","","","","","","","","","","","","","","NaN",""
"","S1","","html-keyboard-response","377","369487","0.0-1.0-569.0","0","0","27070","","null","","","null","63","","","","","","","","","","","","","","","",""
"","ISI","","html-keyboard-response","378","370489","0.0-1.0-570.0","0","0","27070","","null","","","null","63","NaN","","","","","","","","","","","","","","",""
"","S2","","html-keyboard-response","379","370717","0.0-1.0-571.0","0","0","27070","","227","","","68","63","","d","2","63","training","adjacent","DE","4","5","R.jpg","M.jpg","1","1","1","",""
"","feedback","","html-keyboard-response","380","371719","0.0-1.0-573.0-0.0","0","0","27070","","null","","","null","63","","","","","","","","","","","","","","","",""
"","ITI","","html-keyboard-response","381","372721","0.0-1.0-576.0","0","0","27070","","null","","","null","63","","","","","","","","","","","","","","","NaN",""
"","S1","","html-keyboard-response","382","372973","0.0-1.0-578.0","0","0","27070","","null","","","null","64","","","","","","","","","","","","","","","",""
"","ISI","","html-keyboard-response","383","373974","0.0-1.0-579.0","0","0","27070","","null","","","null","64","NaN","","","","","","","","","","","","","","",""
"","S2","","html-keyboard-response","384","374190","0.0-1.0-580.0","0","0","27070","","214","","","68","64","","d","2","64","training","adjacent","AB","1","2","O.jpg","L.jpg","1","1","1","",""
"","feedback","","html-keyboard-response","385","375191","0.0-1.0-582.0-0.0","0","0","27070","","null","","","null","64","","","","","","","","","","","","","","","",""
"","ITI","","html-keyboard-response","386","376193","0.0-1.0-585.0","0","0","27070","","null","","","null","64","","","","","","","","","","","","","","","NaN",""
"","S1","","html-keyboard-response","387","376444","0.0-1.0-587.0","0","0","27070","","null","","","null","65","","","","","","","","","","","","","","","",""
"","ISI","","html-keyboard-response","388","377446","0.0-1.0-588.0","0","0","27070","","null","","","null","65","NaN","","","","","","","","","","","","","","",""
"","S2","","html-keyboard-response","389","377668","0.0-1.0-589.0","0","0","27070","","220","","","68","65","","d","2","65","training","adjacent","FE","6","5","N.jpg","M.jpg","1","0","0","",""
"","feedback","","html-keyboard-response","390","378669","0.0-1.0-591.0-0.0","0","0","27070","","null","","","null","65","","","","","","","","","","","","","","","",""
"","time_out","","html-keyboard-response","391","380671","0.0-1.0-593.0-0.0","0","0","27070","","null","","","null","65","","","","","","","","","","","","","","","",""
"","ITI","","html-keyboard-response","392","381673","0.0-1.0-594.0","0","0","27070","","null","","","null","65","","","","","","","","","","","","","","","NaN",""
"","S1","","html-keyboard-response","393","381925","0.0-1.0-596.0","0","0","27070","","null","","","null","66","","","","","","","","","","","","","","","",""
"","ISI","","html-keyboard-response","394","382927","0.0-1.0-597.0","0","0","27070","","null","","","null","66","NaN","","","","","","","","","","","","","","",""
"","S2","","html-keyboard-response","395","383139","0.0-1.0-598.0","0","0","27070","","210","","","68","66","","d","2","66","training","adjacent","FG","6","7","N.jpg","Q.jpg","1","1","1","",""
"","feedback","","html-keyboard-response","396","384141","0.0-1.0-600.0-0.0","0","0","27070","","null","","","null","66","","","","","","","","","","","","","","","",""
"","ITI","","html-keyboard-response","397","385143","0.0-1.0-603.0","0","0","27070","","null","","","null","66","","","","","","","","","","","","","","","NaN",""
"","S1","","html-keyboard-response","398","385394","0.0-1.0-605.0","0","0","27070","","null","","","null","67","","","","","","","","","","","","","","","",""
"","ISI","","html-keyboard-response","399","386396","0.0-1.0-606.0","0","0","27070","","null","","","null","67","NaN","","","","","","","","","","","","","","",""
"","S2","","html-keyboard-response","400","386602","0.0-1.0-607.0","0","0","27070","","205","","","68","67","","d","2","67","training","adjacent","CD","3","4","P.jpg","R.jpg","1","1","1","",""
"","feedback","","html-keyboard-response","401","387604","0.0-1.0-609.0-0.0","0","0","27070","","null","","","null","67","","","","","","","","","","","","","","","",""
"","ITI","","html-keyboard-response","402","388605","0.0-1.0-612.0","0","0","27070","","null","","","null","67","","","","","","","","","","","","","","","NaN",""
"","S1","","html-keyboard-response","403","388857","0.0-1.0-614.0","0","0","27070","","null","","","null","68","","","","","","","","","","","","","","","",""
"","ISI","","html-keyboard-response","404","389858","0.0-1.0-615.0","0","0","27070","","null","","","null","68","NaN","","","","","","","","","","","","","","",""
"","S2","","html-keyboard-response","405","390083","0.0-1.0-616.0","0","0","27070","","223","","","68","68","","d","2","68","training","adjacent","FG","6","7","N.jpg","Q.jpg","1","1","1","",""
"","feedback","","html-keyboard-response","406","391084","0.0-1.0-618.0-0.0","0","0","27070","","null","","","null","68","","","","","","","","","","","","","","","",""
"","ITI","","html-keyboard-response","407","392086","0.0-1.0-621.0","0","0","27070","","null","","","null","68","","","","","","","","","","","","","","","NaN",""
"","S1","","html-keyboard-response","408","392338","0.0-1.0-623.0","0","0","27070","","null","","","null","69","","","","","","","","","","","","","","","",""
"","ISI","","html-keyboard-response","409","393339","0.0-1.0-624.0","0","0","27070","","null","","","null","69","NaN","","","","","","","","","","","","","","",""
"","S2","","html-keyboard-response","410","393546","0.0-1.0-625.0","0","0","27070","","206","","","68","69","","d","2","69","training","adjacent","BA","2","1","L.jpg","O.jpg","1","0","0","",""
"","feedback","","html-keyboard-response","411","394549","0.0-1.0-627.0-0.0","0","0","27070","","null","","","null","69","","","","","","","","","","","","","","","",""
"","time_out","","html-keyboard-response","412","396563","0.0-1.0-629.0-0.0","0","0","27070","","null","","","null","69","","","","","","","","","","","","","","","",""
"","ITI","","html-keyboard-response","413","397565","0.0-1.0-630.0","0","0","27070","","null","","","null","69","","","","","","","","","","","","","","","NaN",""
"","S1","","html-keyboard-response","414","397816","0.0-1.0-632.0","0","0","27070","","null","","","null","70","","","","","","","","","","","","","","","",""
"","ISI","","html-keyboard-response","415","398818","0.0-1.0-633.0","0","0","27070","","null","","","null","70","NaN","","","","","","","","","","","","","","",""
"","S2","","html-keyboard-response","416","399010","0.0-1.0-634.0","0","0","27070","","192","","","68","70","","d","2","70","training","adjacent","CB","3","2","P.jpg","L.jpg","1","0","0","",""
"","feedback","","html-keyboard-response","417","400013","0.0-1.0-636.0-0.0","0","0","27070","","null","","","null","70","","","","","","","","","","","","","","","",""
"","time_out","","html-keyboard-response","418","402015","0.0-1.0-638.0-0.0","0","0","27070","","null","","","null","70","","","","","","","","","","","","","","","",""
"","ITI","","html-keyboard-response","419","403017","0.0-1.0-639.0","0","0","27070","","null","","","null","70","","","","","","","","","","","","","","","NaN",""
"","S1","","html-keyboard-response","420","403269","0.0-1.0-641.0","0","0","27070","","null","","","null","71","","","","","","","","","","","","","","","",""
"","ISI","","html-keyboard-response","421","404271","0.0-1.0-642.0","0","0","27070","","null","","","null","71","NaN","","","","","","","","","","","","","","",""
"","S2","","html-keyboard-response","422","404501","0.0-1.0-643.0","0","0","27070","","229","","","68","71","","d","2","71","training","adjacent","GF","7","6","Q.jpg","N.jpg","1","0","0","",""
"","feedback","","html-keyboard-response","423","405503","0.0-1.0-645.0-0.0","0","0","27070","","null","","","null","71","","","","","","","","","","","","","","","",""
"","time_out","","html-keyboard-response","424","407505","0.0-1.0-647.0-0.0","0","0","27070","","null","","","null","71","","","","","","","","","","","","","","","",""
"","ITI","","html-keyboard-response","425","408506","0.0-1.0-648.0","0","0","27070","","null","","","null","71","","","","","","","","","","","","","","","NaN",""
"","S1","","html-keyboard-response","426","408758","0.0-1.0-650.0","0","0","27070","","null","","","null","72","","","","","","","","","","","","","","","",""
"","ISI","","html-keyboard-response","427","409760","0.0-1.0-651.0","0","0","27070","","null","","","null","72","NaN","","","","","","","","","","","","","","",""
"","S2","","html-keyboard-response","428","409848","0.0-1.0-652.0","0","0","27070","","87","","","68","72","","d","2","72","training","adjacent","FE","6","5","N.jpg","M.jpg","1","0","0","",""
"","feedback","","html-keyboard-response","429","410850","0.0-1.0-654.0-0.0","0","0","27070","","null","","","null","72","","","","","","","","","","","","","","","",""
"","time_out","","html-keyboard-response","430","412851","0.0-1.0-656.0-0.0","0","0","27070","","null","","","null","72","","","","","","","","","","","","","","","",""
"","ITI","","html-keyboard-response","431","413853","0.0-1.0-657.0","0","0","27070","","null","","","null","72","","","","","","","","","","","","","","","NaN",""
"","S1","","html-keyboard-response","432","414105","0.0-1.0-659.0","0","0","27070","","null","","","null","73","","","","","","","","","","","","","","","",""
"","ISI","","html-keyboard-response","433","415107","0.0-1.0-660.0","0","0","27070","","null","","","null","73","NaN","","","","","","","","","","","","","","",""
"","S2","","html-keyboard-response","434","415330","0.0-1.0-661.0","0","0","27070","","221","","","68","73","","d","2","73","training","adjacent","BC","2","3","L.jpg","P.jpg","1","1","1","",""
"","feedback","","html-keyboard-response","435","416332","0.0-1.0-663.0-0.0","0","0","27070","","null","","","null","73","","","","","","","","","","","","","","","",""
"","ITI","","html-keyboard-response","436","417334","0.0-1.0-666.0","0","0","27070","","null","","","null","73","","","","","","","","","","","","","","","NaN",""
"","S1","","html-keyboard-response","437","417586","0.0-1.0-668.0","0","0","27070","","null","","","null","74","","","","","","","","","","","","","","","",""
"","ISI","","html-keyboard-response","438","418587","0.0-1.0-669.0","0","0","27070","","null","","","null","74","NaN","","","","","","","","","","","","","","",""
"","S2","","html-keyboard-response","439","418767","0.0-1.0-670.0","0","0","27070","","178","","","68","74","","d","2","74","training","adjacent","CD","3","4","P.jpg","R.jpg","1","1","1","",""
"","feedback","","html-keyboard-response","440","419778","0.0-1.0-672.0-0.0","0","0","27070","","null","","","null","74","","","","","","","","","","","","","","","",""
"","ITI","","html-keyboard-response","441","420780","0.0-1.0-675.0","0","0","27070","","null","","","null","74","","","","","","","","","","","","","","","NaN",""
"","S1","","html-keyboard-response","442","421032","0.0-1.0-677.0","0","0","27070","","null","","","null","75","","","","","","","","","","","","","","","",""
"","ISI","","html-keyboard-response","443","422035","0.0-1.0-678.0","0","0","27070","","null","","","null","75","NaN","","","","","","","","","","","","","","",""
"","S2","","html-keyboard-response","444","422084","0.0-1.0-679.0","0","0","27070","","48","","","68","75","","d","2","75","training","adjacent","BC","2","3","L.jpg","P.jpg","1","1","1","",""
"","feedback","","html-keyboard-response","445","423086","0.0-1.0-681.0-0.0","0","0","27070","","null","","","null","75","","","","","","","","","","","","","","","",""
"","ITI","","html-keyboard-response","446","424088","0.0-1.0-684.0","0","0","27070","","null","","","null","75","","","","","","","","","","","","","","","NaN",""
"","S1","","html-keyboard-response","447","424339","0.0-1.0-686.0","0","0","27070","","null","","","null","76","","","","","","","","","","","","","","","",""
"","ISI","","html-keyboard-response","448","425342","0.0-1.0-687.0","0","0","27070","","null","","","null","76","NaN","","","","","","","","","","","","","","",""
"","S2","","html-keyboard-response","449","425556","0.0-1.0-688.0","0","0","27070","","213","","","68","76","","d","2","76","training","adjacent","BA","2","1","L.jpg","O.jpg","1","0","0","",""
"","feedback","","html-keyboard-response","450","426558","0.0-1.0-690.0-0.0","0","0","27070","","null","","","null","76","","","","","","","","","","","","","","","",""
"","time_out","","html-keyboard-response","451","428560","0.0-1.0-692.0-0.0","0","0","27070","","null","","","null","76","","","","","","","","","","","","","","","",""
"","ITI","","html-keyboard-response","452","429562","0.0-1.0-693.0","0","0","27070","","null","","","null","76","","","","","","","","","","","","","","","NaN",""
"","S1","","html-keyboard-response","453","429814","0.0-1.0-695.0","0","0","27070","","null","","","null","77","","","","","","","","","","","","","","","",""
"","ISI","","html-keyboard-response","454","430816","0.0-1.0-696.0","0","0","27070","","1002","","","68","77","d","","","","","","","","","","","","","","",""
"","S2","","html-keyboard-response","455","431069","0.0-1.0-697.0","0","0","27070","","null","","","null","77","","NaN","","","","","","","","","","","","","",""
"","response","","html-keyboard-response","456","431203","0.0-1.0-698.0-0.0","0","0","27070","","134","","","68","77","","","2","77","training","adjacent","BC","2","3","L.jpg","P.jpg","1","1","1","",""
"","feedback","","html-keyboard-response","457","432205","0.0-1.0-699.0-0.0","0","0","27070","","null","","","null","77","","","","","","","","","","","","","","","",""
"","ITI","","html-keyboard-response","458","433207","0.0-1.0-702.0","0","0","27070","","null","","","null","77","","","","","","","","","","","","","","","NaN",""
"","S1","","html-keyboard-response","459","433459","0.0-1.0-704.0","0","0","27070","","null","","","null","78","","","","","","","","","","","","","","","",""
"","ISI","","html-keyboard-response","460","434460","0.0-1.0-705.0","0","0","27070","","null","","","null","78","NaN","","","","","","","","","","","","","","",""
"","S2","","html-keyboard-response","461","434693","0.0-1.0-706.0","0","0","27070","","233","","","68","78","","d","2","78","training","adjacent","ED","5","4","M.jpg","R.jpg","1","0","0","",""
"","feedback","","html-keyboard-response","462","435696","0.0-1.0-708.0-0.0","0","0","27070","","null","","","null","78","","","","","","","","","","","","","","","",""
"","time_out","","html-keyboard-response","463","437697","0.0-1.0-710.0-0.0","0","0","27070","","null","","","null","78","","","","","","","","","","","","","","","",""
"","ITI","","html-keyboard-response","464","438699","0.0-1.0-711.0","0","0","27070","","null","","","null","78","","","","","","","","","","","","","","","NaN",""
"","S1","","html-keyboard-response","465","438952","0.0-1.0-713.0","0","0","27070","","null","","","null","79","","","","","","","","","","","","","","","",""
"","ISI","","html-keyboard-response","466","439953","0.0-1.0-714.0","0","0","27070","","null","","","null","79","NaN","","","","","","","","","","","","","","",""
"","S2","","html-keyboard-response","467","440160","0.0-1.0-715.0","0","0","27070","","205","","","68","79","","d","2","79","training","adjacent","ED","5","4","M.jpg","R.jpg","1","0","0","",""
"","feedback","","html-keyboard-response","468","441162","0.0-1.0-717.0-0.0","0","0","27070","","null","","","null","79","","","","","","","","","","","","","","","",""
"","time_out","","html-keyboard-response","469","443163","0.0-1.0-719.0-0.0","0","0","27070","","null","","","null","79","","","","","","","","","","","","","","","",""
"","ITI","","html-keyboard-response","470","444165","0.0-1.0-720.0","0","0","27070","","null","","","null","79","","","","","","","","","","","","","","","NaN",""
"","S1","","html-keyboard-response","471","444416","0.0-1.0-722.0","0","0","27070","","null","","","null","80","","","","","","","","","","","","","","","",""
"","ISI","","html-keyboard-response","472","445417","0.0-1.0-723.0","0","0","27070","","null","","","null","80","NaN","","","","","","","","","","","","","","",""
"","S2","","html-keyboard-response","473","445666","0.0-1.0-724.0","0","0","27070","","247","","","75","80","","k","2","80","training","adjacent","EF","5","6","M.jpg","N.jpg","0","1","0","",""
"","feedback","","html-keyboard-response","474","446667","0.0-1.0-726.0-0.0","0","0","27070","","null","","","null","80","","","","","","","","","","","","","","","",""
"","time_out","","html-keyboard-response","475","448669","0.0-1.0-728.0-0.0","0","0","27070","","null","","","null","80","","","","","","","","","","","","","","","",""
"","ITI","","html-keyboard-response","476","449670","0.0-1.0-729.0","0","0","27070","","null","","","null","80","","","","","","","","","","","","","","","NaN",""
"","S1","","html-keyboard-response","477","449922","0.0-1.0-731.0","0","0","27070","","null","","","null","81","","","","","","","","","","","","","","","",""
"","ISI","","html-keyboard-response","478","450924","0.0-1.0-732.0","0","0","27070","","159","","","68","81","d","","","","","","","","","","","","","","",""
"","S2","","html-keyboard-response","479","451156","0.0-1.0-733.0","0","0","27070","","231","","","68","81","","d","2","81","training","adjacent","GF","7","6","Q.jpg","N.jpg","1","0","0","",""
"","feedback","","html-keyboard-response","480","452158","0.0-1.0-735.0-0.0","0","0","27070","","null","","","null","81","","","","","","","","","","","","","","","",""
"","time_out","","html-keyboard-response","481","454160","0.0-1.0-737.0-0.0","0","0","27070","","null","","","null","81","","","","","","","","","","","","","","","",""
"","ITI","","html-keyboard-response","482","455161","0.0-1.0-738.0","0","0","27070","","null","","","null","81","","","","","","","","","","","","","","","NaN",""
"","S1","","html-keyboard-response","483","455413","0.0-1.0-740.0","0","0","27070","","null","","","null","82","","","","","","","","","","","","","","","",""
"","ISI","","html-keyboard-response","484","456420","0.0-1.0-741.0","0","0","27070","","null","","","null","82","NaN","","","","","","","","","","","","","","",""
"","S2","","html-keyboard-response","485","456654","0.0-1.0-742.0","0","0","27070","","233","","","68","82","","d","2","82","training","adjacent","DC","4","3","R.jpg","P.jpg","1","0","0","",""
"","feedback","","html-keyboard-response","486","457656","0.0-1.0-744.0-0.0","0","0","27070","","null","","","null","82","","","","","","","","","","","","","","","",""
"","time_out","","html-keyboard-response","487","459657","0.0-1.0-746.0-0.0","0","0","27070","","null","","","null","82","","","","","","","","","","","","","","","",""
"","ITI","","html-keyboard-response","488","460659","0.0-1.0-747.0","0","0","27070","","null","","","null","82","","","","","","","","","","","","","","","NaN",""
"","S1","","html-keyboard-response","489","460922","0.0-1.0-749.0","0","0","27070","","null","","","null","83","","","","","","","","","","","","","","","",""
"","ISI","","html-keyboard-response","490","461925","0.0-1.0-750.0","0","0","27070","","null","","","null","83","NaN","","","","","","","","","","","","","","",""
"","S2","","html-keyboard-response","491","462160","0.0-1.0-751.0","0","0","27070","","235","","","68","83","","d","2","83","training","adjacent","CB","3","2","P.jpg","L.jpg","1","0","0","",""
"","feedback","","html-keyboard-response","492","463162","0.0-1.0-753.0-0.0","0","0","27070","","null","","","null","83","","","","","","","","","","","","","","","",""
"","time_out","","html-keyboard-response","493","465164","0.0-1.0-755.0-0.0","0","0","27070","","null","","","null","83","","","","","","","","","","","","","","","",""
"","ITI","","html-keyboard-response","494","466165","0.0-1.0-756.0","0","0","27070","","null","","","null","83","","","","","","","","","","","","","","","NaN",""
"","S1","","html-keyboard-response","495","466417","0.0-1.0-758.0","0","0","27070","","null","","","null","84","","","","","","","","","","","","","","","",""
"","ISI","","html-keyboard-response","496","467419","0.0-1.0-759.0","0","0","27070","","null","","","null","84","NaN","","","","","","","","","","","","","","",""
"","S2","","html-keyboard-response","497","467655","0.0-1.0-760.0","0","0","27070","","234","","","68","84","","d","2","84","training","adjacent","EF","5","6","M.jpg","N.jpg","1","1","1","",""
"","feedback","","html-keyboard-response","498","468656","0.0-1.0-762.0-0.0","0","0","27070","","null","","","null","84","","","","","","","","","","","","","","","",""
"","ITI","","html-keyboard-response","499","469659","0.0-1.0-765.0","0","0","27070","","null","","","null","84","","","","","","","","","","","","","","","NaN",""
"","S1","","html-keyboard-response","500","469910","0.0-1.0-767.0","0","0","27070","","null","","","null","85","","","","","","","","","","","","","","","",""
"","ISI","","html-keyboard-response","501","470912","0.0-1.0-768.0","0","0","27070","","null","","","null","85","NaN","","","","","","","","","","","","","","",""
"","S2","","html-keyboard-response","502","471164","0.0-1.0-769.0","0","0","27070","","null","","","null","85","","NaN","","","","","","","","","","","","","",""
"","response","","html-keyboard-response","503","471178","0.0-1.0-770.0-0.0","0","0","27070","","12","","","68","85","","","2","85","training","adjacent","DE","4","5","R.jpg","M.jpg","1","1","1","",""
"","feedback","","html-keyboard-response","504","472180","0.0-1.0-771.0-0.0","0","0","27070","","null","","","null","85","","","","","","","","","","","","","","","",""
"","ITI","","html-keyboard-response","505","473181","0.0-1.0-774.0","0","0","27070","","null","","","null","85","","","","","","","","","","","","","","","NaN",""
"","S1","","html-keyboard-response","506","473433","0.0-1.0-776.0","0","0","27070","","null","","","null","86","","","","","","","","","","","","","","","",""
"","ISI","","html-keyboard-response","507","474435","0.0-1.0-777.0","0","0","27070","","null","","","null","86","NaN","","","","","","","","","","","","","","",""
"","S2","","html-keyboard-response","508","474664","0.0-1.0-778.0","0","0","27070","","227","","","68","86","","d","2","86","training","adjacent","DC","4","3","R.jpg","P.jpg","1","0","0","",""
"","feedback","","html-keyboard-response","509","475667","0.0-1.0-780.0-0.0","0","0","27070","","null","","","null","86","","","","","","","","","","","","","","","",""
"","time_out","","html-keyboard-response","510","477668","0.0-1.0-782.0-0.0","0","0","27070","","null","","","null","86","","","","","","","","","","","","","","","",""
"","ITI","","html-keyboard-response","511","478670","0.0-1.0-783.0","0","0","27070","","null","","","null","86","","","","","","","","","","","","","","","NaN",""
"","S1","","html-keyboard-response","512","478922","0.0-1.0-785.0","0","0","27070","","null","","","null","87","","","","","","","","","","","","","","","",""
"","ISI","","html-keyboard-response","513","479923","0.0-1.0-786.0","0","0","27070","","null","","","null","87","NaN","","","","","","","","","","","","","","",""
"","S2","","html-keyboard-response","514","480135","0.0-1.0-787.0","0","0","27070","","210","","","68","87","","d","2","87","training","adjacent","BA","2","1","L.jpg","O.jpg","1","0","0","",""
"","feedback","","html-keyboard-response","515","481137","0.0-1.0-789.0-0.0","0","0","27070","","null","","","null","87","","","","","","","","","","","","","","","",""
"","time_out","","html-keyboard-response","516","483139","0.0-1.0-791.0-0.0","0","0","27070","","null","","","null","87","","","","","","","","","","","","","","","",""
"","ITI","","html-keyboard-response","517","484141","0.0-1.0-792.0","0","0","27070","","null","","","null","87","","","","","","","","","","","","","","","NaN",""
"","S1","","html-keyboard-response","518","484392","0.0-1.0-794.0","0","0","27070","","null","","","null","88","","","","","","","","","","","","","","","",""
"","ISI","","html-keyboard-response","519","485394","0.0-1.0-795.0","0","0","27070","","null","","","null","88","NaN","","","","","","","","","","","","","","",""
"","S2","","html-keyboard-response","520","485606","0.0-1.0-796.0","0","0","27070","","210","","","68","88","","d","2","88","training","adjacent","ED","5","4","M.jpg","R.jpg","1","0","0","",""
"","feedback","","html-keyboard-response","521","486608","0.0-1.0-798.0-0.0","0","0","27070","","null","","","null","88","","","","","","","","","","","","","","","",""
"","time_out","","html-keyboard-response","522","488610","0.0-1.0-800.0-0.0","0","0","27070","","null","","","null","88","","","","","","","","","","","","","","","",""
"","ITI","","html-keyboard-response","523","489612","0.0-1.0-801.0","0","0","27070","","null","","","null","88","","","","","","","","","","","","","","","NaN",""
"","S1","","html-keyboard-response","524","489864","0.0-1.0-803.0","0","0","27070","","null","","","null","89","","","","","","","","","","","","","","","",""
"","ISI","","html-keyboard-response","525","490865","0.0-1.0-804.0","0","0","27070","","null","","","null","89","NaN","","","","","","","","","","","","","","",""
"","S2","","html-keyboard-response","526","491067","0.0-1.0-805.0","0","0","27070","","201","","","68","89","","d","2","89","training","adjacent","DC","4","3","R.jpg","P.jpg","1","0","0","",""
"","feedback","","html-keyboard-response","527","492069","0.0-1.0-807.0-0.0","0","0","27070","","null","","","null","89","","","","","","","","","","","","","","","",""
"","time_out","","html-keyboard-response","528","494070","0.0-1.0-809.0-0.0","0","0","27070","","null","","","null","89","","","","","","","","","","","","","","","",""
"","ITI","","html-keyboard-response","529","495072","0.0-1.0-810.0","0","0","27070","","null","","","null","89","","","","","","","","","","","","","","","NaN",""
"","S1","","html-keyboard-response","530","495323","0.0-1.0-812.0","0","0","27070","","null","","","null","90","","","","","","","","","","","","","","","",""
"","ISI","","html-keyboard-response","531","496331","0.0-1.0-813.0","0","0","27070","","null","","","null","90","NaN","","","","","","","","","","","","","","",""
"","S2","","html-keyboard-response","532","496556","0.0-1.0-814.0","0","0","27070","","225","","","68","90","","d","2","90","training","adjacent","CD","3","4","P.jpg","R.jpg","1","1","1","",""
"","feedback","","html-keyboard-response","533","497559","0.0-1.0-816.0-0.0","0","0","27070","","null","","","null","90","","","","","","","","","","","","","","","",""
"","ITI","","html-keyboard-response","534","498560","0.0-1.0-819.0","0","0","27070","","null","","","null","90","","","","","","","","","","","","","","","NaN",""
"","S1","","html-keyboard-response","535","498812","0.0-1.0-821.0","0","0","27070","","null","","","null","91","","","","","","","","","","","","","","","",""
"","ISI","","html-keyboard-response","536","499814","0.0-1.0-822.0","0","0","27070","","null","","","null","91","NaN","","","","","","","","","","","","","","",""
"","S2","","html-keyboard-response","537","500064","0.0-1.0-823.0","0","0","27070","","250","","","68","91","","d","2","91","training","adjacent","CD","3","4","P.jpg","R.jpg","1","1","1","",""
"","feedback","","html-keyboard-response","538","501066","0.0-1.0-825.0-0.0","0","0","27070","","null","","","null","91","","","","","","","","","","","","","","","",""
"","ITI","","html-keyboard-response","539","502068","0.0-1.0-828.0","0","0","27070","","null","","","null","91","","","","","","","","","","","","","","","NaN",""
"","S1","","html-keyboard-response","540","502320","0.0-1.0-830.0","0","0","27070","","null","","","null","92","","","","","","","","","","","","","","","",""
"","ISI","","html-keyboard-response","541","503322","0.0-1.0-831.0","0","0","27070","","null","","","null","92","NaN","","","","","","","","","","","","","","",""
"","S2","","html-keyboard-response","542","503540","0.0-1.0-832.0","0","0","27070","","217","","","68","92","","d","2","92","training","adjacent","BC","2","3","L.jpg","P.jpg","1","1","1","",""
"","feedback","","html-keyboard-response","543","504543","0.0-1.0-834.0-0.0","0","0","27070","","null","","","null","92","","","","","","","","","","","","","","","",""
"","ITI","","html-keyboard-response","544","505545","0.0-1.0-837.0","0","0","27070","","null","","","null","92","","","","","","","","","","","","","","","NaN",""
"","S1","","html-keyboard-response","545","505807","0.0-1.0-839.0","0","0","27070","","null","","","null","93","","","","","","","","","","","","","","","",""
"","ISI","","html-keyboard-response","546","506811","0.0-1.0-840.0","0","0","27070","","null","","","null","93","NaN","","","","","","","","","","","","","","",""
"","S2","","html-keyboard-response","547","507006","0.0-1.0-841.0","0","0","27070","","194","","","68","93","","d","2","93","training","adjacent","EF","5","6","M.jpg","N.jpg","1","1","1","",""
"","feedback","","html-keyboard-response","548","508008","0.0-1.0-843.0-0.0","0","0","27070","","null","","","null","93","","","","","","","","","","","","","","","",""
"","ITI","","html-keyboard-response","549","509009","0.0-1.0-846.0","0","0","27070","","null","","","null","93","","","","","","","","","","","","","","","NaN",""
"","S1","","html-keyboard-response","550","509261","0.0-1.0-848.0","0","0","27070","","null","","","null","94","","","","","","","","","","","","","","","",""
"","ISI","","html-keyboard-response","551","510264","0.0-1.0-849.0","0","0","27070","","null","","","null","94","NaN","","","","","","","","","","","","","","",""
"","S2","","html-keyboard-response","552","510516","0.0-1.0-850.0","0","0","27070","","null","","","null","94","","NaN","","","","","","","","","","","","","",""
"","response","","html-keyboard-response","553","511349","0.0-1.0-851.0-0.0","0","0","27070","","831","","","68","94","","","2","94","training","adjacent","ED","5","4","M.jpg","R.jpg","1","0","0","",""
"","feedback","","html-keyboard-response","554","512351","0.0-1.0-852.0-0.0","0","0","27070","","null","","","null","94","","","","","","","","","","","","","","","",""
"","time_out","","html-keyboard-response","555","514352","0.0-1.0-854.0-0.0","0","0","27070","","null","","","null","94","","","","","","","","","","","","","","","",""
"","ITI","","html-keyboard-response","556","515354","0.0-1.0-855.0","0","0","27070","","null","","","null","94","","","","","","","","","","","","","","","NaN",""
"","S1","","html-keyboard-response","557","515606","0.0-1.0-857.0","0","0","27070","","null","","","null","95","","","","","","","","","","","","","","","",""
"","ISI","","html-keyboard-response","558","516619","0.0-1.0-858.0","0","0","27070","","null","","","null","95","NaN","","","","","","","","","","","","","","",""
"","S2","","html-keyboard-response","559","516829","0.0-1.0-859.0","0","0","27070","","209","","","68","95","","d","2","95","training","adjacent","CB","3","2","P.jpg","L.jpg","1","0","0","",""
"","feedback","","html-keyboard-response","560","517832","0.0-1.0-861.0-0.0","0","0","27070","","null","","","null","95","","","","","","","","","","","","","","","",""
"","time_out","","html-keyboard-response","561","519833","0.0-1.0-863.0-0.0","0","0","27070","","null","","","null","95","","","","","","","","","","","","","","","",""
"","ITI","","html-keyboard-response","562","520834","0.0-1.0-864.0","0","0","27070","","null","","","null","95","","","","","","","","","","","","","","","NaN",""
"","block_over","","html-keyboard-response","563","523597","0.0-1.0-865.0-0.0","0","0","27070","","2762","","","32","95","","","","","","","","","","","","","","","",""
"","S1","","html-keyboard-response","564","523849","0.0-1.0-866.0","0","0","27070","","null","","","null","96","","","","","","","","","","","","","","","",""
"","ISI","","html-keyboard-response","565","524851","0.0-1.0-867.0","0","0","27070","","null","","","null","96","NaN","","","","","","","","","","","","","","",""
"","S2","","html-keyboard-response","566","525053","0.0-1.0-868.0","0","0","27070","","202","","","75","96","","k","3","96","training","adjacent","BC","2","3","L.jpg","P.jpg","0","1","0","",""
"","feedback","","html-keyboard-response","567","526055","0.0-1.0-870.0-0.0","0","0","27070","","null","","","null","96","","","","","","","","","","","","","","","",""
"","time_out","","html-keyboard-response","568","528057","0.0-1.0-872.0-0.0","0","0","27070","","null","","","null","96","","","","","","","","","","","","","","","",""
"","ITI","","html-keyboard-response","569","529058","0.0-1.0-873.0","0","0","27070","","null","","","null","96","","","","","","","","","","","","","","","NaN",""
"","S1","","html-keyboard-response","570","529310","0.0-1.0-875.0","0","0","27070","","null","","","null","97","","","","","","","","","","","","","","","",""
"","ISI","","html-keyboard-response","571","530312","0.0-1.0-876.0","0","0","27070","","null","","","null","97","NaN","","","","","","","","","","","","","","",""
"","S2","","html-keyboard-response","572","530493","0.0-1.0-877.0","0","0","27070","","180","","","68","97","","d","3","97","training","adjacent","ED","5","4","M.jpg","R.jpg","1","0","0","",""
"","feedback","","html-keyboard-response","573","531495","0.0-1.0-879.0-0.0","0","0","27070","","null","","","null","97","","","","","","","","","","","","","","","",""
"","time_out","","html-keyboard-response","574","533497","0.0-1.0-881.0-0.0","0","0","27070","","null","","","null","97","","","","","","","","","","","","","","","",""
"","ITI","","html-keyboard-response","575","534499","0.0-1.0-882.0","0","0","27070","","null","","","null","97","","","","","","","","","","","","","","","NaN",""
"","S1","","html-keyboard-response","576","534751","0.0-1.0-884.0","0","0","27070","","null","","","null","98","","","","","","","","","","","","","","","",""
"","ISI","","html-keyboard-response","577","535752","0.0-1.0-885.0","0","0","27070","","null","","","null","98","NaN","","","","","","","","","","","","","","",""
"","S2","","html-keyboard-response","578","535928","0.0-1.0-886.0","0","0","27070","","174","","","68","98","","d","3","98","training","adjacent","FE","6","5","N.jpg","M.jpg","1","0","0","",""
"","feedback","","html-keyboard-response","579","536930","0.0-1.0-888.0-0.0","0","0","27070","","null","","","null","98","","","","","","","","","","","","","","","",""
"","time_out","","html-keyboard-response","580","538932","0.0-1.0-890.0-0.0","0","0","27070","","null","","","null","98","","","","","","","","","","","","","","","",""
"","ITI","","html-keyboard-response","581","539933","0.0-1.0-891.0","0","0","27070","","null","","","null","98","","","","","","","","","","","","","","","NaN",""
"","S1","","html-keyboard-response","582","540186","0.0-1.0-893.0","0","0","27070","","null","","","null","99","","","","","","","","","","","","","","","",""
"","ISI","","html-keyboard-response","583","541187","0.0-1.0-894.0","0","0","27070","","null","","","null","99","NaN","","","","","","","","","","","","","","",""
