"success","ttype","start_time","trial_type","trial_index","time_elapsed","internal_node_id","warning","missed_checkup","PID","view_history","rt","responses","repeat_instructions","key_press","index","keypress_isi","keypress_S2","block","trial_num","phase","group_type","pair_type","S1_stim","S2_stim","S1_img","S2_img","S1_chosen","S1_higher","accuracy","keypress_iti","total_bonus_tally"
"true","full_screen","d04062023hr1750","fullscreen","0","7262","0.0-0.0","0","0","46244","","","","","","","","","","","","","","","","","","","","","",""
"","instructions","","instructions","1","44020","0.0-1.0-0.0-0.0","0","0","46244","[{""page_index"":0,""viewing_time"":5981},{""page_index"":1,""viewing_time"":18278},{""page_index"":2,""viewing_time"":12439},{""page_index"":3,""viewing_time"":60}]","36758","","","","","","","","","","","","","","","","","","","",""
"","comprehension_check","","survey-multi-choice","2","68292","0.0-1.0-0.0-1.0","0","0","46244","","24268","{""Q0"":""True"",""Q1"":""D"",""Q2"":""Once the second image appears and while the screen 'MAKE A CHOICE' is shown"",""Q3"":"""",""Q4"":""either D or K""}","1","","","","","","","","","","","","","","","","","",""
"","missed_instruction_checkup","","html-keyboard-response","3","70947","0.0-1.0-0.0-2.0-0.0","0","1","46244","","2653","","","32","","","","","","","","","","","","","","","","",""
"","instructions","","instructions","4","84487","0.0-1.0-0.1-0.1","0","0","46244","[{""page_index"":0,""viewing_time"":2740},{""page_index"":1,""viewing_time"":8726},{""page_index"":2,""viewing_time"":1448},{""page_index"":3,""viewing_time"":625}]","13539","","","","","","","","","","","","","","","","","","","",""
"","comprehension_check","","survey-multi-choice","5","99246","0.0-1.0-0.1-1.1","0","0","46244","","14756","{""Q0"":""True"",""Q1"":""D"",""Q2"":""Only when the screen 'MAKE A CHOICE' is shown"",""Q3"":""Green mark"",""Q4"":""either D or K""}","1","","","","","","","","","","","","","","","","","",""
"","missed_instruction_checkup","","html-keyboard-response","6","100915","0.0-1.0-0.1-2.1-0.1","0","1","46244","","1669","","","32","","","","","","","","","","","","","","","","",""
"","instructions","","instructions","7","120245","0.0-1.0-0.2-0.2","0","0","46244","[{""page_index"":0,""viewing_time"":2535},{""page_index"":1,""viewing_time"":10354},{""page_index"":2,""viewing_time"":4789},{""page_index"":3,""viewing_time"":1652}]","19330","","","","","","","","","","","","","","","","","","","",""
"","comprehension_check","","survey-multi-choice","8","134656","0.0-1.0-0.2-1.2","0","0","46244","","14408","{""Q0"":""False"",""Q1"":""D"",""Q2"":""Once the second image appears and while the screen 'MAKE A CHOICE' is shown"",""Q3"":""Green mark"",""Q4"":""either D or K""}","1","","","","","","","","","","","","","","","","","",""
"","missed_instruction_checkup","","html-keyboard-response","9","135755","0.0-1.0-0.2-2.2-0.2","0","1","46244","","1099","","","32","","","","","","","","","","","","","","","","",""
"","instructions","","instructions","10","150393","0.0-1.0-0.3-0.3","0","0","46244","[{""page_index"":0,""viewing_time"":4188},{""page_index"":1,""viewing_time"":7451},{""page_index"":2,""viewing_time"":2122},{""page_index"":3,""viewing_time"":877}]","14638","","","","","","","","","","","","","","","","","","","",""
"","comprehension_check","","survey-multi-choice","11","175912","0.0-1.0-0.3-1.3","0","0","46244","","25516","{""Q0"":""True"",""Q1"":""D"",""Q2"":""Only while the second image is shown"",""Q3"":""Green mark"",""Q4"":""either D or K""}","1","","","","","","","","","","","","","","","","","",""
"","missed_instruction_checkup","","html-keyboard-response","12","176595","0.0-1.0-0.3-2.3-0.3","0","1","46244","","681","","","32","","","","","","","","","","","","","","","","",""
"","instructions","","instructions","13","189884","0.0-1.0-0.4-0.4","0","0","46244","[{""page_index"":0,""viewing_time"":2105},{""page_index"":1,""viewing_time"":10168},{""page_index"":2,""viewing_time"":438},{""page_index"":3,""viewing_time"":577}]","13288","","","","","","","","","","","","","","","","","","","",""
"","comprehension_check","","survey-multi-choice","14","214829","0.0-1.0-0.4-1.4","0","0","46244","","24943","{""Q0"":""True"",""Q1"":""K"",""Q2"":""Once the second image appears and while the screen 'MAKE A CHOICE' is shown"",""Q3"":""Green mark"",""Q4"":""either D or K""}","1","","","","","","","","","","","","","","","","","",""
"","missed_instruction_checkup","","html-keyboard-response","15","216315","0.0-1.0-0.4-2.4-0.4","0","1","46244","","1485","","","32","","","","","","","","","","","","","","","","",""
"","instructions","","instructions","16","231132","0.0-1.0-0.5-0.5","0","0","46244","[{""page_index"":0,""viewing_time"":1349},{""page_index"":1,""viewing_time"":11803},{""page_index"":2,""viewing_time"":1069},{""page_index"":3,""viewing_time"":595}]","14816","","","","","","","","","","","","","","","","","","","",""
"","comprehension_check","","survey-multi-choice","17","245315","0.0-1.0-0.5-1.5","0","0","46244","","14181","{""Q0"":""False"",""Q1"":""D"",""Q2"":""Once the second image appears and while the screen 'MAKE A CHOICE' is shown"",""Q3"":""Green mark"",""Q4"":""either D or K""}","1","","","","","","","","","","","","","","","","","",""
"","missed_instruction_checkup","","html-keyboard-response","18","246771","0.0-1.0-0.5-2.5-0.5","0","1","46244","","1454","","","32","","","","","","","","","","","","","","","","",""
"","instructions","","instructions","19","264863","0.0-1.0-0.6-0.6","0","0","46244","[{""page_index"":0,""viewing_time"":1193},{""page_index"":1,""viewing_time"":4717},{""page_index"":2,""viewing_time"":10486},{""page_index"":3,""viewing_time"":1695}]","18091","","","","","","","","","","","","","","","","","","","",""
"","comprehension_check","","survey-multi-choice","20","284622","0.0-1.0-0.6-1.6","0","0","46244","","19757","{""Q0"":""True"",""Q1"":""D"",""Q2"":""Only when the screen 'MAKE A CHOICE' is shown"",""Q3"":""Green mark"",""Q4"":""either D or K""}","1","","","","","","","","","","","","","","","","","",""
"","missed_instruction_checkup","","html-keyboard-response","21","285491","0.0-1.0-0.6-2.6-0.6","0","1","46244","","867","","","32","","","","","","","","","","","","","","","","",""
"","instructions","","instructions","22","306401","0.0-1.0-0.7-0.7","0","0","46244","[{""page_index"":0,""viewing_time"":1011},{""page_index"":1,""viewing_time"":13179},{""page_index"":2,""viewing_time"":5974},{""page_index"":3,""viewing_time"":745}]","20909","","","","","","","","","","","","","","","","","","","",""
"","comprehension_check","","survey-multi-choice","23","343717","0.0-1.0-0.7-1.7","0","0","46244","","37314","{""Q0"":""True"",""Q1"":""D"",""Q2"":""Once the second image appears and while the screen 'MAKE A CHOICE' is shown"",""Q3"":""Green mark"",""Q4"":""Use a mouse""}","1","","","","","","","","","","","","","","","","","",""
"","missed_instruction_checkup","","html-keyboard-response","24","345955","0.0-1.0-0.7-2.7-0.7","0","1","46244","","2237","","","32","","","","","","","","","","","","","","","","",""
"","instructions","","instructions","25","384951","0.0-1.0-0.8-0.8","0","0","46244","[{""page_index"":0,""viewing_time"":1421},{""page_index"":1,""viewing_time"":35478},{""page_index"":2,""viewing_time"":1310},{""page_index"":3,""viewing_time"":787}]","38996","","","","","","","","","","","","","","","","","","","",""
"","comprehension_check","","survey-multi-choice","26","412156","0.0-1.0-0.8-1.8","0","0","46244","","27202","{""Q0"":""True"",""Q1"":""D"",""Q2"":""Once the second image appears and while the screen 'MAKE A CHOICE' is shown"",""Q3"":""Green mark"",""Q4"":""either D or K""}","0","","","","","","","","","","","","","","","","","",""
"","start_exp","","html-keyboard-response","27","416347","0.0-1.0-1.0","0","0","46244","","4190","","","32","","","","","","","","","","","","","","","","",""
"","S1","","html-keyboard-response","28","416499","0.0-1.0-2.0","0","0","46244","","null","","","null","0","","","","","","","","","","","","","","","",""
"","ISI","","html-keyboard-response","29","418501","0.0-1.0-3.0","0","0","46244","","1575","","","32","0","space","","","","","","","","","","","","","","",""
"","S2","","html-keyboard-response","30","418653","0.0-1.0-4.0","0","0","46244","","null","","","null","0","","NaN","","","","","","","","","","","","","",""
"","response","","html-keyboard-response","31","420251","0.0-1.0-5.0-0.0","0","0","46244","","1597","","","75","0","","","1","0","training","adjacent","FE","6","5","M.jpg","P.jpg","0","0","1","",""
"","feedback","","html-keyboard-response","32","421254","0.0-1.0-6.0-0.0","0","0","46244","","null","","","null","0","","","","","","","","","","","","","","","",""
"","ITI","","html-keyboard-response","33","422256","0.0-1.0-9.0","0","0","46244","","null","","","null","0","","","","","","","","","","","","","","","NaN",""
"","S1","","html-keyboard-response","34","422408","0.0-1.0-11.0","0","0","46244","","null","","","null","1","","","","","","","","","","","","","","","",""
"","ISI","","html-keyboard-response","35","424409","0.0-1.0-12.0","0","0","46244","","null","","","null","1","NaN","","","","","","","","","","","","","","",""
"","S2","","html-keyboard-response","36","424561","0.0-1.0-13.0","0","0","46244","","null","","","null","1","","NaN","","","","","","","","","","","","","",""
"","response","","html-keyboard-response","37","425515","0.0-1.0-14.0-0.0","0","0","46244","","953","","","75","1","","","1","1","training","adjacent","CB","3","2","R.jpg","O.jpg","0","0","1","",""
"","feedback","","html-keyboard-response","38","426517","0.0-1.0-15.0-0.0","0","0","46244","","null","","","null","1","","","","","","","","","","","","","","","",""
"","ITI","","html-keyboard-response","39","427519","0.0-1.0-18.0","0","0","46244","","null","","","null","1","","","","","","","","","","","","","","","NaN",""
"","S1","","html-keyboard-response","40","427671","0.0-1.0-20.0","0","0","46244","","null","","","null","2","","","","","","","","","","","","","","","",""
"","ISI","","html-keyboard-response","41","429673","0.0-1.0-21.0","0","0","46244","","null","","","null","2","NaN","","","","","","","","","","","","","","",""
"","S2","","html-keyboard-response","42","429825","0.0-1.0-22.0","0","0","46244","","null","","","null","2","","NaN","","","","","","","","","","","","","",""
"","response","","html-keyboard-response","43","430179","0.0-1.0-23.0-0.0","0","0","46244","","353","","","75","2","","","1","2","training","adjacent","CB","3","2","R.jpg","O.jpg","0","0","1","",""
"","feedback","","html-keyboard-response","44","431180","0.0-1.0-24.0-0.0","0","0","46244","","null","","","null","2","","","","","","","","","","","","","","","",""
"","ITI","","html-keyboard-response","45","432181","0.0-1.0-27.0","0","0","46244","","null","","","null","2","","","","","","","","","","","","","","","NaN",""
"","S1","","html-keyboard-response","46","432333","0.0-1.0-29.0","0","0","46244","","null","","","null","3","","","","","","","","","","","","","","","",""
"","ISI","","html-keyboard-response","47","434335","0.0-1.0-30.0","0","0","46244","","null","","","null","3","NaN","","","","","","","","","","","","","","",""
"","S2","","html-keyboard-response","48","434486","0.0-1.0-31.0","0","0","46244","","null","","","null","3","","NaN","","","","","","","","","","","","","",""
"","response","","html-keyboard-response","49","435115","0.0-1.0-32.0-0.0","0","0","46244","","627","","","68","3","","","1","3","training","adjacent","FE","6","5","M.jpg","P.jpg","1","0","0","",""
"","feedback","","html-keyboard-response","50","436117","0.0-1.0-33.0-0.0","0","0","46244","","null","","","null","3","","","","","","","","","","","","","","","",""
"","time_out","","html-keyboard-response","51","438118","0.0-1.0-35.0-0.0","0","0","46244","","null","","","null","3","","","","","","","","","","","","","","","",""
"","ITI","","html-keyboard-response","52","439120","0.0-1.0-36.0","0","0","46244","","null","","","null","3","","","","","","","","","","","","","","","NaN",""
"","S1","","html-keyboard-response","53","439271","0.0-1.0-38.0","0","0","46244","","null","","","null","4","","","","","","","","","","","","","","","",""
"","ISI","","html-keyboard-response","54","441272","0.0-1.0-39.0","0","0","46244","","1419","","","32","4","space","","","","","","","","","","","","","","",""
"","S2","","html-keyboard-response","55","441424","0.0-1.0-40.0","0","0","46244","","null","","","null","4","","NaN","","","","","","","","","","","","","",""
"","response","","html-keyboard-response","56","441939","0.0-1.0-41.0-0.0","0","0","46244","","514","","","75","4","","","1","4","training","adjacent","FE","6","5","M.jpg","P.jpg","0","0","1","",""
"","feedback","","html-keyboard-response","57","442940","0.0-1.0-42.0-0.0","0","0","46244","","null","","","null","4","","","","","","","","","","","","","","","",""
"","ITI","","html-keyboard-response","58","443941","0.0-1.0-45.0","0","0","46244","","null","","","null","4","","","","","","","","","","","","","","","NaN",""
"","S1","","html-keyboard-response","59","444092","0.0-1.0-47.0","0","0","46244","","null","","","null","5","","","","","","","","","","","","","","","",""
"","ISI","","html-keyboard-response","60","446095","0.0-1.0-48.0","0","0","46244","","null","","","null","5","NaN","","","","","","","","","","","","","","",""
"","S2","","html-keyboard-response","61","446247","0.0-1.0-49.0","0","0","46244","","null","","","null","5","","NaN","","","","","","","","","","","","","",""
"","response","","html-keyboard-response","62","447067","0.0-1.0-50.0-0.0","0","0","46244","","819","","","75","5","","","1","5","training","adjacent","CD","3","4","R.jpg","Q.jpg","0","1","0","",""
"","feedback","","html-keyboard-response","63","448069","0.0-1.0-51.0-0.0","0","0","46244","","null","","","null","5","","","","","","","","","","","","","","","",""
"","time_out","","html-keyboard-response","64","450071","0.0-1.0-53.0-0.0","0","0","46244","","null","","","null","5","","","","","","","","","","","","","","","",""
"","ITI","","html-keyboard-response","65","451073","0.0-1.0-54.0","0","0","46244","","null","","","null","5","","","","","","","","","","","","","","","NaN",""
"","S1","","html-keyboard-response","66","451225","0.0-1.0-56.0","0","0","46244","","null","","","null","6","","","","","","","","","","","","","","","",""
"","ISI","","html-keyboard-response","67","453227","0.0-1.0-57.0","0","0","46244","","null","","","null","6","NaN","","","","","","","","","","","","","","",""
"","S2","","html-keyboard-response","68","453378","0.0-1.0-58.0","0","0","46244","","null","","","null","6","","NaN","","","","","","","","","","","","","",""
"","response","","html-keyboard-response","69","454227","0.0-1.0-59.0-0.0","0","0","46244","","848","","","75","6","","","1","6","training","adjacent","BA","2","1","O.jpg","L.jpg","0","0","1","",""
"","feedback","","html-keyboard-response","70","455228","0.0-1.0-60.0-0.0","0","0","46244","","null","","","null","6","","","","","","","","","","","","","","","",""
"","ITI","","html-keyboard-response","71","456231","0.0-1.0-63.0","0","0","46244","","null","","","null","6","","","","","","","","","","","","","","","NaN",""
"","S1","","html-keyboard-response","72","456383","0.0-1.0-65.0","0","0","46244","","null","","","null","7","","","","","","","","","","","","","","","",""
"","ISI","","html-keyboard-response","73","458385","0.0-1.0-66.0","0","0","46244","","null","","","null","7","NaN","","","","","","","","","","","","","","",""
"","S2","","html-keyboard-response","74","458536","0.0-1.0-67.0","0","0","46244","","null","","","null","7","","NaN","","","","","","","","","","","","","",""
"","response","","html-keyboard-response","75","458987","0.0-1.0-68.0-0.0","0","0","46244","","450","","","68","7","","","1","7","training","adjacent","AB","1","2","L.jpg","O.jpg","1","1","1","",""
"","feedback","","html-keyboard-response","76","459989","0.0-1.0-69.0-0.0","0","0","46244","","null","","","null","7","","","","","","","","","","","","","","","",""
"","ITI","","html-keyboard-response","77","460991","0.0-1.0-72.0","0","0","46244","","null","","","null","7","","","","","","","","","","","","","","","NaN",""
"","S1","","html-keyboard-response","78","461142","0.0-1.0-74.0","0","0","46244","","null","","","null","8","","","","","","","","","","","","","","","",""
"","ISI","","html-keyboard-response","79","463144","0.0-1.0-75.0","0","0","46244","","null","","","null","8","NaN","","","","","","","","","","","","","","",""
"","S2","","html-keyboard-response","80","463295","0.0-1.0-76.0","0","0","46244","","null","","","null","8","","NaN","","","","","","","","","","","","","",""
"","response","","html-keyboard-response","81","463835","0.0-1.0-77.0-0.0","0","0","46244","","539","","","75","8","","","1","8","training","adjacent","GF","7","6","N.jpg","M.jpg","0","0","1","",""
"","feedback","","html-keyboard-response","82","464837","0.0-1.0-78.0-0.0","0","0","46244","","null","","","null","8","","","","","","","","","","","","","","","",""
"","ITI","","html-keyboard-response","83","465839","0.0-1.0-81.0","0","0","46244","","null","","","null","8","","","","","","","","","","","","","","","NaN",""
"","S1","","html-keyboard-response","84","465990","0.0-1.0-83.0","0","0","46244","","null","","","null","9","","","","","","","","","","","","","","","",""
"","ISI","","html-keyboard-response","85","467992","0.0-1.0-84.0","0","0","46244","","null","","","null","9","NaN","","","","","","","","","","","","","","",""
"","S2","","html-keyboard-response","86","468143","0.0-1.0-85.0","0","0","46244","","null","","","null","9","","NaN","","","","","","","","","","","","","",""
"","response","","html-keyboard-response","87","468787","0.0-1.0-86.0-0.0","0","0","46244","","642","","","68","9","","","1","9","training","adjacent","DC","4","3","Q.jpg","R.jpg","1","0","0","",""
"","feedback","","html-keyboard-response","88","469788","0.0-1.0-87.0-0.0","0","0","46244","","null","","","null","9","","","","","","","","","","","","","","","",""
"","time_out","","html-keyboard-response","89","471790","0.0-1.0-89.0-0.0","0","0","46244","","null","","","null","9","","","","","","","","","","","","","","","",""
"","ITI","","html-keyboard-response","90","472791","0.0-1.0-90.0","0","0","46244","","null","","","null","9","","","","","","","","","","","","","","","NaN",""
"","S1","","html-keyboard-response","91","472943","0.0-1.0-92.0","0","0","46244","","null","","","null","10","","","","","","","","","","","","","","","",""
"","ISI","","html-keyboard-response","92","474944","0.0-1.0-93.0","0","0","46244","","null","","","null","10","NaN","","","","","","","","","","","","","","",""
"","S2","","html-keyboard-response","93","475096","0.0-1.0-94.0","0","0","46244","","null","","","null","10","","NaN","","","","","","","","","","","","","",""
"","response","","html-keyboard-response","94","475491","0.0-1.0-95.0-0.0","0","0","46244","","393","","","68","10","","","1","10","training","adjacent","ED","5","4","P.jpg","Q.jpg","1","0","0","",""
"","feedback","","html-keyboard-response","95","476493","0.0-1.0-96.0-0.0","0","0","46244","","null","","","null","10","","","","","","","","","","","","","","","",""
"","time_out","","html-keyboard-response","96","478494","0.0-1.0-98.0-0.0","0","0","46244","","null","","","null","10","","","","","","","","","","","","","","","",""
"","ITI","","html-keyboard-response","97","479496","0.0-1.0-99.0","0","0","46244","","null","","","null","10","","","","","","","","","","","","","","","NaN",""
"","S1","","html-keyboard-response","98","479647","0.0-1.0-101.0","0","0","46244","","null","","","null","11","","","","","","","","","","","","","","","",""
"","ISI","","html-keyboard-response","99","481649","0.0-1.0-102.0","0","0","46244","","null","","","null","11","NaN","","","","","","","","","","","","","","",""
"","S2","","html-keyboard-response","100","481801","0.0-1.0-103.0","0","0","46244","","null","","","null","11","","NaN","","","","","","","","","","","","","",""
"","response","","html-keyboard-response","101","482299","0.0-1.0-104.0-0.0","0","0","46244","","498","","","75","11","","","1","11","training","adjacent","DE","4","5","Q.jpg","P.jpg","0","1","0","",""
"","feedback","","html-keyboard-response","102","483301","0.0-1.0-105.0-0.0","0","0","46244","","null","","","null","11","","","","","","","","","","","","","","","",""
"","time_out","","html-keyboard-response","103","485302","0.0-1.0-107.0-0.0","0","0","46244","","null","","","null","11","","","","","","","","","","","","","","","",""
"","ITI","","html-keyboard-response","104","486304","0.0-1.0-108.0","0","0","46244","","null","","","null","11","","","","","","","","","","","","","","","NaN",""
"","S1","","html-keyboard-response","105","486455","0.0-1.0-110.0","0","0","46244","","null","","","null","12","","","","","","","","","","","","","","","",""
"","ISI","","html-keyboard-response","106","488471","0.0-1.0-111.0","0","0","46244","","null","","","null","12","NaN","","","","","","","","","","","","","","",""
"","S2","","html-keyboard-response","107","488622","0.0-1.0-112.0","0","0","46244","","null","","","null","12","","NaN","","","","","","","","","","","","","",""
"","response","","html-keyboard-response","108","489259","0.0-1.0-113.0-0.0","0","0","46244","","636","","","75","12","","","1","12","training","adjacent","CD","3","4","R.jpg","Q.jpg","0","1","0","",""
"","feedback","","html-keyboard-response","109","490261","0.0-1.0-114.0-0.0","0","0","46244","","null","","","null","12","","","","","","","","","","","","","","","",""
"","time_out","","html-keyboard-response","110","492263","0.0-1.0-116.0-0.0","0","0","46244","","null","","","null","12","","","","","","","","","","","","","","","",""
"","ITI","","html-keyboard-response","111","493265","0.0-1.0-117.0","0","0","46244","","null","","","null","12","","","","","","","","","","","","","","","NaN",""
"","S1","","html-keyboard-response","112","493416","0.0-1.0-119.0","0","0","46244","","null","","","null","13","","","","","","","","","","","","","","","",""
"","ISI","","html-keyboard-response","113","495417","0.0-1.0-120.0","0","0","46244","","null","","","null","13","NaN","","","","","","","","","","","","","","",""
"","S2","","html-keyboard-response","114","495568","0.0-1.0-121.0","0","0","46244","","null","","","null","13","","NaN","","","","","","","","","","","","","",""
"","response","","html-keyboard-response","115","495827","0.0-1.0-122.0-0.0","0","0","46244","","257","","","75","13","","","1","13","training","adjacent","DE","4","5","Q.jpg","P.jpg","0","1","0","",""
"","feedback","","html-keyboard-response","116","496828","0.0-1.0-123.0-0.0","0","0","46244","","null","","","null","13","","","","","","","","","","","","","","","",""
"","time_out","","html-keyboard-response","117","498831","0.0-1.0-125.0-0.0","0","0","46244","","null","","","null","13","","","","","","","","","","","","","","","",""
"","ITI","","html-keyboard-response","118","499832","0.0-1.0-126.0","0","0","46244","","null","","","null","13","","","","","","","","","","","","","","","NaN",""
"","S1","","html-keyboard-response","119","499985","0.0-1.0-128.0","0","0","46244","","null","","","null","14","","","","","","","","","","","","","","","",""
"","ISI","","html-keyboard-response","120","501987","0.0-1.0-129.0","0","0","46244","","null","","","null","14","NaN","","","","","","","","","","","","","","",""
"","S2","","html-keyboard-response","121","502139","0.0-1.0-130.0","0","0","46244","","null","","","null","14","","NaN","","","","","","","","","","","","","",""
"","response","","html-keyboard-response","122","502356","0.0-1.0-131.0-0.0","0","0","46244","","215","","","75","14","","","1","14","training","adjacent","CB","3","2","R.jpg","O.jpg","0","0","1","",""
"","feedback","","html-keyboard-response","123","503358","0.0-1.0-132.0-0.0","0","0","46244","","null","","","null","14","","","","","","","","","","","","","","","",""
"","ITI","","html-keyboard-response","124","504360","0.0-1.0-135.0","0","0","46244","","null","","","null","14","","","","","","","","","","","","","","","NaN",""
"","S1","","html-keyboard-response","125","504512","0.0-1.0-137.0","0","0","46244","","null","","","null","15","","","","","","","","","","","","","","","",""
"","ISI","","html-keyboard-response","126","506513","0.0-1.0-138.0","0","0","46244","","null","","","null","15","NaN","","","","","","","","","","","","","","",""
"","S2","","html-keyboard-response","127","506665","0.0-1.0-139.0","0","0","46244","","null","","","null","15","","NaN","","","","","","","","","","","","","",""
"","response","","html-keyboard-response","128","507267","0.0-1.0-140.0-0.0","0","0","46244","","601","","","75","15","","","1","15","training","adjacent","ED","5","4","P.jpg","Q.jpg","0","0","1","",""
"","feedback","","html-keyboard-response","129","508269","0.0-1.0-141.0-0.0","0","0","46244","","null","","","null","15","","","","","","","","","","","","","","","",""
"","ITI","","html-keyboard-response","130","509270","0.0-1.0-144.0","0","0","46244","","null","","","null","15","","","","","","","","","","","","","","","NaN",""
"","S1","","html-keyboard-response","131","509421","0.0-1.0-146.0","0","0","46244","","null","","","null","16","","","","","","","","","","","","","","","",""
"","ISI","","html-keyboard-response","132","511423","0.0-1.0-147.0","0","0","46244","","null","","","null","16","NaN","","","","","","","","","","","","","","",""
"","S2","","html-keyboard-response","133","511575","0.0-1.0-148.0","0","0","46244","","null","","","null","16","","NaN","","","","","","","","","","","","","",""
"","response","","html-keyboard-response","134","512027","0.0-1.0-149.0-0.0","0","0","46244","","451","","","75","16","","","1","16","training","adjacent","BA","2","1","O.jpg","L.jpg","0","0","1","",""
"","feedback","","html-keyboard-response","135","513029","0.0-1.0-150.0-0.0","0","0","46244","","null","","","null","16","","","","","","","","","","","","","","","",""
"","ITI","","html-keyboard-response","136","514037","0.0-1.0-153.0","0","0","46244","","null","","","null","16","","","","","","","","","","","","","","","NaN",""
"","S1","","html-keyboard-response","137","514188","0.0-1.0-155.0","0","0","46244","","null","","","null","17","","","","","","","","","","","","","","","",""
"","ISI","","html-keyboard-response","138","516190","0.0-1.0-156.0","0","0","46244","","null","","","null","17","NaN","","","","","","","","","","","","","","",""
"","S2","","html-keyboard-response","139","516342","0.0-1.0-157.0","0","0","46244","","null","","","null","17","","NaN","","","","","","","","","","","","","",""
"","response","","html-keyboard-response","140","516795","0.0-1.0-158.0-0.0","0","0","46244","","452","","","68","17","","","1","17","training","adjacent","EF","5","6","P.jpg","M.jpg","1","1","1","",""
"","feedback","","html-keyboard-response","141","517797","0.0-1.0-159.0-0.0","0","0","46244","","null","","","null","17","","","","","","","","","","","","","","","",""
"","ITI","","html-keyboard-response","142","518798","0.0-1.0-162.0","0","0","46244","","null","","","null","17","","","","","","","","","","","","","","","NaN",""
"","S1","","html-keyboard-response","143","518951","0.0-1.0-164.0","0","0","46244","","null","","","null","18","","","","","","","","","","","","","","","",""
"","ISI","","html-keyboard-response","144","520953","0.0-1.0-165.0","0","0","46244","","null","","","null","18","NaN","","","","","","","","","","","","","","",""
"","S2","","html-keyboard-response","145","521105","0.0-1.0-166.0","0","0","46244","","null","","","null","18","","NaN","","","","","","","","","","","","","",""
"","response","","html-keyboard-response","146","521635","0.0-1.0-167.0-0.0","0","0","46244","","529","","","75","18","","","1","18","training","adjacent","ED","5","4","P.jpg","Q.jpg","0","0","1","",""
"","feedback","","html-keyboard-response","147","522637","0.0-1.0-168.0-0.0","0","0","46244","","null","","","null","18","","","","","","","","","","","","","","","",""
"","ITI","","html-keyboard-response","148","523639","0.0-1.0-171.0","0","0","46244","","null","","","null","18","","","","","","","","","","","","","","","NaN",""
"","S1","","html-keyboard-response","149","523790","0.0-1.0-173.0","0","0","46244","","null","","","null","19","","","","","","","","","","","","","","","",""
"","ISI","","html-keyboard-response","150","525792","0.0-1.0-174.0","0","0","46244","","null","","","null","19","NaN","","","","","","","","","","","","","","",""
"","S2","","html-keyboard-response","151","525945","0.0-1.0-175.0","0","0","46244","","null","","","null","19","","NaN","","","","","","","","","","","","","",""
"","response","","html-keyboard-response","152","526275","0.0-1.0-176.0-0.0","0","0","46244","","329","","","68","19","","","1","19","training","adjacent","DC","4","3","Q.jpg","R.jpg","1","0","0","",""
"","feedback","","html-keyboard-response","153","527276","0.0-1.0-177.0-0.0","0","0","46244","","null","","","null","19","","","","","","","","","","","","","","","",""
"","time_out","","html-keyboard-response","154","529278","0.0-1.0-179.0-0.0","0","0","46244","","null","","","null","19","","","","","","","","","","","","","","","",""
"","ITI","","html-keyboard-response","155","530279","0.0-1.0-180.0","0","0","46244","","null","","","null","19","","","","","","","","","","","","","","","NaN",""
"","S1","","html-keyboard-response","156","530431","0.0-1.0-182.0","0","0","46244","","null","","","null","20","","","","","","","","","","","","","","","",""
"","ISI","","html-keyboard-response","157","532432","0.0-1.0-183.0","0","0","46244","","null","","","null","20","NaN","","","","","","","","","","","","","","",""
"","S2","","html-keyboard-response","158","532584","0.0-1.0-184.0","0","0","46244","","null","","","null","20","","NaN","","","","","","","","","","","","","",""
"","response","","html-keyboard-response","159","532955","0.0-1.0-185.0-0.0","0","0","46244","","369","","","75","20","","","1","20","training","adjacent","CD","3","4","R.jpg","Q.jpg","0","1","0","",""
"","feedback","","html-keyboard-response","160","533957","0.0-1.0-186.0-0.0","0","0","46244","","null","","","null","20","","","","","","","","","","","","","","","",""
"","time_out","","html-keyboard-response","161","535959","0.0-1.0-188.0-0.0","0","0","46244","","null","","","null","20","","","","","","","","","","","","","","","",""
"","ITI","","html-keyboard-response","162","536960","0.0-1.0-189.0","0","0","46244","","null","","","null","20","","","","","","","","","","","","","","","NaN",""
"","S1","","html-keyboard-response","163","537111","0.0-1.0-191.0","0","0","46244","","null","","","null","21","","","","","","","","","","","","","","","",""
"","ISI","","html-keyboard-response","164","539112","0.0-1.0-192.0","0","0","46244","","null","","","null","21","NaN","","","","","","","","","","","","","","",""
"","S2","","html-keyboard-response","165","539264","0.0-1.0-193.0","0","0","46244","","null","","","null","21","","NaN","","","","","","","","","","","","","",""
"","response","","html-keyboard-response","166","539643","0.0-1.0-194.0-0.0","0","0","46244","","378","","","68","21","","","1","21","training","adjacent","GF","7","6","N.jpg","M.jpg","1","0","0","",""
"","feedback","","html-keyboard-response","167","540645","0.0-1.0-195.0-0.0","0","0","46244","","null","","","null","21","","","","","","","","","","","","","","","",""
"","time_out","","html-keyboard-response","168","542646","0.0-1.0-197.0-0.0","0","0","46244","","null","","","null","21","","","","","","","","","","","","","","","",""
"","ITI","","html-keyboard-response","169","543648","0.0-1.0-198.0","0","0","46244","","null","","","null","21","","","","","","","","","","","","","","","NaN",""
"","S1","","html-keyboard-response","170","543799","0.0-1.0-200.0","0","0","46244","","null","","","null","22","","","","","","","","","","","","","","","",""
"","ISI","","html-keyboard-response","171","545800","0.0-1.0-201.0","0","0","46244","","null","","","null","22","NaN","","","","","","","","","","","","","","",""
"","S2","","html-keyboard-response","172","545952","0.0-1.0-202.0","0","0","46244","","null","","","null","22","","NaN","","","","","","","","","","","","","",""
"","response","","html-keyboard-response","173","546283","0.0-1.0-203.0-0.0","0","0","46244","","330","","","75","22","","","1","22","training","adjacent","AB","1","2","L.jpg","O.jpg","0","1","0","",""
"","feedback","","html-keyboard-response","174","547285","0.0-1.0-204.0-0.0","0","0","46244","","null","","","null","22","","","","","","","","","","","","","","","",""
"","time_out","","html-keyboard-response","175","549286","0.0-1.0-206.0-0.0","0","0","46244","","null","","","null","22","","","","","","","","","","","","","","","",""
"","ITI","","html-keyboard-response","176","550288","0.0-1.0-207.0","0","0","46244","","null","","","null","22","","","","","","","","","","","","","","","NaN",""
"","S1","","html-keyboard-response","177","550440","0.0-1.0-209.0","0","0","46244","","null","","","null","23","","","","","","","","","","","","","","","",""
"","ISI","","html-keyboard-response","178","552442","0.0-1.0-210.0","0","0","46244","","null","","","null","23","NaN","","","","","","","","","","","","","","",""
"","S2","","html-keyboard-response","179","552594","0.0-1.0-211.0","0","0","46244","","null","","","null","23","","NaN","","","","","","","","","","","","","",""
"","response","","html-keyboard-response","180","553275","0.0-1.0-212.0-0.0","0","0","46244","","680","","","68","23","","","1","23","training","adjacent","EF","5","6","P.jpg","M.jpg","1","1","1","",""
"","feedback","","html-keyboard-response","181","554277","0.0-1.0-213.0-0.0","0","0","46244","","null","","","null","23","","","","","","","","","","","","","","","",""
"","ITI","","html-keyboard-response","182","555278","0.0-1.0-216.0","0","0","46244","","null","","","null","23","","","","","","","","","","","","","","","NaN",""
"","S1","","html-keyboard-response","183","555430","0.0-1.0-218.0","0","0","46244","","null","","","null","24","","","","","","","","","","","","","","","",""
"","ISI","","html-keyboard-response","184","557431","0.0-1.0-219.0","0","0","46244","","null","","","null","24","NaN","","","","","","","","","","","","","","",""
"","S2","","html-keyboard-response","185","557583","0.0-1.0-220.0","0","0","46244","","null","","","null","24","","NaN","","","","","","","","","","","","","",""
"","response","","html-keyboard-response","186","558499","0.0-1.0-221.0-0.0","0","0","46244","","915","","","75","24","","","1","24","training","adjacent","GF","7","6","N.jpg","M.jpg","0","0","1","",""
"","feedback","","html-keyboard-response","187","559501","0.0-1.0-222.0-0.0","0","0","46244","","null","","","null","24","","","","","","","","","","","","","","","",""
"","ITI","","html-keyboard-response","188","560503","0.0-1.0-225.0","0","0","46244","","null","","","null","24","","","","","","","","","","","","","","","NaN",""
"","S1","","html-keyboard-response","189","560654","0.0-1.0-227.0","0","0","46244","","null","","","null","25","","","","","","","","","","","","","","","",""
"","ISI","","html-keyboard-response","190","562656","0.0-1.0-228.0","0","0","46244","","null","","","null","25","NaN","","","","","","","","","","","","","","",""
"","S2","","html-keyboard-response","191","562808","0.0-1.0-229.0","0","0","46244","","null","","","null","25","","NaN","","","","","","","","","","","","","",""
"","response","","html-keyboard-response","192","564051","0.0-1.0-230.0-0.0","0","0","46244","","1242","","","75","25","","","1","25","training","adjacent","DC","4","3","Q.jpg","R.jpg","0","0","1","",""
"","feedback","","html-keyboard-response","193","565053","0.0-1.0-231.0-0.0","0","0","46244","","null","","","null","25","","","","","","","","","","","","","","","",""
"","ITI","","html-keyboard-response","194","566055","0.0-1.0-234.0","0","0","46244","","null","","","null","25","","","","","","","","","","","","","","","NaN",""
"","S1","","html-keyboard-response","195","566207","0.0-1.0-236.0","0","0","46244","","null","","","null","26","","","","","","","","","","","","","","","",""
"","ISI","","html-keyboard-response","196","568208","0.0-1.0-237.0","0","0","46244","","null","","","null","26","NaN","","","","","","","","","","","","","","",""
"","S2","","html-keyboard-response","197","568360","0.0-1.0-238.0","0","0","46244","","null","","","null","26","","NaN","","","","","","","","","","","","","",""
"","response","","html-keyboard-response","198","569499","0.0-1.0-239.0-0.0","0","0","46244","","1138","","","75","26","","","1","26","training","adjacent","FG","6","7","M.jpg","N.jpg","0","1","0","",""
"","feedback","","html-keyboard-response","199","570501","0.0-1.0-240.0-0.0","0","0","46244","","null","","","null","26","","","","","","","","","","","","","","","",""
"","time_out","","html-keyboard-response","200","572502","0.0-1.0-242.0-0.0","0","0","46244","","null","","","null","26","","","","","","","","","","","","","","","",""
"","ITI","","html-keyboard-response","201","573505","0.0-1.0-243.0","0","0","46244","","null","","","null","26","","","","","","","","","","","","","","","NaN",""
"","S1","","html-keyboard-response","202","573657","0.0-1.0-245.0","0","0","46244","","null","","","null","27","","","","","","","","","","","","","","","",""
"","ISI","","html-keyboard-response","203","575658","0.0-1.0-246.0","0","0","46244","","null","","","null","27","NaN","","","","","","","","","","","","","","",""
"","S2","","html-keyboard-response","204","575809","0.0-1.0-247.0","0","0","46244","","null","","","null","27","","NaN","","","","","","","","","","","","","",""
"","response","","html-keyboard-response","205","576259","0.0-1.0-248.0-0.0","0","0","46244","","449","","","75","27","","","1","27","training","adjacent","FG","6","7","M.jpg","N.jpg","0","1","0","",""
"","feedback","","html-keyboard-response","206","577261","0.0-1.0-249.0-0.0","0","0","46244","","null","","","null","27","","","","","","","","","","","","","","","",""
"","time_out","","html-keyboard-response","207","579263","0.0-1.0-251.0-0.0","0","0","46244","","null","","","null","27","","","","","","","","","","","","","","","",""
"","ITI","","html-keyboard-response","208","580264","0.0-1.0-252.0","0","0","46244","","null","","","null","27","","","","","","","","","","","","","","","NaN",""
"","S1","","html-keyboard-response","209","580416","0.0-1.0-254.0","0","0","46244","","null","","","null","28","","","","","","","","","","","","","","","",""
"","ISI","","html-keyboard-response","210","582417","0.0-1.0-255.0","0","0","46244","","null","","","null","28","NaN","","","","","","","","","","","","","","",""
"","S2","","html-keyboard-response","211","582569","0.0-1.0-256.0","0","0","46244","","null","","","null","28","","NaN","","","","","","","","","","","","","",""
"","response","","html-keyboard-response","212","583355","0.0-1.0-257.0-0.0","0","0","46244","","786","","","68","28","","","1","28","training","adjacent","AB","1","2","L.jpg","O.jpg","1","1","1","",""
"","feedback","","html-keyboard-response","213","584359","0.0-1.0-258.0-0.0","0","0","46244","","null","","","null","28","","","","","","","","","","","","","","","",""
"","ITI","","html-keyboard-response","214","585361","0.0-1.0-261.0","0","0","46244","","null","","","null","28","","","","","","","","","","","","","","","NaN",""
"","S1","","html-keyboard-response","215","585512","0.0-1.0-263.0","0","0","46244","","null","","","null","29","","","","","","","","","","","","","","","",""
"","ISI","","html-keyboard-response","216","587514","0.0-1.0-264.0","0","0","46244","","null","","","null","29","NaN","","","","","","","","","","","","","","",""
"","S2","","html-keyboard-response","217","587666","0.0-1.0-265.0","0","0","46244","","null","","","null","29","","NaN","","","","","","","","","","","","","",""
"","response","","html-keyboard-response","218","588187","0.0-1.0-266.0-0.0","0","0","46244","","520","","","68","29","","","1","29","training","adjacent","DC","4","3","Q.jpg","R.jpg","1","0","0","",""
"","feedback","","html-keyboard-response","219","589188","0.0-1.0-267.0-0.0","0","0","46244","","null","","","null","29","","","","","","","","","","","","","","","",""
"","time_out","","html-keyboard-response","220","591190","0.0-1.0-269.0-0.0","0","0","46244","","null","","","null","29","","","","","","","","","","","","","","","",""
"","ITI","","html-keyboard-response","221","592191","0.0-1.0-270.0","0","0","46244","","null","","","null","29","","","","","","","","","","","","","","","NaN",""
"","S1","","html-keyboard-response","222","592343","0.0-1.0-272.0","0","0","46244","","null","","","null","30","","","","","","","","","","","","","","","",""
"","ISI","","html-keyboard-response","223","594344","0.0-1.0-273.0","0","0","46244","","null","","","null","30","NaN","","","","","","","","","","","","","","",""
"","S2","","html-keyboard-response","224","594496","0.0-1.0-274.0","0","0","46244","","null","","","null","30","","NaN","","","","","","","","","","","","","",""
"","response","","html-keyboard-response","225","594899","0.0-1.0-275.0-0.0","0","0","46244","","402","","","75","30","","","1","30","training","adjacent","CB","3","2","R.jpg","O.jpg","0","0","1","",""
"","feedback","","html-keyboard-response","226","595901","0.0-1.0-276.0-0.0","0","0","46244","","null","","","null","30","","","","","","","","","","","","","","","",""
"","ITI","","html-keyboard-response","227","596902","0.0-1.0-279.0","0","0","46244","","null","","","null","30","","","","","","","","","","","","","","","NaN",""
"","S1","","html-keyboard-response","228","597053","0.0-1.0-281.0","0","0","46244","","null","","","null","31","","","","","","","","","","","","","","","",""
"","ISI","","html-keyboard-response","229","599055","0.0-1.0-282.0","0","0","46244","","null","","","null","31","NaN","","","","","","","","","","","","","","",""
"","S2","","html-keyboard-response","230","599206","0.0-1.0-283.0","0","0","46244","","null","","","null","31","","NaN","","","","","","","","","","","","","",""
"","response","","html-keyboard-response","231","600283","0.0-1.0-284.0-0.0","0","0","46244","","1075","","","68","31","","","1","31","training","adjacent","FG","6","7","M.jpg","N.jpg","1","1","1","",""
"","feedback","","html-keyboard-response","232","601285","0.0-1.0-285.0-0.0","0","0","46244","","null","","","null","31","","","","","","","","","","","","","","","",""
"","ITI","","html-keyboard-response","233","602287","0.0-1.0-288.0","0","0","46244","","null","","","null","31","","","","","","","","","","","","","","","NaN",""
"","S1","","html-keyboard-response","234","602439","0.0-1.0-290.0","0","0","46244","","null","","","null","32","","","","","","","","","","","","","","","",""
"","ISI","","html-keyboard-response","235","604440","0.0-1.0-291.0","0","0","46244","","null","","","null","32","NaN","","","","","","","","","","","","","","",""
"","S2","","html-keyboard-response","236","604592","0.0-1.0-292.0","0","0","46244","","null","","","null","32","","NaN","","","","","","","","","","","","","",""
"","response","","html-keyboard-response","237","605363","0.0-1.0-293.0-0.0","0","0","46244","","771","","","75","32","","","1","32","training","adjacent","EF","5","6","P.jpg","M.jpg","0","1","0","",""
"","feedback","","html-keyboard-response","238","606364","0.0-1.0-294.0-0.0","0","0","46244","","null","","","null","32","","","","","","","","","","","","","","","",""
"","time_out","","html-keyboard-response","239","608365","0.0-1.0-296.0-0.0","0","0","46244","","null","","","null","32","","","","","","","","","","","","","","","",""
"","ITI","","html-keyboard-response","240","609367","0.0-1.0-297.0","0","0","46244","","null","","","null","32","","","","","","","","","","","","","","","NaN",""
"","S1","","html-keyboard-response","241","609518","0.0-1.0-299.0","0","0","46244","","null","","","null","33","","","","","","","","","","","","","","","",""
"","ISI","","html-keyboard-response","242","611520","0.0-1.0-300.0","0","0","46244","","null","","","null","33","NaN","","","","","","","","","","","","","","",""
"","S2","","html-keyboard-response","243","611672","0.0-1.0-301.0","0","0","46244","","null","","","null","33","","NaN","","","","","","","","","","","","","",""
"","response","","html-keyboard-response","244","611939","0.0-1.0-302.0-0.0","0","0","46244","","266","","","75","33","","","1","33","training","adjacent","BA","2","1","O.jpg","L.jpg","0","0","1","",""
"","feedback","","html-keyboard-response","245","612941","0.0-1.0-303.0-0.0","0","0","46244","","null","","","null","33","","","","","","","","","","","","","","","",""
"","ITI","","html-keyboard-response","246","613943","0.0-1.0-306.0","0","0","46244","","null","","","null","33","","","","","","","","","","","","","","","NaN",""
"","S1","","html-keyboard-response","247","614095","0.0-1.0-308.0","0","0","46244","","null","","","null","34","","","","","","","","","","","","","","","",""
"","ISI","","html-keyboard-response","248","616096","0.0-1.0-309.0","0","0","46244","","null","","","null","34","NaN","","","","","","","","","","","","","","",""
"","S2","","html-keyboard-response","249","616248","0.0-1.0-310.0","0","0","46244","","null","","","null","34","","NaN","","","","","","","","","","","","","",""
"","response","","html-keyboard-response","250","617011","0.0-1.0-311.0-0.0","0","0","46244","","761","","","68","34","","","1","34","training","adjacent","ED","5","4","P.jpg","Q.jpg","1","0","0","",""
"","feedback","","html-keyboard-response","251","618012","0.0-1.0-312.0-0.0","0","0","46244","","null","","","null","34","","","","","","","","","","","","","","","",""
"","time_out","","html-keyboard-response","252","620014","0.0-1.0-314.0-0.0","0","0","46244","","null","","","null","34","","","","","","","","","","","","","","","",""
"","ITI","","html-keyboard-response","253","621015","0.0-1.0-315.0","0","0","46244","","null","","","null","34","","","","","","","","","","","","","","","NaN",""
"","S1","","html-keyboard-response","254","621167","0.0-1.0-317.0","0","0","46244","","null","","","null","35","","","","","","","","","","","","","","","",""
"","ISI","","html-keyboard-response","255","623169","0.0-1.0-318.0","0","0","46244","","null","","","null","35","NaN","","","","","","","","","","","","","","",""
"","S2","","html-keyboard-response","256","623321","0.0-1.0-319.0","0","0","46244","","null","","","null","35","","NaN","","","","","","","","","","","","","",""
"","response","","html-keyboard-response","257","623731","0.0-1.0-320.0-0.0","0","0","46244","","408","","","68","35","","","1","35","training","adjacent","FG","6","7","M.jpg","N.jpg","1","1","1","",""
"","feedback","","html-keyboard-response","258","624734","0.0-1.0-321.0-0.0","0","0","46244","","null","","","null","35","","","","","","","","","","","","","","","",""
"","ITI","","html-keyboard-response","259","625735","0.0-1.0-324.0","0","0","46244","","null","","","null","35","","","","","","","","","","","","","","","NaN",""
"","S1","","html-keyboard-response","260","625886","0.0-1.0-326.0","0","0","46244","","null","","","null","36","","","","","","","","","","","","","","","",""
"","ISI","","html-keyboard-response","261","627887","0.0-1.0-327.0","0","0","46244","","null","","","null","36","NaN","","","","","","","","","","","","","","",""
"","S2","","html-keyboard-response","262","628039","0.0-1.0-328.0","0","0","46244","","null","","","null","36","","NaN","","","","","","","","","","","","","",""
"","response","","html-keyboard-response","263","628667","0.0-1.0-329.0-0.0","0","0","46244","","627","","","68","36","","","1","36","training","adjacent","DE","4","5","Q.jpg","P.jpg","1","1","1","",""
"","feedback","","html-keyboard-response","264","629669","0.0-1.0-330.0-0.0","0","0","46244","","null","","","null","36","","","","","","","","","","","","","","","",""
"","ITI","","html-keyboard-response","265","630671","0.0-1.0-333.0","0","0","46244","","null","","","null","36","","","","","","","","","","","","","","","NaN",""
"","S1","","html-keyboard-response","266","630822","0.0-1.0-335.0","0","0","46244","","null","","","null","37","","","","","","","","","","","","","","","",""
"","ISI","","html-keyboard-response","267","632824","0.0-1.0-336.0","0","0","46244","","null","","","null","37","NaN","","","","","","","","","","","","","","",""
"","S2","","html-keyboard-response","268","632976","0.0-1.0-337.0","0","0","46244","","null","","","null","37","","NaN","","","","","","","","","","","","","",""
"","response","","html-keyboard-response","269","633899","0.0-1.0-338.0-0.0","0","0","46244","","922","","","75","37","","","1","37","training","adjacent","AB","1","2","L.jpg","O.jpg","0","1","0","",""
"","feedback","","html-keyboard-response","270","634901","0.0-1.0-339.0-0.0","0","0","46244","","null","","","null","37","","","","","","","","","","","","","","","",""
"","time_out","","html-keyboard-response","271","636902","0.0-1.0-341.0-0.0","0","0","46244","","null","","","null","37","","","","","","","","","","","","","","","",""
"","ITI","","html-keyboard-response","272","637904","0.0-1.0-342.0","0","0","46244","","null","","","null","37","","","","","","","","","","","","","","","NaN",""
"","S1","","html-keyboard-response","273","638056","0.0-1.0-344.0","0","0","46244","","null","","","null","38","","","","","","","","","","","","","","","",""
"","ISI","","html-keyboard-response","274","640057","0.0-1.0-345.0","0","0","46244","","null","","","null","38","NaN","","","","","","","","","","","","","","",""
"","S2","","html-keyboard-response","275","640210","0.0-1.0-346.0","0","0","46244","","null","","","null","38","","NaN","","","","","","","","","","","","","",""
"","response","","html-keyboard-response","276","640459","0.0-1.0-347.0-0.0","0","0","46244","","247","","","75","38","","","1","38","training","adjacent","BC","2","3","O.jpg","R.jpg","0","1","0","",""
"","feedback","","html-keyboard-response","277","641462","0.0-1.0-348.0-0.0","0","0","46244","","null","","","null","38","","","","","","","","","","","","","","","",""
"","time_out","","html-keyboard-response","278","643463","0.0-1.0-350.0-0.0","0","0","46244","","null","","","null","38","","","","","","","","","","","","","","","",""
"","ITI","","html-keyboard-response","279","644465","0.0-1.0-351.0","0","0","46244","","null","","","null","38","","","","","","","","","","","","","","","NaN",""
"","S1","","html-keyboard-response","280","644616","0.0-1.0-353.0","0","0","46244","","null","","","null","39","","","","","","","","","","","","","","","",""
"","ISI","","html-keyboard-response","281","646618","0.0-1.0-354.0","0","0","46244","","null","","","null","39","NaN","","","","","","","","","","","","","","",""
"","S2","","html-keyboard-response","282","646770","0.0-1.0-355.0","0","0","46244","","null","","","null","39","","NaN","","","","","","","","","","","","","",""
"","response","","html-keyboard-response","283","647059","0.0-1.0-356.0-0.0","0","0","46244","","288","","","75","39","","","1","39","training","adjacent","BA","2","1","O.jpg","L.jpg","0","0","1","",""
"","feedback","","html-keyboard-response","284","648061","0.0-1.0-357.0-0.0","0","0","46244","","null","","","null","39","","","","","","","","","","","","","","","",""
"","ITI","","html-keyboard-response","285","649062","0.0-1.0-360.0","0","0","46244","","null","","","null","39","","","","","","","","","","","","","","","NaN",""
"","S1","","html-keyboard-response","286","649214","0.0-1.0-362.0","0","0","46244","","null","","","null","40","","","","","","","","","","","","","","","",""
"","ISI","","html-keyboard-response","287","651215","0.0-1.0-363.0","0","0","46244","","null","","","null","40","NaN","","","","","","","","","","","","","","",""
"","S2","","html-keyboard-response","288","651366","0.0-1.0-364.0","0","0","46244","","null","","","null","40","","NaN","","","","","","","","","","","","","",""
"","response","","html-keyboard-response","289","651507","0.0-1.0-365.0-0.0","0","0","46244","","139","","","75","40","","","1","40","training","adjacent","FE","6","5","M.jpg","P.jpg","0","0","1","",""
"","feedback","","html-keyboard-response","290","652509","0.0-1.0-366.0-0.0","0","0","46244","","null","","","null","40","","","","","","","","","","","","","","","",""
"","ITI","","html-keyboard-response","291","653511","0.0-1.0-369.0","0","0","46244","","null","","","null","40","","","","","","","","","","","","","","","NaN",""
"","S1","","html-keyboard-response","292","653662","0.0-1.0-371.0","0","0","46244","","null","","","null","41","","","","","","","","","","","","","","","",""
"","ISI","","html-keyboard-response","293","655665","0.0-1.0-372.0","0","0","46244","","null","","","null","41","NaN","","","","","","","","","","","","","","",""
"","S2","","html-keyboard-response","294","655816","0.0-1.0-373.0","0","0","46244","","null","","","null","41","","NaN","","","","","","","","","","","","","",""
"","response","","html-keyboard-response","295","656035","0.0-1.0-374.0-0.0","0","0","46244","","217","","","75","41","","","1","41","training","adjacent","EF","5","6","P.jpg","M.jpg","0","1","0","",""
"","feedback","","html-keyboard-response","296","657037","0.0-1.0-375.0-0.0","0","0","46244","","null","","","null","41","","","","","","","","","","","","","","","",""
"","time_out","","html-keyboard-response","297","659039","0.0-1.0-377.0-0.0","0","0","46244","","null","","","null","41","","","","","","","","","","","","","","","",""
"","ITI","","html-keyboard-response","298","660041","0.0-1.0-378.0","0","0","46244","","null","","","null","41","","","","","","","","","","","","","","","NaN",""
"","S1","","html-keyboard-response","299","660193","0.0-1.0-380.0","0","0","46244","","null","","","null","42","","","","","","","","","","","","","","","",""
"","ISI","","html-keyboard-response","300","662194","0.0-1.0-381.0","0","0","46244","","609","","","68","42","d","","","","","","","","","","","","","","",""
"","S2","","html-keyboard-response","301","662346","0.0-1.0-382.0","0","0","46244","","null","","","null","42","","NaN","","","","","","","","","","","","","",""
"","response","","html-keyboard-response","302","662571","0.0-1.0-383.0-0.0","0","0","46244","","223","","","68","42","","","1","42","training","adjacent","BC","2","3","O.jpg","R.jpg","1","1","1","",""
"","feedback","","html-keyboard-response","303","663573","0.0-1.0-384.0-0.0","0","0","46244","","null","","","null","42","","","","","","","","","","","","","","","",""
"","ITI","","html-keyboard-response","304","664574","0.0-1.0-387.0","0","0","46244","","null","","","null","42","","","","","","","","","","","","","","","NaN",""
"","S1","","html-keyboard-response","305","664725","0.0-1.0-389.0","0","0","46244","","null","","","null","43","","","","","","","","","","","","","","","",""
"","ISI","","html-keyboard-response","306","666727","0.0-1.0-390.0","0","0","46244","","null","","","null","43","NaN","","","","","","","","","","","","","","",""
"","S2","","html-keyboard-response","307","666879","0.0-1.0-391.0","0","0","46244","","null","","","null","43","","NaN","","","","","","","","","","","","","",""
"","response","","html-keyboard-response","308","667163","0.0-1.0-392.0-0.0","0","0","46244","","284","","","68","43","","","1","43","training","adjacent","GF","7","6","N.jpg","M.jpg","1","0","0","",""
"","feedback","","html-keyboard-response","309","668166","0.0-1.0-393.0-0.0","0","0","46244","","null","","","null","43","","","","","","","","","","","","","","","",""
"","time_out","","html-keyboard-response","310","670168","0.0-1.0-395.0-0.0","0","0","46244","","null","","","null","43","","","","","","","","","","","","","","","",""
"","ITI","","html-keyboard-response","311","671169","0.0-1.0-396.0","0","0","46244","","null","","","null","43","","","","","","","","","","","","","","","NaN",""
"","S1","","html-keyboard-response","312","671321","0.0-1.0-398.0","0","0","46244","","null","","","null","44","","","","","","","","","","","","","","","",""
"","ISI","","html-keyboard-response","313","673322","0.0-1.0-399.0","0","0","46244","","null","","","null","44","NaN","","","","","","","","","","","","","","",""
"","S2","","html-keyboard-response","314","673474","0.0-1.0-400.0","0","0","46244","","null","","","null","44","","NaN","","","","","","","","","","","","","",""
"","response","","html-keyboard-response","315","673747","0.0-1.0-401.0-0.0","0","0","46244","","272","","","68","44","","","1","44","training","adjacent","DE","4","5","Q.jpg","P.jpg","1","1","1","",""
"","feedback","","html-keyboard-response","316","674748","0.0-1.0-402.0-0.0","0","0","46244","","null","","","null","44","","","","","","","","","","","","","","","",""
"","ITI","","html-keyboard-response","317","675750","0.0-1.0-405.0","0","0","46244","","null","","","null","44","","","","","","","","","","","","","","","NaN",""
"","S1","","html-keyboard-response","318","675901","0.0-1.0-407.0","0","0","46244","","null","","","null","45","","","","","","","","","","","","","","","",""
"","ISI","","html-keyboard-response","319","677903","0.0-1.0-408.0","0","0","46244","","null","","","null","45","NaN","","","","","","","","","","","","","","",""
"","S2","","html-keyboard-response","320","678055","0.0-1.0-409.0","0","0","46244","","null","","","null","45","","NaN","","","","","","","","","","","","","",""
"","response","","html-keyboard-response","321","678499","0.0-1.0-410.0-0.0","0","0","46244","","443","","","68","45","","","1","45","training","adjacent","BC","2","3","O.jpg","R.jpg","1","1","1","",""
"","feedback","","html-keyboard-response","322","679500","0.0-1.0-411.0-0.0","0","0","46244","","null","","","null","45","","","","","","","","","","","","","","","",""
"","ITI","","html-keyboard-response","323","680502","0.0-1.0-414.0","0","0","46244","","null","","","null","45","","","","","","","","","","","","","","","NaN",""
"","S1","","html-keyboard-response","324","680653","0.0-1.0-416.0","0","0","46244","","null","","","null","46","","","","","","","","","","","","","","","",""
"","ISI","","html-keyboard-response","325","682655","0.0-1.0-417.0","0","0","46244","","null","","","null","46","NaN","","","","","","","","","","","","","","",""
"","S2","","html-keyboard-response","326","682807","0.0-1.0-418.0","0","0","46244","","null","","","null","46","","NaN","","","","","","","","","","","","","",""
"","response","","html-keyboard-response","327","683547","0.0-1.0-419.0-0.0","0","0","46244","","739","","","75","46","","","1","46","training","adjacent","CD","3","4","R.jpg","Q.jpg","0","1","0","",""
"","feedback","","html-keyboard-response","328","684551","0.0-1.0-420.0-0.0","0","0","46244","","null","","","null","46","","","","","","","","","","","","","","","",""
"","time_out","","html-keyboard-response","329","686552","0.0-1.0-422.0-0.0","0","0","46244","","null","","","null","46","","","","","","","","","","","","","","","",""
"","ITI","","html-keyboard-response","330","687554","0.0-1.0-423.0","0","0","46244","","null","","","null","46","","","","","","","","","","","","","","","NaN",""
"","S1","","html-keyboard-response","331","687706","0.0-1.0-425.0","0","0","46244","","null","","","null","47","","","","","","","","","","","","","","","",""
"","ISI","","html-keyboard-response","332","689708","0.0-1.0-426.0","0","0","46244","","null","","","null","47","NaN","","","","","","","","","","","","","","",""
"","S2","","html-keyboard-response","333","689859","0.0-1.0-427.0","0","0","46244","","null","","","null","47","","NaN","","","","","","","","","","","","","",""
"","response","","html-keyboard-response","334","690947","0.0-1.0-428.0-0.0","0","0","46244","","1087","","","68","47","","","1","47","training","adjacent","BC","2","3","O.jpg","R.jpg","1","1","1","",""
"","feedback","","html-keyboard-response","335","691949","0.0-1.0-429.0-0.0","0","0","46244","","null","","","null","47","","","","","","","","","","","","","","","",""
"","ITI","","html-keyboard-response","336","692950","0.0-1.0-432.0","0","0","46244","","null","","","null","47","","","","","","","","","","","","","","","NaN",""
"","block_over","","html-keyboard-response","337","711443","0.0-1.0-433.0-0.0","0","0","46244","","18491","","","32","47","","","","","","","","","","","","","","","",""
"","S1","","html-keyboard-response","338","711595","0.0-1.0-434.0","0","0","46244","","null","","","null","48","","","","","","","","","","","","","","","",""
"","ISI","","html-keyboard-response","339","713597","0.0-1.0-435.0","0","0","46244","","null","","","null","48","NaN","","","","","","","","","","","","","","",""
"","S2","","html-keyboard-response","340","713749","0.0-1.0-436.0","0","0","46244","","null","","","null","48","","NaN","","","","","","","","","","","","","",""
"","response","","html-keyboard-response","341","714676","0.0-1.0-437.0-0.0","0","0","46244","","926","","","75","48","","","2","48","training","adjacent","ED","5","4","P.jpg","Q.jpg","0","0","1","",""
"","feedback","","html-keyboard-response","342","715677","0.0-1.0-438.0-0.0","0","0","46244","","null","","","null","48","","","","","","","","","","","","","","","",""
"","ITI","","html-keyboard-response","343","716679","0.0-1.0-441.0","0","0","46244","","null","","","null","48","","","","","","","","","","","","","","","NaN",""
"","S1","","html-keyboard-response","344","716831","0.0-1.0-443.0","0","0","46244","","null","","","null","49","","","","","","","","","","","","","","","",""
"","ISI","","html-keyboard-response","345","718833","0.0-1.0-444.0","0","0","46244","","null","","","null","49","NaN","","","","","","","","","","","","","","",""
"","S2","","html-keyboard-response","346","718985","0.0-1.0-445.0","0","0","46244","","null","","","null","49","","NaN","","","","","","","","","","","","","",""
"","response","","html-keyboard-response","347","719531","0.0-1.0-446.0-0.0","0","0","46244","","546","","","75","49","","","2","49","training","adjacent","EF","5","6","P.jpg","M.jpg","0","1","0","",""
"","feedback","","html-keyboard-response","348","720533","0.0-1.0-447.0-0.0","0","0","46244","","null","","","null","49","","","","","","","","","","","","","","","",""
"","time_out","","html-keyboard-response","349","722534","0.0-1.0-449.0-0.0","0","0","46244","","null","","","null","49","","","","","","","","","","","","","","","",""
"","ITI","","html-keyboard-response","350","723536","0.0-1.0-450.0","0","0","46244","","null","","","null","49","","","","","","","","","","","","","","","NaN",""
"","S1","","html-keyboard-response","351","723688","0.0-1.0-452.0","0","0","46244","","null","","","null","50","","","","","","","","","","","","","","","",""
"","ISI","","html-keyboard-response","352","725690","0.0-1.0-453.0","0","0","46244","","null","","","null","50","NaN","","","","","","","","","","","","","","",""
"","S2","","html-keyboard-response","353","725841","0.0-1.0-454.0","0","0","46244","","null","","","null","50","","NaN","","","","","","","","","","","","","",""
"","response","","html-keyboard-response","354","726115","0.0-1.0-455.0-0.0","0","0","46244","","274","","","68","50","","","2","50","training","adjacent","GF","7","6","N.jpg","M.jpg","1","0","0","",""
"","feedback","","html-keyboard-response","355","727117","0.0-1.0-456.0-0.0","0","0","46244","","null","","","null","50","","","","","","","","","","","","","","","",""
"","time_out","","html-keyboard-response","356","729119","0.0-1.0-458.0-0.0","0","0","46244","","null","","","null","50","","","","","","","","","","","","","","","",""
"","ITI","","html-keyboard-response","357","730120","0.0-1.0-459.0","0","0","46244","","null","","","null","50","","","","","","","","","","","","","","","NaN",""
"","S1","","html-keyboard-response","358","730271","0.0-1.0-461.0","0","0","46244","","null","","","null","51","","","","","","","","","","","","","","","",""
"","ISI","","html-keyboard-response","359","732273","0.0-1.0-462.0","0","0","46244","","null","","","null","51","NaN","","","","","","","","","","","","","","",""
"","S2","","html-keyboard-response","360","732426","0.0-1.0-463.0","0","0","46244","","null","","","null","51","","NaN","","","","","","","","","","","","","",""
"","response","","html-keyboard-response","361","732915","0.0-1.0-464.0-0.0","0","0","46244","","489","","","68","51","","","2","51","training","adjacent","BC","2","3","O.jpg","R.jpg","1","1","1","",""
"","feedback","","html-keyboard-response","362","733917","0.0-1.0-465.0-0.0","0","0","46244","","null","","","null","51","","","","","","","","","","","","","","","",""
"","ITI","","html-keyboard-response","363","734919","0.0-1.0-468.0","0","0","46244","","null","","","null","51","","","","","","","","","","","","","","","NaN",""
"","S1","","html-keyboard-response","364","735070","0.0-1.0-470.0","0","0","46244","","null","","","null","52","","","","","","","","","","","","","","","",""
"","ISI","","html-keyboard-response","365","737072","0.0-1.0-471.0","0","0","46244","","null","","","null","52","NaN","","","","","","","","","","","","","","",""
"","S2","","html-keyboard-response","366","737224","0.0-1.0-472.0","0","0","46244","","null","","","null","52","","NaN","","","","","","","","","","","","","",""
"","response","","html-keyboard-response","367","738963","0.0-1.0-473.0-0.0","0","0","46244","","1739","","","75","52","","","2","52","training","adjacent","CB","3","2","R.jpg","O.jpg","0","0","1","",""
"","feedback","","html-keyboard-response","368","739966","0.0-1.0-474.0-0.0","0","0","46244","","null","","","null","52","","","","","","","","","","","","","","","",""
"","ITI","","html-keyboard-response","369","740967","0.0-1.0-477.0","0","0","46244","","null","","","null","52","","","","","","","","","","","","","","","NaN",""
"","S1","","html-keyboard-response","370","741119","0.0-1.0-479.0","0","0","46244","","null","","","null","53","","","","","","","","","","","","","","","",""
"","ISI","","html-keyboard-response","371","743120","0.0-1.0-480.0","0","0","46244","","null","","","null","53","NaN","","","","","","","","","","","","","","",""
"","S2","","html-keyboard-response","372","743271","0.0-1.0-481.0","0","0","46244","","null","","","null","53","","NaN","","","","","","","","","","","","","",""
"","response","","html-keyboard-response","373","744275","0.0-1.0-482.0-0.0","0","0","46244","","1002","","","68","53","","","2","53","training","adjacent","CB","3","2","R.jpg","O.jpg","1","0","0","",""
"","feedback","","html-keyboard-response","374","745278","0.0-1.0-483.0-0.0","0","0","46244","","null","","","null","53","","","","","","","","","","","","","","","",""
"","time_out","","html-keyboard-response","375","747279","0.0-1.0-485.0-0.0","0","0","46244","","null","","","null","53","","","","","","","","","","","","","","","",""
"","ITI","","html-keyboard-response","376","748280","0.0-1.0-486.0","0","0","46244","","null","","","null","53","","","","","","","","","","","","","","","NaN",""
"","S1","","html-keyboard-response","377","748432","0.0-1.0-488.0","0","0","46244","","null","","","null","54","","","","","","","","","","","","","","","",""
"","ISI","","html-keyboard-response","378","750433","0.0-1.0-489.0","0","0","46244","","null","","","null","54","NaN","","","","","","","","","","","","","","",""
"","S2","","html-keyboard-response","379","750585","0.0-1.0-490.0","0","0","46244","","null","","","null","54","","NaN","","","","","","","","","","","","","",""
"","response","","html-keyboard-response","380","751411","0.0-1.0-491.0-0.0","0","0","46244","","825","","","75","54","","","2","54","training","adjacent","CD","3","4","R.jpg","Q.jpg","0","1","0","",""
"","feedback","","html-keyboard-response","381","752412","0.0-1.0-492.0-0.0","0","0","46244","","null","","","null","54","","","","","","","","","","","","","","","",""
"","time_out","","html-keyboard-response","382","754414","0.0-1.0-494.0-0.0","0","0","46244","","null","","","null","54","","","","","","","","","","","","","","","",""
"","ITI","","html-keyboard-response","383","755416","0.0-1.0-495.0","0","0","46244","","null","","","null","54","","","","","","","","","","","","","","","NaN",""
"","S1","","html-keyboard-response","384","755569","0.0-1.0-497.0","0","0","46244","","null","","","null","55","","","","","","","","","","","","","","","",""
"","ISI","","html-keyboard-response","385","757571","0.0-1.0-498.0","0","0","46244","","null","","","null","55","NaN","","","","","","","","","","","","","","",""
"","S2","","html-keyboard-response","386","757722","0.0-1.0-499.0","0","0","46244","","null","","","null","55","","NaN","","","","","","","","","","","","","",""
"","response","","html-keyboard-response","387","758379","0.0-1.0-500.0-0.0","0","0","46244","","656","","","68","55","","","2","55","training","adjacent","FG","6","7","M.jpg","N.jpg","1","1","1","",""
"","feedback","","html-keyboard-response","388","759381","0.0-1.0-501.0-0.0","0","0","46244","","null","","","null","55","","","","","","","","","","","","","","","",""
"","ITI","","html-keyboard-response","389","760382","0.0-1.0-504.0","0","0","46244","","null","","","null","55","","","","","","","","","","","","","","","NaN",""
"","S1","","html-keyboard-response","390","760535","0.0-1.0-506.0","0","0","46244","","null","","","null","56","","","","","","","","","","","","","","","",""
"","ISI","","html-keyboard-response","391","762537","0.0-1.0-507.0","0","0","46244","","null","","","null","56","NaN","","","","","","","","","","","","","","",""
"","S2","","html-keyboard-response","392","762689","0.0-1.0-508.0","0","0","46244","","null","","","null","56","","NaN","","","","","","","","","","","","","",""
"","response","","html-keyboard-response","393","763395","0.0-1.0-509.0-0.0","0","0","46244","","704","","","75","56","","","2","56","training","adjacent","AB","1","2","L.jpg","O.jpg","0","1","0","",""
"","feedback","","html-keyboard-response","394","764397","0.0-1.0-510.0-0.0","0","0","46244","","null","","","null","56","","","","","","","","","","","","","","","",""
"","time_out","","html-keyboard-response","395","766398","0.0-1.0-512.0-0.0","0","0","46244","","null","","","null","56","","","","","","","","","","","","","","","",""
"","ITI","","html-keyboard-response","396","767400","0.0-1.0-513.0","0","0","46244","","null","","","null","56","","","","","","","","","","","","","","","NaN",""
"","S1","","html-keyboard-response","397","767552","0.0-1.0-515.0","0","0","46244","","null","","","null","57","","","","","","","","","","","","","","","",""
"","ISI","","html-keyboard-response","398","769556","0.0-1.0-516.0","0","0","46244","","null","","","null","57","NaN","","","","","","","","","","","","","","",""
"","S2","","html-keyboard-response","399","769707","0.0-1.0-517.0","0","0","46244","","null","","","null","57","","NaN","","","","","","","","","","","","","",""
"","response","","html-keyboard-response","400","769963","0.0-1.0-518.0-0.0","0","0","46244","","254","","","75","57","","","2","57","training","adjacent","CD","3","4","R.jpg","Q.jpg","0","1","0","",""
"","feedback","","html-keyboard-response","401","770966","0.0-1.0-519.0-0.0","0","0","46244","","null","","","null","57","","","","","","","","","","","","","","","",""
"","time_out","","html-keyboard-response","402","772967","0.0-1.0-521.0-0.0","0","0","46244","","null","","","null","57","","","","","","","","","","","","","","","",""
"","ITI","","html-keyboard-response","403","773969","0.0-1.0-522.0","0","0","46244","","null","","","null","57","","","","","","","","","","","","","","","NaN",""
"","S1","","html-keyboard-response","404","774121","0.0-1.0-524.0","0","0","46244","","null","","","null","58","","","","","","","","","","","","","","","",""
"","ISI","","html-keyboard-response","405","776122","0.0-1.0-525.0","0","0","46244","","null","","","null","58","NaN","","","","","","","","","","","","","","",""
"","S2","","html-keyboard-response","406","776274","0.0-1.0-526.0","0","0","46244","","null","","","null","58","","NaN","","","","","","","","","","","","","",""
"","response","","html-keyboard-response","407","776531","0.0-1.0-527.0-0.0","0","0","46244","","256","","","75","58","","","2","58","training","adjacent","DC","4","3","Q.jpg","R.jpg","0","0","1","",""
"","feedback","","html-keyboard-response","408","777533","0.0-1.0-528.0-0.0","0","0","46244","","null","","","null","58","","","","","","","","","","","","","","","",""
"","ITI","","html-keyboard-response","409","778535","0.0-1.0-531.0","0","0","46244","","null","","","null","58","","","","","","","","","","","","","","","NaN",""
"","S1","","html-keyboard-response","410","778687","0.0-1.0-533.0","0","0","46244","","null","","","null","59","","","","","","","","","","","","","","","",""
"","ISI","","html-keyboard-response","411","780689","0.0-1.0-534.0","0","0","46244","","null","","","null","59","NaN","","","","","","","","","","","","","","",""
"","S2","","html-keyboard-response","412","780841","0.0-1.0-535.0","0","0","46244","","null","","","null","59","","NaN","","","","","","","","","","","","","",""
"","response","","html-keyboard-response","413","781539","0.0-1.0-536.0-0.0","0","0","46244","","698","","","75","59","","","2","59","training","adjacent","BC","2","3","O.jpg","R.jpg","0","1","0","",""
"","feedback","","html-keyboard-response","414","782541","0.0-1.0-537.0-0.0","0","0","46244","","null","","","null","59","","","","","","","","","","","","","","","",""
"","time_out","","html-keyboard-response","415","784543","0.0-1.0-539.0-0.0","0","0","46244","","null","","","null","59","","","","","","","","","","","","","","","",""
"","ITI","","html-keyboard-response","416","785545","0.0-1.0-540.0","0","0","46244","","null","","","null","59","","","","","","","","","","","","","","","NaN",""
"","S1","","html-keyboard-response","417","785696","0.0-1.0-542.0","0","0","46244","","null","","","null","60","","","","","","","","","","","","","","","",""
"","ISI","","html-keyboard-response","418","787698","0.0-1.0-543.0","0","0","46244","","210","","","68","60","d","","","","","","","","","","","","","","",""
"","S2","","html-keyboard-response","419","787850","0.0-1.0-544.0","0","0","46244","","null","","","null","60","","NaN","","","","","","","","","","","","","",""
"","response","","html-keyboard-response","420","787875","0.0-1.0-545.0-0.0","0","0","46244","","24","","","68","60","","","2","60","training","adjacent","DE","4","5","Q.jpg","P.jpg","1","1","1","",""
"","feedback","","html-keyboard-response","421","788877","0.0-1.0-546.0-0.0","0","0","46244","","null","","","null","60","","","","","","","","","","","","","","","",""
"","ITI","","html-keyboard-response","422","789878","0.0-1.0-549.0","0","0","46244","","null","","","null","60","","","","","","","","","","","","","","","NaN",""
"","S1","","html-keyboard-response","423","790030","0.0-1.0-551.0","0","0","46244","","null","","","null","61","","","","","","","","","","","","","","","",""
"","ISI","","html-keyboard-response","424","792032","0.0-1.0-552.0","0","0","46244","","null","","","null","61","NaN","","","","","","","","","","","","","","",""
"","S2","","html-keyboard-response","425","792184","0.0-1.0-553.0","0","0","46244","","null","","","null","61","","NaN","","","","","","","","","","","","","",""
"","response","","html-keyboard-response","426","792867","0.0-1.0-554.0-0.0","0","0","46244","","682","","","68","61","","","2","61","training","adjacent","GF","7","6","N.jpg","M.jpg","1","0","0","",""
"","feedback","","html-keyboard-response","427","793870","0.0-1.0-555.0-0.0","0","0","46244","","null","","","null","61","","","","","","","","","","","","","","","",""
"","time_out","","html-keyboard-response","428","795871","0.0-1.0-557.0-0.0","0","0","46244","","null","","","null","61","","","","","","","","","","","","","","","",""
"","ITI","","html-keyboard-response","429","796873","0.0-1.0-558.0","0","0","46244","","null","","","null","61","","","","","","","","","","","","","","","NaN",""
"","S1","","html-keyboard-response","430","797025","0.0-1.0-560.0","0","0","46244","","null","","","null","62","","","","","","","","","","","","","","","",""
"","ISI","","html-keyboard-response","431","799026","0.0-1.0-561.0","0","0","46244","","null","","","null","62","NaN","","","","","","","","","","","","","","",""
"","S2","","html-keyboard-response","432","799177","0.0-1.0-562.0","0","0","46244","","null","","","null","62","","NaN","","","","","","","","","","","","","",""
"","response","","html-keyboard-response","433","799644","0.0-1.0-563.0-0.0","0","0","46244","","465","","","75","62","","","2","62","training","adjacent","CD","3","4","R.jpg","Q.jpg","0","1","0","",""
"","feedback","","html-keyboard-response","434","800645","0.0-1.0-564.0-0.0","0","0","46244","","null","","","null","62","","","","","","","","","","","","","","","",""
"","time_out","","html-keyboard-response","435","802647","0.0-1.0-566.0-0.0","0","0","46244","","null","","","null","62","","","","","","","","","","","","","","","",""
"","ITI","","html-keyboard-response","436","803648","0.0-1.0-567.0","0","0","46244","","null","","","null","62","","","","","","","","","","","","","","","NaN",""
"","S1","","html-keyboard-response","437","803800","0.0-1.0-569.0","0","0","46244","","null","","","null","63","","","","","","","","","","","","","","","",""
"","ISI","","html-keyboard-response","438","805802","0.0-1.0-570.0","0","0","46244","","546","","","68","63","d","","","","","","","","","","","","","","",""
"","S2","","html-keyboard-response","439","805953","0.0-1.0-571.0","0","0","46244","","null","","","null","63","","NaN","","","","","","","","","","","","","",""
"","response","","html-keyboard-response","440","806179","0.0-1.0-572.0-0.0","0","0","46244","","225","","","75","63","","","2","63","training","adjacent","FG","6","7","M.jpg","N.jpg","0","1","0","",""
"","feedback","","html-keyboard-response","441","807181","0.0-1.0-573.0-0.0","0","0","46244","","null","","","null","63","","","","","","","","","","","","","","","",""
"","time_out","","html-keyboard-response","442","809183","0.0-1.0-575.0-0.0","0","0","46244","","null","","","null","63","","","","","","","","","","","","","","","",""
"","ITI","","html-keyboard-response","443","810185","0.0-1.0-576.0","0","0","46244","","null","","","null","63","","","","","","","","","","","","","","","NaN",""
"","S1","","html-keyboard-response","444","810337","0.0-1.0-578.0","0","0","46244","","null","","","null","64","","","","","","","","","","","","","","","",""
"","ISI","","html-keyboard-response","445","812339","0.0-1.0-579.0","0","0","46244","","null","","","null","64","NaN","","","","","","","","","","","","","","",""
"","S2","","html-keyboard-response","446","812490","0.0-1.0-580.0","0","0","46244","","null","","","null","64","","NaN","","","","","","","","","","","","","",""
"","response","","html-keyboard-response","447","813163","0.0-1.0-581.0-0.0","0","0","46244","","672","","","68","64","","","2","64","training","adjacent","BA","2","1","O.jpg","L.jpg","1","0","0","",""
"","feedback","","html-keyboard-response","448","814166","0.0-1.0-582.0-0.0","0","0","46244","","null","","","null","64","","","","","","","","","","","","","","","",""
"","time_out","","html-keyboard-response","449","816180","0.0-1.0-584.0-0.0","0","0","46244","","null","","","null","64","","","","","","","","","","","","","","","",""
"","ITI","","html-keyboard-response","450","817182","0.0-1.0-585.0","0","0","46244","","null","","","null","64","","","","","","","","","","","","","","","NaN",""
"","S1","","html-keyboard-response","451","817333","0.0-1.0-587.0","0","0","46244","","null","","","null","65","","","","","","","","","","","","","","","",""
"","ISI","","html-keyboard-response","452","819335","0.0-1.0-588.0","0","0","46244","","null","","","null","65","NaN","","","","","","","","","","","","","","",""
"","S2","","html-keyboard-response","453","819491","0.0-1.0-589.0","0","0","46244","","null","","","null","65","","NaN","","","","","","","","","","","","","",""
"","response","","html-keyboard-response","454","820507","0.0-1.0-590.0-0.0","0","0","46244","","1015","","","68","65","","","2","65","training","adjacent","DC","4","3","Q.jpg","R.jpg","1","0","0","",""
"","feedback","","html-keyboard-response","455","821508","0.0-1.0-591.0-0.0","0","0","46244","","null","","","null","65","","","","","","","","","","","","","","","",""
"","time_out","","html-keyboard-response","456","823510","0.0-1.0-593.0-0.0","0","0","46244","","null","","","null","65","","","","","","","","","","","","","","","",""
"","ITI","","html-keyboard-response","457","824512","0.0-1.0-594.0","0","0","46244","","null","","","null","65","","","","","","","","","","","","","","","NaN",""
"","S1","","html-keyboard-response","458","824664","0.0-1.0-596.0","0","0","46244","","null","","","null","66","","","","","","","","","","","","","","","",""
"","ISI","","html-keyboard-response","459","826665","0.0-1.0-597.0","0","0","46244","","null","","","null","66","NaN","","","","","","","","","","","","","","",""
"","S2","","html-keyboard-response","460","826818","0.0-1.0-598.0","0","0","46244","","null","","","null","66","","NaN","","","","","","","","","","","","","",""
"","response","","html-keyboard-response","461","827003","0.0-1.0-599.0-0.0","0","0","46244","","185","","","75","66","","","2","66","training","adjacent","DE","4","5","Q.jpg","P.jpg","0","1","0","",""
"","feedback","","html-keyboard-response","462","828005","0.0-1.0-600.0-0.0","0","0","46244","","null","","","null","66","","","","","","","","","","","","","","","",""
"","time_out","","html-keyboard-response","463","830007","0.0-1.0-602.0-0.0","0","0","46244","","null","","","null","66","","","","","","","","","","","","","","","",""
"","ITI","","html-keyboard-response","464","831008","0.0-1.0-603.0","0","0","46244","","null","","","null","66","","","","","","","","","","","","","","","NaN",""
"","S1","","html-keyboard-response","465","831160","0.0-1.0-605.0","0","0","46244","","null","","","null","67","","","","","","","","","","","","","","","",""
"","ISI","","html-keyboard-response","466","833162","0.0-1.0-606.0","0","0","46244","","null","","","null","67","NaN","","","","","","","","","","","","","","",""
"","S2","","html-keyboard-response","467","833313","0.0-1.0-607.0","0","0","46244","","null","","","null","67","","NaN","","","","","","","","","","","","","",""
"","response","","html-keyboard-response","468","833683","0.0-1.0-608.0-0.0","0","0","46244","","370","","","75","67","","","2","67","training","adjacent","AB","1","2","L.jpg","O.jpg","0","1","0","",""
"","feedback","","html-keyboard-response","469","834686","0.0-1.0-609.0-0.0","0","0","46244","","null","","","null","67","","","","","","","","","","","","","","","",""
"","time_out","","html-keyboard-response","470","836687","0.0-1.0-611.0-0.0","0","0","46244","","null","","","null","67","","","","","","","","","","","","","","","",""
"","ITI","","html-keyboard-response","471","837689","0.0-1.0-612.0","0","0","46244","","null","","","null","67","","","","","","","","","","","","","","","NaN",""
"","S1","","html-keyboard-response","472","837840","0.0-1.0-614.0","0","0","46244","","null","","","null","68","","","","","","","","","","","","","","","",""
"","ISI","","html-keyboard-response","473","839842","0.0-1.0-615.0","0","0","46244","","null","","","null","68","NaN","","","","","","","","","","","","","","",""
"","S2","","html-keyboard-response","474","839994","0.0-1.0-616.0","0","0","46244","","null","","","null","68","","NaN","","","","","","","","","","","","","",""
"","response","","html-keyboard-response","475","840563","0.0-1.0-617.0-0.0","0","0","46244","","569","","","75","68","","","2","68","training","adjacent","BC","2","3","O.jpg","R.jpg","0","1","0","",""
"","feedback","","html-keyboard-response","476","841565","0.0-1.0-618.0-0.0","0","0","46244","","null","","","null","68","","","","","","","","","","","","","","","",""
"","time_out","","html-keyboard-response","477","843567","0.0-1.0-620.0-0.0","0","0","46244","","null","","","null","68","","","","","","","","","","","","","","","",""
"","ITI","","html-keyboard-response","478","844569","0.0-1.0-621.0","0","0","46244","","null","","","null","68","","","","","","","","","","","","","","","NaN",""
"","S1","","html-keyboard-response","479","844721","0.0-1.0-623.0","0","0","46244","","null","","","null","69","","","","","","","","","","","","","","","",""
"","ISI","","html-keyboard-response","480","846723","0.0-1.0-624.0","0","0","46244","","null","","","null","69","NaN","","","","","","","","","","","","","","",""
"","S2","","html-keyboard-response","481","846875","0.0-1.0-625.0","0","0","46244","","null","","","null","69","","NaN","","","","","","","","","","","","","",""
"","response","","html-keyboard-response","482","847299","0.0-1.0-626.0-0.0","0","0","46244","","423","","","75","69","","","2","69","training","adjacent","AB","1","2","L.jpg","O.jpg","0","1","0","",""
"","feedback","","html-keyboard-response","483","848301","0.0-1.0-627.0-0.0","0","0","46244","","null","","","null","69","","","","","","","","","","","","","","","",""
"","time_out","","html-keyboard-response","484","850303","0.0-1.0-629.0-0.0","0","0","46244","","null","","","null","69","","","","","","","","","","","","","","","",""
"","ITI","","html-keyboard-response","485","851305","0.0-1.0-630.0","0","0","46244","","null","","","null","69","","","","","","","","","","","","","","","NaN",""
"","S1","","html-keyboard-response","486","851456","0.0-1.0-632.0","0","0","46244","","null","","","null","70","","","","","","","","","","","","","","","",""
"","ISI","","html-keyboard-response","487","853457","0.0-1.0-633.0","0","0","46244","","null","","","null","70","NaN","","","","","","","","","","","","","","",""
"","S2","","html-keyboard-response","488","853624","0.0-1.0-634.0","0","0","46244","","null","","","null","70","","NaN","","","","","","","","","","","","","",""
"","response","","html-keyboard-response","489","854011","0.0-1.0-635.0-0.0","0","0","46244","","386","","","68","70","","","2","70","training","adjacent","EF","5","6","P.jpg","M.jpg","1","1","1","",""
"","feedback","","html-keyboard-response","490","855013","0.0-1.0-636.0-0.0","0","0","46244","","null","","","null","70","","","","","","","","","","","","","","","",""
"","ITI","","html-keyboard-response","491","856026","0.0-1.0-639.0","0","0","46244","","null","","","null","70","","","","","","","","","","","","","","","NaN",""
"","S1","","html-keyboard-response","492","856177","0.0-1.0-641.0","0","0","46244","","null","","","null","71","","","","","","","","","","","","","","","",""
"","ISI","","html-keyboard-response","493","858178","0.0-1.0-642.0","0","0","46244","","null","","","null","71","NaN","","","","","","","","","","","","","","",""
"","S2","","html-keyboard-response","494","858330","0.0-1.0-643.0","0","0","46244","","null","","","null","71","","NaN","","","","","","","","","","","","","",""
"","response","","html-keyboard-response","495","858891","0.0-1.0-644.0-0.0","0","0","46244","","560","","","68","71","","","2","71","training","adjacent","CD","3","4","R.jpg","Q.jpg","1","1","1","",""
"","feedback","","html-keyboard-response","496","859894","0.0-1.0-645.0-0.0","0","0","46244","","null","","","null","71","","","","","","","","","","","","","","","",""
"","ITI","","html-keyboard-response","497","860895","0.0-1.0-648.0","0","0","46244","","null","","","null","71","","","","","","","","","","","","","","","NaN",""
"","S1","","html-keyboard-response","498","861047","0.0-1.0-650.0","0","0","46244","","null","","","null","72","","","","","","","","","","","","","","","",""
"","ISI","","html-keyboard-response","499","863048","0.0-1.0-651.0","0","0","46244","","null","","","null","72","NaN","","","","","","","","","","","","","","",""
"","S2","","html-keyboard-response","500","863200","0.0-1.0-652.0","0","0","46244","","null","","","null","72","","NaN","","","","","","","","","","","","","",""
"","response","","html-keyboard-response","501","864059","0.0-1.0-653.0-0.0","0","0","46244","","858","","","68","72","","","2","72","training","adjacent","FE","6","5","M.jpg","P.jpg","1","0","0","",""
"","feedback","","html-keyboard-response","502","865061","0.0-1.0-654.0-0.0","0","0","46244","","null","","","null","72","","","","","","","","","","","","","","","",""
"","time_out","","html-keyboard-response","503","867062","0.0-1.0-656.0-0.0","0","0","46244","","null","","","null","72","","","","","","","","","","","","","","","",""
"","ITI","","html-keyboard-response","504","868063","0.0-1.0-657.0","0","0","46244","","null","","","null","72","","","","","","","","","","","","","","","NaN",""
"","S1","","html-keyboard-response","505","868215","0.0-1.0-659.0","0","0","46244","","null","","","null","73","","","","","","","","","","","","","","","",""
"","ISI","","html-keyboard-response","506","870217","0.0-1.0-660.0","0","0","46244","","null","","","null","73","NaN","","","","","","","","","","","","","","",""
"","S2","","html-keyboard-response","507","870368","0.0-1.0-661.0","0","0","46244","","null","","","null","73","","NaN","","","","","","","","","","","","","",""
"","response","","html-keyboard-response","508","871283","0.0-1.0-662.0-0.0","0","0","46244","","913","","","75","73","","","2","73","training","adjacent","BA","2","1","O.jpg","L.jpg","0","0","1","",""
"","feedback","","html-keyboard-response","509","872286","0.0-1.0-663.0-0.0","0","0","46244","","null","","","null","73","","","","","","","","","","","","","","","",""
"","ITI","","html-keyboard-response","510","873288","0.0-1.0-666.0","0","0","46244","","null","","","null","73","","","","","","","","","","","","","","","NaN",""
"","S1","","html-keyboard-response","511","873439","0.0-1.0-668.0","0","0","46244","","null","","","null","74","","","","","","","","","","","","","","","",""
"","ISI","","html-keyboard-response","512","875440","0.0-1.0-669.0","0","0","46244","","null","","","null","74","NaN","","","","","","","","","","","","","","",""
"","S2","","html-keyboard-response","513","875592","0.0-1.0-670.0","0","0","46244","","null","","","null","74","","NaN","","","","","","","","","","","","","",""
"","response","","html-keyboard-response","514","876515","0.0-1.0-671.0-0.0","0","0","46244","","922","","","75","74","","","2","74","training","adjacent","FE","6","5","M.jpg","P.jpg","0","0","1","",""
"","feedback","","html-keyboard-response","515","877521","0.0-1.0-672.0-0.0","0","0","46244","","null","","","null","74","","","","","","","","","","","","","","","",""
"","ITI","","html-keyboard-response","516","878524","0.0-1.0-675.0","0","0","46244","","null","","","null","74","","","","","","","","","","","","","","","NaN",""
"","S1","","html-keyboard-response","517","878676","0.0-1.0-677.0","0","0","46244","","null","","","null","75","","","","","","","","","","","","","","","",""
"","ISI","","html-keyboard-response","518","880678","0.0-1.0-678.0","0","0","46244","","null","","","null","75","NaN","","","","","","","","","","","","","","",""
"","S2","","html-keyboard-response","519","880830","0.0-1.0-679.0","0","0","46244","","null","","","null","75","","NaN","","","","","","","","","","","","","",""
"","response","","html-keyboard-response","520","881923","0.0-1.0-680.0-0.0","0","0","46244","","1092","","","68","75","","","2","75","training","adjacent","GF","7","6","N.jpg","M.jpg","1","0","0","",""
"","feedback","","html-keyboard-response","521","882925","0.0-1.0-681.0-0.0","0","0","46244","","null","","","null","75","","","","","","","","","","","","","","","",""
"","time_out","","html-keyboard-response","522","884927","0.0-1.0-683.0-0.0","0","0","46244","","null","","","null","75","","","","","","","","","","","","","","","",""
"","ITI","","html-keyboard-response","523","885929","0.0-1.0-684.0","0","0","46244","","null","","","null","75","","","","","","","","","","","","","","","NaN",""
"","S1","","html-keyboard-response","524","886080","0.0-1.0-686.0","0","0","46244","","null","","","null","76","","","","","","","","","","","","","","","",""
"","ISI","","html-keyboard-response","525","888082","0.0-1.0-687.0","0","0","46244","","null","","","null","76","NaN","","","","","","","","","","","","","","",""
"","S2","","html-keyboard-response","526","888234","0.0-1.0-688.0","0","0","46244","","null","","","null","76","","NaN","","","","","","","","","","","","","",""
"","response","","html-keyboard-response","527","888691","0.0-1.0-689.0-0.0","0","0","46244","","457","","","68","76","","","2","76","training","adjacent","EF","5","6","P.jpg","M.jpg","1","1","1","",""
"","feedback","","html-keyboard-response","528","889693","0.0-1.0-690.0-0.0","0","0","46244","","null","","","null","76","","","","","","","","","","","","","","","",""
"","ITI","","html-keyboard-response","529","890694","0.0-1.0-693.0","0","0","46244","","null","","","null","76","","","","","","","","","","","","","","","NaN",""
"","S1","","html-keyboard-response","530","890846","0.0-1.0-695.0","0","0","46244","","null","","","null","77","","","","","","","","","","","","","","","",""
"","ISI","","html-keyboard-response","531","892847","0.0-1.0-696.0","0","0","46244","","null","","","null","77","NaN","","","","","","","","","","","","","","",""
"","S2","","html-keyboard-response","532","892999","0.0-1.0-697.0","0","0","46244","","null","","","null","77","","NaN","","","","","","","","","","","","","",""
"","response","","html-keyboard-response","533","893235","0.0-1.0-698.0-0.0","0","0","46244","","236","","","75","77","","","2","77","training","adjacent","FE","6","5","M.jpg","P.jpg","0","0","1","",""
"","feedback","","html-keyboard-response","534","894237","0.0-1.0-699.0-0.0","0","0","46244","","null","","","null","77","","","","","","","","","","","","","","","",""
"","ITI","","html-keyboard-response","535","895239","0.0-1.0-702.0","0","0","46244","","null","","","null","77","","","","","","","","","","","","","","","NaN",""
"","S1","","html-keyboard-response","536","895391","0.0-1.0-704.0","0","0","46244","","null","","","null","78","","","","","","","","","","","","","","","",""
"","ISI","","html-keyboard-response","537","897392","0.0-1.0-705.0","0","0","46244","","null","","","null","78","NaN","","","","","","","","","","","","","","",""
"","S2","","html-keyboard-response","538","897544","0.0-1.0-706.0","0","0","46244","","null","","","null","78","","NaN","","","","","","","","","","","","","",""
"","response","","html-keyboard-response","539","898155","0.0-1.0-707.0-0.0","0","0","46244","","611","","","75","78","","","2","78","training","adjacent","FE","6","5","M.jpg","P.jpg","0","0","1","",""
"","feedback","","html-keyboard-response","540","899158","0.0-1.0-708.0-0.0","0","0","46244","","null","","","null","78","","","","","","","","","","","","","","","",""
"","ITI","","html-keyboard-response","541","900159","0.0-1.0-711.0","0","0","46244","","null","","","null","78","","","","","","","","","","","","","","","NaN",""
"","S1","","html-keyboard-response","542","900310","0.0-1.0-713.0","0","0","46244","","null","","","null","79","","","","","","","","","","","","","","","",""
"","ISI","","html-keyboard-response","543","902313","0.0-1.0-714.0","0","0","46244","","null","","","null","79","NaN","","","","","","","","","","","","","","",""
"","S2","","html-keyboard-response","544","902465","0.0-1.0-715.0","0","0","46244","","null","","","null","79","","NaN","","","","","","","","","","","","","",""
"","response","","html-keyboard-response","545","902939","0.0-1.0-716.0-0.0","0","0","46244","","474","","","75","79","","","2","79","training","adjacent","BA","2","1","O.jpg","L.jpg","0","0","1","",""
"","feedback","","html-keyboard-response","546","903941","0.0-1.0-717.0-0.0","0","0","46244","","null","","","null","79","","","","","","","","","","","","","","","",""
"","ITI","","html-keyboard-response","547","904943","0.0-1.0-720.0","0","0","46244","","null","","","null","79","","","","","","","","","","","","","","","NaN",""
"","S1","","html-keyboard-response","548","905095","0.0-1.0-722.0","0","0","46244","","null","","","null","80","","","","","","","","","","","","","","","",""
"","ISI","","html-keyboard-response","549","907097","0.0-1.0-723.0","0","0","46244","","null","","","null","80","NaN","","","","","","","","","","","","","","",""
"","S2","","html-keyboard-response","550","907248","0.0-1.0-724.0","0","0","46244","","null","","","null","80","","NaN","","","","","","","","","","","","","",""
"","response","","html-keyboard-response","551","907819","0.0-1.0-725.0-0.0","0","0","46244","","570","","","68","80","","","2","80","training","adjacent","CB","3","2","R.jpg","O.jpg","1","0","0","",""
"","feedback","","html-keyboard-response","552","908821","0.0-1.0-726.0-0.0","0","0","46244","","null","","","null","80","","","","","","","","","","","","","","","",""
"","time_out","","html-keyboard-response","553","910822","0.0-1.0-728.0-0.0","0","0","46244","","null","","","null","80","","","","","","","","","","","","","","","",""
"","ITI","","html-keyboard-response","554","911825","0.0-1.0-729.0","0","0","46244","","null","","","null","80","","","","","","","","","","","","","","","NaN",""
"","S1","","html-keyboard-response","555","911976","0.0-1.0-731.0","0","0","46244","","null","","","null","81","","","","","","","","","","","","","","","",""
"","ISI","","html-keyboard-response","556","913977","0.0-1.0-732.0","0","0","46244","","null","","","null","81","NaN","","","","","","","","","","","","","","",""
"","S2","","html-keyboard-response","557","914130","0.0-1.0-733.0","0","0","46244","","null","","","null","81","","NaN","","","","","","","","","","","","","",""
"","response","","html-keyboard-response","558","914531","0.0-1.0-734.0-0.0","0","0","46244","","401","","","75","81","","","2","81","training","adjacent","DC","4","3","Q.jpg","R.jpg","0","0","1","",""
"","feedback","","html-keyboard-response","559","915533","0.0-1.0-735.0-0.0","0","0","46244","","null","","","null","81","","","","","","","","","","","","","","","",""
"","ITI","","html-keyboard-response","560","916535","0.0-1.0-738.0","0","0","46244","","null","","","null","81","","","","","","","","","","","","","","","NaN",""
"","S1","","html-keyboard-response","561","916687","0.0-1.0-740.0","0","0","46244","","null","","","null","82","","","","","","","","","","","","","","","",""
"","ISI","","html-keyboard-response","562","918688","0.0-1.0-741.0","0","0","46244","","null","","","null","82","NaN","","","","","","","","","","","","","","",""
"","S2","","html-keyboard-response","563","918840","0.0-1.0-742.0","0","0","46244","","null","","","null","82","","NaN","","","","","","","","","","","","","",""
"","response","","html-keyboard-response","564","919084","0.0-1.0-743.0-0.0","0","0","46244","","243","","","68","82","","","2","82","training","adjacent","ED","5","4","P.jpg","Q.jpg","1","0","0","",""
"","feedback","","html-keyboard-response","565","920085","0.0-1.0-744.0-0.0","0","0","46244","","null","","","null","82","","","","","","","","","","","","","","","",""
"","time_out","","html-keyboard-response","566","922087","0.0-1.0-746.0-0.0","0","0","46244","","null","","","null","82","","","","","","","","","","","","","","","",""
"","ITI","","html-keyboard-response","567","923089","0.0-1.0-747.0","0","0","46244","","null","","","null","82","","","","","","","","","","","","","","","NaN",""
