"success","ttype","start_time","trial_type","trial_index","time_elapsed","internal_node_id","warning","missed_checkup","PID","view_history","rt","responses","repeat_instructions","key_press","index","keypress_isi","keypress_S2","block","trial_num","phase","group_type","pair_type","S1_stim","S2_stim","S1_img","S2_img","S1_chosen","S1_higher","accuracy","keypress_iti","total_bonus_tally"
"true","full_screen","d03082023hr0322","fullscreen","0","7831","0.0-0.0","0","0","47469","","","","","","","","","","","","","","","","","","","","","",""
"","instructions","","instructions","1","15525","0.0-1.0-0.0-0.0","0","0","47469","[{""page_index"":0,""viewing_time"":1632},{""page_index"":1,""viewing_time"":1729},{""page_index"":2,""viewing_time"":3416},{""page_index"":3,""viewing_time"":917}]","7694","","","","","","","","","","","","","","","","","","","",""
"","comprehension_check","","survey-multi-choice","2","21421","0.0-1.0-0.0-1.0","0","0","47469","","5893","{""Q0"":""True"",""Q1"":""K"",""Q2"":""Once the second image appears and while the screen 'MAKE A CHOICE' is shown"",""Q3"":""Green mark"",""Q4"":""either D or K""}","0","","","","","","","","","","","","","","","","","",""
"","start_exp","","html-keyboard-response","3","22525","0.0-1.0-1.0","0","0","47469","","1104","","","32","","","","","","","","","","","","","","","","",""
"","S1","","html-keyboard-response","4","22792","0.0-1.0-2.0","0","0","47469","","null","","","null","0","","","","","","","","","","","","","","","",""
"","ISI","","html-keyboard-response","5","23808","0.0-1.0-3.0","0","0","47469","","null","","","null","0","NaN","","","","","","","","","","","","","","",""
"","S2","","html-keyboard-response","6","24071","0.0-1.0-4.0","0","0","47469","","null","","","null","0","","NaN","","","","","","","","","","","","","",""
"","response","","html-keyboard-response","7","25824","0.0-1.0-5.0-0.0","0","0","47469","","null","","","null","0","","","1","0","training","adjacent","BC","2","3","P.jpg","Q.jpg","NaN","1","0","",""
"","too_slow_prompt","","html-keyboard-response","8","26826","0.0-1.0-7.0-0.0","1","0","47469","","null","","","null","","","","","","","","","","","","","","","","",""
"","time_out","","html-keyboard-response","9","28828","0.0-1.0-8.0-0.0","0","0","47469","","null","","","null","0","","","","","","","","","","","","","","","",""
"","ITI","","html-keyboard-response","10","29829","0.0-1.0-9.0","0","0","47469","","null","","","null","0","","","","","","","","","","","","","","","NaN",""
"","S1","","html-keyboard-response","11","30082","0.0-1.0-11.0","0","0","47469","","null","","","null","1","","","","","","","","","","","","","","","",""
"","ISI","","html-keyboard-response","12","31083","0.0-1.0-12.0","0","0","47469","","197","","","75","1","k","","","","","","","","","","","","","","",""
"","S2","","html-keyboard-response","13","31336","0.0-1.0-13.0","0","0","47469","","null","","","null","1","","NaN","","","","","","","","","","","","","",""
"","response","","html-keyboard-response","14","32129","0.0-1.0-14.0-0.0","0","0","47469","","793","","","75","1","","","1","1","training","adjacent","CB","3","2","Q.jpg","P.jpg","1","0","0","",""
"","feedback","","html-keyboard-response","15","33131","0.0-1.0-15.0-0.0","0","0","47469","","null","","","null","1","","","","","","","","","","","","","","","",""
"","time_out","","html-keyboard-response","16","35133","0.0-1.0-17.0-0.0","0","0","47469","","null","","","null","1","","","","","","","","","","","","","","","",""
"","ITI","","html-keyboard-response","17","36135","0.0-1.0-18.0","0","0","47469","","null","","","null","1","","","","","","","","","","","","","","","NaN",""
"","S1","","html-keyboard-response","18","36386","0.0-1.0-20.0","0","0","47469","","null","","","null","2","","","","","","","","","","","","","","","",""
"","ISI","","html-keyboard-response","19","37387","0.0-1.0-21.0","0","0","47469","","null","","","null","2","NaN","","","","","","","","","","","","","","",""
"","S2","","html-keyboard-response","20","37639","0.0-1.0-22.0","0","0","47469","","null","","","null","2","","NaN","","","","","","","","","","","","","",""
"","response","","html-keyboard-response","21","38005","0.0-1.0-23.0-0.0","0","0","47469","","365","","","68","2","","","1","2","training","adjacent","EF","5","6","R.jpg","L.jpg","0","1","0","",""
"","feedback","","html-keyboard-response","22","39007","0.0-1.0-24.0-0.0","0","0","47469","","null","","","null","2","","","","","","","","","","","","","","","",""
"","time_out","","html-keyboard-response","23","41009","0.0-1.0-26.0-0.0","0","0","47469","","null","","","null","2","","","","","","","","","","","","","","","",""
"","ITI","","html-keyboard-response","24","42011","0.0-1.0-27.0","0","0","47469","","null","","","null","2","","","","","","","","","","","","","","","NaN",""
"","S1","","html-keyboard-response","25","42262","0.0-1.0-29.0","0","0","47469","","null","","","null","3","","","","","","","","","","","","","","","",""
"","ISI","","html-keyboard-response","26","43263","0.0-1.0-30.0","0","0","47469","","null","","","null","3","NaN","","","","","","","","","","","","","","",""
"","S2","","html-keyboard-response","27","43515","0.0-1.0-31.0","0","0","47469","","null","","","null","3","","NaN","","","","","","","","","","","","","",""
"","response","","html-keyboard-response","28","44027","0.0-1.0-32.0-0.0","0","0","47469","","512","","","68","3","","","1","3","training","adjacent","FG","6","7","L.jpg","M.jpg","0","1","0","",""
"","feedback","","html-keyboard-response","29","45029","0.0-1.0-33.0-0.0","0","0","47469","","null","","","null","3","","","","","","","","","","","","","","","",""
"","time_out","","html-keyboard-response","30","47030","0.0-1.0-35.0-0.0","0","0","47469","","null","","","null","3","","","","","","","","","","","","","","","",""
"","ITI","","html-keyboard-response","31","48032","0.0-1.0-36.0","0","0","47469","","null","","","null","3","","","","","","","","","","","","","","","NaN",""
"","S1","","html-keyboard-response","32","48284","0.0-1.0-38.0","0","0","47469","","null","","","null","4","","","","","","","","","","","","","","","",""
"","ISI","","html-keyboard-response","33","49286","0.0-1.0-39.0","0","0","47469","","null","","","null","4","NaN","","","","","","","","","","","","","","",""
"","S2","","html-keyboard-response","34","49537","0.0-1.0-40.0","0","0","47469","","null","","","null","4","","NaN","","","","","","","","","","","","","",""
"","response","","html-keyboard-response","35","49985","0.0-1.0-41.0-0.0","0","0","47469","","447","","","68","4","","","1","4","training","adjacent","ED","5","4","R.jpg","N.jpg","0","0","1","",""
"","feedback","","html-keyboard-response","36","50987","0.0-1.0-42.0-0.0","0","0","47469","","null","","","null","4","","","","","","","","","","","","","","","",""
"","ITI","","html-keyboard-response","37","51988","0.0-1.0-45.0","0","0","47469","","null","","","null","4","","","","","","","","","","","","","","","NaN",""
"","S1","","html-keyboard-response","38","52240","0.0-1.0-47.0","0","0","47469","","null","","","null","5","","","","","","","","","","","","","","","",""
"","ISI","","html-keyboard-response","39","53242","0.0-1.0-48.0","0","0","47469","","null","","","null","5","NaN","","","","","","","","","","","","","","",""
"","S2","","html-keyboard-response","40","53494","0.0-1.0-49.0","0","0","47469","","null","","","null","5","","NaN","","","","","","","","","","","","","",""
"","response","","html-keyboard-response","41","53578","0.0-1.0-50.0-0.0","0","0","47469","","84","","","68","5","","","1","5","training","adjacent","DE","4","5","N.jpg","R.jpg","0","1","0","",""
"","feedback","","html-keyboard-response","42","54580","0.0-1.0-51.0-0.0","0","0","47469","","null","","","null","5","","","","","","","","","","","","","","","",""
"","time_out","","html-keyboard-response","43","56582","0.0-1.0-53.0-0.0","0","0","47469","","null","","","null","5","","","","","","","","","","","","","","","",""
"","ITI","","html-keyboard-response","44","57584","0.0-1.0-54.0","0","0","47469","","null","","","null","5","","","","","","","","","","","","","","","NaN",""
"","S1","","html-keyboard-response","45","57835","0.0-1.0-56.0","0","0","47469","","null","","","null","6","","","","","","","","","","","","","","","",""
"","ISI","","html-keyboard-response","46","58836","0.0-1.0-57.0","0","0","47469","","null","","","null","6","NaN","","","","","","","","","","","","","","",""
"","S2","","html-keyboard-response","47","59088","0.0-1.0-58.0","0","0","47469","","null","","","null","6","","NaN","","","","","","","","","","","","","",""
"","response","","html-keyboard-response","48","59547","0.0-1.0-59.0-0.0","0","0","47469","","458","","","68","6","","","1","6","training","adjacent","AB","1","2","O.jpg","P.jpg","0","1","0","",""
"","feedback","","html-keyboard-response","49","60549","0.0-1.0-60.0-0.0","0","0","47469","","null","","","null","6","","","","","","","","","","","","","","","",""
"","time_out","","html-keyboard-response","50","62552","0.0-1.0-62.0-0.0","0","0","47469","","null","","","null","6","","","","","","","","","","","","","","","",""
"","ITI","","html-keyboard-response","51","63553","0.0-1.0-63.0","0","0","47469","","null","","","null","6","","","","","","","","","","","","","","","NaN",""
"","S1","","html-keyboard-response","52","63805","0.0-1.0-65.0","0","0","47469","","null","","","null","7","","","","","","","","","","","","","","","",""
"","ISI","","html-keyboard-response","53","64807","0.0-1.0-66.0","0","0","47469","","200","","","75","7","k","","","","","","","","","","","","","","",""
"","S2","","html-keyboard-response","54","65059","0.0-1.0-67.0","0","0","47469","","null","","","null","7","","NaN","","","","","","","","","","","","","",""
"","response","","html-keyboard-response","55","65495","0.0-1.0-68.0-0.0","0","0","47469","","435","","","75","7","","","1","7","training","adjacent","ED","5","4","R.jpg","N.jpg","1","0","0","",""
"","feedback","","html-keyboard-response","56","66496","0.0-1.0-69.0-0.0","0","0","47469","","null","","","null","7","","","","","","","","","","","","","","","",""
"","time_out","","html-keyboard-response","57","68497","0.0-1.0-71.0-0.0","0","0","47469","","null","","","null","7","","","","","","","","","","","","","","","",""
"","ITI","","html-keyboard-response","58","69499","0.0-1.0-72.0","0","0","47469","","null","","","null","7","","","","","","","","","","","","","","","NaN",""
"","S1","","html-keyboard-response","59","69751","0.0-1.0-74.0","0","0","47469","","null","","","null","8","","","","","","","","","","","","","","","",""
"","ISI","","html-keyboard-response","60","70753","0.0-1.0-75.0","0","0","47469","","null","","","null","8","NaN","","","","","","","","","","","","","","",""
"","S2","","html-keyboard-response","61","71005","0.0-1.0-76.0","0","0","47469","","null","","","null","8","","NaN","","","","","","","","","","","","","",""
"","response","","html-keyboard-response","62","71419","0.0-1.0-77.0-0.0","0","0","47469","","414","","","68","8","","","1","8","training","adjacent","EF","5","6","R.jpg","L.jpg","0","1","0","",""
"","feedback","","html-keyboard-response","63","72421","0.0-1.0-78.0-0.0","0","0","47469","","null","","","null","8","","","","","","","","","","","","","","","",""
"","time_out","","html-keyboard-response","64","74423","0.0-1.0-80.0-0.0","0","0","47469","","null","","","null","8","","","","","","","","","","","","","","","",""
"","ITI","","html-keyboard-response","65","75425","0.0-1.0-81.0","0","0","47469","","null","","","null","8","","","","","","","","","","","","","","","NaN",""
"","S1","","html-keyboard-response","66","75676","0.0-1.0-83.0","0","0","47469","","null","","","null","9","","","","","","","","","","","","","","","",""
"","ISI","","html-keyboard-response","67","76678","0.0-1.0-84.0","0","0","47469","","759","","","75","9","k","","","","","","","","","","","","","","",""
"","S2","","html-keyboard-response","68","76929","0.0-1.0-85.0","0","0","47469","","null","","","null","9","","NaN","","","","","","","","","","","","","",""
"","response","","html-keyboard-response","69","77218","0.0-1.0-86.0-0.0","0","0","47469","","288","","","75","9","","","1","9","training","adjacent","BC","2","3","P.jpg","Q.jpg","1","1","1","",""
"","feedback","","html-keyboard-response","70","78220","0.0-1.0-87.0-0.0","0","0","47469","","null","","","null","9","","","","","","","","","","","","","","","",""
"","ITI","","html-keyboard-response","71","79221","0.0-1.0-90.0","0","0","47469","","null","","","null","9","","","","","","","","","","","","","","","NaN",""
"","S1","","html-keyboard-response","72","79473","0.0-1.0-92.0","0","0","47469","","null","","","null","10","","","","","","","","","","","","","","","",""
"","ISI","","html-keyboard-response","73","80474","0.0-1.0-93.0","0","0","47469","","null","","","null","10","NaN","","","","","","","","","","","","","","",""
"","S2","","html-keyboard-response","74","80726","0.0-1.0-94.0","0","0","47469","","null","","","null","10","","NaN","","","","","","","","","","","","","",""
"","response","","html-keyboard-response","75","81493","0.0-1.0-95.0-0.0","0","0","47469","","767","","","75","10","","","1","10","training","adjacent","BA","2","1","P.jpg","O.jpg","1","0","0","",""
"","feedback","","html-keyboard-response","76","82494","0.0-1.0-96.0-0.0","0","0","47469","","null","","","null","10","","","","","","","","","","","","","","","",""
"","time_out","","html-keyboard-response","77","84496","0.0-1.0-98.0-0.0","0","0","47469","","null","","","null","10","","","","","","","","","","","","","","","",""
"","ITI","","html-keyboard-response","78","85497","0.0-1.0-99.0","0","0","47469","","null","","","null","10","","","","","","","","","","","","","","","NaN",""
"","S1","","html-keyboard-response","79","85749","0.0-1.0-101.0","0","0","47469","","null","","","null","11","","","","","","","","","","","","","","","",""
"","ISI","","html-keyboard-response","80","86751","0.0-1.0-102.0","0","0","47469","","124","","","68","11","d","","","","","","","","","","","","","","",""
"","S2","","html-keyboard-response","81","87003","0.0-1.0-103.0","0","0","47469","","null","","","null","11","","NaN","","","","","","","","","","","","","",""
"","response","","html-keyboard-response","82","87202","0.0-1.0-104.0-0.0","0","0","47469","","198","","","68","11","","","1","11","training","adjacent","CD","3","4","Q.jpg","N.jpg","0","1","0","",""
"","feedback","","html-keyboard-response","83","88204","0.0-1.0-105.0-0.0","0","0","47469","","null","","","null","11","","","","","","","","","","","","","","","",""
"","time_out","","html-keyboard-response","84","90205","0.0-1.0-107.0-0.0","0","0","47469","","null","","","null","11","","","","","","","","","","","","","","","",""
"","ITI","","html-keyboard-response","85","91206","0.0-1.0-108.0","0","0","47469","","null","","","null","11","","","","","","","","","","","","","","","NaN",""
"","S1","","html-keyboard-response","86","91458","0.0-1.0-110.0","0","0","47469","","null","","","null","12","","","","","","","","","","","","","","","",""
"","ISI","","html-keyboard-response","87","92458","0.0-1.0-111.0","0","0","47469","","null","","","null","12","NaN","","","","","","","","","","","","","","",""
"","S2","","html-keyboard-response","88","92710","0.0-1.0-112.0","0","0","47469","","null","","","null","12","","NaN","","","","","","","","","","","","","",""
"","response","","html-keyboard-response","89","93086","0.0-1.0-113.0-0.0","0","0","47469","","376","","","75","12","","","1","12","training","adjacent","FE","6","5","L.jpg","R.jpg","1","0","0","",""
"","feedback","","html-keyboard-response","90","94088","0.0-1.0-114.0-0.0","0","0","47469","","null","","","null","12","","","","","","","","","","","","","","","",""
"","time_out","","html-keyboard-response","91","96090","0.0-1.0-116.0-0.0","0","0","47469","","null","","","null","12","","","","","","","","","","","","","","","",""
"","ITI","","html-keyboard-response","92","97091","0.0-1.0-117.0","0","0","47469","","null","","","null","12","","","","","","","","","","","","","","","NaN",""
"","S1","","html-keyboard-response","93","97342","0.0-1.0-119.0","0","0","47469","","null","","","null","13","","","","","","","","","","","","","","","",""
"","ISI","","html-keyboard-response","94","98344","0.0-1.0-120.0","0","0","47469","","275","","","68","13","d","","","","","","","","","","","","","","",""
"","S2","","html-keyboard-response","95","98597","0.0-1.0-121.0","0","0","47469","","null","","","null","13","","NaN","","","","","","","","","","","","","",""
"","response","","html-keyboard-response","96","99051","0.0-1.0-122.0-0.0","0","0","47469","","453","","","75","13","","","1","13","training","adjacent","CD","3","4","Q.jpg","N.jpg","1","1","1","",""
"","feedback","","html-keyboard-response","97","100053","0.0-1.0-123.0-0.0","0","0","47469","","null","","","null","13","","","","","","","","","","","","","","","",""
"","ITI","","html-keyboard-response","98","101055","0.0-1.0-126.0","0","0","47469","","null","","","null","13","","","","","","","","","","","","","","","NaN",""
"","S1","","html-keyboard-response","99","101306","0.0-1.0-128.0","0","0","47469","","null","","","null","14","","","","","","","","","","","","","","","",""
"","ISI","","html-keyboard-response","100","102308","0.0-1.0-129.0","0","0","47469","","null","","","null","14","NaN","","","","","","","","","","","","","","",""
"","S2","","html-keyboard-response","101","102560","0.0-1.0-130.0","0","0","47469","","null","","","null","14","","NaN","","","","","","","","","","","","","",""
"","response","","html-keyboard-response","102","102890","0.0-1.0-131.0-0.0","0","0","47469","","329","","","68","14","","","1","14","training","adjacent","AB","1","2","O.jpg","P.jpg","0","1","0","",""
"","feedback","","html-keyboard-response","103","103892","0.0-1.0-132.0-0.0","0","0","47469","","null","","","null","14","","","","","","","","","","","","","","","",""
"","time_out","","html-keyboard-response","104","105893","0.0-1.0-134.0-0.0","0","0","47469","","null","","","null","14","","","","","","","","","","","","","","","",""
"","ITI","","html-keyboard-response","105","106895","0.0-1.0-135.0","0","0","47469","","null","","","null","14","","","","","","","","","","","","","","","NaN",""
"","S1","","html-keyboard-response","106","107147","0.0-1.0-137.0","0","0","47469","","null","","","null","15","","","","","","","","","","","","","","","",""
"","ISI","","html-keyboard-response","107","108148","0.0-1.0-138.0","0","0","47469","","null","","","null","15","NaN","","","","","","","","","","","","","","",""
"","S2","","html-keyboard-response","108","108400","0.0-1.0-139.0","0","0","47469","","null","","","null","15","","NaN","","","","","","","","","","","","","",""
"","response","","html-keyboard-response","109","109212","0.0-1.0-140.0-0.0","0","0","47469","","812","","","75","15","","","1","15","training","adjacent","CB","3","2","Q.jpg","P.jpg","1","0","0","",""
"","feedback","","html-keyboard-response","110","110214","0.0-1.0-141.0-0.0","0","0","47469","","null","","","null","15","","","","","","","","","","","","","","","",""
"","time_out","","html-keyboard-response","111","112216","0.0-1.0-143.0-0.0","0","0","47469","","null","","","null","15","","","","","","","","","","","","","","","",""
"","ITI","","html-keyboard-response","112","113217","0.0-1.0-144.0","0","0","47469","","null","","","null","15","","","","","","","","","","","","","","","NaN",""
"","S1","","html-keyboard-response","113","113469","0.0-1.0-146.0","0","0","47469","","null","","","null","16","","","","","","","","","","","","","","","",""
"","ISI","","html-keyboard-response","114","114470","0.0-1.0-147.0","0","0","47469","","null","","","null","16","NaN","","","","","","","","","","","","","","",""
"","S2","","html-keyboard-response","115","114732","0.0-1.0-148.0","0","0","47469","","null","","","null","16","","NaN","","","","","","","","","","","","","",""
"","response","","html-keyboard-response","116","114783","0.0-1.0-149.0-0.0","0","0","47469","","50","","","75","16","","","1","16","training","adjacent","FE","6","5","L.jpg","R.jpg","1","0","0","",""
"","feedback","","html-keyboard-response","117","115785","0.0-1.0-150.0-0.0","0","0","47469","","null","","","null","16","","","","","","","","","","","","","","","",""
"","time_out","","html-keyboard-response","118","117787","0.0-1.0-152.0-0.0","0","0","47469","","null","","","null","16","","","","","","","","","","","","","","","",""
"","ITI","","html-keyboard-response","119","118788","0.0-1.0-153.0","0","0","47469","","null","","","null","16","","","","","","","","","","","","","","","NaN",""
"","S1","","html-keyboard-response","120","119040","0.0-1.0-155.0","0","0","47469","","null","","","null","17","","","","","","","","","","","","","","","",""
"","ISI","","html-keyboard-response","121","120041","0.0-1.0-156.0","0","0","47469","","null","","","null","17","NaN","","","","","","","","","","","","","","",""
"","S2","","html-keyboard-response","122","120293","0.0-1.0-157.0","0","0","47469","","null","","","null","17","","NaN","","","","","","","","","","","","","",""
"","response","","html-keyboard-response","123","120752","0.0-1.0-158.0-0.0","0","0","47469","","459","","","75","17","","","1","17","training","adjacent","ED","5","4","R.jpg","N.jpg","1","0","0","",""
"","feedback","","html-keyboard-response","124","121753","0.0-1.0-159.0-0.0","0","0","47469","","null","","","null","17","","","","","","","","","","","","","","","",""
"","time_out","","html-keyboard-response","125","123755","0.0-1.0-161.0-0.0","0","0","47469","","null","","","null","17","","","","","","","","","","","","","","","",""
"","ITI","","html-keyboard-response","126","124757","0.0-1.0-162.0","0","0","47469","","null","","","null","17","","","","","","","","","","","","","","","NaN",""
"","S1","","html-keyboard-response","127","125008","0.0-1.0-164.0","0","0","47469","","null","","","null","18","","","","","","","","","","","","","","","",""
"","ISI","","html-keyboard-response","128","126009","0.0-1.0-165.0","0","0","47469","","549","","","75","18","k","","","","","","","","","","","","","","",""
"","S2","","html-keyboard-response","129","126092","0.0-1.0-166.0","0","0","47469","","81","","","75","18","","k","1","18","training","adjacent","FG","6","7","L.jpg","M.jpg","1","1","1","",""
"","feedback","","html-keyboard-response","130","127094","0.0-1.0-168.0-0.0","0","0","47469","","null","","","null","18","","","","","","","","","","","","","","","",""
"","ITI","","html-keyboard-response","131","128095","0.0-1.0-171.0","0","0","47469","","null","","","null","18","","","","","","","","","","","","","","","NaN",""
"","S1","","html-keyboard-response","132","128346","0.0-1.0-173.0","0","0","47469","","null","","","null","19","","","","","","","","","","","","","","","",""
"","ISI","","html-keyboard-response","133","129348","0.0-1.0-174.0","0","0","47469","","null","","","null","19","NaN","","","","","","","","","","","","","","",""
"","S2","","html-keyboard-response","134","129600","0.0-1.0-175.0","0","0","47469","","null","","","null","19","","NaN","","","","","","","","","","","","","",""
"","response","","html-keyboard-response","135","129681","0.0-1.0-176.0-0.0","0","0","47469","","80","","","75","19","","","1","19","training","adjacent","DC","4","3","N.jpg","Q.jpg","1","0","0","",""
"","feedback","","html-keyboard-response","136","130683","0.0-1.0-177.0-0.0","0","0","47469","","null","","","null","19","","","","","","","","","","","","","","","",""
"","time_out","","html-keyboard-response","137","132684","0.0-1.0-179.0-0.0","0","0","47469","","null","","","null","19","","","","","","","","","","","","","","","",""
"","ITI","","html-keyboard-response","138","133686","0.0-1.0-180.0","0","0","47469","","null","","","null","19","","","","","","","","","","","","","","","NaN",""
"","S1","","html-keyboard-response","139","133937","0.0-1.0-182.0","0","0","47469","","null","","","null","20","","","","","","","","","","","","","","","",""
"","ISI","","html-keyboard-response","140","134939","0.0-1.0-183.0","0","0","47469","","263","","","68","20","d","","","","","","","","","","","","","","",""
"","S2","","html-keyboard-response","141","135191","0.0-1.0-184.0","0","0","47469","","null","","","null","20","","NaN","","","","","","","","","","","","","",""
"","response","","html-keyboard-response","142","135862","0.0-1.0-185.0-0.0","0","0","47469","","670","","","75","20","","","1","20","training","adjacent","DC","4","3","N.jpg","Q.jpg","1","0","0","",""
"","feedback","","html-keyboard-response","143","136863","0.0-1.0-186.0-0.0","0","0","47469","","null","","","null","20","","","","","","","","","","","","","","","",""
"","time_out","","html-keyboard-response","144","138865","0.0-1.0-188.0-0.0","0","0","47469","","null","","","null","20","","","","","","","","","","","","","","","",""
"","ITI","","html-keyboard-response","145","139866","0.0-1.0-189.0","0","0","47469","","null","","","null","20","","","","","","","","","","","","","","","NaN",""
"","S1","","html-keyboard-response","146","140117","0.0-1.0-191.0","0","0","47469","","null","","","null","21","","","","","","","","","","","","","","","",""
"","ISI","","html-keyboard-response","147","141119","0.0-1.0-192.0","0","0","47469","","null","","","null","21","NaN","","","","","","","","","","","","","","",""
"","S2","","html-keyboard-response","148","141370","0.0-1.0-193.0","0","0","47469","","null","","","null","21","","NaN","","","","","","","","","","","","","",""
"","response","","html-keyboard-response","149","141399","0.0-1.0-194.0-0.0","0","0","47469","","27","","","68","21","","","1","21","training","adjacent","FE","6","5","L.jpg","R.jpg","0","0","1","",""
"","feedback","","html-keyboard-response","150","142401","0.0-1.0-195.0-0.0","0","0","47469","","null","","","null","21","","","","","","","","","","","","","","","",""
"","ITI","","html-keyboard-response","151","143402","0.0-1.0-198.0","0","0","47469","","null","","","null","21","","","","","","","","","","","","","","","NaN",""
"","S1","","html-keyboard-response","152","143654","0.0-1.0-200.0","0","0","47469","","null","","","null","22","","","","","","","","","","","","","","","",""
"","ISI","","html-keyboard-response","153","144655","0.0-1.0-201.0","0","0","47469","","null","","","null","22","NaN","","","","","","","","","","","","","","",""
"","S2","","html-keyboard-response","154","144906","0.0-1.0-202.0","0","0","47469","","null","","","null","22","","NaN","","","","","","","","","","","","","",""
"","response","","html-keyboard-response","155","145044","0.0-1.0-203.0-0.0","0","0","47469","","137","","","68","22","","","1","22","training","adjacent","EF","5","6","R.jpg","L.jpg","0","1","0","",""
"","feedback","","html-keyboard-response","156","146046","0.0-1.0-204.0-0.0","0","0","47469","","null","","","null","22","","","","","","","","","","","","","","","",""
"","time_out","","html-keyboard-response","157","148048","0.0-1.0-206.0-0.0","0","0","47469","","null","","","null","22","","","","","","","","","","","","","","","",""
"","ITI","","html-keyboard-response","158","149049","0.0-1.0-207.0","0","0","47469","","null","","","null","22","","","","","","","","","","","","","","","NaN",""
"","S1","","html-keyboard-response","159","149301","0.0-1.0-209.0","0","0","47469","","null","","","null","23","","","","","","","","","","","","","","","",""
"","ISI","","html-keyboard-response","160","150303","0.0-1.0-210.0","0","0","47469","","176","","","68","23","d","","","","","","","","","","","","","","",""
"","S2","","html-keyboard-response","161","150554","0.0-1.0-211.0","0","0","47469","","null","","","null","23","","NaN","","","","","","","","","","","","","",""
"","response","","html-keyboard-response","162","150916","0.0-1.0-212.0-0.0","0","0","47469","","361","","","75","23","","","1","23","training","adjacent","FG","6","7","L.jpg","M.jpg","1","1","1","",""
"","feedback","","html-keyboard-response","163","151917","0.0-1.0-213.0-0.0","0","0","47469","","null","","","null","23","","","","","","","","","","","","","","","",""
"","ITI","","html-keyboard-response","164","152919","0.0-1.0-216.0","0","0","47469","","null","","","null","23","","","","","","","","","","","","","","","NaN",""
"","S1","","html-keyboard-response","165","153171","0.0-1.0-218.0","0","0","47469","","null","","","null","24","","","","","","","","","","","","","","","",""
"","ISI","","html-keyboard-response","166","154172","0.0-1.0-219.0","0","0","47469","","null","","","null","24","NaN","","","","","","","","","","","","","","",""
"","S2","","html-keyboard-response","167","154424","0.0-1.0-220.0","0","0","47469","","null","","","null","24","","NaN","","","","","","","","","","","","","",""
"","response","","html-keyboard-response","168","155821","0.0-1.0-221.0-0.0","0","0","47469","","1397","","","75","24","","","1","24","training","adjacent","GF","7","6","M.jpg","L.jpg","1","0","0","",""
"","feedback","","html-keyboard-response","169","156836","0.0-1.0-222.0-0.0","0","0","47469","","null","","","null","24","","","","","","","","","","","","","","","",""
"","time_out","","html-keyboard-response","170","158837","0.0-1.0-224.0-0.0","0","0","47469","","null","","","null","24","","","","","","","","","","","","","","","",""
"","ITI","","html-keyboard-response","171","159838","0.0-1.0-225.0","0","0","47469","","null","","","null","24","","","","","","","","","","","","","","","NaN",""
"","S1","","html-keyboard-response","172","160090","0.0-1.0-227.0","0","0","47469","","null","","","null","25","","","","","","","","","","","","","","","",""
"","ISI","","html-keyboard-response","173","161091","0.0-1.0-228.0","0","0","47469","","null","","","null","25","NaN","","","","","","","","","","","","","","",""
"","S2","","html-keyboard-response","174","161343","0.0-1.0-229.0","0","0","47469","","null","","","null","25","","NaN","","","","","","","","","","","","","",""
"","response","","html-keyboard-response","175","161862","0.0-1.0-230.0-0.0","0","0","47469","","518","","","75","25","","","1","25","training","adjacent","GF","7","6","M.jpg","L.jpg","1","0","0","",""
"","feedback","","html-keyboard-response","176","162864","0.0-1.0-231.0-0.0","0","0","47469","","null","","","null","25","","","","","","","","","","","","","","","",""
"","time_out","","html-keyboard-response","177","164866","0.0-1.0-233.0-0.0","0","0","47469","","null","","","null","25","","","","","","","","","","","","","","","",""
"","ITI","","html-keyboard-response","178","165868","0.0-1.0-234.0","0","0","47469","","null","","","null","25","","","","","","","","","","","","","","","NaN",""
"","S1","","html-keyboard-response","179","166121","0.0-1.0-236.0","0","0","47469","","null","","","null","26","","","","","","","","","","","","","","","",""
"","ISI","","html-keyboard-response","180","167122","0.0-1.0-237.0","0","0","47469","","857","","","75","26","k","","","","","","","","","","","","","","",""
"","S2","","html-keyboard-response","181","167374","0.0-1.0-238.0","0","0","47469","","null","","","null","26","","NaN","","","","","","","","","","","","","",""
"","response","","html-keyboard-response","182","167377","0.0-1.0-239.0-0.0","0","0","47469","","3","","","75","26","","","1","26","training","adjacent","AB","1","2","O.jpg","P.jpg","1","1","1","",""
"","feedback","","html-keyboard-response","183","168391","0.0-1.0-240.0-0.0","0","0","47469","","null","","","null","26","","","","","","","","","","","","","","","",""
"","ITI","","html-keyboard-response","184","169392","0.0-1.0-243.0","0","0","47469","","null","","","null","26","","","","","","","","","","","","","","","NaN",""
"","S1","","html-keyboard-response","185","169643","0.0-1.0-245.0","0","0","47469","","null","","","null","27","","","","","","","","","","","","","","","",""
"","ISI","","html-keyboard-response","186","170645","0.0-1.0-246.0","0","0","47469","","null","","","null","27","NaN","","","","","","","","","","","","","","",""
"","S2","","html-keyboard-response","187","170897","0.0-1.0-247.0","0","0","47469","","null","","","null","27","","NaN","","","","","","","","","","","","","",""
"","response","","html-keyboard-response","188","171315","0.0-1.0-248.0-0.0","0","0","47469","","417","","","68","27","","","1","27","training","adjacent","BC","2","3","P.jpg","Q.jpg","0","1","0","",""
"","feedback","","html-keyboard-response","189","172317","0.0-1.0-249.0-0.0","0","0","47469","","null","","","null","27","","","","","","","","","","","","","","","",""
"","time_out","","html-keyboard-response","190","174318","0.0-1.0-251.0-0.0","0","0","47469","","null","","","null","27","","","","","","","","","","","","","","","",""
"","ITI","","html-keyboard-response","191","175319","0.0-1.0-252.0","0","0","47469","","null","","","null","27","","","","","","","","","","","","","","","NaN",""
"","S1","","html-keyboard-response","192","175570","0.0-1.0-254.0","0","0","47469","","null","","","null","28","","","","","","","","","","","","","","","",""
"","ISI","","html-keyboard-response","193","176572","0.0-1.0-255.0","0","0","47469","","null","","","null","28","NaN","","","","","","","","","","","","","","",""
"","S2","","html-keyboard-response","194","176824","0.0-1.0-256.0","0","0","47469","","null","","","null","28","","NaN","","","","","","","","","","","","","",""
"","response","","html-keyboard-response","195","177713","0.0-1.0-257.0-0.0","0","0","47469","","889","","","75","28","","","1","28","training","adjacent","DE","4","5","N.jpg","R.jpg","1","1","1","",""
"","feedback","","html-keyboard-response","196","178716","0.0-1.0-258.0-0.0","0","0","47469","","null","","","null","28","","","","","","","","","","","","","","","",""
"","ITI","","html-keyboard-response","197","179717","0.0-1.0-261.0","0","0","47469","","null","","","null","28","","","","","","","","","","","","","","","NaN",""
"","S1","","html-keyboard-response","198","179970","0.0-1.0-263.0","0","0","47469","","null","","","null","29","","","","","","","","","","","","","","","",""
"","ISI","","html-keyboard-response","199","180971","0.0-1.0-264.0","0","0","47469","","null","","","null","29","NaN","","","","","","","","","","","","","","",""
"","S2","","html-keyboard-response","200","181223","0.0-1.0-265.0","0","0","47469","","null","","","null","29","","NaN","","","","","","","","","","","","","",""
"","response","","html-keyboard-response","201","181633","0.0-1.0-266.0-0.0","0","0","47469","","410","","","75","29","","","1","29","training","adjacent","DE","4","5","N.jpg","R.jpg","1","1","1","",""
"","feedback","","html-keyboard-response","202","182635","0.0-1.0-267.0-0.0","0","0","47469","","null","","","null","29","","","","","","","","","","","","","","","",""
"","ITI","","html-keyboard-response","203","183636","0.0-1.0-270.0","0","0","47469","","null","","","null","29","","","","","","","","","","","","","","","NaN",""
"","S1","","html-keyboard-response","204","183888","0.0-1.0-272.0","0","0","47469","","null","","","null","30","","","","","","","","","","","","","","","",""
"","ISI","","html-keyboard-response","205","184889","0.0-1.0-273.0","0","0","47469","","null","","","null","30","NaN","","","","","","","","","","","","","","",""
"","S2","","html-keyboard-response","206","185141","0.0-1.0-274.0","0","0","47469","","null","","","null","30","","NaN","","","","","","","","","","","","","",""
"","response","","html-keyboard-response","207","185393","0.0-1.0-275.0-0.0","0","0","47469","","252","","","75","30","","","1","30","training","adjacent","CD","3","4","Q.jpg","N.jpg","1","1","1","",""
"","feedback","","html-keyboard-response","208","186394","0.0-1.0-276.0-0.0","0","0","47469","","null","","","null","30","","","","","","","","","","","","","","","",""
"","ITI","","html-keyboard-response","209","187396","0.0-1.0-279.0","0","0","47469","","null","","","null","30","","","","","","","","","","","","","","","NaN",""
"","S1","","html-keyboard-response","210","187647","0.0-1.0-281.0","0","0","47469","","null","","","null","31","","","","","","","","","","","","","","","",""
"","ISI","","html-keyboard-response","211","188648","0.0-1.0-282.0","0","0","47469","","null","","","null","31","NaN","","","","","","","","","","","","","","",""
"","S2","","html-keyboard-response","212","188901","0.0-1.0-283.0","0","0","47469","","null","","","null","31","","NaN","","","","","","","","","","","","","",""
"","response","","html-keyboard-response","213","189256","0.0-1.0-284.0-0.0","0","0","47469","","355","","","68","31","","","1","31","training","adjacent","BA","2","1","P.jpg","O.jpg","0","0","1","",""
"","feedback","","html-keyboard-response","214","190258","0.0-1.0-285.0-0.0","0","0","47469","","null","","","null","31","","","","","","","","","","","","","","","",""
"","ITI","","html-keyboard-response","215","191260","0.0-1.0-288.0","0","0","47469","","null","","","null","31","","","","","","","","","","","","","","","NaN",""
"","S1","","html-keyboard-response","216","191512","0.0-1.0-290.0","0","0","47469","","null","","","null","32","","","","","","","","","","","","","","","",""
"","ISI","","html-keyboard-response","217","192513","0.0-1.0-291.0","0","0","47469","","null","","","null","32","NaN","","","","","","","","","","","","","","",""
"","S2","","html-keyboard-response","218","192764","0.0-1.0-292.0","0","0","47469","","null","","","null","32","","NaN","","","","","","","","","","","","","",""
"","response","","html-keyboard-response","219","192879","0.0-1.0-293.0-0.0","0","0","47469","","114","","","75","32","","","1","32","training","adjacent","FG","6","7","L.jpg","M.jpg","1","1","1","",""
"","feedback","","html-keyboard-response","220","193881","0.0-1.0-294.0-0.0","0","0","47469","","null","","","null","32","","","","","","","","","","","","","","","",""
"","ITI","","html-keyboard-response","221","194883","0.0-1.0-297.0","0","0","47469","","null","","","null","32","","","","","","","","","","","","","","","NaN",""
"","S1","","html-keyboard-response","222","195134","0.0-1.0-299.0","0","0","47469","","null","","","null","33","","","","","","","","","","","","","","","",""
"","ISI","","html-keyboard-response","223","196136","0.0-1.0-300.0","0","0","47469","","null","","","null","33","NaN","","","","","","","","","","","","","","",""
"","S2","","html-keyboard-response","224","196141","0.0-1.0-301.0","0","0","47469","","4","","","75","33","","k","1","33","training","adjacent","FE","6","5","L.jpg","R.jpg","1","0","0","",""
"","feedback","","html-keyboard-response","225","197143","0.0-1.0-303.0-0.0","0","0","47469","","null","","","null","33","","","","","","","","","","","","","","","",""
"","time_out","","html-keyboard-response","226","199145","0.0-1.0-305.0-0.0","0","0","47469","","null","","","null","33","","","","","","","","","","","","","","","",""
"","ITI","","html-keyboard-response","227","200146","0.0-1.0-306.0","0","0","47469","","null","","","null","33","","","","","","","","","","","","","","","NaN",""
"","S1","","html-keyboard-response","228","200398","0.0-1.0-308.0","0","0","47469","","null","","","null","34","","","","","","","","","","","","","","","",""
"","ISI","","html-keyboard-response","229","201400","0.0-1.0-309.0","0","0","47469","","null","","","null","34","NaN","","","","","","","","","","","","","","",""
"","S2","","html-keyboard-response","230","201651","0.0-1.0-310.0","0","0","47469","","null","","","null","34","","NaN","","","","","","","","","","","","","",""
"","response","","html-keyboard-response","231","202062","0.0-1.0-311.0-0.0","0","0","47469","","409","","","68","34","","","1","34","training","adjacent","CB","3","2","Q.jpg","P.jpg","0","0","1","",""
"","feedback","","html-keyboard-response","232","203063","0.0-1.0-312.0-0.0","0","0","47469","","null","","","null","34","","","","","","","","","","","","","","","",""
"","ITI","","html-keyboard-response","233","204064","0.0-1.0-315.0","0","0","47469","","null","","","null","34","","","","","","","","","","","","","","","NaN",""
"","S1","","html-keyboard-response","234","204316","0.0-1.0-317.0","0","0","47469","","null","","","null","35","","","","","","","","","","","","","","","",""
"","ISI","","html-keyboard-response","235","205317","0.0-1.0-318.0","0","0","47469","","null","","","null","35","NaN","","","","","","","","","","","","","","",""
"","S2","","html-keyboard-response","236","205569","0.0-1.0-319.0","0","0","47469","","null","","","null","35","","NaN","","","","","","","","","","","","","",""
"","response","","html-keyboard-response","237","206317","0.0-1.0-320.0-0.0","0","0","47469","","747","","","75","35","","","1","35","training","adjacent","CB","3","2","Q.jpg","P.jpg","1","0","0","",""
"","feedback","","html-keyboard-response","238","207319","0.0-1.0-321.0-0.0","0","0","47469","","null","","","null","35","","","","","","","","","","","","","","","",""
"","time_out","","html-keyboard-response","239","209321","0.0-1.0-323.0-0.0","0","0","47469","","null","","","null","35","","","","","","","","","","","","","","","",""
"","ITI","","html-keyboard-response","240","210323","0.0-1.0-324.0","0","0","47469","","null","","","null","35","","","","","","","","","","","","","","","NaN",""
"","S1","","html-keyboard-response","241","210574","0.0-1.0-326.0","0","0","47469","","null","","","null","36","","","","","","","","","","","","","","","",""
"","ISI","","html-keyboard-response","242","211575","0.0-1.0-327.0","0","0","47469","","null","","","null","36","NaN","","","","","","","","","","","","","","",""
"","S2","","html-keyboard-response","243","211827","0.0-1.0-328.0","0","0","47469","","null","","","null","36","","NaN","","","","","","","","","","","","","",""
"","response","","html-keyboard-response","244","212480","0.0-1.0-329.0-0.0","0","0","47469","","653","","","68","36","","","1","36","training","adjacent","DE","4","5","N.jpg","R.jpg","0","1","0","",""
"","feedback","","html-keyboard-response","245","213482","0.0-1.0-330.0-0.0","0","0","47469","","null","","","null","36","","","","","","","","","","","","","","","",""
"","time_out","","html-keyboard-response","246","215484","0.0-1.0-332.0-0.0","0","0","47469","","null","","","null","36","","","","","","","","","","","","","","","",""
"","ITI","","html-keyboard-response","247","216485","0.0-1.0-333.0","0","0","47469","","null","","","null","36","","","","","","","","","","","","","","","NaN",""
"","S1","","html-keyboard-response","248","216737","0.0-1.0-335.0","0","0","47469","","null","","","null","37","","","","","","","","","","","","","","","",""
"","ISI","","html-keyboard-response","249","217738","0.0-1.0-336.0","0","0","47469","","null","","","null","37","NaN","","","","","","","","","","","","","","",""
"","S2","","html-keyboard-response","250","217991","0.0-1.0-337.0","0","0","47469","","null","","","null","37","","NaN","","","","","","","","","","","","","",""
"","response","","html-keyboard-response","251","218105","0.0-1.0-338.0-0.0","0","0","47469","","114","","","75","37","","","1","37","training","adjacent","DC","4","3","N.jpg","Q.jpg","1","0","0","",""
"","feedback","","html-keyboard-response","252","219107","0.0-1.0-339.0-0.0","0","0","47469","","null","","","null","37","","","","","","","","","","","","","","","",""
"","time_out","","html-keyboard-response","253","221109","0.0-1.0-341.0-0.0","0","0","47469","","null","","","null","37","","","","","","","","","","","","","","","",""
"","ITI","","html-keyboard-response","254","222111","0.0-1.0-342.0","0","0","47469","","null","","","null","37","","","","","","","","","","","","","","","NaN",""
"","S1","","html-keyboard-response","255","222363","0.0-1.0-344.0","0","0","47469","","null","","","null","38","","","","","","","","","","","","","","","",""
"","ISI","","html-keyboard-response","256","223365","0.0-1.0-345.0","0","0","47469","","71","","","68","38","d","","","","","","","","","","","","","","",""
"","S2","","html-keyboard-response","257","223431","0.0-1.0-346.0","0","0","47469","","66","","","68","38","","d","1","38","training","adjacent","DC","4","3","N.jpg","Q.jpg","0","0","1","",""
"","feedback","","html-keyboard-response","258","224433","0.0-1.0-348.0-0.0","0","0","47469","","null","","","null","38","","","","","","","","","","","","","","","",""
"","ITI","","html-keyboard-response","259","225435","0.0-1.0-351.0","0","0","47469","","null","","","null","38","","","","","","","","","","","","","","","NaN",""
"","S1","","html-keyboard-response","260","225687","0.0-1.0-353.0","0","0","47469","","null","","","null","39","","","","","","","","","","","","","","","",""
"","ISI","","html-keyboard-response","261","226688","0.0-1.0-354.0","0","0","47469","","null","","","null","39","NaN","","","","","","","","","","","","","","",""
"","S2","","html-keyboard-response","262","226940","0.0-1.0-355.0","0","0","47469","","null","","","null","39","","NaN","","","","","","","","","","","","","",""
"","response","","html-keyboard-response","263","227169","0.0-1.0-356.0-0.0","0","0","47469","","228","","","75","39","","","1","39","training","adjacent","AB","1","2","O.jpg","P.jpg","1","1","1","",""
"","feedback","","html-keyboard-response","264","228171","0.0-1.0-357.0-0.0","0","0","47469","","null","","","null","39","","","","","","","","","","","","","","","",""
"","ITI","","html-keyboard-response","265","229172","0.0-1.0-360.0","0","0","47469","","null","","","null","39","","","","","","","","","","","","","","","NaN",""
"","S1","","html-keyboard-response","266","229424","0.0-1.0-362.0","0","0","47469","","null","","","null","40","","","","","","","","","","","","","","","",""
"","ISI","","html-keyboard-response","267","230425","0.0-1.0-363.0","0","0","47469","","null","","","null","40","NaN","","","","","","","","","","","","","","",""
"","S2","","html-keyboard-response","268","230678","0.0-1.0-364.0","0","0","47469","","null","","","null","40","","NaN","","","","","","","","","","","","","",""
"","response","","html-keyboard-response","269","231498","0.0-1.0-365.0-0.0","0","0","47469","","820","","","68","40","","","1","40","training","adjacent","GF","7","6","M.jpg","L.jpg","0","0","1","",""
"","feedback","","html-keyboard-response","270","232500","0.0-1.0-366.0-0.0","0","0","47469","","null","","","null","40","","","","","","","","","","","","","","","",""
"","ITI","","html-keyboard-response","271","233501","0.0-1.0-369.0","0","0","47469","","null","","","null","40","","","","","","","","","","","","","","","NaN",""
"","S1","","html-keyboard-response","272","233753","0.0-1.0-371.0","0","0","47469","","null","","","null","41","","","","","","","","","","","","","","","",""
"","ISI","","html-keyboard-response","273","234755","0.0-1.0-372.0","0","0","47469","","null","","","null","41","NaN","","","","","","","","","","","","","","",""
"","S2","","html-keyboard-response","274","235007","0.0-1.0-373.0","0","0","47469","","null","","","null","41","","NaN","","","","","","","","","","","","","",""
"","response","","html-keyboard-response","275","235053","0.0-1.0-374.0-0.0","0","0","47469","","46","","","75","41","","","1","41","training","adjacent","GF","7","6","M.jpg","L.jpg","1","0","0","",""
"","feedback","","html-keyboard-response","276","236055","0.0-1.0-375.0-0.0","0","0","47469","","null","","","null","41","","","","","","","","","","","","","","","",""
"","time_out","","html-keyboard-response","277","238056","0.0-1.0-377.0-0.0","0","0","47469","","null","","","null","41","","","","","","","","","","","","","","","",""
"","ITI","","html-keyboard-response","278","239057","0.0-1.0-378.0","0","0","47469","","null","","","null","41","","","","","","","","","","","","","","","NaN",""
"","S1","","html-keyboard-response","279","239309","0.0-1.0-380.0","0","0","47469","","null","","","null","42","","","","","","","","","","","","","","","",""
"","ISI","","html-keyboard-response","280","240311","0.0-1.0-381.0","0","0","47469","","null","","","null","42","NaN","","","","","","","","","","","","","","",""
"","S2","","html-keyboard-response","281","240563","0.0-1.0-382.0","0","0","47469","","null","","","null","42","","NaN","","","","","","","","","","","","","",""
"","response","","html-keyboard-response","282","240961","0.0-1.0-383.0-0.0","0","0","47469","","398","","","68","42","","","1","42","training","adjacent","BA","2","1","P.jpg","O.jpg","0","0","1","",""
"","feedback","","html-keyboard-response","283","241962","0.0-1.0-384.0-0.0","0","0","47469","","null","","","null","42","","","","","","","","","","","","","","","",""
"","ITI","","html-keyboard-response","284","242964","0.0-1.0-387.0","0","0","47469","","null","","","null","42","","","","","","","","","","","","","","","NaN",""
"","S1","","html-keyboard-response","285","243216","0.0-1.0-389.0","0","0","47469","","null","","","null","43","","","","","","","","","","","","","","","",""
"","ISI","","html-keyboard-response","286","244217","0.0-1.0-390.0","0","0","47469","","null","","","null","43","NaN","","","","","","","","","","","","","","",""
"","S2","","html-keyboard-response","287","244468","0.0-1.0-391.0","0","0","47469","","null","","","null","43","","NaN","","","","","","","","","","","","","",""
"","response","","html-keyboard-response","288","245265","0.0-1.0-392.0-0.0","0","0","47469","","795","","","68","43","","","1","43","training","adjacent","BA","2","1","P.jpg","O.jpg","0","0","1","",""
"","feedback","","html-keyboard-response","289","246266","0.0-1.0-393.0-0.0","0","0","47469","","null","","","null","43","","","","","","","","","","","","","","","",""
"","ITI","","html-keyboard-response","290","247267","0.0-1.0-396.0","0","0","47469","","null","","","null","43","","","","","","","","","","","","","","","NaN",""
"","S1","","html-keyboard-response","291","247518","0.0-1.0-398.0","0","0","47469","","null","","","null","44","","","","","","","","","","","","","","","",""
"","ISI","","html-keyboard-response","292","248520","0.0-1.0-399.0","0","0","47469","","null","","","null","44","NaN","","","","","","","","","","","","","","",""
"","S2","","html-keyboard-response","293","248772","0.0-1.0-400.0","0","0","47469","","null","","","null","44","","NaN","","","","","","","","","","","","","",""
"","response","","html-keyboard-response","294","249779","0.0-1.0-401.0-0.0","0","0","47469","","1007","","","75","44","","","1","44","training","adjacent","BC","2","3","P.jpg","Q.jpg","1","1","1","",""
"","feedback","","html-keyboard-response","295","250782","0.0-1.0-402.0-0.0","0","0","47469","","null","","","null","44","","","","","","","","","","","","","","","",""
"","ITI","","html-keyboard-response","296","251784","0.0-1.0-405.0","0","0","47469","","null","","","null","44","","","","","","","","","","","","","","","NaN",""
"","S1","","html-keyboard-response","297","252047","0.0-1.0-407.0","0","0","47469","","null","","","null","45","","","","","","","","","","","","","","","",""
"","ISI","","html-keyboard-response","298","253049","0.0-1.0-408.0","0","0","47469","","null","","","null","45","NaN","","","","","","","","","","","","","","",""
"","S2","","html-keyboard-response","299","253266","0.0-1.0-409.0","0","0","47469","","216","","","75","45","","k","1","45","training","adjacent","CD","3","4","Q.jpg","N.jpg","1","1","1","",""
"","feedback","","html-keyboard-response","300","254267","0.0-1.0-411.0-0.0","0","0","47469","","null","","","null","45","","","","","","","","","","","","","","","",""
"","ITI","","html-keyboard-response","301","255269","0.0-1.0-414.0","0","0","47469","","null","","","null","45","","","","","","","","","","","","","","","NaN",""
"","S1","","html-keyboard-response","302","255521","0.0-1.0-416.0","0","0","47469","","null","","","null","46","","","","","","","","","","","","","","","",""
"","ISI","","html-keyboard-response","303","256522","0.0-1.0-417.0","0","0","47469","","null","","","null","46","NaN","","","","","","","","","","","","","","",""
"","S2","","html-keyboard-response","304","256774","0.0-1.0-418.0","0","0","47469","","null","","","null","46","","NaN","","","","","","","","","","","","","",""
"","response","","html-keyboard-response","305","257249","0.0-1.0-419.0-0.0","0","0","47469","","473","","","75","46","","","1","46","training","adjacent","EF","5","6","R.jpg","L.jpg","1","1","1","",""
"","feedback","","html-keyboard-response","306","258250","0.0-1.0-420.0-0.0","0","0","47469","","null","","","null","46","","","","","","","","","","","","","","","",""
"","ITI","","html-keyboard-response","307","259253","0.0-1.0-423.0","0","0","47469","","null","","","null","46","","","","","","","","","","","","","","","NaN",""
"","S1","","html-keyboard-response","308","259504","0.0-1.0-425.0","0","0","47469","","null","","","null","47","","","","","","","","","","","","","","","",""
"","ISI","","html-keyboard-response","309","260505","0.0-1.0-426.0","0","0","47469","","null","","","null","47","NaN","","","","","","","","","","","","","","",""
"","S2","","html-keyboard-response","310","260757","0.0-1.0-427.0","0","0","47469","","null","","","null","47","","NaN","","","","","","","","","","","","","",""
"","response","","html-keyboard-response","311","261499","0.0-1.0-428.0-0.0","0","0","47469","","742","","","75","47","","","1","47","training","adjacent","ED","5","4","R.jpg","N.jpg","1","0","0","",""
"","feedback","","html-keyboard-response","312","262501","0.0-1.0-429.0-0.0","0","0","47469","","null","","","null","47","","","","","","","","","","","","","","","",""
"","time_out","","html-keyboard-response","313","264503","0.0-1.0-431.0-0.0","0","0","47469","","null","","","null","47","","","","","","","","","","","","","","","",""
"","ITI","","html-keyboard-response","314","265504","0.0-1.0-432.0","0","0","47469","","null","","","null","47","","","","","","","","","","","","","","","NaN",""
"","block_over","","html-keyboard-response","315","703176","0.0-1.0-433.0-0.0","0","0","47469","","437671","","","32","47","","","","","","","","","","","","","","","",""
"","S1","","html-keyboard-response","316","703428","0.0-1.0-434.0","0","0","47469","","null","","","null","48","","","","","","","","","","","","","","","",""
"","ISI","","html-keyboard-response","317","704429","0.0-1.0-435.0","0","0","47469","","null","","","null","48","NaN","","","","","","","","","","","","","","",""
"","S2","","html-keyboard-response","318","704680","0.0-1.0-436.0","0","0","47469","","null","","","null","48","","NaN","","","","","","","","","","","","","",""
"","response","","html-keyboard-response","319","704788","0.0-1.0-437.0-0.0","0","0","47469","","106","","","75","48","","","2","48","training","adjacent","ED","5","4","R.jpg","N.jpg","1","0","0","",""
"","feedback","","html-keyboard-response","320","705790","0.0-1.0-438.0-0.0","0","0","47469","","null","","","null","48","","","","","","","","","","","","","","","",""
"","time_out","","html-keyboard-response","321","707791","0.0-1.0-440.0-0.0","0","0","47469","","null","","","null","48","","","","","","","","","","","","","","","",""
"","ITI","","html-keyboard-response","322","708793","0.0-1.0-441.0","0","0","47469","","null","","","null","48","","","","","","","","","","","","","","","NaN",""
"","S1","","html-keyboard-response","323","709045","0.0-1.0-443.0","0","0","47469","","null","","","null","49","","","","","","","","","","","","","","","",""
"","ISI","","html-keyboard-response","324","710046","0.0-1.0-444.0","0","0","47469","","187","","","68","49","d","","","","","","","","","","","","","","",""
"","S2","","html-keyboard-response","325","710298","0.0-1.0-445.0","0","0","47469","","null","","","null","49","","NaN","","","","","","","","","","","","","",""
"","response","","html-keyboard-response","326","710347","0.0-1.0-446.0-0.0","0","0","47469","","48","","","75","49","","","2","49","training","adjacent","CB","3","2","Q.jpg","P.jpg","1","0","0","",""
"","feedback","","html-keyboard-response","327","711349","0.0-1.0-447.0-0.0","0","0","47469","","null","","","null","49","","","","","","","","","","","","","","","",""
"","time_out","","html-keyboard-response","328","713350","0.0-1.0-449.0-0.0","0","0","47469","","null","","","null","49","","","","","","","","","","","","","","","",""
"","ITI","","html-keyboard-response","329","714351","0.0-1.0-450.0","0","0","47469","","null","","","null","49","","","","","","","","","","","","","","","NaN",""
"","S1","","html-keyboard-response","330","714603","0.0-1.0-452.0","0","0","47469","","null","","","null","50","","","","","","","","","","","","","","","",""
"","ISI","","html-keyboard-response","331","715605","0.0-1.0-453.0","0","0","47469","","null","","","null","50","NaN","","","","","","","","","","","","","","",""
"","S2","","html-keyboard-response","332","715857","0.0-1.0-454.0","0","0","47469","","null","","","null","50","","NaN","","","","","","","","","","","","","",""
"","response","","html-keyboard-response","333","716223","0.0-1.0-455.0-0.0","0","0","47469","","365","","","68","50","","","2","50","training","adjacent","BA","2","1","P.jpg","O.jpg","0","0","1","",""
"","feedback","","html-keyboard-response","334","717225","0.0-1.0-456.0-0.0","0","0","47469","","null","","","null","50","","","","","","","","","","","","","","","",""
"","ITI","","html-keyboard-response","335","718227","0.0-1.0-459.0","0","0","47469","","null","","","null","50","","","","","","","","","","","","","","","NaN",""
"","S1","","html-keyboard-response","336","718478","0.0-1.0-461.0","0","0","47469","","null","","","null","51","","","","","","","","","","","","","","","",""
"","ISI","","html-keyboard-response","337","719480","0.0-1.0-462.0","0","0","47469","","null","","","null","51","NaN","","","","","","","","","","","","","","",""
"","S2","","html-keyboard-response","338","719732","0.0-1.0-463.0","0","0","47469","","null","","","null","51","","NaN","","","","","","","","","","","","","",""
"","response","","html-keyboard-response","339","720177","0.0-1.0-464.0-0.0","0","0","47469","","444","","","75","51","","","2","51","training","adjacent","BA","2","1","P.jpg","O.jpg","1","0","0","",""
"","feedback","","html-keyboard-response","340","721179","0.0-1.0-465.0-0.0","0","0","47469","","null","","","null","51","","","","","","","","","","","","","","","",""
"","time_out","","html-keyboard-response","341","723180","0.0-1.0-467.0-0.0","0","0","47469","","null","","","null","51","","","","","","","","","","","","","","","",""
"","ITI","","html-keyboard-response","342","724182","0.0-1.0-468.0","0","0","47469","","null","","","null","51","","","","","","","","","","","","","","","NaN",""
"","S1","","html-keyboard-response","343","724433","0.0-1.0-470.0","0","0","47469","","null","","","null","52","","","","","","","","","","","","","","","",""
"","ISI","","html-keyboard-response","344","725434","0.0-1.0-471.0","0","0","47469","","null","","","null","52","NaN","","","","","","","","","","","","","","",""
"","S2","","html-keyboard-response","345","725686","0.0-1.0-472.0","0","0","47469","","null","","","null","52","","NaN","","","","","","","","","","","","","",""
"","response","","html-keyboard-response","346","726077","0.0-1.0-473.0-0.0","0","0","47469","","389","","","68","52","","","2","52","training","adjacent","BA","2","1","P.jpg","O.jpg","0","0","1","",""
"","feedback","","html-keyboard-response","347","727079","0.0-1.0-474.0-0.0","0","0","47469","","null","","","null","52","","","","","","","","","","","","","","","",""
"","ITI","","html-keyboard-response","348","728081","0.0-1.0-477.0","0","0","47469","","null","","","null","52","","","","","","","","","","","","","","","NaN",""
"","S1","","html-keyboard-response","349","728332","0.0-1.0-479.0","0","0","47469","","null","","","null","53","","","","","","","","","","","","","","","",""
"","ISI","","html-keyboard-response","350","729334","0.0-1.0-480.0","0","0","47469","","null","","","null","53","NaN","","","","","","","","","","","","","","",""
"","S2","","html-keyboard-response","351","729585","0.0-1.0-481.0","0","0","47469","","null","","","null","53","","NaN","","","","","","","","","","","","","",""
"","response","","html-keyboard-response","352","730322","0.0-1.0-482.0-0.0","0","0","47469","","735","","","75","53","","","2","53","training","adjacent","CD","3","4","Q.jpg","N.jpg","1","1","1","",""
"","feedback","","html-keyboard-response","353","731324","0.0-1.0-483.0-0.0","0","0","47469","","null","","","null","53","","","","","","","","","","","","","","","",""
"","ITI","","html-keyboard-response","354","732325","0.0-1.0-486.0","0","0","47469","","null","","","null","53","","","","","","","","","","","","","","","NaN",""
"","S1","","html-keyboard-response","355","732577","0.0-1.0-488.0","0","0","47469","","null","","","null","54","","","","","","","","","","","","","","","",""
"","ISI","","html-keyboard-response","356","733578","0.0-1.0-489.0","0","0","47469","","null","","","null","54","NaN","","","","","","","","","","","","","","",""
"","S2","","html-keyboard-response","357","733830","0.0-1.0-490.0","0","0","47469","","null","","","null","54","","NaN","","","","","","","","","","","","","",""
"","response","","html-keyboard-response","358","734212","0.0-1.0-491.0-0.0","0","0","47469","","380","","","68","54","","","2","54","training","adjacent","BC","2","3","P.jpg","Q.jpg","0","1","0","",""
"","feedback","","html-keyboard-response","359","735213","0.0-1.0-492.0-0.0","0","0","47469","","null","","","null","54","","","","","","","","","","","","","","","",""
"","time_out","","html-keyboard-response","360","737214","0.0-1.0-494.0-0.0","0","0","47469","","null","","","null","54","","","","","","","","","","","","","","","",""
"","ITI","","html-keyboard-response","361","738216","0.0-1.0-495.0","0","0","47469","","null","","","null","54","","","","","","","","","","","","","","","NaN",""
"","S1","","html-keyboard-response","362","738467","0.0-1.0-497.0","0","0","47469","","null","","","null","55","","","","","","","","","","","","","","","",""
"","ISI","","html-keyboard-response","363","739470","0.0-1.0-498.0","0","0","47469","","null","","","null","55","NaN","","","","","","","","","","","","","","",""
"","S2","","html-keyboard-response","364","739722","0.0-1.0-499.0","0","0","47469","","null","","","null","55","","NaN","","","","","","","","","","","","","",""
"","response","","html-keyboard-response","365","740219","0.0-1.0-500.0-0.0","0","0","47469","","496","","","75","55","","","2","55","training","adjacent","FG","6","7","L.jpg","M.jpg","1","1","1","",""
"","feedback","","html-keyboard-response","366","741221","0.0-1.0-501.0-0.0","0","0","47469","","null","","","null","55","","","","","","","","","","","","","","","",""
"","ITI","","html-keyboard-response","367","742222","0.0-1.0-504.0","0","0","47469","","null","","","null","55","","","","","","","","","","","","","","","NaN",""
"","S1","","html-keyboard-response","368","742474","0.0-1.0-506.0","0","0","47469","","null","","","null","56","","","","","","","","","","","","","","","",""
"","ISI","","html-keyboard-response","369","743475","0.0-1.0-507.0","0","0","47469","","null","","","null","56","NaN","","","","","","","","","","","","","","",""
"","S2","","html-keyboard-response","370","743726","0.0-1.0-508.0","0","0","47469","","null","","","null","56","","NaN","","","","","","","","","","","","","",""
"","response","","html-keyboard-response","371","744669","0.0-1.0-509.0-0.0","0","0","47469","","941","","","75","56","","","2","56","training","adjacent","GF","7","6","M.jpg","L.jpg","1","0","0","",""
"","feedback","","html-keyboard-response","372","745671","0.0-1.0-510.0-0.0","0","0","47469","","null","","","null","56","","","","","","","","","","","","","","","",""
"","time_out","","html-keyboard-response","373","747673","0.0-1.0-512.0-0.0","0","0","47469","","null","","","null","56","","","","","","","","","","","","","","","",""
"","ITI","","html-keyboard-response","374","748674","0.0-1.0-513.0","0","0","47469","","null","","","null","56","","","","","","","","","","","","","","","NaN",""
"","S1","","html-keyboard-response","375","748925","0.0-1.0-515.0","0","0","47469","","null","","","null","57","","","","","","","","","","","","","","","",""
"","ISI","","html-keyboard-response","376","749926","0.0-1.0-516.0","0","0","47469","","392","","","75","57","k","","","","","","","","","","","","","","",""
"","S2","","html-keyboard-response","377","750179","0.0-1.0-517.0","0","0","47469","","null","","","null","57","","NaN","","","","","","","","","","","","","",""
"","response","","html-keyboard-response","378","750200","0.0-1.0-518.0-0.0","0","0","47469","","20","","","75","57","","","2","57","training","adjacent","CB","3","2","Q.jpg","P.jpg","1","0","0","",""
"","feedback","","html-keyboard-response","379","751202","0.0-1.0-519.0-0.0","0","0","47469","","null","","","null","57","","","","","","","","","","","","","","","",""
"","time_out","","html-keyboard-response","380","753204","0.0-1.0-521.0-0.0","0","0","47469","","null","","","null","57","","","","","","","","","","","","","","","",""
"","ITI","","html-keyboard-response","381","754206","0.0-1.0-522.0","0","0","47469","","null","","","null","57","","","","","","","","","","","","","","","NaN",""
"","S1","","html-keyboard-response","382","754458","0.0-1.0-524.0","0","0","47469","","null","","","null","58","","","","","","","","","","","","","","","",""
"","ISI","","html-keyboard-response","383","755459","0.0-1.0-525.0","0","0","47469","","null","","","null","58","NaN","","","","","","","","","","","","","","",""
"","S2","","html-keyboard-response","384","755711","0.0-1.0-526.0","0","0","47469","","null","","","null","58","","NaN","","","","","","","","","","","","","",""
"","response","","html-keyboard-response","385","756106","0.0-1.0-527.0-0.0","0","0","47469","","395","","","75","58","","","2","58","training","adjacent","GF","7","6","M.jpg","L.jpg","1","0","0","",""
"","feedback","","html-keyboard-response","386","757107","0.0-1.0-528.0-0.0","0","0","47469","","null","","","null","58","","","","","","","","","","","","","","","",""
"","time_out","","html-keyboard-response","387","759109","0.0-1.0-530.0-0.0","0","0","47469","","null","","","null","58","","","","","","","","","","","","","","","",""
"","ITI","","html-keyboard-response","388","760111","0.0-1.0-531.0","0","0","47469","","null","","","null","58","","","","","","","","","","","","","","","NaN",""
"","S1","","html-keyboard-response","389","760363","0.0-1.0-533.0","0","0","47469","","null","","","null","59","","","","","","","","","","","","","","","",""
"","ISI","","html-keyboard-response","390","761365","0.0-1.0-534.0","0","0","47469","","390","","","68","59","d","","","","","","","","","","","","","","",""
"","S2","","html-keyboard-response","391","761617","0.0-1.0-535.0","0","0","47469","","null","","","null","59","","NaN","","","","","","","","","","","","","",""
"","response","","html-keyboard-response","392","761891","0.0-1.0-536.0-0.0","0","0","47469","","273","","","68","59","","","2","59","training","adjacent","DE","4","5","N.jpg","R.jpg","0","1","0","",""
"","feedback","","html-keyboard-response","393","762892","0.0-1.0-537.0-0.0","0","0","47469","","null","","","null","59","","","","","","","","","","","","","","","",""
"","time_out","","html-keyboard-response","394","764894","0.0-1.0-539.0-0.0","0","0","47469","","null","","","null","59","","","","","","","","","","","","","","","",""
"","ITI","","html-keyboard-response","395","765896","0.0-1.0-540.0","0","0","47469","","null","","","null","59","","","","","","","","","","","","","","","NaN",""
"","S1","","html-keyboard-response","396","766148","0.0-1.0-542.0","0","0","47469","","null","","","null","60","","","","","","","","","","","","","","","",""
"","ISI","","html-keyboard-response","397","767149","0.0-1.0-543.0","0","0","47469","","null","","","null","60","NaN","","","","","","","","","","","","","","",""
"","S2","","html-keyboard-response","398","767401","0.0-1.0-544.0","0","0","47469","","null","","","null","60","","NaN","","","","","","","","","","","","","",""
"","response","","html-keyboard-response","399","767603","0.0-1.0-545.0-0.0","0","0","47469","","202","","","75","60","","","2","60","training","adjacent","DE","4","5","N.jpg","R.jpg","1","1","1","",""
"","feedback","","html-keyboard-response","400","768605","0.0-1.0-546.0-0.0","0","0","47469","","null","","","null","60","","","","","","","","","","","","","","","",""
"","ITI","","html-keyboard-response","401","769607","0.0-1.0-549.0","0","0","47469","","null","","","null","60","","","","","","","","","","","","","","","NaN",""
"","S1","","html-keyboard-response","402","769859","0.0-1.0-551.0","0","0","47469","","null","","","null","61","","","","","","","","","","","","","","","",""
"","ISI","","html-keyboard-response","403","770861","0.0-1.0-552.0","0","0","47469","","null","","","null","61","NaN","","","","","","","","","","","","","","",""
"","S2","","html-keyboard-response","404","771113","0.0-1.0-553.0","0","0","47469","","null","","","null","61","","NaN","","","","","","","","","","","","","",""
"","response","","html-keyboard-response","405","772864","0.0-1.0-554.0-0.0","0","0","47469","","null","","","null","61","","","2","61","training","adjacent","FG","6","7","L.jpg","M.jpg","NaN","1","0","",""
"","too_slow_prompt","","html-keyboard-response","406","773866","0.0-1.0-556.0-0.0","1","0","47469","","null","","","null","","","","","","","","","","","","","","","","",""
"","time_out","","html-keyboard-response","407","775869","0.0-1.0-557.0-0.0","0","0","47469","","null","","","null","61","","","","","","","","","","","","","","","",""
"","ITI","","html-keyboard-response","408","776870","0.0-1.0-558.0","0","0","47469","","null","","","null","61","","","","","","","","","","","","","","","NaN",""
"","S1","","html-keyboard-response","409","777122","0.0-1.0-560.0","0","0","47469","","null","","","null","62","","","","","","","","","","","","","","","",""
"","ISI","","html-keyboard-response","410","778124","0.0-1.0-561.0","0","0","47469","","288","","","68","62","d","","","","","","","","","","","","","","",""
"","S2","","html-keyboard-response","411","778220","0.0-1.0-562.0","0","0","47469","","95","","","68","62","","d","2","62","training","adjacent","EF","5","6","R.jpg","L.jpg","0","1","0","",""
"","feedback","","html-keyboard-response","412","779222","0.0-1.0-564.0-0.0","0","0","47469","","null","","","null","62","","","","","","","","","","","","","","","",""
"","time_out","","html-keyboard-response","413","781223","0.0-1.0-566.0-0.0","0","0","47469","","null","","","null","62","","","","","","","","","","","","","","","",""
"","ITI","","html-keyboard-response","414","782224","0.0-1.0-567.0","0","0","47469","","null","","","null","62","","","","","","","","","","","","","","","NaN",""
"","S1","","html-keyboard-response","415","782476","0.0-1.0-569.0","0","0","47469","","null","","","null","63","","","","","","","","","","","","","","","",""
"","ISI","","html-keyboard-response","416","783477","0.0-1.0-570.0","0","0","47469","","null","","","null","63","NaN","","","","","","","","","","","","","","",""
"","S2","","html-keyboard-response","417","783729","0.0-1.0-571.0","0","0","47469","","null","","","null","63","","NaN","","","","","","","","","","","","","",""
"","response","","html-keyboard-response","418","783879","0.0-1.0-572.0-0.0","0","0","47469","","149","","","68","63","","","2","63","training","adjacent","CB","3","2","Q.jpg","P.jpg","0","0","1","",""
"","feedback","","html-keyboard-response","419","784881","0.0-1.0-573.0-0.0","0","0","47469","","null","","","null","63","","","","","","","","","","","","","","","",""
"","ITI","","html-keyboard-response","420","785882","0.0-1.0-576.0","0","0","47469","","null","","","null","63","","","","","","","","","","","","","","","NaN",""
"","S1","","html-keyboard-response","421","786134","0.0-1.0-578.0","0","0","47469","","null","","","null","64","","","","","","","","","","","","","","","",""
"","ISI","","html-keyboard-response","422","787135","0.0-1.0-579.0","0","0","47469","","null","","","null","64","NaN","","","","","","","","","","","","","","",""
"","S2","","html-keyboard-response","423","787387","0.0-1.0-580.0","0","0","47469","","null","","","null","64","","NaN","","","","","","","","","","","","","",""
"","response","","html-keyboard-response","424","787585","0.0-1.0-581.0-0.0","0","0","47469","","197","","","75","64","","","2","64","training","adjacent","CD","3","4","Q.jpg","N.jpg","1","1","1","",""
"","feedback","","html-keyboard-response","425","788587","0.0-1.0-582.0-0.0","0","0","47469","","null","","","null","64","","","","","","","","","","","","","","","",""
"","ITI","","html-keyboard-response","426","789589","0.0-1.0-585.0","0","0","47469","","null","","","null","64","","","","","","","","","","","","","","","NaN",""
"","S1","","html-keyboard-response","427","789841","0.0-1.0-587.0","0","0","47469","","null","","","null","65","","","","","","","","","","","","","","","",""
"","ISI","","html-keyboard-response","428","790842","0.0-1.0-588.0","0","0","47469","","null","","","null","65","NaN","","","","","","","","","","","","","","",""
"","S2","","html-keyboard-response","429","790846","0.0-1.0-589.0","0","0","47469","","3","","","68","65","","d","2","65","training","adjacent","FE","6","5","L.jpg","R.jpg","0","0","1","",""
"","feedback","","html-keyboard-response","430","791848","0.0-1.0-591.0-0.0","0","0","47469","","null","","","null","65","","","","","","","","","","","","","","","",""
"","ITI","","html-keyboard-response","431","792849","0.0-1.0-594.0","0","0","47469","","null","","","null","65","","","","","","","","","","","","","","","NaN",""
"","S1","","html-keyboard-response","432","793116","0.0-1.0-596.0","0","0","47469","","null","","","null","66","","","","","","","","","","","","","","","",""
"","ISI","","html-keyboard-response","433","794117","0.0-1.0-597.0","0","0","47469","","null","","","null","66","NaN","","","","","","","","","","","","","","",""
"","S2","","html-keyboard-response","434","794370","0.0-1.0-598.0","0","0","47469","","null","","","null","66","","NaN","","","","","","","","","","","","","",""
"","response","","html-keyboard-response","435","794564","0.0-1.0-599.0-0.0","0","0","47469","","193","","","75","66","","","2","66","training","adjacent","BC","2","3","P.jpg","Q.jpg","1","1","1","",""
"","feedback","","html-keyboard-response","436","795566","0.0-1.0-600.0-0.0","0","0","47469","","null","","","null","66","","","","","","","","","","","","","","","",""
"","ITI","","html-keyboard-response","437","796567","0.0-1.0-603.0","0","0","47469","","null","","","null","66","","","","","","","","","","","","","","","NaN",""
"","S1","","html-keyboard-response","438","796819","0.0-1.0-605.0","0","0","47469","","null","","","null","67","","","","","","","","","","","","","","","",""
"","ISI","","html-keyboard-response","439","797821","0.0-1.0-606.0","0","0","47469","","127","","","68","67","d","","","","","","","","","","","","","","",""
"","S2","","html-keyboard-response","440","798073","0.0-1.0-607.0","0","0","47469","","null","","","null","67","","NaN","","","","","","","","","","","","","",""
"","response","","html-keyboard-response","441","798201","0.0-1.0-608.0-0.0","0","0","47469","","127","","","75","67","","","2","67","training","adjacent","GF","7","6","M.jpg","L.jpg","1","0","0","",""
"","feedback","","html-keyboard-response","442","799212","0.0-1.0-609.0-0.0","0","0","47469","","null","","","null","67","","","","","","","","","","","","","","","",""
"","time_out","","html-keyboard-response","443","801214","0.0-1.0-611.0-0.0","0","0","47469","","null","","","null","67","","","","","","","","","","","","","","","",""
"","ITI","","html-keyboard-response","444","802215","0.0-1.0-612.0","0","0","47469","","null","","","null","67","","","","","","","","","","","","","","","NaN",""
"","S1","","html-keyboard-response","445","802467","0.0-1.0-614.0","0","0","47469","","null","","","null","68","","","","","","","","","","","","","","","",""
"","ISI","","html-keyboard-response","446","803468","0.0-1.0-615.0","0","0","47469","","83","","","68","68","d","","","","","","","","","","","","","","",""
"","S2","","html-keyboard-response","447","803721","0.0-1.0-616.0","0","0","47469","","null","","","null","68","","NaN","","","","","","","","","","","","","",""
"","response","","html-keyboard-response","448","803943","0.0-1.0-617.0-0.0","0","0","47469","","221","","","75","68","","","2","68","training","adjacent","DC","4","3","N.jpg","Q.jpg","1","0","0","",""
"","feedback","","html-keyboard-response","449","804945","0.0-1.0-618.0-0.0","0","0","47469","","null","","","null","68","","","","","","","","","","","","","","","",""
"","time_out","","html-keyboard-response","450","806947","0.0-1.0-620.0-0.0","0","0","47469","","null","","","null","68","","","","","","","","","","","","","","","",""
"","ITI","","html-keyboard-response","451","807948","0.0-1.0-621.0","0","0","47469","","null","","","null","68","","","","","","","","","","","","","","","NaN",""
"","S1","","html-keyboard-response","452","808199","0.0-1.0-623.0","0","0","47469","","null","","","null","69","","","","","","","","","","","","","","","",""
"","ISI","","html-keyboard-response","453","809201","0.0-1.0-624.0","0","0","47469","","183","","","68","69","d","","","","","","","","","","","","","","",""
"","S2","","html-keyboard-response","454","809420","0.0-1.0-625.0","0","0","47469","","218","","","68","69","","d","2","69","training","adjacent","DE","4","5","N.jpg","R.jpg","0","1","0","",""
"","feedback","","html-keyboard-response","455","810421","0.0-1.0-627.0-0.0","0","0","47469","","null","","","null","69","","","","","","","","","","","","","","","",""
"","time_out","","html-keyboard-response","456","812422","0.0-1.0-629.0-0.0","0","0","47469","","null","","","null","69","","","","","","","","","","","","","","","",""
"","ITI","","html-keyboard-response","457","813423","0.0-1.0-630.0","0","0","47469","","157","","","75","69","","","","","","","","","","","","","","","k",""
"","S1","","html-keyboard-response","458","813675","0.0-1.0-632.0","0","0","47469","","null","","","null","70","","","","","","","","","","","","","","","",""
"","ISI","","html-keyboard-response","459","814677","0.0-1.0-633.0","0","0","47469","","69","","","75","70","k","","","","","","","","","","","","","","",""
"","S2","","html-keyboard-response","460","814928","0.0-1.0-634.0","0","0","47469","","null","","","null","70","","NaN","","","","","","","","","","","","","",""
"","response","","html-keyboard-response","461","815227","0.0-1.0-635.0-0.0","0","0","47469","","297","","","68","70","","","2","70","training","adjacent","FG","6","7","L.jpg","M.jpg","0","1","0","",""
"","feedback","","html-keyboard-response","462","816229","0.0-1.0-636.0-0.0","0","0","47469","","null","","","null","70","","","","","","","","","","","","","","","",""
"","time_out","","html-keyboard-response","463","818231","0.0-1.0-638.0-0.0","0","0","47469","","null","","","null","70","","","","","","","","","","","","","","","",""
"","ITI","","html-keyboard-response","464","819233","0.0-1.0-639.0","0","0","47469","","null","","","null","70","","","","","","","","","","","","","","","NaN",""
"","S1","","html-keyboard-response","465","819485","0.0-1.0-641.0","0","0","47469","","null","","","null","71","","","","","","","","","","","","","","","",""
"","ISI","","html-keyboard-response","466","820486","0.0-1.0-642.0","0","0","47469","","null","","","null","71","NaN","","","","","","","","","","","","","","",""
"","S2","","html-keyboard-response","467","820738","0.0-1.0-643.0","0","0","47469","","null","","","null","71","","NaN","","","","","","","","","","","","","",""
"","response","","html-keyboard-response","468","820795","0.0-1.0-644.0-0.0","0","0","47469","","56","","","75","71","","","2","71","training","adjacent","EF","5","6","R.jpg","L.jpg","1","1","1","",""
"","feedback","","html-keyboard-response","469","821797","0.0-1.0-645.0-0.0","0","0","47469","","null","","","null","71","","","","","","","","","","","","","","","",""
"","ITI","","html-keyboard-response","470","822798","0.0-1.0-648.0","0","0","47469","","null","","","null","71","","","","","","","","","","","","","","","NaN",""
"","S1","","html-keyboard-response","471","823050","0.0-1.0-650.0","0","0","47469","","null","","","null","72","","","","","","","","","","","","","","","",""
"","ISI","","html-keyboard-response","472","824052","0.0-1.0-651.0","0","0","47469","","null","","","null","72","NaN","","","","","","","","","","","","","","",""
"","S2","","html-keyboard-response","473","824304","0.0-1.0-652.0","0","0","47469","","null","","","null","72","","NaN","","","","","","","","","","","","","",""
"","response","","html-keyboard-response","474","825347","0.0-1.0-653.0-0.0","0","0","47469","","1042","","","68","72","","","2","72","training","adjacent","DC","4","3","N.jpg","Q.jpg","0","0","1","",""
"","feedback","","html-keyboard-response","475","826349","0.0-1.0-654.0-0.0","0","0","47469","","null","","","null","72","","","","","","","","","","","","","","","",""
"","ITI","","html-keyboard-response","476","827351","0.0-1.0-657.0","0","0","47469","","null","","","null","72","","","","","","","","","","","","","","","NaN",""
"","S1","","html-keyboard-response","477","827603","0.0-1.0-659.0","0","0","47469","","null","","","null","73","","","","","","","","","","","","","","","",""
"","ISI","","html-keyboard-response","478","828604","0.0-1.0-660.0","0","0","47469","","939","","","68","73","d","","","","","","","","","","","","","","",""
"","S2","","html-keyboard-response","479","828781","0.0-1.0-661.0","0","0","47469","","175","","","68","73","","d","2","73","training","adjacent","BC","2","3","P.jpg","Q.jpg","0","1","0","",""
"","feedback","","html-keyboard-response","480","829782","0.0-1.0-663.0-0.0","0","0","47469","","null","","","null","73","","","","","","","","","","","","","","","",""
"","time_out","","html-keyboard-response","481","831784","0.0-1.0-665.0-0.0","0","0","47469","","null","","","null","73","","","","","","","","","","","","","","","",""
"","ITI","","html-keyboard-response","482","832785","0.0-1.0-666.0","0","0","47469","","106","","","68","73","","","","","","","","","","","","","","","d",""
"","S1","","html-keyboard-response","483","833037","0.0-1.0-668.0","0","0","47469","","null","","","null","74","","","","","","","","","","","","","","","",""
"","ISI","","html-keyboard-response","484","834039","0.0-1.0-669.0","0","0","47469","","289","","","68","74","d","","","","","","","","","","","","","","",""
"","S2","","html-keyboard-response","485","834291","0.0-1.0-670.0","0","0","47469","","null","","","null","74","","NaN","","","","","","","","","","","","","",""
"","response","","html-keyboard-response","486","834296","0.0-1.0-671.0-0.0","0","0","47469","","4","","","68","74","","","2","74","training","adjacent","DC","4","3","N.jpg","Q.jpg","0","0","1","",""
"","feedback","","html-keyboard-response","487","835298","0.0-1.0-672.0-0.0","0","0","47469","","null","","","null","74","","","","","","","","","","","","","","","",""
"","ITI","","html-keyboard-response","488","836300","0.0-1.0-675.0","0","0","47469","","null","","","null","74","","","","","","","","","","","","","","","NaN",""
"","S1","","html-keyboard-response","489","836552","0.0-1.0-677.0","0","0","47469","","null","","","null","75","","","","","","","","","","","","","","","",""
"","ISI","","html-keyboard-response","490","837553","0.0-1.0-678.0","0","0","47469","","null","","","null","75","NaN","","","","","","","","","","","","","","",""
"","S2","","html-keyboard-response","491","837805","0.0-1.0-679.0","0","0","47469","","null","","","null","75","","NaN","","","","","","","","","","","","","",""
"","response","","html-keyboard-response","492","837933","0.0-1.0-680.0-0.0","0","0","47469","","128","","","68","75","","","2","75","training","adjacent","CD","3","4","Q.jpg","N.jpg","0","1","0","",""
"","feedback","","html-keyboard-response","493","838935","0.0-1.0-681.0-0.0","0","0","47469","","null","","","null","75","","","","","","","","","","","","","","","",""
"","time_out","","html-keyboard-response","494","840936","0.0-1.0-683.0-0.0","0","0","47469","","null","","","null","75","","","","","","","","","","","","","","","",""
"","ITI","","html-keyboard-response","495","841937","0.0-1.0-684.0","0","0","47469","","null","","","null","75","","","","","","","","","","","","","","","NaN",""
"","S1","","html-keyboard-response","496","842189","0.0-1.0-686.0","0","0","47469","","null","","","null","76","","","","","","","","","","","","","","","",""
"","ISI","","html-keyboard-response","497","843191","0.0-1.0-687.0","0","0","47469","","null","","","null","76","NaN","","","","","","","","","","","","","","",""
"","S2","","html-keyboard-response","498","843412","0.0-1.0-688.0","0","0","47469","","220","","","68","76","","d","2","76","training","adjacent","CB","3","2","Q.jpg","P.jpg","0","0","1","",""
"","feedback","","html-keyboard-response","499","844414","0.0-1.0-690.0-0.0","0","0","47469","","null","","","null","76","","","","","","","","","","","","","","","",""
"","ITI","","html-keyboard-response","500","845416","0.0-1.0-693.0","0","0","47469","","null","","","null","76","","","","","","","","","","","","","","","NaN",""
"","S1","","html-keyboard-response","501","845668","0.0-1.0-695.0","0","0","47469","","null","","","null","77","","","","","","","","","","","","","","","",""
"","ISI","","html-keyboard-response","502","846669","0.0-1.0-696.0","0","0","47469","","464","","","75","77","k","","","","","","","","","","","","","","",""
"","S2","","html-keyboard-response","503","846921","0.0-1.0-697.0","0","0","47469","","null","","","null","77","","NaN","","","","","","","","","","","","","",""
"","response","","html-keyboard-response","504","847014","0.0-1.0-698.0-0.0","0","0","47469","","91","","","75","77","","","2","77","training","adjacent","DC","4","3","N.jpg","Q.jpg","1","0","0","",""
"","feedback","","html-keyboard-response","505","848016","0.0-1.0-699.0-0.0","0","0","47469","","null","","","null","77","","","","","","","","","","","","","","","",""
"","time_out","","html-keyboard-response","506","850017","0.0-1.0-701.0-0.0","0","0","47469","","null","","","null","77","","","","","","","","","","","","","","","",""
"","ITI","","html-keyboard-response","507","851019","0.0-1.0-702.0","0","0","47469","","null","","","null","77","","","","","","","","","","","","","","","NaN",""
"","S1","","html-keyboard-response","508","851271","0.0-1.0-704.0","0","0","47469","","null","","","null","78","","","","","","","","","","","","","","","",""
"","ISI","","html-keyboard-response","509","852273","0.0-1.0-705.0","0","0","47469","","375","","","68","78","d","","","","","","","","","","","","","","",""
"","S2","","html-keyboard-response","510","852525","0.0-1.0-706.0","0","0","47469","","null","","","null","78","","NaN","","","","","","","","","","","","","",""
"","response","","html-keyboard-response","511","852625","0.0-1.0-707.0-0.0","0","0","47469","","99","","","75","78","","","2","78","training","adjacent","FE","6","5","L.jpg","R.jpg","1","0","0","",""
"","feedback","","html-keyboard-response","512","853627","0.0-1.0-708.0-0.0","0","0","47469","","null","","","null","78","","","","","","","","","","","","","","","",""
"","time_out","","html-keyboard-response","513","855628","0.0-1.0-710.0-0.0","0","0","47469","","null","","","null","78","","","","","","","","","","","","","","","",""
"","ITI","","html-keyboard-response","514","856631","0.0-1.0-711.0","0","0","47469","","null","","","null","78","","","","","","","","","","","","","","","NaN",""
"","S1","","html-keyboard-response","515","856883","0.0-1.0-713.0","0","0","47469","","null","","","null","79","","","","","","","","","","","","","","","",""
"","ISI","","html-keyboard-response","516","857884","0.0-1.0-714.0","0","0","47469","","null","","","null","79","NaN","","","","","","","","","","","","","","",""
"","S2","","html-keyboard-response","517","858136","0.0-1.0-715.0","0","0","47469","","null","","","null","79","","NaN","","","","","","","","","","","","","",""
"","response","","html-keyboard-response","518","858170","0.0-1.0-716.0-0.0","0","0","47469","","34","","","68","79","","","2","79","training","adjacent","FG","6","7","L.jpg","M.jpg","0","1","0","",""
"","feedback","","html-keyboard-response","519","859172","0.0-1.0-717.0-0.0","0","0","47469","","null","","","null","79","","","","","","","","","","","","","","","",""
"","time_out","","html-keyboard-response","520","861174","0.0-1.0-719.0-0.0","0","0","47469","","null","","","null","79","","","","","","","","","","","","","","","",""
"","ITI","","html-keyboard-response","521","862176","0.0-1.0-720.0","0","0","47469","","172","","","75","79","","","","","","","","","","","","","","","k",""
"","S1","","html-keyboard-response","522","862427","0.0-1.0-722.0","0","0","47469","","null","","","null","80","","","","","","","","","","","","","","","",""
"","ISI","","html-keyboard-response","523","863428","0.0-1.0-723.0","0","0","47469","","111","","","75","80","k","","","","","","","","","","","","","","",""
"","S2","","html-keyboard-response","524","863680","0.0-1.0-724.0","0","0","47469","","null","","","null","80","","NaN","","","","","","","","","","","","","",""
"","response","","html-keyboard-response","525","863771","0.0-1.0-725.0-0.0","0","0","47469","","91","","","75","80","","","2","80","training","adjacent","EF","5","6","R.jpg","L.jpg","1","1","1","",""
"","feedback","","html-keyboard-response","526","864773","0.0-1.0-726.0-0.0","0","0","47469","","null","","","null","80","","","","","","","","","","","","","","","",""
"","ITI","","html-keyboard-response","527","865774","0.0-1.0-729.0","0","0","47469","","null","","","null","80","","","","","","","","","","","","","","","NaN",""
"","S1","","html-keyboard-response","528","866026","0.0-1.0-731.0","0","0","47469","","null","","","null","81","","","","","","","","","","","","","","","",""
"","ISI","","html-keyboard-response","529","867028","0.0-1.0-732.0","0","0","47469","","186","","","68","81","d","","","","","","","","","","","","","","",""
"","S2","","html-keyboard-response","530","867211","0.0-1.0-733.0","0","0","47469","","182","","","68","81","","d","2","81","training","adjacent","AB","1","2","O.jpg","P.jpg","0","1","0","",""
"","feedback","","html-keyboard-response","531","868213","0.0-1.0-735.0-0.0","0","0","47469","","null","","","null","81","","","","","","","","","","","","","","","",""
"","time_out","","html-keyboard-response","532","870214","0.0-1.0-737.0-0.0","0","0","47469","","null","","","null","81","","","","","","","","","","","","","","","",""
"","ITI","","html-keyboard-response","533","871216","0.0-1.0-738.0","0","0","47469","","null","","","null","81","","","","","","","","","","","","","","","NaN",""
"","S1","","html-keyboard-response","534","871467","0.0-1.0-740.0","0","0","47469","","null","","","null","82","","","","","","","","","","","","","","","",""
"","ISI","","html-keyboard-response","535","872469","0.0-1.0-741.0","0","0","47469","","null","","","null","82","NaN","","","","","","","","","","","","","","",""
"","S2","","html-keyboard-response","536","872707","0.0-1.0-742.0","0","0","47469","","238","","","75","82","","k","2","82","training","adjacent","FE","6","5","L.jpg","R.jpg","1","0","0","",""
"","feedback","","html-keyboard-response","537","873709","0.0-1.0-744.0-0.0","0","0","47469","","null","","","null","82","","","","","","","","","","","","","","","",""
"","time_out","","html-keyboard-response","538","875711","0.0-1.0-746.0-0.0","0","0","47469","","null","","","null","82","","","","","","","","","","","","","","","",""
"","ITI","","html-keyboard-response","539","876712","0.0-1.0-747.0","0","0","47469","","null","","","null","82","","","","","","","","","","","","","","","NaN",""
"","S1","","html-keyboard-response","540","876964","0.0-1.0-749.0","0","0","47469","","null","","","null","83","","","","","","","","","","","","","","","",""
"","ISI","","html-keyboard-response","541","877966","0.0-1.0-750.0","0","0","47469","","78","","","68","83","d","","","","","","","","","","","","","","",""
"","S2","","html-keyboard-response","542","878041","0.0-1.0-751.0","0","0","47469","","73","","","68","83","","d","2","83","training","adjacent","AB","1","2","O.jpg","P.jpg","0","1","0","",""
"","feedback","","html-keyboard-response","543","879043","0.0-1.0-753.0-0.0","0","0","47469","","null","","","null","83","","","","","","","","","","","","","","","",""
"","time_out","","html-keyboard-response","544","881045","0.0-1.0-755.0-0.0","0","0","47469","","null","","","null","83","","","","","","","","","","","","","","","",""
"","ITI","","html-keyboard-response","545","882047","0.0-1.0-756.0","0","0","47469","","null","","","null","83","","","","","","","","","","","","","","","NaN",""
"","S1","","html-keyboard-response","546","882299","0.0-1.0-758.0","0","0","47469","","null","","","null","84","","","","","","","","","","","","","","","",""
"","ISI","","html-keyboard-response","547","883304","0.0-1.0-759.0","0","0","47469","","null","","","null","84","NaN","","","","","","","","","","","","","","",""
"","S2","","html-keyboard-response","548","883556","0.0-1.0-760.0","0","0","47469","","null","","","null","84","","NaN","","","","","","","","","","","","","",""
"","response","","html-keyboard-response","549","883594","0.0-1.0-761.0-0.0","0","0","47469","","38","","","75","84","","","2","84","training","adjacent","DE","4","5","N.jpg","R.jpg","1","1","1","",""
"","feedback","","html-keyboard-response","550","884596","0.0-1.0-762.0-0.0","0","0","47469","","null","","","null","84","","","","","","","","","","","","","","","",""
"","ITI","","html-keyboard-response","551","885609","0.0-1.0-765.0","0","0","47469","","null","","","null","84","","","","","","","","","","","","","","","NaN",""
"","S1","","html-keyboard-response","552","885871","0.0-1.0-767.0","0","0","47469","","null","","","null","85","","","","","","","","","","","","","","","",""
"","ISI","","html-keyboard-response","553","886873","0.0-1.0-768.0","0","0","47469","","null","","","null","85","NaN","","","","","","","","","","","","","","",""
"","S2","","html-keyboard-response","554","887124","0.0-1.0-769.0","0","0","47469","","null","","","null","85","","NaN","","","","","","","","","","","","","",""
"","response","","html-keyboard-response","555","887203","0.0-1.0-770.0-0.0","0","0","47469","","78","","","75","85","","","2","85","training","adjacent","BC","2","3","P.jpg","Q.jpg","1","1","1","",""
"","feedback","","html-keyboard-response","556","888205","0.0-1.0-771.0-0.0","0","0","47469","","null","","","null","85","","","","","","","","","","","","","","","",""
"","ITI","","html-keyboard-response","557","889207","0.0-1.0-774.0","0","0","47469","","null","","","null","85","","","","","","","","","","","","","","","NaN",""
"","S1","","html-keyboard-response","558","889458","0.0-1.0-776.0","0","0","47469","","null","","","null","86","","","","","","","","","","","","","","","",""
"","ISI","","html-keyboard-response","559","890459","0.0-1.0-777.0","0","0","47469","","0","","","68","86","d","","","","","","","","","","","","","","",""
"","S2","","html-keyboard-response","560","890711","0.0-1.0-778.0","0","0","47469","","null","","","null","86","","NaN","","","","","","","","","","","","","",""
"","response","","html-keyboard-response","561","890914","0.0-1.0-779.0-0.0","0","0","47469","","202","","","68","86","","","2","86","training","adjacent","CD","3","4","Q.jpg","N.jpg","0","1","0","",""
"","feedback","","html-keyboard-response","562","891916","0.0-1.0-780.0-0.0","0","0","47469","","null","","","null","86","","","","","","","","","","","","","","","",""
"","time_out","","html-keyboard-response","563","893918","0.0-1.0-782.0-0.0","0","0","47469","","null","","","null","86","","","","","","","","","","","","","","","",""
"","ITI","","html-keyboard-response","564","894920","0.0-1.0-783.0","0","0","47469","","null","","","null","86","","","","","","","","","","","","","","","NaN",""
"","S1","","html-keyboard-response","565","895171","0.0-1.0-785.0","0","0","47469","","null","","","null","87","","","","","","","","","","","","","","","",""
"","ISI","","html-keyboard-response","566","896173","0.0-1.0-786.0","0","0","47469","","null","","","null","87","NaN","","","","","","","","","","","","","","",""
"","S2","","html-keyboard-response","567","896425","0.0-1.0-787.0","0","0","47469","","null","","","null","87","","NaN","","","","","","","","","","","","","",""
"","response","","html-keyboard-response","568","896801","0.0-1.0-788.0-0.0","0","0","47469","","376","","","75","87","","","2","87","training","adjacent","BA","2","1","P.jpg","O.jpg","1","0","0","",""
"","feedback","","html-keyboard-response","569","897804","0.0-1.0-789.0-0.0","0","0","47469","","null","","","null","87","","","","","","","","","","","","","","","",""
"","time_out","","html-keyboard-response","570","899805","0.0-1.0-791.0-0.0","0","0","47469","","null","","","null","87","","","","","","","","","","","","","","","",""
"","ITI","","html-keyboard-response","571","900806","0.0-1.0-792.0","0","0","47469","","null","","","null","87","","","","","","","","","","","","","","","NaN",""
"","S1","","html-keyboard-response","572","901058","0.0-1.0-794.0","0","0","47469","","null","","","null","88","","","","","","","","","","","","","","","",""
"","ISI","","html-keyboard-response","573","902060","0.0-1.0-795.0","0","0","47469","","90","","","68","88","d","","","","","","","","","","","","","","",""
"","S2","","html-keyboard-response","574","902311","0.0-1.0-796.0","0","0","47469","","null","","","null","88","","NaN","","","","","","","","","","","","","",""
"","response","","html-keyboard-response","575","902458","0.0-1.0-797.0-0.0","0","0","47469","","145","","","68","88","","","2","88","training","adjacent","ED","5","4","R.jpg","N.jpg","0","0","1","",""
"","feedback","","html-keyboard-response","576","903460","0.0-1.0-798.0-0.0","0","0","47469","","null","","","null","88","","","","","","","","","","","","","","","",""
"","ITI","","html-keyboard-response","577","904462","0.0-1.0-801.0","0","0","47469","","null","","","null","88","","","","","","","","","","","","","","","NaN",""
"","S1","","html-keyboard-response","578","904713","0.0-1.0-803.0","0","0","47469","","null","","","null","89","","","","","","","","","","","","","","","",""
"","ISI","","html-keyboard-response","579","905723","0.0-1.0-804.0","0","0","47469","","532","","","75","89","k","","","","","","","","","","","","","","",""
"","S2","","html-keyboard-response","580","905935","0.0-1.0-805.0","0","0","47469","","211","","","68","89","","d","2","89","training","adjacent","AB","1","2","O.jpg","P.jpg","0","1","0","",""
"","feedback","","html-keyboard-response","581","906937","0.0-1.0-807.0-0.0","0","0","47469","","null","","","null","89","","","","","","","","","","","","","","","",""
"","time_out","","html-keyboard-response","582","908938","0.0-1.0-809.0-0.0","0","0","47469","","null","","","null","89","","","","","","","","","","","","","","","",""
"","ITI","","html-keyboard-response","583","909940","0.0-1.0-810.0","0","0","47469","","null","","","null","89","","","","","","","","","","","","","","","NaN",""
"","S1","","html-keyboard-response","584","910192","0.0-1.0-812.0","0","0","47469","","null","","","null","90","","","","","","","","","","","","","","","",""
