"success","ttype","start_time","trial_type","trial_index","time_elapsed","internal_node_id","warning","missed_checkup","PID","view_history","rt","responses","repeat_instructions","key_press","index","keypress_isi","keypress_S2","block","trial_num","phase","group_type","pair_type","S1_stim","S2_stim","S1_img","S2_img","S1_chosen","S1_higher","accuracy","keypress_iti","total_bonus_tally"
"true","full_screen","d03082023hr1523","fullscreen","0","9298","0.0-0.0","0","0","44984","","","","","","","","","","","","","","","","","","","","","",""
"","instructions","","instructions","1","32314","0.0-1.0-0.0-0.0","0","0","44984","[{""page_index"":0,""viewing_time"":3481},{""page_index"":1,""viewing_time"":10231},{""page_index"":2,""viewing_time"":7401},{""page_index"":3,""viewing_time"":1891}]","23005","","","","","","","","","","","","","","","","","","","",""
"","comprehension_check","","survey-multi-choice","2","64537","0.0-1.0-0.0-1.0","0","0","44984","","32200","{""Q0"":""True"",""Q1"":""D"",""Q2"":""Only when the screen 'MAKE A CHOICE' is shown"",""Q3"":""Green mark"",""Q4"":""either D or K""}","1","","","","","","","","","","","","","","","","","",""
"","missed_instruction_checkup","","html-keyboard-response","3","66445","0.0-1.0-0.0-2.0-0.0","0","1","44984","","1892","","","32","","","","","","","","","","","","","","","","",""
"","instructions","","instructions","4","82262","0.0-1.0-0.1-0.1","0","0","44984","[{""page_index"":0,""viewing_time"":3215},{""page_index"":1,""viewing_time"":9222},{""page_index"":2,""viewing_time"":1929},{""page_index"":3,""viewing_time"":1441}]","15808","","","","","","","","","","","","","","","","","","","",""
"","comprehension_check","","survey-multi-choice","5","93090","0.0-1.0-0.1-1.1","0","0","44984","","10806","{""Q0"":""True"",""Q1"":""D"",""Q2"":""Once the second image appears and while the screen 'MAKE A CHOICE' is shown"",""Q3"":""Green mark"",""Q4"":""either D or K""}","0","","","","","","","","","","","","","","","","","",""
"","start_exp","","html-keyboard-response","6","94722","0.0-1.0-1.0","0","0","44984","","1623","","","32","","","","","","","","","","","","","","","","",""
"","S1","","html-keyboard-response","7","94981","0.0-1.0-2.0","0","0","44984","","null","","","null","0","","","","","","","","","","","","","","","",""
"","ISI","","html-keyboard-response","8","95138","0.0-1.0-3.0","0","0","44984","","null","","","null","0","NaN","","","","","","","","","","","","","","",""
"","S2","","html-keyboard-response","9","95398","0.0-1.0-4.0","0","0","44984","","null","","","null","0","","NaN","","","","","","","","","","","","","",""
"","response","","html-keyboard-response","10","96597","0.0-1.0-5.0-0.0","0","0","44984","","1190","","","68","0","","","1","0","training","adjacent","DC","4","3","N.jpg","P.jpg","1","0","0","",""
"","feedback","","html-keyboard-response","11","97604","0.0-1.0-6.0-0.0","0","0","44984","","null","","","null","0","","","","","","","","","","","","","","","",""
"","time_out","","html-keyboard-response","12","99611","0.0-1.0-8.0-0.0","0","0","44984","","null","","","null","0","","","","","","","","","","","","","","","",""
"","ITI","","html-keyboard-response","13","100618","0.0-1.0-9.0","0","0","44984","","null","","","null","0","","","","","","","","","","","","","","","NaN",""
"","S1","","html-keyboard-response","14","100877","0.0-1.0-11.0","0","0","44984","","null","","","null","1","","","","","","","","","","","","","","","",""
"","ISI","","html-keyboard-response","15","101034","0.0-1.0-12.0","0","0","44984","","null","","","null","1","NaN","","","","","","","","","","","","","","",""
"","S2","","html-keyboard-response","16","101293","0.0-1.0-13.0","0","0","44984","","null","","","null","1","","NaN","","","","","","","","","","","","","",""
"","response","","html-keyboard-response","17","101604","0.0-1.0-14.0-0.0","0","0","44984","","304","","","75","1","","","1","1","training","adjacent","FG","6","7","L.jpg","Q.jpg","0","1","0","",""
"","feedback","","html-keyboard-response","18","102612","0.0-1.0-15.0-0.0","0","0","44984","","null","","","null","1","","","","","","","","","","","","","","","",""
"","time_out","","html-keyboard-response","19","104620","0.0-1.0-17.0-0.0","0","0","44984","","null","","","null","1","","","","","","","","","","","","","","","",""
"","ITI","","html-keyboard-response","20","105628","0.0-1.0-18.0","0","0","44984","","null","","","null","1","","","","","","","","","","","","","","","NaN",""
"","S1","","html-keyboard-response","21","105885","0.0-1.0-20.0","0","0","44984","","null","","","null","2","","","","","","","","","","","","","","","",""
"","ISI","","html-keyboard-response","22","106043","0.0-1.0-21.0","0","0","44984","","null","","","null","2","NaN","","","","","","","","","","","","","","",""
"","S2","","html-keyboard-response","23","106302","0.0-1.0-22.0","0","0","44984","","null","","","null","2","","NaN","","","","","","","","","","","","","",""
"","response","","html-keyboard-response","24","106536","0.0-1.0-23.0-0.0","0","0","44984","","227","","","68","2","","","1","2","training","adjacent","EF","5","6","M.jpg","L.jpg","1","1","1","",""
"","feedback","","html-keyboard-response","25","107544","0.0-1.0-24.0-0.0","0","0","44984","","null","","","null","2","","","","","","","","","","","","","","","",""
"","ITI","","html-keyboard-response","26","108551","0.0-1.0-27.0","0","0","44984","","null","","","null","2","","","","","","","","","","","","","","","NaN",""
"","S1","","html-keyboard-response","27","108809","0.0-1.0-29.0","0","0","44984","","null","","","null","3","","","","","","","","","","","","","","","",""
"","ISI","","html-keyboard-response","28","108967","0.0-1.0-30.0","0","0","44984","","null","","","null","3","NaN","","","","","","","","","","","","","","",""
"","S2","","html-keyboard-response","29","109227","0.0-1.0-31.0","0","0","44984","","null","","","null","3","","NaN","","","","","","","","","","","","","",""
"","response","","html-keyboard-response","30","109493","0.0-1.0-32.0-0.0","0","0","44984","","257","","","68","3","","","1","3","training","adjacent","GF","7","6","Q.jpg","L.jpg","1","0","0","",""
"","feedback","","html-keyboard-response","31","110501","0.0-1.0-33.0-0.0","0","0","44984","","null","","","null","3","","","","","","","","","","","","","","","",""
"","time_out","","html-keyboard-response","32","112509","0.0-1.0-35.0-0.0","0","0","44984","","null","","","null","3","","","","","","","","","","","","","","","",""
"","ITI","","html-keyboard-response","33","113516","0.0-1.0-36.0","0","0","44984","","null","","","null","3","","","","","","","","","","","","","","","NaN",""
"","S1","","html-keyboard-response","34","113772","0.0-1.0-38.0","0","0","44984","","null","","","null","4","","","","","","","","","","","","","","","",""
"","ISI","","html-keyboard-response","35","113930","0.0-1.0-39.0","0","0","44984","","null","","","null","4","NaN","","","","","","","","","","","","","","",""
"","S2","","html-keyboard-response","36","114188","0.0-1.0-40.0","0","0","44984","","null","","","null","4","","NaN","","","","","","","","","","","","","",""
"","response","","html-keyboard-response","37","114440","0.0-1.0-41.0-0.0","0","0","44984","","243","","","75","4","","","1","4","training","adjacent","EF","5","6","M.jpg","L.jpg","0","1","0","",""
"","feedback","","html-keyboard-response","38","115449","0.0-1.0-42.0-0.0","0","0","44984","","null","","","null","4","","","","","","","","","","","","","","","",""
"","time_out","","html-keyboard-response","39","117454","0.0-1.0-44.0-0.0","0","0","44984","","null","","","null","4","","","","","","","","","","","","","","","",""
"","ITI","","html-keyboard-response","40","118461","0.0-1.0-45.0","0","0","44984","","null","","","null","4","","","","","","","","","","","","","","","NaN",""
"","S1","","html-keyboard-response","41","118718","0.0-1.0-47.0","0","0","44984","","null","","","null","5","","","","","","","","","","","","","","","",""
"","ISI","","html-keyboard-response","42","118875","0.0-1.0-48.0","0","0","44984","","null","","","null","5","NaN","","","","","","","","","","","","","","",""
"","S2","","html-keyboard-response","43","119134","0.0-1.0-49.0","0","0","44984","","null","","","null","5","","NaN","","","","","","","","","","","","","",""
"","response","","html-keyboard-response","44","119421","0.0-1.0-50.0-0.0","0","0","44984","","281","","","68","5","","","1","5","training","adjacent","BA","2","1","O.jpg","R.jpg","1","0","0","",""
"","feedback","","html-keyboard-response","45","120430","0.0-1.0-51.0-0.0","0","0","44984","","null","","","null","5","","","","","","","","","","","","","","","",""
"","time_out","","html-keyboard-response","46","122436","0.0-1.0-53.0-0.0","0","0","44984","","null","","","null","5","","","","","","","","","","","","","","","",""
"","ITI","","html-keyboard-response","47","123443","0.0-1.0-54.0","0","0","44984","","null","","","null","5","","","","","","","","","","","","","","","NaN",""
"","S1","","html-keyboard-response","48","123701","0.0-1.0-56.0","0","0","44984","","null","","","null","6","","","","","","","","","","","","","","","",""
"","ISI","","html-keyboard-response","49","123857","0.0-1.0-57.0","0","0","44984","","null","","","null","6","NaN","","","","","","","","","","","","","","",""
"","S2","","html-keyboard-response","50","124116","0.0-1.0-58.0","0","0","44984","","null","","","null","6","","NaN","","","","","","","","","","","","","",""
"","response","","html-keyboard-response","51","124379","0.0-1.0-59.0-0.0","0","0","44984","","256","","","75","6","","","1","6","training","adjacent","CD","3","4","P.jpg","N.jpg","0","1","0","",""
"","feedback","","html-keyboard-response","52","125388","0.0-1.0-60.0-0.0","0","0","44984","","null","","","null","6","","","","","","","","","","","","","","","",""
"","time_out","","html-keyboard-response","53","127395","0.0-1.0-62.0-0.0","0","0","44984","","null","","","null","6","","","","","","","","","","","","","","","",""
"","ITI","","html-keyboard-response","54","128402","0.0-1.0-63.0","0","0","44984","","null","","","null","6","","","","","","","","","","","","","","","NaN",""
"","S1","","html-keyboard-response","55","128659","0.0-1.0-65.0","0","0","44984","","null","","","null","7","","","","","","","","","","","","","","","",""
"","ISI","","html-keyboard-response","56","128815","0.0-1.0-66.0","0","0","44984","","null","","","null","7","NaN","","","","","","","","","","","","","","",""
"","S2","","html-keyboard-response","57","129075","0.0-1.0-67.0","0","0","44984","","null","","","null","7","","NaN","","","","","","","","","","","","","",""
"","response","","html-keyboard-response","58","129408","0.0-1.0-68.0-0.0","0","0","44984","","325","","","68","7","","","1","7","training","adjacent","CD","3","4","P.jpg","N.jpg","1","1","1","",""
"","feedback","","html-keyboard-response","59","130415","0.0-1.0-69.0-0.0","0","0","44984","","null","","","null","7","","","","","","","","","","","","","","","",""
"","ITI","","html-keyboard-response","60","131422","0.0-1.0-72.0","0","0","44984","","null","","","null","7","","","","","","","","","","","","","","","NaN",""
"","S1","","html-keyboard-response","61","131679","0.0-1.0-74.0","0","0","44984","","null","","","null","8","","","","","","","","","","","","","","","",""
"","ISI","","html-keyboard-response","62","131836","0.0-1.0-75.0","0","0","44984","","null","","","null","8","NaN","","","","","","","","","","","","","","",""
"","S2","","html-keyboard-response","63","132094","0.0-1.0-76.0","0","0","44984","","null","","","null","8","","NaN","","","","","","","","","","","","","",""
"","response","","html-keyboard-response","64","132669","0.0-1.0-77.0-0.0","0","0","44984","","568","","","68","8","","","1","8","training","adjacent","BC","2","3","O.jpg","P.jpg","1","1","1","",""
"","feedback","","html-keyboard-response","65","133678","0.0-1.0-78.0-0.0","0","0","44984","","null","","","null","8","","","","","","","","","","","","","","","",""
"","ITI","","html-keyboard-response","66","134684","0.0-1.0-81.0","0","0","44984","","null","","","null","8","","","","","","","","","","","","","","","NaN",""
"","S1","","html-keyboard-response","67","134942","0.0-1.0-83.0","0","0","44984","","null","","","null","9","","","","","","","","","","","","","","","",""
"","ISI","","html-keyboard-response","68","135098","0.0-1.0-84.0","0","0","44984","","null","","","null","9","NaN","","","","","","","","","","","","","","",""
"","S2","","html-keyboard-response","69","135358","0.0-1.0-85.0","0","0","44984","","null","","","null","9","","NaN","","","","","","","","","","","","","",""
"","response","","html-keyboard-response","70","135636","0.0-1.0-86.0-0.0","0","0","44984","","270","","","68","9","","","1","9","training","adjacent","DE","4","5","N.jpg","M.jpg","1","1","1","",""
"","feedback","","html-keyboard-response","71","136644","0.0-1.0-87.0-0.0","0","0","44984","","null","","","null","9","","","","","","","","","","","","","","","",""
"","ITI","","html-keyboard-response","72","137651","0.0-1.0-90.0","0","0","44984","","null","","","null","9","","","","","","","","","","","","","","","NaN",""
"","S1","","html-keyboard-response","73","137910","0.0-1.0-92.0","0","0","44984","","null","","","null","10","","","","","","","","","","","","","","","",""
"","ISI","","html-keyboard-response","74","138067","0.0-1.0-93.0","0","0","44984","","null","","","null","10","NaN","","","","","","","","","","","","","","",""
"","S2","","html-keyboard-response","75","138326","0.0-1.0-94.0","0","0","44984","","null","","","null","10","","NaN","","","","","","","","","","","","","",""
"","response","","html-keyboard-response","76","138542","0.0-1.0-95.0-0.0","0","0","44984","","208","","","68","10","","","1","10","training","adjacent","AB","1","2","R.jpg","O.jpg","1","1","1","",""
"","feedback","","html-keyboard-response","77","139550","0.0-1.0-96.0-0.0","0","0","44984","","null","","","null","10","","","","","","","","","","","","","","","",""
"","ITI","","html-keyboard-response","78","140557","0.0-1.0-99.0","0","0","44984","","null","","","null","10","","","","","","","","","","","","","","","NaN",""
"","S1","","html-keyboard-response","79","140814","0.0-1.0-101.0","0","0","44984","","null","","","null","11","","","","","","","","","","","","","","","",""
"","ISI","","html-keyboard-response","80","140971","0.0-1.0-102.0","0","0","44984","","null","","","null","11","NaN","","","","","","","","","","","","","","",""
"","S2","","html-keyboard-response","81","141230","0.0-1.0-103.0","0","0","44984","","null","","","null","11","","NaN","","","","","","","","","","","","","",""
"","response","","html-keyboard-response","82","141634","0.0-1.0-104.0-0.0","0","0","44984","","397","","","68","11","","","1","11","training","adjacent","CB","3","2","P.jpg","O.jpg","1","0","0","",""
"","feedback","","html-keyboard-response","83","142642","0.0-1.0-105.0-0.0","0","0","44984","","null","","","null","11","","","","","","","","","","","","","","","",""
"","time_out","","html-keyboard-response","84","144649","0.0-1.0-107.0-0.0","0","0","44984","","null","","","null","11","","","","","","","","","","","","","","","",""
"","ITI","","html-keyboard-response","85","145655","0.0-1.0-108.0","0","0","44984","","794","","","75","11","","","","","","","","","","","","","","","k",""
"","S1","","html-keyboard-response","86","145914","0.0-1.0-110.0","0","0","44984","","null","","","null","12","","","","","","","","","","","","","","","",""
"","ISI","","html-keyboard-response","87","146070","0.0-1.0-111.0","0","0","44984","","null","","","null","12","NaN","","","","","","","","","","","","","","",""
"","S2","","html-keyboard-response","88","146329","0.0-1.0-112.0","0","0","44984","","null","","","null","12","","NaN","","","","","","","","","","","","","",""
"","response","","html-keyboard-response","89","146389","0.0-1.0-113.0-0.0","0","0","44984","","54","","","75","12","","","1","12","training","adjacent","GF","7","6","Q.jpg","L.jpg","0","0","1","",""
"","feedback","","html-keyboard-response","90","147398","0.0-1.0-114.0-0.0","0","0","44984","","null","","","null","12","","","","","","","","","","","","","","","",""
"","ITI","","html-keyboard-response","91","148405","0.0-1.0-117.0","0","0","44984","","null","","","null","12","","","","","","","","","","","","","","","NaN",""
"","S1","","html-keyboard-response","92","148662","0.0-1.0-119.0","0","0","44984","","null","","","null","13","","","","","","","","","","","","","","","",""
"","ISI","","html-keyboard-response","93","148818","0.0-1.0-120.0","0","0","44984","","null","","","null","13","NaN","","","","","","","","","","","","","","",""
"","S2","","html-keyboard-response","94","149077","0.0-1.0-121.0","0","0","44984","","null","","","null","13","","NaN","","","","","","","","","","","","","",""
"","response","","html-keyboard-response","95","149381","0.0-1.0-122.0-0.0","0","0","44984","","296","","","68","13","","","1","13","training","adjacent","FE","6","5","L.jpg","M.jpg","1","0","0","",""
"","feedback","","html-keyboard-response","96","150388","0.0-1.0-123.0-0.0","0","0","44984","","null","","","null","13","","","","","","","","","","","","","","","",""
"","time_out","","html-keyboard-response","97","152396","0.0-1.0-125.0-0.0","0","0","44984","","null","","","null","13","","","","","","","","","","","","","","","",""
"","ITI","","html-keyboard-response","98","153403","0.0-1.0-126.0","0","0","44984","","null","","","null","13","","","","","","","","","","","","","","","NaN",""
"","S1","","html-keyboard-response","99","153661","0.0-1.0-128.0","0","0","44984","","null","","","null","14","","","","","","","","","","","","","","","",""
"","ISI","","html-keyboard-response","100","153817","0.0-1.0-129.0","0","0","44984","","null","","","null","14","NaN","","","","","","","","","","","","","","",""
"","S2","","html-keyboard-response","101","154077","0.0-1.0-130.0","0","0","44984","","null","","","null","14","","NaN","","","","","","","","","","","","","",""
"","response","","html-keyboard-response","102","154298","0.0-1.0-131.0-0.0","0","0","44984","","215","","","75","14","","","1","14","training","adjacent","CD","3","4","P.jpg","N.jpg","0","1","0","",""
"","feedback","","html-keyboard-response","103","155307","0.0-1.0-132.0-0.0","0","0","44984","","null","","","null","14","","","","","","","","","","","","","","","",""
"","time_out","","html-keyboard-response","104","157313","0.0-1.0-134.0-0.0","0","0","44984","","null","","","null","14","","","","","","","","","","","","","","","",""
"","ITI","","html-keyboard-response","105","158320","0.0-1.0-135.0","0","0","44984","","null","","","null","14","","","","","","","","","","","","","","","NaN",""
"","S1","","html-keyboard-response","106","158578","0.0-1.0-137.0","0","0","44984","","null","","","null","15","","","","","","","","","","","","","","","",""
"","ISI","","html-keyboard-response","107","158734","0.0-1.0-138.0","0","0","44984","","null","","","null","15","NaN","","","","","","","","","","","","","","",""
"","S2","","html-keyboard-response","108","158993","0.0-1.0-139.0","0","0","44984","","null","","","null","15","","NaN","","","","","","","","","","","","","",""
"","response","","html-keyboard-response","109","159235","0.0-1.0-140.0-0.0","0","0","44984","","235","","","68","15","","","1","15","training","adjacent","CB","3","2","P.jpg","O.jpg","1","0","0","",""
"","feedback","","html-keyboard-response","110","160243","0.0-1.0-141.0-0.0","0","0","44984","","null","","","null","15","","","","","","","","","","","","","","","",""
"","time_out","","html-keyboard-response","111","162250","0.0-1.0-143.0-0.0","0","0","44984","","null","","","null","15","","","","","","","","","","","","","","","",""
"","ITI","","html-keyboard-response","112","163257","0.0-1.0-144.0","0","0","44984","","null","","","null","15","","","","","","","","","","","","","","","NaN",""
"","S1","","html-keyboard-response","113","163513","0.0-1.0-146.0","0","0","44984","","null","","","null","16","","","","","","","","","","","","","","","",""
"","ISI","","html-keyboard-response","114","163671","0.0-1.0-147.0","0","0","44984","","null","","","null","16","NaN","","","","","","","","","","","","","","",""
"","S2","","html-keyboard-response","115","163930","0.0-1.0-148.0","0","0","44984","","null","","","null","16","","NaN","","","","","","","","","","","","","",""
"","response","","html-keyboard-response","116","164077","0.0-1.0-149.0-0.0","0","0","44984","","140","","","68","16","","","1","16","training","adjacent","EF","5","6","M.jpg","L.jpg","1","1","1","",""
"","feedback","","html-keyboard-response","117","165084","0.0-1.0-150.0-0.0","0","0","44984","","null","","","null","16","","","","","","","","","","","","","","","",""
"","ITI","","html-keyboard-response","118","166092","0.0-1.0-153.0","0","0","44984","","null","","","null","16","","","","","","","","","","","","","","","NaN",""
"","S1","","html-keyboard-response","119","166349","0.0-1.0-155.0","0","0","44984","","null","","","null","17","","","","","","","","","","","","","","","",""
"","ISI","","html-keyboard-response","120","166506","0.0-1.0-156.0","0","0","44984","","null","","","null","17","NaN","","","","","","","","","","","","","","",""
"","S2","","html-keyboard-response","121","166764","0.0-1.0-157.0","0","0","44984","","null","","","null","17","","NaN","","","","","","","","","","","","","",""
"","response","","html-keyboard-response","122","166943","0.0-1.0-158.0-0.0","0","0","44984","","171","","","68","17","","","1","17","training","adjacent","DC","4","3","N.jpg","P.jpg","1","0","0","",""
"","feedback","","html-keyboard-response","123","167950","0.0-1.0-159.0-0.0","0","0","44984","","null","","","null","17","","","","","","","","","","","","","","","",""
"","time_out","","html-keyboard-response","124","169958","0.0-1.0-161.0-0.0","0","0","44984","","null","","","null","17","","","","","","","","","","","","","","","",""
"","ITI","","html-keyboard-response","125","170965","0.0-1.0-162.0","0","0","44984","","null","","","null","17","","","","","","","","","","","","","","","NaN",""
"","S1","","html-keyboard-response","126","171222","0.0-1.0-164.0","0","0","44984","","null","","","null","18","","","","","","","","","","","","","","","",""
"","ISI","","html-keyboard-response","127","171380","0.0-1.0-165.0","0","0","44984","","null","","","null","18","NaN","","","","","","","","","","","","","","",""
"","S2","","html-keyboard-response","128","171639","0.0-1.0-166.0","0","0","44984","","null","","","null","18","","NaN","","","","","","","","","","","","","",""
"","response","","html-keyboard-response","129","172182","0.0-1.0-167.0-0.0","0","0","44984","","536","","","75","18","","","1","18","training","adjacent","BA","2","1","O.jpg","R.jpg","0","0","1","",""
"","feedback","","html-keyboard-response","130","173192","0.0-1.0-168.0-0.0","0","0","44984","","null","","","null","18","","","","","","","","","","","","","","","",""
"","ITI","","html-keyboard-response","131","174200","0.0-1.0-171.0","0","0","44984","","null","","","null","18","","","","","","","","","","","","","","","NaN",""
"","S1","","html-keyboard-response","132","174458","0.0-1.0-173.0","0","0","44984","","null","","","null","19","","","","","","","","","","","","","","","",""
"","ISI","","html-keyboard-response","133","174614","0.0-1.0-174.0","0","0","44984","","null","","","null","19","NaN","","","","","","","","","","","","","","",""
"","S2","","html-keyboard-response","134","174873","0.0-1.0-175.0","0","0","44984","","null","","","null","19","","NaN","","","","","","","","","","","","","",""
"","response","","html-keyboard-response","135","175092","0.0-1.0-176.0-0.0","0","0","44984","","212","","","75","19","","","1","19","training","adjacent","AB","1","2","R.jpg","O.jpg","0","1","0","",""
"","feedback","","html-keyboard-response","136","176100","0.0-1.0-177.0-0.0","0","0","44984","","null","","","null","19","","","","","","","","","","","","","","","",""
"","time_out","","html-keyboard-response","137","178107","0.0-1.0-179.0-0.0","0","0","44984","","null","","","null","19","","","","","","","","","","","","","","","",""
"","ITI","","html-keyboard-response","138","179114","0.0-1.0-180.0","0","0","44984","","null","","","null","19","","","","","","","","","","","","","","","NaN",""
"","S1","","html-keyboard-response","139","179371","0.0-1.0-182.0","0","0","44984","","null","","","null","20","","","","","","","","","","","","","","","",""
"","ISI","","html-keyboard-response","140","179528","0.0-1.0-183.0","0","0","44984","","null","","","null","20","NaN","","","","","","","","","","","","","","",""
"","S2","","html-keyboard-response","141","179787","0.0-1.0-184.0","0","0","44984","","null","","","null","20","","NaN","","","","","","","","","","","","","",""
"","response","","html-keyboard-response","142","179880","0.0-1.0-185.0-0.0","0","0","44984","","85","","","68","20","","","1","20","training","adjacent","FG","6","7","L.jpg","Q.jpg","1","1","1","",""
"","feedback","","html-keyboard-response","143","180888","0.0-1.0-186.0-0.0","0","0","44984","","null","","","null","20","","","","","","","","","","","","","","","",""
"","ITI","","html-keyboard-response","144","181896","0.0-1.0-189.0","0","0","44984","","null","","","null","20","","","","","","","","","","","","","","","NaN",""
"","S1","","html-keyboard-response","145","182153","0.0-1.0-191.0","0","0","44984","","null","","","null","21","","","","","","","","","","","","","","","",""
"","ISI","","html-keyboard-response","146","182310","0.0-1.0-192.0","0","0","44984","","null","","","null","21","NaN","","","","","","","","","","","","","","",""
"","S2","","html-keyboard-response","147","182569","0.0-1.0-193.0","0","0","44984","","null","","","null","21","","NaN","","","","","","","","","","","","","",""
"","response","","html-keyboard-response","148","182741","0.0-1.0-194.0-0.0","0","0","44984","","163","","","68","21","","","1","21","training","adjacent","AB","1","2","R.jpg","O.jpg","1","1","1","",""
"","feedback","","html-keyboard-response","149","183748","0.0-1.0-195.0-0.0","0","0","44984","","null","","","null","21","","","","","","","","","","","","","","","",""
"","ITI","","html-keyboard-response","150","184757","0.0-1.0-198.0","0","0","44984","","null","","","null","21","","","","","","","","","","","","","","","NaN",""
"","S1","","html-keyboard-response","151","185013","0.0-1.0-200.0","0","0","44984","","null","","","null","22","","","","","","","","","","","","","","","",""
"","ISI","","html-keyboard-response","152","185170","0.0-1.0-201.0","0","0","44984","","null","","","null","22","NaN","","","","","","","","","","","","","","",""
"","S2","","html-keyboard-response","153","185429","0.0-1.0-202.0","0","0","44984","","null","","","null","22","","NaN","","","","","","","","","","","","","",""
"","response","","html-keyboard-response","154","185641","0.0-1.0-203.0-0.0","0","0","44984","","205","","","68","22","","","1","22","training","adjacent","BC","2","3","O.jpg","P.jpg","1","1","1","",""
"","feedback","","html-keyboard-response","155","186649","0.0-1.0-204.0-0.0","0","0","44984","","null","","","null","22","","","","","","","","","","","","","","","",""
"","ITI","","html-keyboard-response","156","187657","0.0-1.0-207.0","0","0","44984","","null","","","null","22","","","","","","","","","","","","","","","NaN",""
"","S1","","html-keyboard-response","157","187916","0.0-1.0-209.0","0","0","44984","","null","","","null","23","","","","","","","","","","","","","","","",""
"","ISI","","html-keyboard-response","158","188073","0.0-1.0-210.0","0","0","44984","","null","","","null","23","NaN","","","","","","","","","","","","","","",""
"","S2","","html-keyboard-response","159","188331","0.0-1.0-211.0","0","0","44984","","null","","","null","23","","NaN","","","","","","","","","","","","","",""
"","response","","html-keyboard-response","160","188531","0.0-1.0-212.0-0.0","0","0","44984","","193","","","68","23","","","1","23","training","adjacent","FE","6","5","L.jpg","M.jpg","1","0","0","",""
"","feedback","","html-keyboard-response","161","189540","0.0-1.0-213.0-0.0","0","0","44984","","null","","","null","23","","","","","","","","","","","","","","","",""
"","time_out","","html-keyboard-response","162","191547","0.0-1.0-215.0-0.0","0","0","44984","","null","","","null","23","","","","","","","","","","","","","","","",""
"","ITI","","html-keyboard-response","163","192555","0.0-1.0-216.0","0","0","44984","","null","","","null","23","","","","","","","","","","","","","","","NaN",""
"","S1","","html-keyboard-response","164","192811","0.0-1.0-218.0","0","0","44984","","null","","","null","24","","","","","","","","","","","","","","","",""
"","ISI","","html-keyboard-response","165","192968","0.0-1.0-219.0","0","0","44984","","null","","","null","24","NaN","","","","","","","","","","","","","","",""
"","S2","","html-keyboard-response","166","193182","0.0-1.0-220.0","0","0","44984","","206","","","75","24","","k","1","24","training","adjacent","BC","2","3","O.jpg","P.jpg","0","1","0","",""
"","feedback","","html-keyboard-response","167","194191","0.0-1.0-222.0-0.0","0","0","44984","","null","","","null","24","","","","","","","","","","","","","","","",""
"","time_out","","html-keyboard-response","168","196197","0.0-1.0-224.0-0.0","0","0","44984","","null","","","null","24","","","","","","","","","","","","","","","",""
"","ITI","","html-keyboard-response","169","197204","0.0-1.0-225.0","0","0","44984","","null","","","null","24","","","","","","","","","","","","","","","NaN",""
"","S1","","html-keyboard-response","170","197461","0.0-1.0-227.0","0","0","44984","","null","","","null","25","","","","","","","","","","","","","","","",""
"","ISI","","html-keyboard-response","171","197618","0.0-1.0-228.0","0","0","44984","","null","","","null","25","NaN","","","","","","","","","","","","","","",""
"","S2","","html-keyboard-response","172","197877","0.0-1.0-229.0","0","0","44984","","null","","","null","25","","NaN","","","","","","","","","","","","","",""
"","response","","html-keyboard-response","173","198009","0.0-1.0-230.0-0.0","0","0","44984","","124","","","68","25","","","1","25","training","adjacent","EF","5","6","M.jpg","L.jpg","1","1","1","",""
"","feedback","","html-keyboard-response","174","199017","0.0-1.0-231.0-0.0","0","0","44984","","null","","","null","25","","","","","","","","","","","","","","","",""
"","ITI","","html-keyboard-response","175","200025","0.0-1.0-234.0","0","0","44984","","null","","","null","25","","","","","","","","","","","","","","","NaN",""
"","S1","","html-keyboard-response","176","200282","0.0-1.0-236.0","0","0","44984","","null","","","null","26","","","","","","","","","","","","","","","",""
"","ISI","","html-keyboard-response","177","200437","0.0-1.0-237.0","0","0","44984","","null","","","null","26","NaN","","","","","","","","","","","","","","",""
"","S2","","html-keyboard-response","178","200693","0.0-1.0-238.0","0","0","44984","","null","","","null","26","","NaN","","","","","","","","","","","","","",""
"","response","","html-keyboard-response","179","200890","0.0-1.0-239.0-0.0","0","0","44984","","189","","","68","26","","","1","26","training","adjacent","BA","2","1","O.jpg","R.jpg","1","0","0","",""
"","feedback","","html-keyboard-response","180","201898","0.0-1.0-240.0-0.0","0","0","44984","","null","","","null","26","","","","","","","","","","","","","","","",""
"","time_out","","html-keyboard-response","181","203906","0.0-1.0-242.0-0.0","0","0","44984","","null","","","null","26","","","","","","","","","","","","","","","",""
"","ITI","","html-keyboard-response","182","204913","0.0-1.0-243.0","0","0","44984","","null","","","null","26","","","","","","","","","","","","","","","NaN",""
"","S1","","html-keyboard-response","183","205172","0.0-1.0-245.0","0","0","44984","","null","","","null","27","","","","","","","","","","","","","","","",""
"","ISI","","html-keyboard-response","184","205328","0.0-1.0-246.0","0","0","44984","","null","","","null","27","NaN","","","","","","","","","","","","","","",""
"","S2","","html-keyboard-response","185","205588","0.0-1.0-247.0","0","0","44984","","null","","","null","27","","NaN","","","","","","","","","","","","","",""
"","response","","html-keyboard-response","186","205712","0.0-1.0-248.0-0.0","0","0","44984","","116","","","75","27","","","1","27","training","adjacent","FE","6","5","L.jpg","M.jpg","0","0","1","",""
"","feedback","","html-keyboard-response","187","206720","0.0-1.0-249.0-0.0","0","0","44984","","null","","","null","27","","","","","","","","","","","","","","","",""
"","ITI","","html-keyboard-response","188","207727","0.0-1.0-252.0","0","0","44984","","null","","","null","27","","","","","","","","","","","","","","","NaN",""
"","S1","","html-keyboard-response","189","207985","0.0-1.0-254.0","0","0","44984","","null","","","null","28","","","","","","","","","","","","","","","",""
"","ISI","","html-keyboard-response","190","208142","0.0-1.0-255.0","0","0","44984","","null","","","null","28","NaN","","","","","","","","","","","","","","",""
"","S2","","html-keyboard-response","191","208400","0.0-1.0-256.0","0","0","44984","","null","","","null","28","","NaN","","","","","","","","","","","","","",""
"","response","","html-keyboard-response","192","208548","0.0-1.0-257.0-0.0","0","0","44984","","140","","","75","28","","","1","28","training","adjacent","ED","5","4","M.jpg","N.jpg","0","0","1","",""
"","feedback","","html-keyboard-response","193","209557","0.0-1.0-258.0-0.0","0","0","44984","","null","","","null","28","","","","","","","","","","","","","","","",""
"","ITI","","html-keyboard-response","194","210564","0.0-1.0-261.0","0","0","44984","","null","","","null","28","","","","","","","","","","","","","","","NaN",""
"","S1","","html-keyboard-response","195","210822","0.0-1.0-263.0","0","0","44984","","null","","","null","29","","","","","","","","","","","","","","","",""
"","ISI","","html-keyboard-response","196","210978","0.0-1.0-264.0","0","0","44984","","null","","","null","29","NaN","","","","","","","","","","","","","","",""
"","S2","","html-keyboard-response","197","211236","0.0-1.0-265.0","0","0","44984","","null","","","null","29","","NaN","","","","","","","","","","","","","",""
"","response","","html-keyboard-response","198","211348","0.0-1.0-266.0-0.0","0","0","44984","","104","","","75","29","","","1","29","training","adjacent","GF","7","6","Q.jpg","L.jpg","0","0","1","",""
"","feedback","","html-keyboard-response","199","212357","0.0-1.0-267.0-0.0","0","0","44984","","null","","","null","29","","","","","","","","","","","","","","","",""
"","ITI","","html-keyboard-response","200","213363","0.0-1.0-270.0","0","0","44984","","null","","","null","29","","","","","","","","","","","","","","","NaN",""
"","S1","","html-keyboard-response","201","213622","0.0-1.0-272.0","0","0","44984","","null","","","null","30","","","","","","","","","","","","","","","",""
"","ISI","","html-keyboard-response","202","213778","0.0-1.0-273.0","0","0","44984","","null","","","null","30","NaN","","","","","","","","","","","","","","",""
"","S2","","html-keyboard-response","203","214038","0.0-1.0-274.0","0","0","44984","","null","","","null","30","","NaN","","","","","","","","","","","","","",""
"","response","","html-keyboard-response","204","214093","0.0-1.0-275.0-0.0","0","0","44984","","49","","","75","30","","","1","30","training","adjacent","CB","3","2","P.jpg","O.jpg","0","0","1","",""
"","feedback","","html-keyboard-response","205","215102","0.0-1.0-276.0-0.0","0","0","44984","","null","","","null","30","","","","","","","","","","","","","","","",""
"","ITI","","html-keyboard-response","206","216109","0.0-1.0-279.0","0","0","44984","","null","","","null","30","","","","","","","","","","","","","","","NaN",""
"","S1","","html-keyboard-response","207","216366","0.0-1.0-281.0","0","0","44984","","null","","","null","31","","","","","","","","","","","","","","","",""
"","ISI","","html-keyboard-response","208","216524","0.0-1.0-282.0","0","0","44984","","null","","","null","31","NaN","","","","","","","","","","","","","","",""
"","S2","","html-keyboard-response","209","216782","0.0-1.0-283.0","0","0","44984","","null","","","null","31","","NaN","","","","","","","","","","","","","",""
"","response","","html-keyboard-response","210","216929","0.0-1.0-284.0-0.0","0","0","44984","","140","","","75","31","","","1","31","training","adjacent","ED","5","4","M.jpg","N.jpg","0","0","1","",""
"","feedback","","html-keyboard-response","211","217939","0.0-1.0-285.0-0.0","0","0","44984","","null","","","null","31","","","","","","","","","","","","","","","",""
"","ITI","","html-keyboard-response","212","218947","0.0-1.0-288.0","0","0","44984","","null","","","null","31","","","","","","","","","","","","","","","NaN",""
"","S1","","html-keyboard-response","213","219206","0.0-1.0-290.0","0","0","44984","","null","","","null","32","","","","","","","","","","","","","","","",""
"","ISI","","html-keyboard-response","214","219359","0.0-1.0-291.0","0","0","44984","","null","","","null","32","NaN","","","","","","","","","","","","","","",""
"","S2","","html-keyboard-response","215","219616","0.0-1.0-292.0","0","0","44984","","null","","","null","32","","NaN","","","","","","","","","","","","","",""
"","response","","html-keyboard-response","216","219777","0.0-1.0-293.0-0.0","0","0","44984","","152","","","75","32","","","1","32","training","adjacent","ED","5","4","M.jpg","N.jpg","0","0","1","",""
"","feedback","","html-keyboard-response","217","220786","0.0-1.0-294.0-0.0","0","0","44984","","null","","","null","32","","","","","","","","","","","","","","","",""
"","ITI","","html-keyboard-response","218","221792","0.0-1.0-297.0","0","0","44984","","null","","","null","32","","","","","","","","","","","","","","","NaN",""
"","S1","","html-keyboard-response","219","222053","0.0-1.0-299.0","0","0","44984","","null","","","null","33","","","","","","","","","","","","","","","",""
"","ISI","","html-keyboard-response","220","222212","0.0-1.0-300.0","0","0","44984","","null","","","null","33","NaN","","","","","","","","","","","","","","",""
"","S2","","html-keyboard-response","221","222468","0.0-1.0-301.0","0","0","44984","","null","","","null","33","","NaN","","","","","","","","","","","","","",""
"","response","","html-keyboard-response","222","222504","0.0-1.0-302.0-0.0","0","0","44984","","25","","","75","33","","","1","33","training","adjacent","FG","6","7","L.jpg","Q.jpg","0","1","0","",""
"","feedback","","html-keyboard-response","223","223511","0.0-1.0-303.0-0.0","0","0","44984","","null","","","null","33","","","","","","","","","","","","","","","",""
"","time_out","","html-keyboard-response","224","225518","0.0-1.0-305.0-0.0","0","0","44984","","null","","","null","33","","","","","","","","","","","","","","","",""
"","ITI","","html-keyboard-response","225","226525","0.0-1.0-306.0","0","0","44984","","null","","","null","33","","","","","","","","","","","","","","","NaN",""
"","S1","","html-keyboard-response","226","226782","0.0-1.0-308.0","0","0","44984","","null","","","null","34","","","","","","","","","","","","","","","",""
"","ISI","","html-keyboard-response","227","226939","0.0-1.0-309.0","0","0","44984","","null","","","null","34","NaN","","","","","","","","","","","","","","",""
"","S2","","html-keyboard-response","228","227198","0.0-1.0-310.0","0","0","44984","","null","","","null","34","","NaN","","","","","","","","","","","","","",""
"","response","","html-keyboard-response","229","227407","0.0-1.0-311.0-0.0","0","0","44984","","202","","","68","34","","","1","34","training","adjacent","DE","4","5","N.jpg","M.jpg","1","1","1","",""
"","feedback","","html-keyboard-response","230","228416","0.0-1.0-312.0-0.0","0","0","44984","","null","","","null","34","","","","","","","","","","","","","","","",""
"","ITI","","html-keyboard-response","231","229424","0.0-1.0-315.0","0","0","44984","","null","","","null","34","","","","","","","","","","","","","","","NaN",""
"","S1","","html-keyboard-response","232","229681","0.0-1.0-317.0","0","0","44984","","null","","","null","35","","","","","","","","","","","","","","","",""
"","ISI","","html-keyboard-response","233","229839","0.0-1.0-318.0","0","0","44984","","null","","","null","35","NaN","","","","","","","","","","","","","","",""
"","S2","","html-keyboard-response","234","230098","0.0-1.0-319.0","0","0","44984","","null","","","null","35","","NaN","","","","","","","","","","","","","",""
"","response","","html-keyboard-response","235","230308","0.0-1.0-320.0-0.0","0","0","44984","","203","","","68","35","","","1","35","training","adjacent","ED","5","4","M.jpg","N.jpg","1","0","0","",""
"","feedback","","html-keyboard-response","236","231316","0.0-1.0-321.0-0.0","0","0","44984","","null","","","null","35","","","","","","","","","","","","","","","",""
"","time_out","","html-keyboard-response","237","233323","0.0-1.0-323.0-0.0","0","0","44984","","null","","","null","35","","","","","","","","","","","","","","","",""
"","ITI","","html-keyboard-response","238","234330","0.0-1.0-324.0","0","0","44984","","null","","","null","35","","","","","","","","","","","","","","","NaN",""
"","S1","","html-keyboard-response","239","234589","0.0-1.0-326.0","0","0","44984","","null","","","null","36","","","","","","","","","","","","","","","",""
"","ISI","","html-keyboard-response","240","234745","0.0-1.0-327.0","0","0","44984","","null","","","null","36","NaN","","","","","","","","","","","","","","",""
"","S2","","html-keyboard-response","241","235005","0.0-1.0-328.0","0","0","44984","","null","","","null","36","","NaN","","","","","","","","","","","","","",""
"","response","","html-keyboard-response","242","235224","0.0-1.0-329.0-0.0","0","0","44984","","213","","","68","36","","","1","36","training","adjacent","DC","4","3","N.jpg","P.jpg","1","0","0","",""
"","feedback","","html-keyboard-response","243","236232","0.0-1.0-330.0-0.0","0","0","44984","","null","","","null","36","","","","","","","","","","","","","","","",""
"","time_out","","html-keyboard-response","244","238239","0.0-1.0-332.0-0.0","0","0","44984","","null","","","null","36","","","","","","","","","","","","","","","",""
"","ITI","","html-keyboard-response","245","239246","0.0-1.0-333.0","0","0","44984","","null","","","null","36","","","","","","","","","","","","","","","NaN",""
"","S1","","html-keyboard-response","246","239502","0.0-1.0-335.0","0","0","44984","","null","","","null","37","","","","","","","","","","","","","","","",""
"","ISI","","html-keyboard-response","247","239660","0.0-1.0-336.0","0","0","44984","","null","","","null","37","NaN","","","","","","","","","","","","","","",""
"","S2","","html-keyboard-response","248","239919","0.0-1.0-337.0","0","0","44984","","null","","","null","37","","NaN","","","","","","","","","","","","","",""
"","response","","html-keyboard-response","249","240072","0.0-1.0-338.0-0.0","0","0","44984","","145","","","75","37","","","1","37","training","adjacent","BC","2","3","O.jpg","P.jpg","0","1","0","",""
"","feedback","","html-keyboard-response","250","241081","0.0-1.0-339.0-0.0","0","0","44984","","null","","","null","37","","","","","","","","","","","","","","","",""
"","time_out","","html-keyboard-response","251","243090","0.0-1.0-341.0-0.0","0","0","44984","","null","","","null","37","","","","","","","","","","","","","","","",""
"","ITI","","html-keyboard-response","252","244097","0.0-1.0-342.0","0","0","44984","","null","","","null","37","","","","","","","","","","","","","","","NaN",""
"","S1","","html-keyboard-response","253","244355","0.0-1.0-344.0","0","0","44984","","null","","","null","38","","","","","","","","","","","","","","","",""
"","ISI","","html-keyboard-response","254","244511","0.0-1.0-345.0","0","0","44984","","null","","","null","38","NaN","","","","","","","","","","","","","","",""
"","S2","","html-keyboard-response","255","244771","0.0-1.0-346.0","0","0","44984","","null","","","null","38","","NaN","","","","","","","","","","","","","",""
"","response","","html-keyboard-response","256","244832","0.0-1.0-347.0-0.0","0","0","44984","","55","","","75","38","","","1","38","training","adjacent","CB","3","2","P.jpg","O.jpg","0","0","1","",""
"","feedback","","html-keyboard-response","257","245840","0.0-1.0-348.0-0.0","0","0","44984","","null","","","null","38","","","","","","","","","","","","","","","",""
"","ITI","","html-keyboard-response","258","246848","0.0-1.0-351.0","0","0","44984","","null","","","null","38","","","","","","","","","","","","","","","NaN",""
"","S1","","html-keyboard-response","259","247105","0.0-1.0-353.0","0","0","44984","","null","","","null","39","","","","","","","","","","","","","","","",""
"","ISI","","html-keyboard-response","260","247262","0.0-1.0-354.0","0","0","44984","","null","","","null","39","NaN","","","","","","","","","","","","","","",""
"","S2","","html-keyboard-response","261","247522","0.0-1.0-355.0","0","0","44984","","null","","","null","39","","NaN","","","","","","","","","","","","","",""
"","response","","html-keyboard-response","262","247723","0.0-1.0-356.0-0.0","0","0","44984","","193","","","75","39","","","1","39","training","adjacent","AB","1","2","R.jpg","O.jpg","0","1","0","",""
"","feedback","","html-keyboard-response","263","248731","0.0-1.0-357.0-0.0","0","0","44984","","null","","","null","39","","","","","","","","","","","","","","","",""
"","time_out","","html-keyboard-response","264","250739","0.0-1.0-359.0-0.0","0","0","44984","","null","","","null","39","","","","","","","","","","","","","","","",""
"","ITI","","html-keyboard-response","265","251745","0.0-1.0-360.0","0","0","44984","","null","","","null","39","","","","","","","","","","","","","","","NaN",""
"","S1","","html-keyboard-response","266","252002","0.0-1.0-362.0","0","0","44984","","null","","","null","40","","","","","","","","","","","","","","","",""
"","ISI","","html-keyboard-response","267","252160","0.0-1.0-363.0","0","0","44984","","null","","","null","40","NaN","","","","","","","","","","","","","","",""
"","S2","","html-keyboard-response","268","252419","0.0-1.0-364.0","0","0","44984","","null","","","null","40","","NaN","","","","","","","","","","","","","",""
"","response","","html-keyboard-response","269","252534","0.0-1.0-365.0-0.0","0","0","44984","","108","","","68","40","","","1","40","training","adjacent","DE","4","5","N.jpg","M.jpg","1","1","1","",""
"","feedback","","html-keyboard-response","270","253542","0.0-1.0-366.0-0.0","0","0","44984","","null","","","null","40","","","","","","","","","","","","","","","",""
"","ITI","","html-keyboard-response","271","254550","0.0-1.0-369.0","0","0","44984","","null","","","null","40","","","","","","","","","","","","","","","NaN",""
"","S1","","html-keyboard-response","272","254808","0.0-1.0-371.0","0","0","44984","","null","","","null","41","","","","","","","","","","","","","","","",""
"","ISI","","html-keyboard-response","273","254964","0.0-1.0-372.0","0","0","44984","","null","","","null","41","NaN","","","","","","","","","","","","","","",""
"","S2","","html-keyboard-response","274","255223","0.0-1.0-373.0","0","0","44984","","null","","","null","41","","NaN","","","","","","","","","","","","","",""
"","response","","html-keyboard-response","275","255456","0.0-1.0-374.0-0.0","0","0","44984","","225","","","68","41","","","1","41","training","adjacent","DC","4","3","N.jpg","P.jpg","1","0","0","",""
"","feedback","","html-keyboard-response","276","256464","0.0-1.0-375.0-0.0","0","0","44984","","null","","","null","41","","","","","","","","","","","","","","","",""
"","time_out","","html-keyboard-response","277","258472","0.0-1.0-377.0-0.0","0","0","44984","","null","","","null","41","","","","","","","","","","","","","","","",""
"","ITI","","html-keyboard-response","278","259478","0.0-1.0-378.0","0","0","44984","","null","","","null","41","","","","","","","","","","","","","","","NaN",""
"","S1","","html-keyboard-response","279","259735","0.0-1.0-380.0","0","0","44984","","null","","","null","42","","","","","","","","","","","","","","","",""
"","ISI","","html-keyboard-response","280","259892","0.0-1.0-381.0","0","0","44984","","null","","","null","42","NaN","","","","","","","","","","","","","","",""
"","S2","","html-keyboard-response","281","260150","0.0-1.0-382.0","0","0","44984","","null","","","null","42","","NaN","","","","","","","","","","","","","",""
"","response","","html-keyboard-response","282","260210","0.0-1.0-383.0-0.0","0","0","44984","","52","","","68","42","","","1","42","training","adjacent","DE","4","5","N.jpg","M.jpg","1","1","1","",""
"","feedback","","html-keyboard-response","283","261217","0.0-1.0-384.0-0.0","0","0","44984","","null","","","null","42","","","","","","","","","","","","","","","",""
"","ITI","","html-keyboard-response","284","262224","0.0-1.0-387.0","0","0","44984","","null","","","null","42","","","","","","","","","","","","","","","NaN",""
"","S1","","html-keyboard-response","285","262480","0.0-1.0-389.0","0","0","44984","","null","","","null","43","","","","","","","","","","","","","","","",""
"","ISI","","html-keyboard-response","286","262638","0.0-1.0-390.0","0","0","44984","","null","","","null","43","NaN","","","","","","","","","","","","","","",""
"","S2","","html-keyboard-response","287","262897","0.0-1.0-391.0","0","0","44984","","null","","","null","43","","NaN","","","","","","","","","","","","","",""
"","response","","html-keyboard-response","288","263152","0.0-1.0-392.0-0.0","0","0","44984","","247","","","68","43","","","1","43","training","adjacent","BA","2","1","O.jpg","R.jpg","1","0","0","",""
"","feedback","","html-keyboard-response","289","264161","0.0-1.0-393.0-0.0","0","0","44984","","null","","","null","43","","","","","","","","","","","","","","","",""
"","time_out","","html-keyboard-response","290","266167","0.0-1.0-395.0-0.0","0","0","44984","","null","","","null","43","","","","","","","","","","","","","","","",""
"","ITI","","html-keyboard-response","291","267174","0.0-1.0-396.0","0","0","44984","","null","","","null","43","","","","","","","","","","","","","","","NaN",""
"","S1","","html-keyboard-response","292","267431","0.0-1.0-398.0","0","0","44984","","null","","","null","44","","","","","","","","","","","","","","","",""
"","ISI","","html-keyboard-response","293","267588","0.0-1.0-399.0","0","0","44984","","null","","","null","44","NaN","","","","","","","","","","","","","","",""
"","S2","","html-keyboard-response","294","267848","0.0-1.0-400.0","0","0","44984","","null","","","null","44","","NaN","","","","","","","","","","","","","",""
"","response","","html-keyboard-response","295","268028","0.0-1.0-401.0-0.0","0","0","44984","","173","","","75","44","","","1","44","training","adjacent","CD","3","4","P.jpg","N.jpg","0","1","0","",""
"","feedback","","html-keyboard-response","296","269038","0.0-1.0-402.0-0.0","0","0","44984","","null","","","null","44","","","","","","","","","","","","","","","",""
"","time_out","","html-keyboard-response","297","271046","0.0-1.0-404.0-0.0","0","0","44984","","null","","","null","44","","","","","","","","","","","","","","","",""
"","ITI","","html-keyboard-response","298","272054","0.0-1.0-405.0","0","0","44984","","null","","","null","44","","","","","","","","","","","","","","","NaN",""
"","S1","","html-keyboard-response","299","272311","0.0-1.0-407.0","0","0","44984","","null","","","null","45","","","","","","","","","","","","","","","",""
"","ISI","","html-keyboard-response","300","272469","0.0-1.0-408.0","0","0","44984","","null","","","null","45","NaN","","","","","","","","","","","","","","",""
"","S2","","html-keyboard-response","301","272728","0.0-1.0-409.0","0","0","44984","","null","","","null","45","","NaN","","","","","","","","","","","","","",""
"","response","","html-keyboard-response","302","272910","0.0-1.0-410.0-0.0","0","0","44984","","175","","","68","45","","","1","45","training","adjacent","FE","6","5","L.jpg","M.jpg","1","0","0","",""
"","feedback","","html-keyboard-response","303","273920","0.0-1.0-411.0-0.0","0","0","44984","","null","","","null","45","","","","","","","","","","","","","","","",""
"","time_out","","html-keyboard-response","304","275927","0.0-1.0-413.0-0.0","0","0","44984","","null","","","null","45","","","","","","","","","","","","","","","",""
"","ITI","","html-keyboard-response","305","276934","0.0-1.0-414.0","0","0","44984","","null","","","null","45","","","","","","","","","","","","","","","NaN",""
"","S1","","html-keyboard-response","306","277192","0.0-1.0-416.0","0","0","44984","","null","","","null","46","","","","","","","","","","","","","","","",""
"","ISI","","html-keyboard-response","307","277348","0.0-1.0-417.0","0","0","44984","","null","","","null","46","NaN","","","","","","","","","","","","","","",""
"","S2","","html-keyboard-response","308","277625","0.0-1.0-418.0","0","0","44984","","null","","","null","46","","NaN","","","","","","","","","","","","","",""
"","response","","html-keyboard-response","309","277797","0.0-1.0-419.0-0.0","0","0","44984","","165","","","68","46","","","1","46","training","adjacent","GF","7","6","Q.jpg","L.jpg","1","0","0","",""
"","feedback","","html-keyboard-response","310","278806","0.0-1.0-420.0-0.0","0","0","44984","","null","","","null","46","","","","","","","","","","","","","","","",""
"","time_out","","html-keyboard-response","311","280813","0.0-1.0-422.0-0.0","0","0","44984","","null","","","null","46","","","","","","","","","","","","","","","",""
"","ITI","","html-keyboard-response","312","281821","0.0-1.0-423.0","0","0","44984","","null","","","null","46","","","","","","","","","","","","","","","NaN",""
"","S1","","html-keyboard-response","313","282079","0.0-1.0-425.0","0","0","44984","","null","","","null","47","","","","","","","","","","","","","","","",""
"","ISI","","html-keyboard-response","314","282236","0.0-1.0-426.0","0","0","44984","","null","","","null","47","NaN","","","","","","","","","","","","","","",""
"","S2","","html-keyboard-response","315","282495","0.0-1.0-427.0","0","0","44984","","null","","","null","47","","NaN","","","","","","","","","","","","","",""
"","response","","html-keyboard-response","316","282588","0.0-1.0-428.0-0.0","0","0","44984","","84","","","75","47","","","1","47","training","adjacent","FG","6","7","L.jpg","Q.jpg","0","1","0","",""
"","feedback","","html-keyboard-response","317","283597","0.0-1.0-429.0-0.0","0","0","44984","","null","","","null","47","","","","","","","","","","","","","","","",""
"","time_out","","html-keyboard-response","318","285604","0.0-1.0-431.0-0.0","0","0","44984","","null","","","null","47","","","","","","","","","","","","","","","",""
"","ITI","","html-keyboard-response","319","286611","0.0-1.0-432.0","0","0","44984","","null","","","null","47","","","","","","","","","","","","","","","NaN",""
"","block_over","","html-keyboard-response","320","290012","0.0-1.0-433.0-0.0","0","0","44984","","3392","","","32","47","","","","","","","","","","","","","","","",""
"","S1","","html-keyboard-response","321","290271","0.0-1.0-434.0","0","0","44984","","null","","","null","48","","","","","","","","","","","","","","","",""
"","ISI","","html-keyboard-response","322","290427","0.0-1.0-435.0","0","0","44984","","null","","","null","48","NaN","","","","","","","","","","","","","","",""
"","S2","","html-keyboard-response","323","290687","0.0-1.0-436.0","0","0","44984","","null","","","null","48","","NaN","","","","","","","","","","","","","",""
"","response","","html-keyboard-response","324","291129","0.0-1.0-437.0-0.0","0","0","44984","","435","","","68","48","","","2","48","training","adjacent","BC","2","3","O.jpg","P.jpg","1","1","1","",""
"","feedback","","html-keyboard-response","325","292138","0.0-1.0-438.0-0.0","0","0","44984","","null","","","null","48","","","","","","","","","","","","","","","",""
"","ITI","","html-keyboard-response","326","293145","0.0-1.0-441.0","0","0","44984","","null","","","null","48","","","","","","","","","","","","","","","NaN",""
"","S1","","html-keyboard-response","327","293403","0.0-1.0-443.0","0","0","44984","","null","","","null","49","","","","","","","","","","","","","","","",""
"","ISI","","html-keyboard-response","328","293561","0.0-1.0-444.0","0","0","44984","","null","","","null","49","NaN","","","","","","","","","","","","","","",""
"","S2","","html-keyboard-response","329","293821","0.0-1.0-445.0","0","0","44984","","null","","","null","49","","NaN","","","","","","","","","","","","","",""
"","response","","html-keyboard-response","330","294044","0.0-1.0-446.0-0.0","0","0","44984","","217","","","68","49","","","2","49","training","adjacent","FG","6","7","L.jpg","Q.jpg","1","1","1","",""
"","feedback","","html-keyboard-response","331","295053","0.0-1.0-447.0-0.0","0","0","44984","","null","","","null","49","","","","","","","","","","","","","","","",""
"","ITI","","html-keyboard-response","332","296061","0.0-1.0-450.0","0","0","44984","","null","","","null","49","","","","","","","","","","","","","","","NaN",""
"","S1","","html-keyboard-response","333","296318","0.0-1.0-452.0","0","0","44984","","null","","","null","50","","","","","","","","","","","","","","","",""
"","ISI","","html-keyboard-response","334","296474","0.0-1.0-453.0","0","0","44984","","null","","","null","50","NaN","","","","","","","","","","","","","","",""
"","S2","","html-keyboard-response","335","296733","0.0-1.0-454.0","0","0","44984","","null","","","null","50","","NaN","","","","","","","","","","","","","",""
"","response","","html-keyboard-response","336","296950","0.0-1.0-455.0-0.0","0","0","44984","","210","","","68","50","","","2","50","training","adjacent","FE","6","5","L.jpg","M.jpg","1","0","0","",""
"","feedback","","html-keyboard-response","337","297960","0.0-1.0-456.0-0.0","0","0","44984","","null","","","null","50","","","","","","","","","","","","","","","",""
"","time_out","","html-keyboard-response","338","299967","0.0-1.0-458.0-0.0","0","0","44984","","null","","","null","50","","","","","","","","","","","","","","","",""
"","ITI","","html-keyboard-response","339","300974","0.0-1.0-459.0","0","0","44984","","null","","","null","50","","","","","","","","","","","","","","","NaN",""
"","S1","","html-keyboard-response","340","301231","0.0-1.0-461.0","0","0","44984","","null","","","null","51","","","","","","","","","","","","","","","",""
"","ISI","","html-keyboard-response","341","301388","0.0-1.0-462.0","0","0","44984","","null","","","null","51","NaN","","","","","","","","","","","","","","",""
"","S2","","html-keyboard-response","342","301648","0.0-1.0-463.0","0","0","44984","","null","","","null","51","","NaN","","","","","","","","","","","","","",""
"","response","","html-keyboard-response","343","301819","0.0-1.0-464.0-0.0","0","0","44984","","165","","","75","51","","","2","51","training","adjacent","BA","2","1","O.jpg","R.jpg","0","0","1","",""
"","feedback","","html-keyboard-response","344","302826","0.0-1.0-465.0-0.0","0","0","44984","","null","","","null","51","","","","","","","","","","","","","","","",""
"","ITI","","html-keyboard-response","345","303833","0.0-1.0-468.0","0","0","44984","","null","","","null","51","","","","","","","","","","","","","","","NaN",""
"","S1","","html-keyboard-response","346","304091","0.0-1.0-470.0","0","0","44984","","null","","","null","52","","","","","","","","","","","","","","","",""
"","ISI","","html-keyboard-response","347","304247","0.0-1.0-471.0","0","0","44984","","null","","","null","52","NaN","","","","","","","","","","","","","","",""
"","S2","","html-keyboard-response","348","304507","0.0-1.0-472.0","0","0","44984","","null","","","null","52","","NaN","","","","","","","","","","","","","",""
"","response","","html-keyboard-response","349","304668","0.0-1.0-473.0-0.0","0","0","44984","","153","","","75","52","","","2","52","training","adjacent","DC","4","3","N.jpg","P.jpg","0","0","1","",""
"","feedback","","html-keyboard-response","350","305677","0.0-1.0-474.0-0.0","0","0","44984","","null","","","null","52","","","","","","","","","","","","","","","",""
"","ITI","","html-keyboard-response","351","306686","0.0-1.0-477.0","0","0","44984","","null","","","null","52","","","","","","","","","","","","","","","NaN",""
"","S1","","html-keyboard-response","352","306944","0.0-1.0-479.0","0","0","44984","","null","","","null","53","","","","","","","","","","","","","","","",""
"","ISI","","html-keyboard-response","353","307100","0.0-1.0-480.0","0","0","44984","","null","","","null","53","NaN","","","","","","","","","","","","","","",""
"","S2","","html-keyboard-response","354","307360","0.0-1.0-481.0","0","0","44984","","null","","","null","53","","NaN","","","","","","","","","","","","","",""
"","response","","html-keyboard-response","355","307542","0.0-1.0-482.0-0.0","0","0","44984","","175","","","75","53","","","2","53","training","adjacent","GF","7","6","Q.jpg","L.jpg","0","0","1","",""
"","feedback","","html-keyboard-response","356","308549","0.0-1.0-483.0-0.0","0","0","44984","","null","","","null","53","","","","","","","","","","","","","","","",""
"","ITI","","html-keyboard-response","357","309558","0.0-1.0-486.0","0","0","44984","","null","","","null","53","","","","","","","","","","","","","","","NaN",""
"","S1","","html-keyboard-response","358","309816","0.0-1.0-488.0","0","0","44984","","null","","","null","54","","","","","","","","","","","","","","","",""
"","ISI","","html-keyboard-response","359","309973","0.0-1.0-489.0","0","0","44984","","null","","","null","54","NaN","","","","","","","","","","","","","","",""
"","S2","","html-keyboard-response","360","310232","0.0-1.0-490.0","0","0","44984","","null","","","null","54","","NaN","","","","","","","","","","","","","",""
"","response","","html-keyboard-response","361","310364","0.0-1.0-491.0-0.0","0","0","44984","","124","","","75","54","","","2","54","training","adjacent","GF","7","6","Q.jpg","L.jpg","0","0","1","",""
"","feedback","","html-keyboard-response","362","311374","0.0-1.0-492.0-0.0","0","0","44984","","null","","","null","54","","","","","","","","","","","","","","","",""
"","ITI","","html-keyboard-response","363","312381","0.0-1.0-495.0","0","0","44984","","null","","","null","54","","","","","","","","","","","","","","","NaN",""
"","S1","","html-keyboard-response","364","312639","0.0-1.0-497.0","0","0","44984","","null","","","null","55","","","","","","","","","","","","","","","",""
"","ISI","","html-keyboard-response","365","312796","0.0-1.0-498.0","0","0","44984","","null","","","null","55","NaN","","","","","","","","","","","","","","",""
"","S2","","html-keyboard-response","366","313056","0.0-1.0-499.0","0","0","44984","","null","","","null","55","","NaN","","","","","","","","","","","","","",""
"","response","","html-keyboard-response","367","313286","0.0-1.0-500.0-0.0","0","0","44984","","221","","","75","55","","","2","55","training","adjacent","BC","2","3","O.jpg","P.jpg","0","1","0","",""
"","feedback","","html-keyboard-response","368","314294","0.0-1.0-501.0-0.0","0","0","44984","","null","","","null","55","","","","","","","","","","","","","","","",""
"","time_out","","html-keyboard-response","369","316302","0.0-1.0-503.0-0.0","0","0","44984","","null","","","null","55","","","","","","","","","","","","","","","",""
"","ITI","","html-keyboard-response","370","317309","0.0-1.0-504.0","0","0","44984","","null","","","null","55","","","","","","","","","","","","","","","NaN",""
"","S1","","html-keyboard-response","371","317566","0.0-1.0-506.0","0","0","44984","","null","","","null","56","","","","","","","","","","","","","","","",""
"","ISI","","html-keyboard-response","372","317723","0.0-1.0-507.0","0","0","44984","","null","","","null","56","NaN","","","","","","","","","","","","","","",""
"","S2","","html-keyboard-response","373","317982","0.0-1.0-508.0","0","0","44984","","null","","","null","56","","NaN","","","","","","","","","","","","","",""
"","response","","html-keyboard-response","374","318095","0.0-1.0-509.0-0.0","0","0","44984","","106","","","68","56","","","2","56","training","adjacent","DC","4","3","N.jpg","P.jpg","1","0","0","",""
"","feedback","","html-keyboard-response","375","319103","0.0-1.0-510.0-0.0","0","0","44984","","null","","","null","56","","","","","","","","","","","","","","","",""
"","time_out","","html-keyboard-response","376","321111","0.0-1.0-512.0-0.0","0","0","44984","","null","","","null","56","","","","","","","","","","","","","","","",""
"","ITI","","html-keyboard-response","377","322119","0.0-1.0-513.0","0","0","44984","","null","","","null","56","","","","","","","","","","","","","","","NaN",""
"","S1","","html-keyboard-response","378","322376","0.0-1.0-515.0","0","0","44984","","null","","","null","57","","","","","","","","","","","","","","","",""
"","ISI","","html-keyboard-response","379","322532","0.0-1.0-516.0","0","0","44984","","null","","","null","57","NaN","","","","","","","","","","","","","","",""
"","S2","","html-keyboard-response","380","322791","0.0-1.0-517.0","0","0","44984","","null","","","null","57","","NaN","","","","","","","","","","","","","",""
"","response","","html-keyboard-response","381","322887","0.0-1.0-518.0-0.0","0","0","44984","","88","","","75","57","","","2","57","training","adjacent","FE","6","5","L.jpg","M.jpg","0","0","1","",""
"","feedback","","html-keyboard-response","382","323895","0.0-1.0-519.0-0.0","0","0","44984","","null","","","null","57","","","","","","","","","","","","","","","",""
"","ITI","","html-keyboard-response","383","324903","0.0-1.0-522.0","0","0","44984","","null","","","null","57","","","","","","","","","","","","","","","NaN",""
"","S1","","html-keyboard-response","384","325160","0.0-1.0-524.0","0","0","44984","","null","","","null","58","","","","","","","","","","","","","","","",""
"","ISI","","html-keyboard-response","385","325318","0.0-1.0-525.0","0","0","44984","","null","","","null","58","NaN","","","","","","","","","","","","","","",""
"","S2","","html-keyboard-response","386","325577","0.0-1.0-526.0","0","0","44984","","null","","","null","58","","NaN","","","","","","","","","","","","","",""
"","response","","html-keyboard-response","387","325697","0.0-1.0-527.0-0.0","0","0","44984","","114","","","75","58","","","2","58","training","adjacent","ED","5","4","M.jpg","N.jpg","0","0","1","",""
"","feedback","","html-keyboard-response","388","326706","0.0-1.0-528.0-0.0","0","0","44984","","null","","","null","58","","","","","","","","","","","","","","","",""
"","ITI","","html-keyboard-response","389","327715","0.0-1.0-531.0","0","0","44984","","null","","","null","58","","","","","","","","","","","","","","","NaN",""
"","S1","","html-keyboard-response","390","327973","0.0-1.0-533.0","0","0","44984","","null","","","null","59","","","","","","","","","","","","","","","",""
"","ISI","","html-keyboard-response","391","328130","0.0-1.0-534.0","0","0","44984","","null","","","null","59","NaN","","","","","","","","","","","","","","",""
"","S2","","html-keyboard-response","392","328391","0.0-1.0-535.0","0","0","44984","","null","","","null","59","","NaN","","","","","","","","","","","","","",""
"","response","","html-keyboard-response","393","328477","0.0-1.0-536.0-0.0","0","0","44984","","79","","","75","59","","","2","59","training","adjacent","GF","7","6","Q.jpg","L.jpg","0","0","1","",""
"","feedback","","html-keyboard-response","394","329486","0.0-1.0-537.0-0.0","0","0","44984","","null","","","null","59","","","","","","","","","","","","","","","",""
"","ITI","","html-keyboard-response","395","330494","0.0-1.0-540.0","0","0","44984","","null","","","null","59","","","","","","","","","","","","","","","NaN",""
"","S1","","html-keyboard-response","396","330752","0.0-1.0-542.0","0","0","44984","","null","","","null","60","","","","","","","","","","","","","","","",""
"","ISI","","html-keyboard-response","397","330908","0.0-1.0-543.0","0","0","44984","","null","","","null","60","NaN","","","","","","","","","","","","","","",""
"","S2","","html-keyboard-response","398","331167","0.0-1.0-544.0","0","0","44984","","null","","","null","60","","NaN","","","","","","","","","","","","","",""
"","response","","html-keyboard-response","399","331231","0.0-1.0-545.0-0.0","0","0","44984","","57","","","75","60","","","2","60","training","adjacent","CB","3","2","P.jpg","O.jpg","0","0","1","",""
"","feedback","","html-keyboard-response","400","332240","0.0-1.0-546.0-0.0","0","0","44984","","null","","","null","60","","","","","","","","","","","","","","","",""
"","ITI","","html-keyboard-response","401","333247","0.0-1.0-549.0","0","0","44984","","null","","","null","60","","","","","","","","","","","","","","","NaN",""
"","S1","","html-keyboard-response","402","333506","0.0-1.0-551.0","0","0","44984","","null","","","null","61","","","","","","","","","","","","","","","",""
"","ISI","","html-keyboard-response","403","333662","0.0-1.0-552.0","0","0","44984","","null","","","null","61","NaN","","","","","","","","","","","","","","",""
"","S2","","html-keyboard-response","404","333923","0.0-1.0-553.0","0","0","44984","","null","","","null","61","","NaN","","","","","","","","","","","","","",""
"","response","","html-keyboard-response","405","334093","0.0-1.0-554.0-0.0","0","0","44984","","162","","","75","61","","","2","61","training","adjacent","AB","1","2","R.jpg","O.jpg","0","1","0","",""
"","feedback","","html-keyboard-response","406","335102","0.0-1.0-555.0-0.0","0","0","44984","","null","","","null","61","","","","","","","","","","","","","","","",""
"","time_out","","html-keyboard-response","407","337109","0.0-1.0-557.0-0.0","0","0","44984","","null","","","null","61","","","","","","","","","","","","","","","",""
"","ITI","","html-keyboard-response","408","338117","0.0-1.0-558.0","0","0","44984","","null","","","null","61","","","","","","","","","","","","","","","NaN",""
"","S1","","html-keyboard-response","409","338373","0.0-1.0-560.0","0","0","44984","","null","","","null","62","","","","","","","","","","","","","","","",""
"","ISI","","html-keyboard-response","410","338530","0.0-1.0-561.0","0","0","44984","","null","","","null","62","NaN","","","","","","","","","","","","","","",""
"","S2","","html-keyboard-response","411","338790","0.0-1.0-562.0","0","0","44984","","null","","","null","62","","NaN","","","","","","","","","","","","","",""
"","response","","html-keyboard-response","412","339013","0.0-1.0-563.0-0.0","0","0","44984","","217","","","68","62","","","2","62","training","adjacent","DC","4","3","N.jpg","P.jpg","1","0","0","",""
"","feedback","","html-keyboard-response","413","340022","0.0-1.0-564.0-0.0","0","0","44984","","null","","","null","62","","","","","","","","","","","","","","","",""
"","time_out","","html-keyboard-response","414","342030","0.0-1.0-566.0-0.0","0","0","44984","","null","","","null","62","","","","","","","","","","","","","","","",""
"","ITI","","html-keyboard-response","415","343037","0.0-1.0-567.0","0","0","44984","","null","","","null","62","","","","","","","","","","","","","","","NaN",""
"","S1","","html-keyboard-response","416","343294","0.0-1.0-569.0","0","0","44984","","null","","","null","63","","","","","","","","","","","","","","","",""
"","ISI","","html-keyboard-response","417","343451","0.0-1.0-570.0","0","0","44984","","null","","","null","63","NaN","","","","","","","","","","","","","","",""
"","S2","","html-keyboard-response","418","343712","0.0-1.0-571.0","0","0","44984","","null","","","null","63","","NaN","","","","","","","","","","","","","",""
"","response","","html-keyboard-response","419","343900","0.0-1.0-572.0-0.0","0","0","44984","","180","","","68","63","","","2","63","training","adjacent","CD","3","4","P.jpg","N.jpg","1","1","1","",""
"","feedback","","html-keyboard-response","420","344910","0.0-1.0-573.0-0.0","0","0","44984","","null","","","null","63","","","","","","","","","","","","","","","",""
"","ITI","","html-keyboard-response","421","345920","0.0-1.0-576.0","0","0","44984","","null","","","null","63","","","","","","","","","","","","","","","NaN",""
"","S1","","html-keyboard-response","422","346177","0.0-1.0-578.0","0","0","44984","","null","","","null","64","","","","","","","","","","","","","","","",""
"","ISI","","html-keyboard-response","423","346334","0.0-1.0-579.0","0","0","44984","","null","","","null","64","NaN","","","","","","","","","","","","","","",""
"","S2","","html-keyboard-response","424","346593","0.0-1.0-580.0","0","0","44984","","null","","","null","64","","NaN","","","","","","","","","","","","","",""
"","response","","html-keyboard-response","425","346780","0.0-1.0-581.0-0.0","0","0","44984","","180","","","68","64","","","2","64","training","adjacent","BC","2","3","O.jpg","P.jpg","1","1","1","",""
"","feedback","","html-keyboard-response","426","347789","0.0-1.0-582.0-0.0","0","0","44984","","null","","","null","64","","","","","","","","","","","","","","","",""
"","ITI","","html-keyboard-response","427","348797","0.0-1.0-585.0","0","0","44984","","null","","","null","64","","","","","","","","","","","","","","","NaN",""
"","S1","","html-keyboard-response","428","349055","0.0-1.0-587.0","0","0","44984","","null","","","null","65","","","","","","","","","","","","","","","",""
"","ISI","","html-keyboard-response","429","349212","0.0-1.0-588.0","0","0","44984","","null","","","null","65","NaN","","","","","","","","","","","","","","",""
"","S2","","html-keyboard-response","430","349471","0.0-1.0-589.0","0","0","44984","","null","","","null","65","","NaN","","","","","","","","","","","","","",""
"","response","","html-keyboard-response","431","349580","0.0-1.0-590.0-0.0","0","0","44984","","102","","","68","65","","","2","65","training","adjacent","DC","4","3","N.jpg","P.jpg","1","0","0","",""
"","feedback","","html-keyboard-response","432","350589","0.0-1.0-591.0-0.0","0","0","44984","","null","","","null","65","","","","","","","","","","","","","","","",""
"","time_out","","html-keyboard-response","433","352597","0.0-1.0-593.0-0.0","0","0","44984","","null","","","null","65","","","","","","","","","","","","","","","",""
"","ITI","","html-keyboard-response","434","353605","0.0-1.0-594.0","0","0","44984","","null","","","null","65","","","","","","","","","","","","","","","NaN",""
"","S1","","html-keyboard-response","435","353862","0.0-1.0-596.0","0","0","44984","","null","","","null","66","","","","","","","","","","","","","","","",""
"","ISI","","html-keyboard-response","436","354020","0.0-1.0-597.0","0","0","44984","","null","","","null","66","NaN","","","","","","","","","","","","","","",""
"","S2","","html-keyboard-response","437","354279","0.0-1.0-598.0","0","0","44984","","null","","","null","66","","NaN","","","","","","","","","","","","","",""
"","response","","html-keyboard-response","438","354361","0.0-1.0-599.0-0.0","0","0","44984","","74","","","75","66","","","2","66","training","adjacent","FE","6","5","L.jpg","M.jpg","0","0","1","",""
"","feedback","","html-keyboard-response","439","355370","0.0-1.0-600.0-0.0","0","0","44984","","null","","","null","66","","","","","","","","","","","","","","","",""
"","ITI","","html-keyboard-response","440","356377","0.0-1.0-603.0","0","0","44984","","null","","","null","66","","","","","","","","","","","","","","","NaN",""
"","S1","","html-keyboard-response","441","356635","0.0-1.0-605.0","0","0","44984","","null","","","null","67","","","","","","","","","","","","","","","",""
"","ISI","","html-keyboard-response","442","356792","0.0-1.0-606.0","0","0","44984","","null","","","null","67","NaN","","","","","","","","","","","","","","",""
"","S2","","html-keyboard-response","443","357051","0.0-1.0-607.0","0","0","44984","","null","","","null","67","","NaN","","","","","","","","","","","","","",""
"","response","","html-keyboard-response","444","357222","0.0-1.0-608.0-0.0","0","0","44984","","163","","","75","67","","","2","67","training","adjacent","BA","2","1","O.jpg","R.jpg","0","0","1","",""
"","feedback","","html-keyboard-response","445","358231","0.0-1.0-609.0-0.0","0","0","44984","","null","","","null","67","","","","","","","","","","","","","","","",""
"","ITI","","html-keyboard-response","446","359240","0.0-1.0-612.0","0","0","44984","","null","","","null","67","","","","","","","","","","","","","","","NaN",""
"","S1","","html-keyboard-response","447","359497","0.0-1.0-614.0","0","0","44984","","null","","","null","68","","","","","","","","","","","","","","","",""
"","ISI","","html-keyboard-response","448","359654","0.0-1.0-615.0","0","0","44984","","null","","","null","68","NaN","","","","","","","","","","","","","","",""
"","S2","","html-keyboard-response","449","359912","0.0-1.0-616.0","0","0","44984","","null","","","null","68","","NaN","","","","","","","","","","","","","",""
"","response","","html-keyboard-response","450","360083","0.0-1.0-617.0-0.0","0","0","44984","","161","","","68","68","","","2","68","training","adjacent","EF","5","6","M.jpg","L.jpg","1","1","1","",""
"","feedback","","html-keyboard-response","451","361091","0.0-1.0-618.0-0.0","0","0","44984","","null","","","null","68","","","","","","","","","","","","","","","",""
"","ITI","","html-keyboard-response","452","362101","0.0-1.0-621.0","0","0","44984","","null","","","null","68","","","","","","","","","","","","","","","NaN",""
"","S1","","html-keyboard-response","453","362358","0.0-1.0-623.0","0","0","44984","","null","","","null","69","","","","","","","","","","","","","","","",""
"","ISI","","html-keyboard-response","454","362516","0.0-1.0-624.0","0","0","44984","","null","","","null","69","NaN","","","","","","","","","","","","","","",""
"","S2","","html-keyboard-response","455","362775","0.0-1.0-625.0","0","0","44984","","null","","","null","69","","NaN","","","","","","","","","","","","","",""
"","response","","html-keyboard-response","456","362952","0.0-1.0-626.0-0.0","0","0","44984","","169","","","68","69","","","2","69","training","adjacent","BA","2","1","O.jpg","R.jpg","1","0","0","",""
"","feedback","","html-keyboard-response","457","363961","0.0-1.0-627.0-0.0","0","0","44984","","null","","","null","69","","","","","","","","","","","","","","","",""
"","time_out","","html-keyboard-response","458","365969","0.0-1.0-629.0-0.0","0","0","44984","","null","","","null","69","","","","","","","","","","","","","","","",""
"","ITI","","html-keyboard-response","459","366975","0.0-1.0-630.0","0","0","44984","","null","","","null","69","","","","","","","","","","","","","","","NaN",""
"","S1","","html-keyboard-response","460","367232","0.0-1.0-632.0","0","0","44984","","null","","","null","70","","","","","","","","","","","","","","","",""
"","ISI","","html-keyboard-response","461","367390","0.0-1.0-633.0","0","0","44984","","null","","","null","70","NaN","","","","","","","","","","","","","","",""
"","S2","","html-keyboard-response","462","367651","0.0-1.0-634.0","0","0","44984","","null","","","null","70","","NaN","","","","","","","","","","","","","",""
"","response","","html-keyboard-response","463","367807","0.0-1.0-635.0-0.0","0","0","44984","","150","","","75","70","","","2","70","training","adjacent","EF","5","6","M.jpg","L.jpg","0","1","0","",""
"","feedback","","html-keyboard-response","464","368817","0.0-1.0-636.0-0.0","0","0","44984","","null","","","null","70","","","","","","","","","","","","","","","",""
"","time_out","","html-keyboard-response","465","370824","0.0-1.0-638.0-0.0","0","0","44984","","null","","","null","70","","","","","","","","","","","","","","","",""
"","ITI","","html-keyboard-response","466","371831","0.0-1.0-639.0","0","0","44984","","null","","","null","70","","","","","","","","","","","","","","","NaN",""
"","S1","","html-keyboard-response","467","372089","0.0-1.0-641.0","0","0","44984","","null","","","null","71","","","","","","","","","","","","","","","",""
"","ISI","","html-keyboard-response","468","372245","0.0-1.0-642.0","0","0","44984","","null","","","null","71","NaN","","","","","","","","","","","","","","",""
"","S2","","html-keyboard-response","469","372505","0.0-1.0-643.0","0","0","44984","","null","","","null","71","","NaN","","","","","","","","","","","","","",""
"","response","","html-keyboard-response","470","372589","0.0-1.0-644.0-0.0","0","0","44984","","77","","","68","71","","","2","71","training","adjacent","CD","3","4","P.jpg","N.jpg","1","1","1","",""
"","feedback","","html-keyboard-response","471","373599","0.0-1.0-645.0-0.0","0","0","44984","","null","","","null","71","","","","","","","","","","","","","","","",""
"","ITI","","html-keyboard-response","472","374606","0.0-1.0-648.0","0","0","44984","","null","","","null","71","","","","","","","","","","","","","","","NaN",""
"","S1","","html-keyboard-response","473","374863","0.0-1.0-650.0","0","0","44984","","null","","","null","72","","","","","","","","","","","","","","","",""
"","ISI","","html-keyboard-response","474","375021","0.0-1.0-651.0","0","0","44984","","null","","","null","72","NaN","","","","","","","","","","","","","","",""
"","S2","","html-keyboard-response","475","375279","0.0-1.0-652.0","0","0","44984","","null","","","null","72","","NaN","","","","","","","","","","","","","",""
"","response","","html-keyboard-response","476","375459","0.0-1.0-653.0-0.0","0","0","44984","","171","","","68","72","","","2","72","training","adjacent","BC","2","3","O.jpg","P.jpg","1","1","1","",""
"","feedback","","html-keyboard-response","477","376468","0.0-1.0-654.0-0.0","0","0","44984","","null","","","null","72","","","","","","","","","","","","","","","",""
"","ITI","","html-keyboard-response","478","377476","0.0-1.0-657.0","0","0","44984","","null","","","null","72","","","","","","","","","","","","","","","NaN",""
"","S1","","html-keyboard-response","479","377734","0.0-1.0-659.0","0","0","44984","","null","","","null","73","","","","","","","","","","","","","","","",""
"","ISI","","html-keyboard-response","480","377891","0.0-1.0-660.0","0","0","44984","","null","","","null","73","NaN","","","","","","","","","","","","","","",""
"","S2","","html-keyboard-response","481","378150","0.0-1.0-661.0","0","0","44984","","null","","","null","73","","NaN","","","","","","","","","","","","","",""
"","response","","html-keyboard-response","482","378265","0.0-1.0-662.0-0.0","0","0","44984","","107","","","68","73","","","2","73","training","adjacent","FG","6","7","L.jpg","Q.jpg","1","1","1","",""
"","feedback","","html-keyboard-response","483","379274","0.0-1.0-663.0-0.0","0","0","44984","","null","","","null","73","","","","","","","","","","","","","","","",""
"","ITI","","html-keyboard-response","484","380283","0.0-1.0-666.0","0","0","44984","","null","","","null","73","","","","","","","","","","","","","","","NaN",""
"","S1","","html-keyboard-response","485","380538","0.0-1.0-668.0","0","0","44984","","null","","","null","74","","","","","","","","","","","","","","","",""
"","ISI","","html-keyboard-response","486","380693","0.0-1.0-669.0","0","0","44984","","null","","","null","74","NaN","","","","","","","","","","","","","","",""
"","S2","","html-keyboard-response","487","380951","0.0-1.0-670.0","0","0","44984","","null","","","null","74","","NaN","","","","","","","","","","","","","",""
"","response","","html-keyboard-response","488","381079","0.0-1.0-671.0-0.0","0","0","44984","","119","","","68","74","","","2","74","training","adjacent","DE","4","5","N.jpg","M.jpg","1","1","1","",""
"","feedback","","html-keyboard-response","489","382088","0.0-1.0-672.0-0.0","0","0","44984","","null","","","null","74","","","","","","","","","","","","","","","",""
"","ITI","","html-keyboard-response","490","383096","0.0-1.0-675.0","0","0","44984","","null","","","null","74","","","","","","","","","","","","","","","NaN",""
"","S1","","html-keyboard-response","491","383353","0.0-1.0-677.0","0","0","44984","","null","","","null","75","","","","","","","","","","","","","","","",""
"","ISI","","html-keyboard-response","492","383511","0.0-1.0-678.0","0","0","44984","","null","","","null","75","NaN","","","","","","","","","","","","","","",""
"","S2","","html-keyboard-response","493","383772","0.0-1.0-679.0","0","0","44984","","null","","","null","75","","NaN","","","","","","","","","","","","","",""
"","response","","html-keyboard-response","494","383900","0.0-1.0-680.0-0.0","0","0","44984","","121","","","68","75","","","2","75","training","adjacent","FE","6","5","L.jpg","M.jpg","1","0","0","",""
"","feedback","","html-keyboard-response","495","384909","0.0-1.0-681.0-0.0","0","0","44984","","null","","","null","75","","","","","","","","","","","","","","","",""
"","time_out","","html-keyboard-response","496","386918","0.0-1.0-683.0-0.0","0","0","44984","","null","","","null","75","","","","","","","","","","","","","","","",""
"","ITI","","html-keyboard-response","497","387927","0.0-1.0-684.0","0","0","44984","","null","","","null","75","","","","","","","","","","","","","","","NaN",""
"","S1","","html-keyboard-response","498","388185","0.0-1.0-686.0","0","0","44984","","null","","","null","76","","","","","","","","","","","","","","","",""
"","ISI","","html-keyboard-response","499","388342","0.0-1.0-687.0","0","0","44984","","null","","","null","76","NaN","","","","","","","","","","","","","","",""
"","S2","","html-keyboard-response","500","388601","0.0-1.0-688.0","0","0","44984","","null","","","null","76","","NaN","","","","","","","","","","","","","",""
"","response","","html-keyboard-response","501","388767","0.0-1.0-689.0-0.0","0","0","44984","","157","","","75","76","","","2","76","training","adjacent","CB","3","2","P.jpg","O.jpg","0","0","1","",""
"","feedback","","html-keyboard-response","502","389776","0.0-1.0-690.0-0.0","0","0","44984","","null","","","null","76","","","","","","","","","","","","","","","",""
"","ITI","","html-keyboard-response","503","390784","0.0-1.0-693.0","0","0","44984","","null","","","null","76","","","","","","","","","","","","","","","NaN",""
"","S1","","html-keyboard-response","504","391042","0.0-1.0-695.0","0","0","44984","","null","","","null","77","","","","","","","","","","","","","","","",""
"","ISI","","html-keyboard-response","505","391199","0.0-1.0-696.0","0","0","44984","","null","","","null","77","NaN","","","","","","","","","","","","","","",""
"","S2","","html-keyboard-response","506","391459","0.0-1.0-697.0","0","0","44984","","null","","","null","77","","NaN","","","","","","","","","","","","","",""
"","response","","html-keyboard-response","507","391596","0.0-1.0-698.0-0.0","0","0","44984","","130","","","75","77","","","2","77","training","adjacent","CB","3","2","P.jpg","O.jpg","0","0","1","",""
"","feedback","","html-keyboard-response","508","392605","0.0-1.0-699.0-0.0","0","0","44984","","null","","","null","77","","","","","","","","","","","","","","","",""
"","ITI","","html-keyboard-response","509","393613","0.0-1.0-702.0","0","0","44984","","null","","","null","77","","","","","","","","","","","","","","","NaN",""
"","S1","","html-keyboard-response","510","393871","0.0-1.0-704.0","0","0","44984","","null","","","null","78","","","","","","","","","","","","","","","",""
"","ISI","","html-keyboard-response","511","394029","0.0-1.0-705.0","0","0","44984","","null","","","null","78","NaN","","","","","","","","","","","","","","",""
"","S2","","html-keyboard-response","512","394289","0.0-1.0-706.0","0","0","44984","","null","","","null","78","","NaN","","","","","","","","","","","","","",""
"","response","","html-keyboard-response","513","394507","0.0-1.0-707.0-0.0","0","0","44984","","212","","","75","78","","","2","78","training","adjacent","DE","4","5","N.jpg","M.jpg","0","1","0","",""
"","feedback","","html-keyboard-response","514","395517","0.0-1.0-708.0-0.0","0","0","44984","","null","","","null","78","","","","","","","","","","","","","","","",""
"","time_out","","html-keyboard-response","515","397524","0.0-1.0-710.0-0.0","0","0","44984","","null","","","null","78","","","","","","","","","","","","","","","",""
"","ITI","","html-keyboard-response","516","398532","0.0-1.0-711.0","0","0","44984","","null","","","null","78","","","","","","","","","","","","","","","NaN",""
"","S1","","html-keyboard-response","517","398790","0.0-1.0-713.0","0","0","44984","","null","","","null","79","","","","","","","","","","","","","","","",""
"","ISI","","html-keyboard-response","518","398946","0.0-1.0-714.0","0","0","44984","","null","","","null","79","NaN","","","","","","","","","","","","","","",""
"","S2","","html-keyboard-response","519","399205","0.0-1.0-715.0","0","0","44984","","null","","","null","79","","NaN","","","","","","","","","","","","","",""
"","response","","html-keyboard-response","520","399298","0.0-1.0-716.0-0.0","0","0","44984","","85","","","68","79","","","2","79","training","adjacent","DE","4","5","N.jpg","M.jpg","1","1","1","",""
"","feedback","","html-keyboard-response","521","400307","0.0-1.0-717.0-0.0","0","0","44984","","null","","","null","79","","","","","","","","","","","","","","","",""
"","ITI","","html-keyboard-response","522","401316","0.0-1.0-720.0","0","0","44984","","null","","","null","79","","","","","","","","","","","","","","","NaN",""
"","S1","","html-keyboard-response","523","401573","0.0-1.0-722.0","0","0","44984","","null","","","null","80","","","","","","","","","","","","","","","",""
"","ISI","","html-keyboard-response","524","401730","0.0-1.0-723.0","0","0","44984","","null","","","null","80","NaN","","","","","","","","","","","","","","",""
"","S2","","html-keyboard-response","525","401987","0.0-1.0-724.0","0","0","44984","","null","","","null","80","","NaN","","","","","","","","","","","","","",""
"","response","","html-keyboard-response","526","402138","0.0-1.0-725.0-0.0","0","0","44984","","143","","","68","80","","","2","80","training","adjacent","CB","3","2","P.jpg","O.jpg","1","0","0","",""
"","feedback","","html-keyboard-response","527","403146","0.0-1.0-726.0-0.0","0","0","44984","","null","","","null","80","","","","","","","","","","","","","","","",""
"","time_out","","html-keyboard-response","528","405154","0.0-1.0-728.0-0.0","0","0","44984","","null","","","null","80","","","","","","","","","","","","","","","",""
"","ITI","","html-keyboard-response","529","406162","0.0-1.0-729.0","0","0","44984","","null","","","null","80","","","","","","","","","","","","","","","NaN",""
"","S1","","html-keyboard-response","530","406420","0.0-1.0-731.0","0","0","44984","","null","","","null","81","","","","","","","","","","","","","","","",""
"","ISI","","html-keyboard-response","531","406576","0.0-1.0-732.0","0","0","44984","","null","","","null","81","NaN","","","","","","","","","","","","","","",""
"","S2","","html-keyboard-response","532","406836","0.0-1.0-733.0","0","0","44984","","null","","","null","81","","NaN","","","","","","","","","","","","","",""
"","response","","html-keyboard-response","533","407009","0.0-1.0-734.0-0.0","0","0","44984","","166","","","68","81","","","2","81","training","adjacent","FG","6","7","L.jpg","Q.jpg","1","1","1","",""
"","feedback","","html-keyboard-response","534","408032","0.0-1.0-735.0-0.0","0","0","44984","","null","","","null","81","","","","","","","","","","","","","","","",""
"","ITI","","html-keyboard-response","535","409039","0.0-1.0-738.0","0","0","44984","","null","","","null","81","","","","","","","","","","","","","","","NaN",""
"","S1","","html-keyboard-response","536","409296","0.0-1.0-740.0","0","0","44984","","null","","","null","82","","","","","","","","","","","","","","","",""
"","ISI","","html-keyboard-response","537","409453","0.0-1.0-741.0","0","0","44984","","null","","","null","82","NaN","","","","","","","","","","","","","","",""
"","S2","","html-keyboard-response","538","409713","0.0-1.0-742.0","0","0","44984","","null","","","null","82","","NaN","","","","","","","","","","","","","",""
"","response","","html-keyboard-response","539","410156","0.0-1.0-743.0-0.0","0","0","44984","","435","","","75","82","","","2","82","training","adjacent","AB","1","2","R.jpg","O.jpg","0","1","0","",""
"","feedback","","html-keyboard-response","540","411166","0.0-1.0-744.0-0.0","0","0","44984","","null","","","null","82","","","","","","","","","","","","","","","",""
"","time_out","","html-keyboard-response","541","413173","0.0-1.0-746.0-0.0","0","0","44984","","null","","","null","82","","","","","","","","","","","","","","","",""
"","ITI","","html-keyboard-response","542","414181","0.0-1.0-747.0","0","0","44984","","null","","","null","82","","","","","","","","","","","","","","","NaN",""
"","S1","","html-keyboard-response","543","414438","0.0-1.0-749.0","0","0","44984","","null","","","null","83","","","","","","","","","","","","","","","",""
"","ISI","","html-keyboard-response","544","414595","0.0-1.0-750.0","0","0","44984","","null","","","null","83","NaN","","","","","","","","","","","","","","",""
"","S2","","html-keyboard-response","545","414855","0.0-1.0-751.0","0","0","44984","","null","","","null","83","","NaN","","","","","","","","","","","","","",""
"","response","","html-keyboard-response","546","415071","0.0-1.0-752.0-0.0","0","0","44984","","209","","","68","83","","","2","83","training","adjacent","CD","3","4","P.jpg","N.jpg","1","1","1","",""
"","feedback","","html-keyboard-response","547","416081","0.0-1.0-753.0-0.0","0","0","44984","","null","","","null","83","","","","","","","","","","","","","","","",""
"","ITI","","html-keyboard-response","548","417089","0.0-1.0-756.0","0","0","44984","","null","","","null","83","","","","","","","","","","","","","","","NaN",""
"","S1","","html-keyboard-response","549","417347","0.0-1.0-758.0","0","0","44984","","null","","","null","84","","","","","","","","","","","","","","","",""
"","ISI","","html-keyboard-response","550","417503","0.0-1.0-759.0","0","0","44984","","null","","","null","84","NaN","","","","","","","","","","","","","","",""
"","S2","","html-keyboard-response","551","417762","0.0-1.0-760.0","0","0","44984","","null","","","null","84","","NaN","","","","","","","","","","","","","",""
"","response","","html-keyboard-response","552","417933","0.0-1.0-761.0-0.0","0","0","44984","","162","","","68","84","","","2","84","training","adjacent","BA","2","1","O.jpg","R.jpg","1","0","0","",""
"","feedback","","html-keyboard-response","553","418942","0.0-1.0-762.0-0.0","0","0","44984","","null","","","null","84","","","","","","","","","","","","","","","",""
"","time_out","","html-keyboard-response","554","420951","0.0-1.0-764.0-0.0","0","0","44984","","null","","","null","84","","","","","","","","","","","","","","","",""
"","ITI","","html-keyboard-response","555","421957","0.0-1.0-765.0","0","0","44984","","null","","","null","84","","","","","","","","","","","","","","","NaN",""
"","S1","","html-keyboard-response","556","422215","0.0-1.0-767.0","0","0","44984","","null","","","null","85","","","","","","","","","","","","","","","",""
"","ISI","","html-keyboard-response","557","422372","0.0-1.0-768.0","0","0","44984","","null","","","null","85","NaN","","","","","","","","","","","","","","",""
"","S2","","html-keyboard-response","558","422632","0.0-1.0-769.0","0","0","44984","","null","","","null","85","","NaN","","","","","","","","","","","","","",""
"","response","","html-keyboard-response","559","422763","0.0-1.0-770.0-0.0","0","0","44984","","123","","","68","85","","","2","85","training","adjacent","FG","6","7","L.jpg","Q.jpg","1","1","1","",""
"","feedback","","html-keyboard-response","560","423772","0.0-1.0-771.0-0.0","0","0","44984","","null","","","null","85","","","","","","","","","","","","","","","",""
"","ITI","","html-keyboard-response","561","424781","0.0-1.0-774.0","0","0","44984","","null","","","null","85","","","","","","","","","","","","","","","NaN",""
"","S1","","html-keyboard-response","562","425039","0.0-1.0-776.0","0","0","44984","","null","","","null","86","","","","","","","","","","","","","","","",""
"","ISI","","html-keyboard-response","563","425195","0.0-1.0-777.0","0","0","44984","","null","","","null","86","NaN","","","","","","","","","","","","","","",""
"","S2","","html-keyboard-response","564","425455","0.0-1.0-778.0","0","0","44984","","null","","","null","86","","NaN","","","","","","","","","","","","","",""
"","response","","html-keyboard-response","565","425604","0.0-1.0-779.0-0.0","0","0","44984","","142","","","68","86","","","2","86","training","adjacent","AB","1","2","R.jpg","O.jpg","1","1","1","",""
"","feedback","","html-keyboard-response","566","426613","0.0-1.0-780.0-0.0","0","0","44984","","null","","","null","86","","","","","","","","","","","","","","","",""
"","ITI","","html-keyboard-response","567","427621","0.0-1.0-783.0","0","0","44984","","null","","","null","86","","","","","","","","","","","","","","","NaN",""
"","S1","","html-keyboard-response","568","427878","0.0-1.0-785.0","0","0","44984","","null","","","null","87","","","","","","","","","","","","","","","",""
"","ISI","","html-keyboard-response","569","428035","0.0-1.0-786.0","0","0","44984","","null","","","null","87","NaN","","","","","","","","","","","","","","",""
"","S2","","html-keyboard-response","570","428293","0.0-1.0-787.0","0","0","44984","","null","","","null","87","","NaN","","","","","","","","","","","","","",""
"","response","","html-keyboard-response","571","428418","0.0-1.0-788.0-0.0","0","0","44984","","117","","","68","87","","","2","87","training","adjacent","ED","5","4","M.jpg","N.jpg","1","0","0","",""
"","feedback","","html-keyboard-response","572","429427","0.0-1.0-789.0-0.0","0","0","44984","","null","","","null","87","","","","","","","","","","","","","","","",""
"","time_out","","html-keyboard-response","573","431435","0.0-1.0-791.0-0.0","0","0","44984","","null","","","null","87","","","","","","","","","","","","","","","",""
"","ITI","","html-keyboard-response","574","432443","0.0-1.0-792.0","0","0","44984","","null","","","null","87","","","","","","","","","","","","","","","NaN",""
"","S1","","html-keyboard-response","575","432701","0.0-1.0-794.0","0","0","44984","","null","","","null","88","","","","","","","","","","","","","","","",""
"","ISI","","html-keyboard-response","576","432858","0.0-1.0-795.0","0","0","44984","","null","","","null","88","NaN","","","","","","","","","","","","","","",""
"","S2","","html-keyboard-response","577","433117","0.0-1.0-796.0","0","0","44984","","null","","","null","88","","NaN","","","","","","","","","","","","","",""
"","response","","html-keyboard-response","578","433234","0.0-1.0-797.0-0.0","0","0","44984","","110","","","75","88","","","2","88","training","adjacent","DE","4","5","N.jpg","M.jpg","0","1","0","",""
"","feedback","","html-keyboard-response","579","434242","0.0-1.0-798.0-0.0","0","0","44984","","null","","","null","88","","","","","","","","","","","","","","","",""
"","time_out","","html-keyboard-response","580","436250","0.0-1.0-800.0-0.0","0","0","44984","","null","","","null","88","","","","","","","","","","","","","","","",""
"","ITI","","html-keyboard-response","581","437257","0.0-1.0-801.0","0","0","44984","","null","","","null","88","","","","","","","","","","","","","","","NaN",""
