"success","ttype","start_time","trial_type","trial_index","time_elapsed","internal_node_id","warning","missed_checkup","PID","view_history","rt","responses","repeat_instructions","key_press","index","keypress_isi","keypress_S2","block","trial_num","phase","group_type","pair_type","S1_stim","S2_stim","S1_img","S2_img","S1_chosen","S1_higher","accuracy","keypress_iti","total_bonus_tally"
"true","full_screen","d04142023hr1626","fullscreen","0","6596","0.0-0.0","0","0","41766","","","","","","","","","","","","","","","","","","","","","",""
"","instructions","","instructions","1","32569","0.0-1.0-0.0-0.0","0","0","41766","[{""page_index"":0,""viewing_time"":3413},{""page_index"":1,""viewing_time"":13195},{""page_index"":2,""viewing_time"":7592},{""page_index"":3,""viewing_time"":1771}]","25971","","","","","","","","","","","","","","","","","","","",""
"","comprehension_check","","survey-multi-choice","2","51197","0.0-1.0-0.0-1.0","0","0","41766","","18625","{""Q0"":""False"",""Q1"":""D"",""Q2"":""Only when the screen 'MAKE A CHOICE' is shown"",""Q3"":""Green mark"",""Q4"":""either D or K""}","1","","","","","","","","","","","","","","","","","",""
"","missed_instruction_checkup","","html-keyboard-response","3","53514","0.0-1.0-0.0-2.0-0.0","0","1","41766","","2314","","","32","","","","","","","","","","","","","","","","",""
"","instructions","","instructions","4","129819","0.0-1.0-0.1-0.1","0","0","41766","[{""page_index"":0,""viewing_time"":3251},{""page_index"":1,""viewing_time"":62174},{""page_index"":2,""viewing_time"":9796},{""page_index"":3,""viewing_time"":1082}]","76303","","","","","","","","","","","","","","","","","","","",""
"","comprehension_check","","survey-multi-choice","5","141893","0.0-1.0-0.1-1.1","0","0","41766","","12071","{""Q0"":""False"",""Q1"":""D"",""Q2"":""Once the second image appears and while the screen 'MAKE A CHOICE' is shown"",""Q3"":""Green mark"",""Q4"":""either D or K""}","1","","","","","","","","","","","","","","","","","",""
"","missed_instruction_checkup","","html-keyboard-response","6","143369","0.0-1.0-0.1-2.1-0.1","0","1","41766","","1472","","","32","","","","","","","","","","","","","","","","",""
"","instructions","","instructions","7","147481","0.0-1.0-0.2-0.2","0","0","41766","[{""page_index"":0,""viewing_time"":1238},{""page_index"":1,""viewing_time"":1104},{""page_index"":2,""viewing_time"":929},{""page_index"":3,""viewing_time"":840}]","4111","","","","","","","","","","","","","","","","","","","",""
"","comprehension_check","","survey-multi-choice","8","153271","0.0-1.0-0.2-1.2","0","0","41766","","5787","{""Q0"":""True"",""Q1"":""D"",""Q2"":""Once the second image appears and while the screen 'MAKE A CHOICE' is shown"",""Q3"":""Green mark"",""Q4"":""either D or K""}","0","","","","","","","","","","","","","","","","","",""
"","start_exp","","html-keyboard-response","9","154384","0.0-1.0-1.0","0","0","41766","","1110","","","32","","","","","","","","","","","","","","","","",""
"","S1","","html-keyboard-response","10","154642","0.0-1.0-2.0","0","0","41766","","null","","","null","0","","","","","","","","","","","","","","","",""
"","ISI","","html-keyboard-response","11","155646","0.0-1.0-3.0","0","0","41766","","null","","","null","0","NaN","","","","","","","","","","","","","","",""
"","S2","","html-keyboard-response","12","155901","0.0-1.0-4.0","0","0","41766","","null","","","null","0","","NaN","","","","","","","","","","","","","",""
"","response","","html-keyboard-response","13","157408","0.0-1.0-5.0-0.0","0","0","41766","","1504","","","75","0","","","1","0","training","adjacent","GF","7","6","R.jpg","N.jpg","0","0","1","",""
"","feedback","","html-keyboard-response","14","158414","0.0-1.0-6.0-0.0","0","0","41766","","null","","","null","0","","","","","","","","","","","","","","","",""
"","ITI","","html-keyboard-response","15","159417","0.0-1.0-9.0","0","0","41766","","null","","","null","0","","","","","","","","","","","","","","","NaN",""
"","S1","","html-keyboard-response","16","159672","0.0-1.0-11.0","0","0","41766","","null","","","null","1","","","","","","","","","","","","","","","",""
"","ISI","","html-keyboard-response","17","160676","0.0-1.0-12.0","0","0","41766","","null","","","null","1","NaN","","","","","","","","","","","","","","",""
"","S2","","html-keyboard-response","18","160930","0.0-1.0-13.0","0","0","41766","","null","","","null","1","","NaN","","","","","","","","","","","","","",""
"","response","","html-keyboard-response","19","161602","0.0-1.0-14.0-0.0","0","0","41766","","668","","","75","1","","","1","1","training","adjacent","BC","2","3","P.jpg","Q.jpg","0","1","0","",""
"","feedback","","html-keyboard-response","20","162605","0.0-1.0-15.0-0.0","0","0","41766","","null","","","null","1","","","","","","","","","","","","","","","",""
"","time_out","","html-keyboard-response","21","164608","0.0-1.0-17.0-0.0","0","0","41766","","null","","","null","1","","","","","","","","","","","","","","","",""
"","ITI","","html-keyboard-response","22","165613","0.0-1.0-18.0","0","0","41766","","null","","","null","1","","","","","","","","","","","","","","","NaN",""
"","S1","","html-keyboard-response","23","165867","0.0-1.0-20.0","0","0","41766","","null","","","null","2","","","","","","","","","","","","","","","",""
"","ISI","","html-keyboard-response","24","166870","0.0-1.0-21.0","0","0","41766","","null","","","null","2","NaN","","","","","","","","","","","","","","",""
"","S2","","html-keyboard-response","25","167124","0.0-1.0-22.0","0","0","41766","","null","","","null","2","","NaN","","","","","","","","","","","","","",""
"","response","","html-keyboard-response","26","168145","0.0-1.0-23.0-0.0","0","0","41766","","1017","","","75","2","","","1","2","training","adjacent","FE","6","5","N.jpg","M.jpg","0","0","1","",""
"","feedback","","html-keyboard-response","27","169149","0.0-1.0-24.0-0.0","0","0","41766","","null","","","null","2","","","","","","","","","","","","","","","",""
"","ITI","","html-keyboard-response","28","170153","0.0-1.0-27.0","0","0","41766","","null","","","null","2","","","","","","","","","","","","","","","NaN",""
"","S1","","html-keyboard-response","29","170407","0.0-1.0-29.0","0","0","41766","","null","","","null","3","","","","","","","","","","","","","","","",""
"","ISI","","html-keyboard-response","30","171410","0.0-1.0-30.0","0","0","41766","","null","","","null","3","NaN","","","","","","","","","","","","","","",""
"","S2","","html-keyboard-response","31","171664","0.0-1.0-31.0","0","0","41766","","null","","","null","3","","NaN","","","","","","","","","","","","","",""
"","response","","html-keyboard-response","32","172041","0.0-1.0-32.0-0.0","0","0","41766","","374","","","68","3","","","1","3","training","adjacent","AB","1","2","L.jpg","P.jpg","1","1","1","",""
"","feedback","","html-keyboard-response","33","173045","0.0-1.0-33.0-0.0","0","0","41766","","null","","","null","3","","","","","","","","","","","","","","","",""
"","ITI","","html-keyboard-response","34","174049","0.0-1.0-36.0","0","0","41766","","null","","","null","3","","","","","","","","","","","","","","","NaN",""
"","S1","","html-keyboard-response","35","174303","0.0-1.0-38.0","0","0","41766","","null","","","null","4","","","","","","","","","","","","","","","",""
"","ISI","","html-keyboard-response","36","175307","0.0-1.0-39.0","0","0","41766","","null","","","null","4","NaN","","","","","","","","","","","","","","",""
"","S2","","html-keyboard-response","37","175561","0.0-1.0-40.0","0","0","41766","","null","","","null","4","","NaN","","","","","","","","","","","","","",""
"","response","","html-keyboard-response","38","175929","0.0-1.0-41.0-0.0","0","0","41766","","365","","","75","4","","","1","4","training","adjacent","CD","3","4","Q.jpg","O.jpg","0","1","0","",""
"","feedback","","html-keyboard-response","39","176933","0.0-1.0-42.0-0.0","0","0","41766","","null","","","null","4","","","","","","","","","","","","","","","",""
"","time_out","","html-keyboard-response","40","178936","0.0-1.0-44.0-0.0","0","0","41766","","null","","","null","4","","","","","","","","","","","","","","","",""
"","ITI","","html-keyboard-response","41","179940","0.0-1.0-45.0","0","0","41766","","null","","","null","4","","","","","","","","","","","","","","","NaN",""
"","S1","","html-keyboard-response","42","180193","0.0-1.0-47.0","0","0","41766","","null","","","null","5","","","","","","","","","","","","","","","",""
"","ISI","","html-keyboard-response","43","181196","0.0-1.0-48.0","0","0","41766","","null","","","null","5","NaN","","","","","","","","","","","","","","",""
"","S2","","html-keyboard-response","44","181450","0.0-1.0-49.0","0","0","41766","","null","","","null","5","","NaN","","","","","","","","","","","","","",""
"","response","","html-keyboard-response","45","181913","0.0-1.0-50.0-0.0","0","0","41766","","460","","","68","5","","","1","5","training","adjacent","BA","2","1","P.jpg","L.jpg","1","0","0","",""
"","feedback","","html-keyboard-response","46","182918","0.0-1.0-51.0-0.0","0","0","41766","","null","","","null","5","","","","","","","","","","","","","","","",""
"","time_out","","html-keyboard-response","47","184920","0.0-1.0-53.0-0.0","0","0","41766","","null","","","null","5","","","","","","","","","","","","","","","",""
"","ITI","","html-keyboard-response","48","185923","0.0-1.0-54.0","0","0","41766","","null","","","null","5","","","","","","","","","","","","","","","NaN",""
"","S1","","html-keyboard-response","49","186177","0.0-1.0-56.0","0","0","41766","","null","","","null","6","","","","","","","","","","","","","","","",""
"","ISI","","html-keyboard-response","50","187181","0.0-1.0-57.0","0","0","41766","","null","","","null","6","NaN","","","","","","","","","","","","","","",""
"","S2","","html-keyboard-response","51","187434","0.0-1.0-58.0","0","0","41766","","null","","","null","6","","NaN","","","","","","","","","","","","","",""
"","response","","html-keyboard-response","52","187969","0.0-1.0-59.0-0.0","0","0","41766","","532","","","75","6","","","1","6","training","adjacent","CD","3","4","Q.jpg","O.jpg","0","1","0","",""
"","feedback","","html-keyboard-response","53","188974","0.0-1.0-60.0-0.0","0","0","41766","","null","","","null","6","","","","","","","","","","","","","","","",""
"","time_out","","html-keyboard-response","54","190978","0.0-1.0-62.0-0.0","0","0","41766","","null","","","null","6","","","","","","","","","","","","","","","",""
"","ITI","","html-keyboard-response","55","191981","0.0-1.0-63.0","0","0","41766","","null","","","null","6","","","","","","","","","","","","","","","NaN",""
"","S1","","html-keyboard-response","56","192235","0.0-1.0-65.0","0","0","41766","","null","","","null","7","","","","","","","","","","","","","","","",""
"","ISI","","html-keyboard-response","57","193238","0.0-1.0-66.0","0","0","41766","","null","","","null","7","NaN","","","","","","","","","","","","","","",""
"","S2","","html-keyboard-response","58","193492","0.0-1.0-67.0","0","0","41766","","null","","","null","7","","NaN","","","","","","","","","","","","","",""
"","response","","html-keyboard-response","59","194217","0.0-1.0-68.0-0.0","0","0","41766","","722","","","75","7","","","1","7","training","adjacent","EF","5","6","M.jpg","N.jpg","0","1","0","",""
"","feedback","","html-keyboard-response","60","195220","0.0-1.0-69.0-0.0","0","0","41766","","null","","","null","7","","","","","","","","","","","","","","","",""
"","time_out","","html-keyboard-response","61","197222","0.0-1.0-71.0-0.0","0","0","41766","","null","","","null","7","","","","","","","","","","","","","","","",""
"","ITI","","html-keyboard-response","62","198226","0.0-1.0-72.0","0","0","41766","","null","","","null","7","","","","","","","","","","","","","","","NaN",""
"","S1","","html-keyboard-response","63","198480","0.0-1.0-74.0","0","0","41766","","null","","","null","8","","","","","","","","","","","","","","","",""
"","ISI","","html-keyboard-response","64","199484","0.0-1.0-75.0","0","0","41766","","null","","","null","8","NaN","","","","","","","","","","","","","","",""
"","S2","","html-keyboard-response","65","199737","0.0-1.0-76.0","0","0","41766","","null","","","null","8","","NaN","","","","","","","","","","","","","",""
"","response","","html-keyboard-response","66","200721","0.0-1.0-77.0-0.0","0","0","41766","","980","","","68","8","","","1","8","training","adjacent","GF","7","6","R.jpg","N.jpg","1","0","0","",""
"","feedback","","html-keyboard-response","67","201724","0.0-1.0-78.0-0.0","0","0","41766","","null","","","null","8","","","","","","","","","","","","","","","",""
"","time_out","","html-keyboard-response","68","203728","0.0-1.0-80.0-0.0","0","0","41766","","null","","","null","8","","","","","","","","","","","","","","","",""
"","ITI","","html-keyboard-response","69","204731","0.0-1.0-81.0","0","0","41766","","null","","","null","8","","","","","","","","","","","","","","","NaN",""
"","S1","","html-keyboard-response","70","204985","0.0-1.0-83.0","0","0","41766","","null","","","null","9","","","","","","","","","","","","","","","",""
"","ISI","","html-keyboard-response","71","205989","0.0-1.0-84.0","0","0","41766","","null","","","null","9","NaN","","","","","","","","","","","","","","",""
"","S2","","html-keyboard-response","72","206243","0.0-1.0-85.0","0","0","41766","","null","","","null","9","","NaN","","","","","","","","","","","","","",""
"","response","","html-keyboard-response","73","206585","0.0-1.0-86.0-0.0","0","0","41766","","339","","","68","9","","","1","9","training","adjacent","FG","6","7","N.jpg","R.jpg","1","1","1","",""
"","feedback","","html-keyboard-response","74","207589","0.0-1.0-87.0-0.0","0","0","41766","","null","","","null","9","","","","","","","","","","","","","","","",""
"","ITI","","html-keyboard-response","75","208593","0.0-1.0-90.0","0","0","41766","","null","","","null","9","","","","","","","","","","","","","","","NaN",""
"","S1","","html-keyboard-response","76","208847","0.0-1.0-92.0","0","0","41766","","null","","","null","10","","","","","","","","","","","","","","","",""
"","ISI","","html-keyboard-response","77","209851","0.0-1.0-93.0","0","0","41766","","null","","","null","10","NaN","","","","","","","","","","","","","","",""
"","S2","","html-keyboard-response","78","210105","0.0-1.0-94.0","0","0","41766","","null","","","null","10","","NaN","","","","","","","","","","","","","",""
"","response","","html-keyboard-response","79","210641","0.0-1.0-95.0-0.0","0","0","41766","","534","","","68","10","","","1","10","training","adjacent","CD","3","4","Q.jpg","O.jpg","1","1","1","",""
"","feedback","","html-keyboard-response","80","211644","0.0-1.0-96.0-0.0","0","0","41766","","null","","","null","10","","","","","","","","","","","","","","","",""
"","ITI","","html-keyboard-response","81","212648","0.0-1.0-99.0","0","0","41766","","null","","","null","10","","","","","","","","","","","","","","","NaN",""
"","S1","","html-keyboard-response","82","212902","0.0-1.0-101.0","0","0","41766","","null","","","null","11","","","","","","","","","","","","","","","",""
"","ISI","","html-keyboard-response","83","213906","0.0-1.0-102.0","0","0","41766","","null","","","null","11","NaN","","","","","","","","","","","","","","",""
"","S2","","html-keyboard-response","84","214160","0.0-1.0-103.0","0","0","41766","","null","","","null","11","","NaN","","","","","","","","","","","","","",""
"","response","","html-keyboard-response","85","214833","0.0-1.0-104.0-0.0","0","0","41766","","669","","","75","11","","","1","11","training","adjacent","DC","4","3","O.jpg","Q.jpg","0","0","1","",""
"","feedback","","html-keyboard-response","86","215837","0.0-1.0-105.0-0.0","0","0","41766","","null","","","null","11","","","","","","","","","","","","","","","",""
"","ITI","","html-keyboard-response","87","216841","0.0-1.0-108.0","0","0","41766","","null","","","null","11","","","","","","","","","","","","","","","NaN",""
"","S1","","html-keyboard-response","88","217095","0.0-1.0-110.0","0","0","41766","","null","","","null","12","","","","","","","","","","","","","","","",""
"","ISI","","html-keyboard-response","89","218097","0.0-1.0-111.0","0","0","41766","","null","","","null","12","NaN","","","","","","","","","","","","","","",""
"","S2","","html-keyboard-response","90","218350","0.0-1.0-112.0","0","0","41766","","null","","","null","12","","NaN","","","","","","","","","","","","","",""
"","response","","html-keyboard-response","91","218689","0.0-1.0-113.0-0.0","0","0","41766","","337","","","68","12","","","1","12","training","adjacent","CD","3","4","Q.jpg","O.jpg","1","1","1","",""
"","feedback","","html-keyboard-response","92","219693","0.0-1.0-114.0-0.0","0","0","41766","","null","","","null","12","","","","","","","","","","","","","","","",""
"","ITI","","html-keyboard-response","93","220697","0.0-1.0-117.0","0","0","41766","","null","","","null","12","","","","","","","","","","","","","","","NaN",""
"","S1","","html-keyboard-response","94","220951","0.0-1.0-119.0","0","0","41766","","null","","","null","13","","","","","","","","","","","","","","","",""
"","ISI","","html-keyboard-response","95","221954","0.0-1.0-120.0","0","0","41766","","null","","","null","13","NaN","","","","","","","","","","","","","","",""
"","S2","","html-keyboard-response","96","222207","0.0-1.0-121.0","0","0","41766","","null","","","null","13","","NaN","","","","","","","","","","","","","",""
"","response","","html-keyboard-response","97","222721","0.0-1.0-122.0-0.0","0","0","41766","","511","","","68","13","","","1","13","training","adjacent","ED","5","4","M.jpg","O.jpg","1","0","0","",""
"","feedback","","html-keyboard-response","98","223725","0.0-1.0-123.0-0.0","0","0","41766","","null","","","null","13","","","","","","","","","","","","","","","",""
"","time_out","","html-keyboard-response","99","225728","0.0-1.0-125.0-0.0","0","0","41766","","null","","","null","13","","","","","","","","","","","","","","","",""
"","ITI","","html-keyboard-response","100","226738","0.0-1.0-126.0","0","0","41766","","null","","","null","13","","","","","","","","","","","","","","","NaN",""
"","S1","","html-keyboard-response","101","226992","0.0-1.0-128.0","0","0","41766","","null","","","null","14","","","","","","","","","","","","","","","",""
"","ISI","","html-keyboard-response","102","227995","0.0-1.0-129.0","0","0","41766","","null","","","null","14","NaN","","","","","","","","","","","","","","",""
"","S2","","html-keyboard-response","103","228250","0.0-1.0-130.0","0","0","41766","","null","","","null","14","","NaN","","","","","","","","","","","","","",""
"","response","","html-keyboard-response","104","228497","0.0-1.0-131.0-0.0","0","0","41766","","244","","","75","14","","","1","14","training","adjacent","ED","5","4","M.jpg","O.jpg","0","0","1","",""
"","feedback","","html-keyboard-response","105","229501","0.0-1.0-132.0-0.0","0","0","41766","","null","","","null","14","","","","","","","","","","","","","","","",""
"","ITI","","html-keyboard-response","106","230505","0.0-1.0-135.0","0","0","41766","","null","","","null","14","","","","","","","","","","","","","","","NaN",""
"","S1","","html-keyboard-response","107","230759","0.0-1.0-137.0","0","0","41766","","null","","","null","15","","","","","","","","","","","","","","","",""
"","ISI","","html-keyboard-response","108","231763","0.0-1.0-138.0","0","0","41766","","null","","","null","15","NaN","","","","","","","","","","","","","","",""
"","S2","","html-keyboard-response","109","232018","0.0-1.0-139.0","0","0","41766","","null","","","null","15","","NaN","","","","","","","","","","","","","",""
"","response","","html-keyboard-response","110","232225","0.0-1.0-140.0-0.0","0","0","41766","","204","","","75","15","","","1","15","training","adjacent","ED","5","4","M.jpg","O.jpg","0","0","1","",""
"","feedback","","html-keyboard-response","111","233229","0.0-1.0-141.0-0.0","0","0","41766","","null","","","null","15","","","","","","","","","","","","","","","",""
"","ITI","","html-keyboard-response","112","234232","0.0-1.0-144.0","0","0","41766","","null","","","null","15","","","","","","","","","","","","","","","NaN",""
"","S1","","html-keyboard-response","113","234487","0.0-1.0-146.0","0","0","41766","","null","","","null","16","","","","","","","","","","","","","","","",""
"","ISI","","html-keyboard-response","114","235490","0.0-1.0-147.0","0","0","41766","","null","","","null","16","NaN","","","","","","","","","","","","","","",""
"","S2","","html-keyboard-response","115","235744","0.0-1.0-148.0","0","0","41766","","null","","","null","16","","NaN","","","","","","","","","","","","","",""
"","response","","html-keyboard-response","116","236289","0.0-1.0-149.0-0.0","0","0","41766","","542","","","75","16","","","1","16","training","adjacent","AB","1","2","L.jpg","P.jpg","0","1","0","",""
"","feedback","","html-keyboard-response","117","237293","0.0-1.0-150.0-0.0","0","0","41766","","null","","","null","16","","","","","","","","","","","","","","","",""
"","time_out","","html-keyboard-response","118","239296","0.0-1.0-152.0-0.0","0","0","41766","","null","","","null","16","","","","","","","","","","","","","","","",""
"","ITI","","html-keyboard-response","119","240298","0.0-1.0-153.0","0","0","41766","","null","","","null","16","","","","","","","","","","","","","","","NaN",""
"","S1","","html-keyboard-response","120","240552","0.0-1.0-155.0","0","0","41766","","null","","","null","17","","","","","","","","","","","","","","","",""
"","ISI","","html-keyboard-response","121","241556","0.0-1.0-156.0","0","0","41766","","null","","","null","17","NaN","","","","","","","","","","","","","","",""
"","S2","","html-keyboard-response","122","241810","0.0-1.0-157.0","0","0","41766","","null","","","null","17","","NaN","","","","","","","","","","","","","",""
"","response","","html-keyboard-response","123","242105","0.0-1.0-158.0-0.0","0","0","41766","","291","","","68","17","","","1","17","training","adjacent","DE","4","5","O.jpg","M.jpg","1","1","1","",""
"","feedback","","html-keyboard-response","124","243109","0.0-1.0-159.0-0.0","0","0","41766","","null","","","null","17","","","","","","","","","","","","","","","",""
"","ITI","","html-keyboard-response","125","244112","0.0-1.0-162.0","0","0","41766","","null","","","null","17","","","","","","","","","","","","","","","NaN",""
"","S1","","html-keyboard-response","126","244365","0.0-1.0-164.0","0","0","41766","","null","","","null","18","","","","","","","","","","","","","","","",""
"","ISI","","html-keyboard-response","127","245369","0.0-1.0-165.0","0","0","41766","","null","","","null","18","NaN","","","","","","","","","","","","","","",""
"","S2","","html-keyboard-response","128","245622","0.0-1.0-166.0","0","0","41766","","null","","","null","18","","NaN","","","","","","","","","","","","","",""
"","response","","html-keyboard-response","129","245998","0.0-1.0-167.0-0.0","0","0","41766","","374","","","75","18","","","1","18","training","adjacent","DC","4","3","O.jpg","Q.jpg","0","0","1","",""
"","feedback","","html-keyboard-response","130","247001","0.0-1.0-168.0-0.0","0","0","41766","","null","","","null","18","","","","","","","","","","","","","","","",""
"","ITI","","html-keyboard-response","131","248005","0.0-1.0-171.0","0","0","41766","","null","","","null","18","","","","","","","","","","","","","","","NaN",""
"","S1","","html-keyboard-response","132","248259","0.0-1.0-173.0","0","0","41766","","null","","","null","19","","","","","","","","","","","","","","","",""
"","ISI","","html-keyboard-response","133","249263","0.0-1.0-174.0","0","0","41766","","null","","","null","19","NaN","","","","","","","","","","","","","","",""
"","S2","","html-keyboard-response","134","249517","0.0-1.0-175.0","0","0","41766","","null","","","null","19","","NaN","","","","","","","","","","","","","",""
"","response","","html-keyboard-response","135","249825","0.0-1.0-176.0-0.0","0","0","41766","","304","","","68","19","","","1","19","training","adjacent","FE","6","5","N.jpg","M.jpg","1","0","0","",""
"","feedback","","html-keyboard-response","136","250829","0.0-1.0-177.0-0.0","0","0","41766","","null","","","null","19","","","","","","","","","","","","","","","",""
"","time_out","","html-keyboard-response","137","252833","0.0-1.0-179.0-0.0","0","0","41766","","null","","","null","19","","","","","","","","","","","","","","","",""
"","ITI","","html-keyboard-response","138","253836","0.0-1.0-180.0","0","0","41766","","null","","","null","19","","","","","","","","","","","","","","","NaN",""
"","S1","","html-keyboard-response","139","254090","0.0-1.0-182.0","0","0","41766","","null","","","null","20","","","","","","","","","","","","","","","",""
"","ISI","","html-keyboard-response","140","255093","0.0-1.0-183.0","0","0","41766","","null","","","null","20","NaN","","","","","","","","","","","","","","",""
"","S2","","html-keyboard-response","141","255347","0.0-1.0-184.0","0","0","41766","","null","","","null","20","","NaN","","","","","","","","","","","","","",""
"","response","","html-keyboard-response","142","255617","0.0-1.0-185.0-0.0","0","0","41766","","267","","","68","20","","","1","20","training","adjacent","DE","4","5","O.jpg","M.jpg","1","1","1","",""
"","feedback","","html-keyboard-response","143","256621","0.0-1.0-186.0-0.0","0","0","41766","","null","","","null","20","","","","","","","","","","","","","","","",""
"","ITI","","html-keyboard-response","144","257625","0.0-1.0-189.0","0","0","41766","","null","","","null","20","","","","","","","","","","","","","","","NaN",""
"","S1","","html-keyboard-response","145","257880","0.0-1.0-191.0","0","0","41766","","null","","","null","21","","","","","","","","","","","","","","","",""
"","ISI","","html-keyboard-response","146","258883","0.0-1.0-192.0","0","0","41766","","null","","","null","21","NaN","","","","","","","","","","","","","","",""
"","S2","","html-keyboard-response","147","259136","0.0-1.0-193.0","0","0","41766","","null","","","null","21","","NaN","","","","","","","","","","","","","",""
"","response","","html-keyboard-response","148","259296","0.0-1.0-194.0-0.0","0","0","41766","","157","","","68","21","","","1","21","training","adjacent","CB","3","2","Q.jpg","P.jpg","1","0","0","",""
"","feedback","","html-keyboard-response","149","260301","0.0-1.0-195.0-0.0","0","0","41766","","null","","","null","21","","","","","","","","","","","","","","","",""
"","time_out","","html-keyboard-response","150","262305","0.0-1.0-197.0-0.0","0","0","41766","","null","","","null","21","","","","","","","","","","","","","","","",""
"","ITI","","html-keyboard-response","151","263309","0.0-1.0-198.0","0","0","41766","","null","","","null","21","","","","","","","","","","","","","","","NaN",""
"","S1","","html-keyboard-response","152","263564","0.0-1.0-200.0","0","0","41766","","null","","","null","22","","","","","","","","","","","","","","","",""
"","ISI","","html-keyboard-response","153","264566","0.0-1.0-201.0","0","0","41766","","null","","","null","22","NaN","","","","","","","","","","","","","","",""
"","S2","","html-keyboard-response","154","264820","0.0-1.0-202.0","0","0","41766","","null","","","null","22","","NaN","","","","","","","","","","","","","",""
"","response","","html-keyboard-response","155","265113","0.0-1.0-203.0-0.0","0","0","41766","","289","","","75","22","","","1","22","training","adjacent","EF","5","6","M.jpg","N.jpg","0","1","0","",""
"","feedback","","html-keyboard-response","156","266119","0.0-1.0-204.0-0.0","0","0","41766","","null","","","null","22","","","","","","","","","","","","","","","",""
"","time_out","","html-keyboard-response","157","268123","0.0-1.0-206.0-0.0","0","0","41766","","null","","","null","22","","","","","","","","","","","","","","","",""
"","ITI","","html-keyboard-response","158","269126","0.0-1.0-207.0","0","0","41766","","null","","","null","22","","","","","","","","","","","","","","","NaN",""
"","S1","","html-keyboard-response","159","269380","0.0-1.0-209.0","0","0","41766","","null","","","null","23","","","","","","","","","","","","","","","",""
"","ISI","","html-keyboard-response","160","270384","0.0-1.0-210.0","0","0","41766","","null","","","null","23","NaN","","","","","","","","","","","","","","",""
"","S2","","html-keyboard-response","161","270638","0.0-1.0-211.0","0","0","41766","","null","","","null","23","","NaN","","","","","","","","","","","","","",""
"","response","","html-keyboard-response","162","270904","0.0-1.0-212.0-0.0","0","0","41766","","263","","","68","23","","","1","23","training","adjacent","FG","6","7","N.jpg","R.jpg","1","1","1","",""
"","feedback","","html-keyboard-response","163","271909","0.0-1.0-213.0-0.0","0","0","41766","","null","","","null","23","","","","","","","","","","","","","","","",""
"","ITI","","html-keyboard-response","164","272912","0.0-1.0-216.0","0","0","41766","","null","","","null","23","","","","","","","","","","","","","","","NaN",""
"","S1","","html-keyboard-response","165","273166","0.0-1.0-218.0","0","0","41766","","null","","","null","24","","","","","","","","","","","","","","","",""
"","ISI","","html-keyboard-response","166","274169","0.0-1.0-219.0","0","0","41766","","null","","","null","24","NaN","","","","","","","","","","","","","","",""
"","S2","","html-keyboard-response","167","274424","0.0-1.0-220.0","0","0","41766","","null","","","null","24","","NaN","","","","","","","","","","","","","",""
"","response","","html-keyboard-response","168","274809","0.0-1.0-221.0-0.0","0","0","41766","","381","","","68","24","","","1","24","training","adjacent","BA","2","1","P.jpg","L.jpg","1","0","0","",""
"","feedback","","html-keyboard-response","169","275822","0.0-1.0-222.0-0.0","0","0","41766","","null","","","null","24","","","","","","","","","","","","","","","",""
"","time_out","","html-keyboard-response","170","277825","0.0-1.0-224.0-0.0","0","0","41766","","null","","","null","24","","","","","","","","","","","","","","","",""
"","ITI","","html-keyboard-response","171","278830","0.0-1.0-225.0","0","0","41766","","null","","","null","24","","","","","","","","","","","","","","","NaN",""
"","S1","","html-keyboard-response","172","279083","0.0-1.0-227.0","0","0","41766","","null","","","null","25","","","","","","","","","","","","","","","",""
"","ISI","","html-keyboard-response","173","280087","0.0-1.0-228.0","0","0","41766","","null","","","null","25","NaN","","","","","","","","","","","","","","",""
"","S2","","html-keyboard-response","174","280341","0.0-1.0-229.0","0","0","41766","","null","","","null","25","","NaN","","","","","","","","","","","","","",""
"","response","","html-keyboard-response","175","280920","0.0-1.0-230.0-0.0","0","0","41766","","576","","","75","25","","","1","25","training","adjacent","BA","2","1","P.jpg","L.jpg","0","0","1","",""
"","feedback","","html-keyboard-response","176","281924","0.0-1.0-231.0-0.0","0","0","41766","","null","","","null","25","","","","","","","","","","","","","","","",""
"","ITI","","html-keyboard-response","177","282928","0.0-1.0-234.0","0","0","41766","","null","","","null","25","","","","","","","","","","","","","","","NaN",""
"","S1","","html-keyboard-response","178","283182","0.0-1.0-236.0","0","0","41766","","null","","","null","26","","","","","","","","","","","","","","","",""
"","ISI","","html-keyboard-response","179","284185","0.0-1.0-237.0","0","0","41766","","null","","","null","26","NaN","","","","","","","","","","","","","","",""
"","S2","","html-keyboard-response","180","284439","0.0-1.0-238.0","0","0","41766","","null","","","null","26","","NaN","","","","","","","","","","","","","",""
"","response","","html-keyboard-response","181","284712","0.0-1.0-239.0-0.0","0","0","41766","","270","","","75","26","","","1","26","training","adjacent","ED","5","4","M.jpg","O.jpg","0","0","1","",""
"","feedback","","html-keyboard-response","182","285716","0.0-1.0-240.0-0.0","0","0","41766","","null","","","null","26","","","","","","","","","","","","","","","",""
"","ITI","","html-keyboard-response","183","286719","0.0-1.0-243.0","0","0","41766","","null","","","null","26","","","","","","","","","","","","","","","NaN",""
"","S1","","html-keyboard-response","184","286972","0.0-1.0-245.0","0","0","41766","","null","","","null","27","","","","","","","","","","","","","","","",""
"","ISI","","html-keyboard-response","185","287976","0.0-1.0-246.0","0","0","41766","","null","","","null","27","NaN","","","","","","","","","","","","","","",""
"","S2","","html-keyboard-response","186","288230","0.0-1.0-247.0","0","0","41766","","null","","","null","27","","NaN","","","","","","","","","","","","","",""
"","response","","html-keyboard-response","187","288560","0.0-1.0-248.0-0.0","0","0","41766","","327","","","75","27","","","1","27","training","adjacent","GF","7","6","R.jpg","N.jpg","0","0","1","",""
"","feedback","","html-keyboard-response","188","289565","0.0-1.0-249.0-0.0","0","0","41766","","null","","","null","27","","","","","","","","","","","","","","","",""
"","ITI","","html-keyboard-response","189","290569","0.0-1.0-252.0","0","0","41766","","null","","","null","27","","","","","","","","","","","","","","","NaN",""
"","S1","","html-keyboard-response","190","290822","0.0-1.0-254.0","0","0","41766","","null","","","null","28","","","","","","","","","","","","","","","",""
"","ISI","","html-keyboard-response","191","291825","0.0-1.0-255.0","0","0","41766","","null","","","null","28","NaN","","","","","","","","","","","","","","",""
"","S2","","html-keyboard-response","192","292079","0.0-1.0-256.0","0","0","41766","","null","","","null","28","","NaN","","","","","","","","","","","","","",""
"","response","","html-keyboard-response","193","292513","0.0-1.0-257.0-0.0","0","0","41766","","430","","","75","28","","","1","28","training","adjacent","BC","2","3","P.jpg","Q.jpg","0","1","0","",""
"","feedback","","html-keyboard-response","194","293517","0.0-1.0-258.0-0.0","0","0","41766","","null","","","null","28","","","","","","","","","","","","","","","",""
"","time_out","","html-keyboard-response","195","295520","0.0-1.0-260.0-0.0","0","0","41766","","null","","","null","28","","","","","","","","","","","","","","","",""
"","ITI","","html-keyboard-response","196","296524","0.0-1.0-261.0","0","0","41766","","null","","","null","28","","","","","","","","","","","","","","","NaN",""
"","S1","","html-keyboard-response","197","296778","0.0-1.0-263.0","0","0","41766","","null","","","null","29","","","","","","","","","","","","","","","",""
"","ISI","","html-keyboard-response","198","297781","0.0-1.0-264.0","0","0","41766","","null","","","null","29","NaN","","","","","","","","","","","","","","",""
"","S2","","html-keyboard-response","199","298035","0.0-1.0-265.0","0","0","41766","","null","","","null","29","","NaN","","","","","","","","","","","","","",""
"","response","","html-keyboard-response","200","298304","0.0-1.0-266.0-0.0","0","0","41766","","266","","","75","29","","","1","29","training","adjacent","BC","2","3","P.jpg","Q.jpg","0","1","0","",""
"","feedback","","html-keyboard-response","201","299308","0.0-1.0-267.0-0.0","0","0","41766","","null","","","null","29","","","","","","","","","","","","","","","",""
"","time_out","","html-keyboard-response","202","301311","0.0-1.0-269.0-0.0","0","0","41766","","null","","","null","29","","","","","","","","","","","","","","","",""
"","ITI","","html-keyboard-response","203","302314","0.0-1.0-270.0","0","0","41766","","null","","","null","29","","","","","","","","","","","","","","","NaN",""
"","S1","","html-keyboard-response","204","302568","0.0-1.0-272.0","0","0","41766","","null","","","null","30","","","","","","","","","","","","","","","",""
"","ISI","","html-keyboard-response","205","303572","0.0-1.0-273.0","0","0","41766","","null","","","null","30","NaN","","","","","","","","","","","","","","",""
"","S2","","html-keyboard-response","206","303826","0.0-1.0-274.0","0","0","41766","","null","","","null","30","","NaN","","","","","","","","","","","","","",""
"","response","","html-keyboard-response","207","304385","0.0-1.0-275.0-0.0","0","0","41766","","556","","","75","30","","","1","30","training","adjacent","FE","6","5","N.jpg","M.jpg","0","0","1","",""
"","feedback","","html-keyboard-response","208","305389","0.0-1.0-276.0-0.0","0","0","41766","","null","","","null","30","","","","","","","","","","","","","","","",""
"","ITI","","html-keyboard-response","209","306393","0.0-1.0-279.0","0","0","41766","","null","","","null","30","","","","","","","","","","","","","","","NaN",""
"","S1","","html-keyboard-response","210","306647","0.0-1.0-281.0","0","0","41766","","null","","","null","31","","","","","","","","","","","","","","","",""
"","ISI","","html-keyboard-response","211","307649","0.0-1.0-282.0","0","0","41766","","null","","","null","31","NaN","","","","","","","","","","","","","","",""
"","S2","","html-keyboard-response","212","307904","0.0-1.0-283.0","0","0","41766","","null","","","null","31","","NaN","","","","","","","","","","","","","",""
"","response","","html-keyboard-response","213","308392","0.0-1.0-284.0-0.0","0","0","41766","","486","","","75","31","","","1","31","training","adjacent","AB","1","2","L.jpg","P.jpg","0","1","0","",""
"","feedback","","html-keyboard-response","214","309397","0.0-1.0-285.0-0.0","0","0","41766","","null","","","null","31","","","","","","","","","","","","","","","",""
"","time_out","","html-keyboard-response","215","311400","0.0-1.0-287.0-0.0","0","0","41766","","null","","","null","31","","","","","","","","","","","","","","","",""
"","ITI","","html-keyboard-response","216","312405","0.0-1.0-288.0","0","0","41766","","null","","","null","31","","","","","","","","","","","","","","","NaN",""
"","S1","","html-keyboard-response","217","312659","0.0-1.0-290.0","0","0","41766","","null","","","null","32","","","","","","","","","","","","","","","",""
"","ISI","","html-keyboard-response","218","313663","0.0-1.0-291.0","0","0","41766","","null","","","null","32","NaN","","","","","","","","","","","","","","",""
"","S2","","html-keyboard-response","219","313916","0.0-1.0-292.0","0","0","41766","","null","","","null","32","","NaN","","","","","","","","","","","","","",""
"","response","","html-keyboard-response","220","314168","0.0-1.0-293.0-0.0","0","0","41766","","249","","","68","32","","","1","32","training","adjacent","CB","3","2","Q.jpg","P.jpg","1","0","0","",""
"","feedback","","html-keyboard-response","221","315172","0.0-1.0-294.0-0.0","0","0","41766","","null","","","null","32","","","","","","","","","","","","","","","",""
"","time_out","","html-keyboard-response","222","317176","0.0-1.0-296.0-0.0","0","0","41766","","null","","","null","32","","","","","","","","","","","","","","","",""
"","ITI","","html-keyboard-response","223","318179","0.0-1.0-297.0","0","0","41766","","null","","","null","32","","","","","","","","","","","","","","","NaN",""
"","S1","","html-keyboard-response","224","318433","0.0-1.0-299.0","0","0","41766","","null","","","null","33","","","","","","","","","","","","","","","",""
"","ISI","","html-keyboard-response","225","319436","0.0-1.0-300.0","0","0","41766","","null","","","null","33","NaN","","","","","","","","","","","","","","",""
"","S2","","html-keyboard-response","226","319691","0.0-1.0-301.0","0","0","41766","","null","","","null","33","","NaN","","","","","","","","","","","","","",""
"","response","","html-keyboard-response","227","319905","0.0-1.0-302.0-0.0","0","0","41766","","211","","","75","33","","","1","33","training","adjacent","EF","5","6","M.jpg","N.jpg","0","1","0","",""
"","feedback","","html-keyboard-response","228","320908","0.0-1.0-303.0-0.0","0","0","41766","","null","","","null","33","","","","","","","","","","","","","","","",""
"","time_out","","html-keyboard-response","229","322912","0.0-1.0-305.0-0.0","0","0","41766","","null","","","null","33","","","","","","","","","","","","","","","",""
"","ITI","","html-keyboard-response","230","323916","0.0-1.0-306.0","0","0","41766","","null","","","null","33","","","","","","","","","","","","","","","NaN",""
"","S1","","html-keyboard-response","231","324170","0.0-1.0-308.0","0","0","41766","","null","","","null","34","","","","","","","","","","","","","","","",""
"","ISI","","html-keyboard-response","232","325173","0.0-1.0-309.0","0","0","41766","","null","","","null","34","NaN","","","","","","","","","","","","","","",""
"","S2","","html-keyboard-response","233","325426","0.0-1.0-310.0","0","0","41766","","null","","","null","34","","NaN","","","","","","","","","","","","","",""
"","response","","html-keyboard-response","234","325704","0.0-1.0-311.0-0.0","0","0","41766","","275","","","75","34","","","1","34","training","adjacent","AB","1","2","L.jpg","P.jpg","0","1","0","",""
"","feedback","","html-keyboard-response","235","326708","0.0-1.0-312.0-0.0","0","0","41766","","null","","","null","34","","","","","","","","","","","","","","","",""
"","time_out","","html-keyboard-response","236","328712","0.0-1.0-314.0-0.0","0","0","41766","","null","","","null","34","","","","","","","","","","","","","","","",""
"","ITI","","html-keyboard-response","237","329715","0.0-1.0-315.0","0","0","41766","","null","","","null","34","","","","","","","","","","","","","","","NaN",""
"","S1","","html-keyboard-response","238","329970","0.0-1.0-317.0","0","0","41766","","null","","","null","35","","","","","","","","","","","","","","","",""
"","ISI","","html-keyboard-response","239","330975","0.0-1.0-318.0","0","0","41766","","null","","","null","35","NaN","","","","","","","","","","","","","","",""
"","S2","","html-keyboard-response","240","331237","0.0-1.0-319.0","0","0","41766","","null","","","null","35","","NaN","","","","","","","","","","","","","",""
"","response","","html-keyboard-response","241","332161","0.0-1.0-320.0-0.0","0","0","41766","","921","","","75","35","","","1","35","training","adjacent","BC","2","3","P.jpg","Q.jpg","0","1","0","",""
"","feedback","","html-keyboard-response","242","333165","0.0-1.0-321.0-0.0","0","0","41766","","null","","","null","35","","","","","","","","","","","","","","","",""
"","time_out","","html-keyboard-response","243","335168","0.0-1.0-323.0-0.0","0","0","41766","","null","","","null","35","","","","","","","","","","","","","","","",""
"","ITI","","html-keyboard-response","244","336171","0.0-1.0-324.0","0","0","41766","","null","","","null","35","","","","","","","","","","","","","","","NaN",""
"","S1","","html-keyboard-response","245","336425","0.0-1.0-326.0","0","0","41766","","null","","","null","36","","","","","","","","","","","","","","","",""
"","ISI","","html-keyboard-response","246","337428","0.0-1.0-327.0","0","0","41766","","null","","","null","36","NaN","","","","","","","","","","","","","","",""
"","S2","","html-keyboard-response","247","337682","0.0-1.0-328.0","0","0","41766","","null","","","null","36","","NaN","","","","","","","","","","","","","",""
"","response","","html-keyboard-response","248","337944","0.0-1.0-329.0-0.0","0","0","41766","","259","","","68","36","","","1","36","training","adjacent","FE","6","5","N.jpg","M.jpg","1","0","0","",""
"","feedback","","html-keyboard-response","249","338948","0.0-1.0-330.0-0.0","0","0","41766","","null","","","null","36","","","","","","","","","","","","","","","",""
"","time_out","","html-keyboard-response","250","340952","0.0-1.0-332.0-0.0","0","0","41766","","null","","","null","36","","","","","","","","","","","","","","","",""
"","ITI","","html-keyboard-response","251","341956","0.0-1.0-333.0","0","0","41766","","null","","","null","36","","","","","","","","","","","","","","","NaN",""
"","S1","","html-keyboard-response","252","342211","0.0-1.0-335.0","0","0","41766","","null","","","null","37","","","","","","","","","","","","","","","",""
"","ISI","","html-keyboard-response","253","343214","0.0-1.0-336.0","0","0","41766","","null","","","null","37","NaN","","","","","","","","","","","","","","",""
"","S2","","html-keyboard-response","254","343469","0.0-1.0-337.0","0","0","41766","","null","","","null","37","","NaN","","","","","","","","","","","","","",""
"","response","","html-keyboard-response","255","343760","0.0-1.0-338.0-0.0","0","0","41766","","289","","","68","37","","","1","37","training","adjacent","FG","6","7","N.jpg","R.jpg","1","1","1","",""
"","feedback","","html-keyboard-response","256","344764","0.0-1.0-339.0-0.0","0","0","41766","","null","","","null","37","","","","","","","","","","","","","","","",""
"","ITI","","html-keyboard-response","257","345768","0.0-1.0-342.0","0","0","41766","","null","","","null","37","","","","","","","","","","","","","","","NaN",""
"","S1","","html-keyboard-response","258","346022","0.0-1.0-344.0","0","0","41766","","null","","","null","38","","","","","","","","","","","","","","","",""
"","ISI","","html-keyboard-response","259","347025","0.0-1.0-345.0","0","0","41766","","null","","","null","38","NaN","","","","","","","","","","","","","","",""
"","S2","","html-keyboard-response","260","347281","0.0-1.0-346.0","0","0","41766","","null","","","null","38","","NaN","","","","","","","","","","","","","",""
"","response","","html-keyboard-response","261","347825","0.0-1.0-347.0-0.0","0","0","41766","","541","","","75","38","","","1","38","training","adjacent","FG","6","7","N.jpg","R.jpg","0","1","0","",""
"","feedback","","html-keyboard-response","262","348829","0.0-1.0-348.0-0.0","0","0","41766","","null","","","null","38","","","","","","","","","","","","","","","",""
"","time_out","","html-keyboard-response","263","350833","0.0-1.0-350.0-0.0","0","0","41766","","null","","","null","38","","","","","","","","","","","","","","","",""
"","ITI","","html-keyboard-response","264","351836","0.0-1.0-351.0","0","0","41766","","null","","","null","38","","","","","","","","","","","","","","","NaN",""
"","S1","","html-keyboard-response","265","352091","0.0-1.0-353.0","0","0","41766","","null","","","null","39","","","","","","","","","","","","","","","",""
"","ISI","","html-keyboard-response","266","353094","0.0-1.0-354.0","0","0","41766","","null","","","null","39","NaN","","","","","","","","","","","","","","",""
"","S2","","html-keyboard-response","267","353349","0.0-1.0-355.0","0","0","41766","","null","","","null","39","","NaN","","","","","","","","","","","","","",""
"","response","","html-keyboard-response","268","353592","0.0-1.0-356.0-0.0","0","0","41766","","240","","","68","39","","","1","39","training","adjacent","DE","4","5","O.jpg","M.jpg","1","1","1","",""
"","feedback","","html-keyboard-response","269","354596","0.0-1.0-357.0-0.0","0","0","41766","","null","","","null","39","","","","","","","","","","","","","","","",""
"","ITI","","html-keyboard-response","270","355601","0.0-1.0-360.0","0","0","41766","","null","","","null","39","","","","","","","","","","","","","","","NaN",""
"","S1","","html-keyboard-response","271","355854","0.0-1.0-362.0","0","0","41766","","null","","","null","40","","","","","","","","","","","","","","","",""
"","ISI","","html-keyboard-response","272","356857","0.0-1.0-363.0","0","0","41766","","null","","","null","40","NaN","","","","","","","","","","","","","","",""
"","S2","","html-keyboard-response","273","357111","0.0-1.0-364.0","0","0","41766","","null","","","null","40","","NaN","","","","","","","","","","","","","",""
"","response","","html-keyboard-response","274","357904","0.0-1.0-365.0-0.0","0","0","41766","","790","","","75","40","","","1","40","training","adjacent","CB","3","2","Q.jpg","P.jpg","0","0","1","",""
"","feedback","","html-keyboard-response","275","358909","0.0-1.0-366.0-0.0","0","0","41766","","null","","","null","40","","","","","","","","","","","","","","","",""
"","ITI","","html-keyboard-response","276","359913","0.0-1.0-369.0","0","0","41766","","null","","","null","40","","","","","","","","","","","","","","","NaN",""
"","S1","","html-keyboard-response","277","360167","0.0-1.0-371.0","0","0","41766","","null","","","null","41","","","","","","","","","","","","","","","",""
"","ISI","","html-keyboard-response","278","361171","0.0-1.0-372.0","0","0","41766","","null","","","null","41","NaN","","","","","","","","","","","","","","",""
"","S2","","html-keyboard-response","279","361425","0.0-1.0-373.0","0","0","41766","","null","","","null","41","","NaN","","","","","","","","","","","","","",""
"","response","","html-keyboard-response","280","361614","0.0-1.0-374.0-0.0","0","0","41766","","187","","","75","41","","","1","41","training","adjacent","CB","3","2","Q.jpg","P.jpg","0","0","1","",""
"","feedback","","html-keyboard-response","281","362617","0.0-1.0-375.0-0.0","0","0","41766","","null","","","null","41","","","","","","","","","","","","","","","",""
"","ITI","","html-keyboard-response","282","363621","0.0-1.0-378.0","0","0","41766","","null","","","null","41","","","","","","","","","","","","","","","NaN",""
"","S1","","html-keyboard-response","283","363874","0.0-1.0-380.0","0","0","41766","","null","","","null","42","","","","","","","","","","","","","","","",""
"","ISI","","html-keyboard-response","284","364877","0.0-1.0-381.0","0","0","41766","","null","","","null","42","NaN","","","","","","","","","","","","","","",""
"","S2","","html-keyboard-response","285","365132","0.0-1.0-382.0","0","0","41766","","null","","","null","42","","NaN","","","","","","","","","","","","","",""
"","response","","html-keyboard-response","286","365336","0.0-1.0-383.0-0.0","0","0","41766","","201","","","68","42","","","1","42","training","adjacent","DE","4","5","O.jpg","M.jpg","1","1","1","",""
"","feedback","","html-keyboard-response","287","366342","0.0-1.0-384.0-0.0","0","0","41766","","null","","","null","42","","","","","","","","","","","","","","","",""
"","ITI","","html-keyboard-response","288","367346","0.0-1.0-387.0","0","0","41766","","null","","","null","42","","","","","","","","","","","","","","","NaN",""
"","S1","","html-keyboard-response","289","367599","0.0-1.0-389.0","0","0","41766","","null","","","null","43","","","","","","","","","","","","","","","",""
"","ISI","","html-keyboard-response","290","368602","0.0-1.0-390.0","0","0","41766","","null","","","null","43","NaN","","","","","","","","","","","","","","",""
"","S2","","html-keyboard-response","291","368856","0.0-1.0-391.0","0","0","41766","","null","","","null","43","","NaN","","","","","","","","","","","","","",""
"","response","","html-keyboard-response","292","369345","0.0-1.0-392.0-0.0","0","0","41766","","486","","","75","43","","","1","43","training","adjacent","EF","5","6","M.jpg","N.jpg","0","1","0","",""
"","feedback","","html-keyboard-response","293","370352","0.0-1.0-393.0-0.0","0","0","41766","","null","","","null","43","","","","","","","","","","","","","","","",""
"","time_out","","html-keyboard-response","294","372356","0.0-1.0-395.0-0.0","0","0","41766","","null","","","null","43","","","","","","","","","","","","","","","",""
"","ITI","","html-keyboard-response","295","373361","0.0-1.0-396.0","0","0","41766","","null","","","null","43","","","","","","","","","","","","","","","NaN",""
"","S1","","html-keyboard-response","296","373615","0.0-1.0-398.0","0","0","41766","","null","","","null","44","","","","","","","","","","","","","","","",""
"","ISI","","html-keyboard-response","297","374618","0.0-1.0-399.0","0","0","41766","","null","","","null","44","NaN","","","","","","","","","","","","","","",""
"","S2","","html-keyboard-response","298","374872","0.0-1.0-400.0","0","0","41766","","null","","","null","44","","NaN","","","","","","","","","","","","","",""
"","response","","html-keyboard-response","299","375280","0.0-1.0-401.0-0.0","0","0","41766","","405","","","68","44","","","1","44","training","adjacent","DC","4","3","O.jpg","Q.jpg","1","0","0","",""
"","feedback","","html-keyboard-response","300","376284","0.0-1.0-402.0-0.0","0","0","41766","","null","","","null","44","","","","","","","","","","","","","","","",""
"","time_out","","html-keyboard-response","301","378288","0.0-1.0-404.0-0.0","0","0","41766","","null","","","null","44","","","","","","","","","","","","","","","",""
"","ITI","","html-keyboard-response","302","379292","0.0-1.0-405.0","0","0","41766","","null","","","null","44","","","","","","","","","","","","","","","NaN",""
"","S1","","html-keyboard-response","303","379546","0.0-1.0-407.0","0","0","41766","","null","","","null","45","","","","","","","","","","","","","","","",""
"","ISI","","html-keyboard-response","304","380550","0.0-1.0-408.0","0","0","41766","","null","","","null","45","NaN","","","","","","","","","","","","","","",""
"","S2","","html-keyboard-response","305","380803","0.0-1.0-409.0","0","0","41766","","null","","","null","45","","NaN","","","","","","","","","","","","","",""
"","response","","html-keyboard-response","306","381376","0.0-1.0-410.0-0.0","0","0","41766","","570","","","75","45","","","1","45","training","adjacent","GF","7","6","R.jpg","N.jpg","0","0","1","",""
"","feedback","","html-keyboard-response","307","382381","0.0-1.0-411.0-0.0","0","0","41766","","null","","","null","45","","","","","","","","","","","","","","","",""
"","ITI","","html-keyboard-response","308","383392","0.0-1.0-414.0","0","0","41766","","null","","","null","45","","","","","","","","","","","","","","","NaN",""
"","S1","","html-keyboard-response","309","383647","0.0-1.0-416.0","0","0","41766","","null","","","null","46","","","","","","","","","","","","","","","",""
"","ISI","","html-keyboard-response","310","384650","0.0-1.0-417.0","0","0","41766","","null","","","null","46","NaN","","","","","","","","","","","","","","",""
"","S2","","html-keyboard-response","311","384904","0.0-1.0-418.0","0","0","41766","","null","","","null","46","","NaN","","","","","","","","","","","","","",""
"","response","","html-keyboard-response","312","385248","0.0-1.0-419.0-0.0","0","0","41766","","341","","","68","46","","","1","46","training","adjacent","DC","4","3","O.jpg","Q.jpg","1","0","0","",""
"","feedback","","html-keyboard-response","313","386253","0.0-1.0-420.0-0.0","0","0","41766","","null","","","null","46","","","","","","","","","","","","","","","",""
"","time_out","","html-keyboard-response","314","388257","0.0-1.0-422.0-0.0","0","0","41766","","null","","","null","46","","","","","","","","","","","","","","","",""
"","ITI","","html-keyboard-response","315","389261","0.0-1.0-423.0","0","0","41766","","null","","","null","46","","","","","","","","","","","","","","","NaN",""
"","S1","","html-keyboard-response","316","389514","0.0-1.0-425.0","0","0","41766","","null","","","null","47","","","","","","","","","","","","","","","",""
"","ISI","","html-keyboard-response","317","390517","0.0-1.0-426.0","0","0","41766","","null","","","null","47","NaN","","","","","","","","","","","","","","",""
"","S2","","html-keyboard-response","318","390771","0.0-1.0-427.0","0","0","41766","","null","","","null","47","","NaN","","","","","","","","","","","","","",""
"","response","","html-keyboard-response","319","391144","0.0-1.0-428.0-0.0","0","0","41766","","370","","","75","47","","","1","47","training","adjacent","BA","2","1","P.jpg","L.jpg","0","0","1","",""
"","feedback","","html-keyboard-response","320","392151","0.0-1.0-429.0-0.0","0","0","41766","","null","","","null","47","","","","","","","","","","","","","","","",""
"","ITI","","html-keyboard-response","321","393155","0.0-1.0-432.0","0","0","41766","","null","","","null","47","","","","","","","","","","","","","","","NaN",""
"","block_over","","html-keyboard-response","322","398776","0.0-1.0-433.0-0.0","0","0","41766","","5617","","","32","47","","","","","","","","","","","","","","","",""
"","S1","","html-keyboard-response","323","399030","0.0-1.0-434.0","0","0","41766","","null","","","null","48","","","","","","","","","","","","","","","",""
"","ISI","","html-keyboard-response","324","400034","0.0-1.0-435.0","0","0","41766","","null","","","null","48","NaN","","","","","","","","","","","","","","",""
"","S2","","html-keyboard-response","325","400292","0.0-1.0-436.0","0","0","41766","","null","","","null","48","","NaN","","","","","","","","","","","","","",""
"","response","","html-keyboard-response","326","400832","0.0-1.0-437.0-0.0","0","0","41766","","537","","","75","48","","","2","48","training","adjacent","ED","5","4","M.jpg","O.jpg","0","0","1","",""
"","feedback","","html-keyboard-response","327","401837","0.0-1.0-438.0-0.0","0","0","41766","","null","","","null","48","","","","","","","","","","","","","","","",""
"","ITI","","html-keyboard-response","328","402841","0.0-1.0-441.0","0","0","41766","","null","","","null","48","","","","","","","","","","","","","","","NaN",""
"","S1","","html-keyboard-response","329","403095","0.0-1.0-443.0","0","0","41766","","null","","","null","49","","","","","","","","","","","","","","","",""
"","ISI","","html-keyboard-response","330","404098","0.0-1.0-444.0","0","0","41766","","null","","","null","49","NaN","","","","","","","","","","","","","","",""
"","S2","","html-keyboard-response","331","404353","0.0-1.0-445.0","0","0","41766","","null","","","null","49","","NaN","","","","","","","","","","","","","",""
"","response","","html-keyboard-response","332","404488","0.0-1.0-446.0-0.0","0","0","41766","","132","","","68","49","","","2","49","training","adjacent","BC","2","3","P.jpg","Q.jpg","1","1","1","",""
"","feedback","","html-keyboard-response","333","405493","0.0-1.0-447.0-0.0","0","0","41766","","null","","","null","49","","","","","","","","","","","","","","","",""
"","ITI","","html-keyboard-response","334","406497","0.0-1.0-450.0","0","0","41766","","null","","","null","49","","","","","","","","","","","","","","","NaN",""
"","S1","","html-keyboard-response","335","406751","0.0-1.0-452.0","0","0","41766","","null","","","null","50","","","","","","","","","","","","","","","",""
"","ISI","","html-keyboard-response","336","407754","0.0-1.0-453.0","0","0","41766","","null","","","null","50","NaN","","","","","","","","","","","","","","",""
"","S2","","html-keyboard-response","337","408010","0.0-1.0-454.0","0","0","41766","","null","","","null","50","","NaN","","","","","","","","","","","","","",""
"","response","","html-keyboard-response","338","408264","0.0-1.0-455.0-0.0","0","0","41766","","251","","","75","50","","","2","50","training","adjacent","BA","2","1","P.jpg","L.jpg","0","0","1","",""
"","feedback","","html-keyboard-response","339","409268","0.0-1.0-456.0-0.0","0","0","41766","","null","","","null","50","","","","","","","","","","","","","","","",""
"","ITI","","html-keyboard-response","340","410273","0.0-1.0-459.0","0","0","41766","","null","","","null","50","","","","","","","","","","","","","","","NaN",""
"","S1","","html-keyboard-response","341","410527","0.0-1.0-461.0","0","0","41766","","null","","","null","51","","","","","","","","","","","","","","","",""
"","ISI","","html-keyboard-response","342","411540","0.0-1.0-462.0","0","0","41766","","null","","","null","51","NaN","","","","","","","","","","","","","","",""
"","S2","","html-keyboard-response","343","411795","0.0-1.0-463.0","0","0","41766","","null","","","null","51","","NaN","","","","","","","","","","","","","",""
"","response","","html-keyboard-response","344","412057","0.0-1.0-464.0-0.0","0","0","41766","","259","","","75","51","","","2","51","training","adjacent","AB","1","2","L.jpg","P.jpg","0","1","0","",""
"","feedback","","html-keyboard-response","345","413062","0.0-1.0-465.0-0.0","0","0","41766","","null","","","null","51","","","","","","","","","","","","","","","",""
"","time_out","","html-keyboard-response","346","415065","0.0-1.0-467.0-0.0","0","0","41766","","null","","","null","51","","","","","","","","","","","","","","","",""
"","ITI","","html-keyboard-response","347","416069","0.0-1.0-468.0","0","0","41766","","null","","","null","51","","","","","","","","","","","","","","","NaN",""
"","S1","","html-keyboard-response","348","416322","0.0-1.0-470.0","0","0","41766","","null","","","null","52","","","","","","","","","","","","","","","",""
"","ISI","","html-keyboard-response","349","417326","0.0-1.0-471.0","0","0","41766","","null","","","null","52","NaN","","","","","","","","","","","","","","",""
"","S2","","html-keyboard-response","350","417580","0.0-1.0-472.0","0","0","41766","","null","","","null","52","","NaN","","","","","","","","","","","","","",""
"","response","","html-keyboard-response","351","417768","0.0-1.0-473.0-0.0","0","0","41766","","185","","","68","52","","","2","52","training","adjacent","DC","4","3","O.jpg","Q.jpg","1","0","0","",""
"","feedback","","html-keyboard-response","352","418773","0.0-1.0-474.0-0.0","0","0","41766","","null","","","null","52","","","","","","","","","","","","","","","",""
"","time_out","","html-keyboard-response","353","420776","0.0-1.0-476.0-0.0","0","0","41766","","null","","","null","52","","","","","","","","","","","","","","","",""
"","ITI","","html-keyboard-response","354","421780","0.0-1.0-477.0","0","0","41766","","null","","","null","52","","","","","","","","","","","","","","","NaN",""
"","S1","","html-keyboard-response","355","422033","0.0-1.0-479.0","0","0","41766","","null","","","null","53","","","","","","","","","","","","","","","",""
"","ISI","","html-keyboard-response","356","423036","0.0-1.0-480.0","0","0","41766","","null","","","null","53","NaN","","","","","","","","","","","","","","",""
"","S2","","html-keyboard-response","357","423291","0.0-1.0-481.0","0","0","41766","","null","","","null","53","","NaN","","","","","","","","","","","","","",""
"","response","","html-keyboard-response","358","423353","0.0-1.0-482.0-0.0","0","0","41766","","59","","","75","53","","","2","53","training","adjacent","CD","3","4","Q.jpg","O.jpg","0","1","0","",""
"","feedback","","html-keyboard-response","359","424358","0.0-1.0-483.0-0.0","0","0","41766","","null","","","null","53","","","","","","","","","","","","","","","",""
"","time_out","","html-keyboard-response","360","426360","0.0-1.0-485.0-0.0","0","0","41766","","null","","","null","53","","","","","","","","","","","","","","","",""
"","ITI","","html-keyboard-response","361","427363","0.0-1.0-486.0","0","0","41766","","null","","","null","53","","","","","","","","","","","","","","","NaN",""
"","S1","","html-keyboard-response","362","427617","0.0-1.0-488.0","0","0","41766","","null","","","null","54","","","","","","","","","","","","","","","",""
"","ISI","","html-keyboard-response","363","428620","0.0-1.0-489.0","0","0","41766","","null","","","null","54","NaN","","","","","","","","","","","","","","",""
"","S2","","html-keyboard-response","364","428875","0.0-1.0-490.0","0","0","41766","","null","","","null","54","","NaN","","","","","","","","","","","","","",""
"","response","","html-keyboard-response","365","429000","0.0-1.0-491.0-0.0","0","0","41766","","122","","","75","54","","","2","54","training","adjacent","ED","5","4","M.jpg","O.jpg","0","0","1","",""
"","feedback","","html-keyboard-response","366","430004","0.0-1.0-492.0-0.0","0","0","41766","","null","","","null","54","","","","","","","","","","","","","","","",""
"","ITI","","html-keyboard-response","367","431013","0.0-1.0-495.0","0","0","41766","","null","","","null","54","","","","","","","","","","","","","","","NaN",""
"","S1","","html-keyboard-response","368","431266","0.0-1.0-497.0","0","0","41766","","null","","","null","55","","","","","","","","","","","","","","","",""
"","ISI","","html-keyboard-response","369","432270","0.0-1.0-498.0","0","0","41766","","null","","","null","55","NaN","","","","","","","","","","","","","","",""
"","S2","","html-keyboard-response","370","432525","0.0-1.0-499.0","0","0","41766","","null","","","null","55","","NaN","","","","","","","","","","","","","",""
"","response","","html-keyboard-response","371","432952","0.0-1.0-500.0-0.0","0","0","41766","","424","","","75","55","","","2","55","training","adjacent","EF","5","6","M.jpg","N.jpg","0","1","0","",""
"","feedback","","html-keyboard-response","372","433956","0.0-1.0-501.0-0.0","0","0","41766","","null","","","null","55","","","","","","","","","","","","","","","",""
"","time_out","","html-keyboard-response","373","435961","0.0-1.0-503.0-0.0","0","0","41766","","null","","","null","55","","","","","","","","","","","","","","","",""
"","ITI","","html-keyboard-response","374","436964","0.0-1.0-504.0","0","0","41766","","null","","","null","55","","","","","","","","","","","","","","","NaN",""
"","S1","","html-keyboard-response","375","437217","0.0-1.0-506.0","0","0","41766","","null","","","null","56","","","","","","","","","","","","","","","",""
"","ISI","","html-keyboard-response","376","438221","0.0-1.0-507.0","0","0","41766","","null","","","null","56","NaN","","","","","","","","","","","","","","",""
"","S2","","html-keyboard-response","377","438475","0.0-1.0-508.0","0","0","41766","","null","","","null","56","","NaN","","","","","","","","","","","","","",""
"","response","","html-keyboard-response","378","438689","0.0-1.0-509.0-0.0","0","0","41766","","210","","","68","56","","","2","56","training","adjacent","ED","5","4","M.jpg","O.jpg","1","0","0","",""
"","feedback","","html-keyboard-response","379","439693","0.0-1.0-510.0-0.0","0","0","41766","","null","","","null","56","","","","","","","","","","","","","","","",""
"","time_out","","html-keyboard-response","380","441696","0.0-1.0-512.0-0.0","0","0","41766","","null","","","null","56","","","","","","","","","","","","","","","",""
"","ITI","","html-keyboard-response","381","442700","0.0-1.0-513.0","0","0","41766","","null","","","null","56","","","","","","","","","","","","","","","NaN",""
"","S1","","html-keyboard-response","382","442954","0.0-1.0-515.0","0","0","41766","","null","","","null","57","","","","","","","","","","","","","","","",""
"","ISI","","html-keyboard-response","383","443958","0.0-1.0-516.0","0","0","41766","","null","","","null","57","NaN","","","","","","","","","","","","","","",""
"","S2","","html-keyboard-response","384","444212","0.0-1.0-517.0","0","0","41766","","null","","","null","57","","NaN","","","","","","","","","","","","","",""
"","response","","html-keyboard-response","385","444744","0.0-1.0-518.0-0.0","0","0","41766","","529","","","75","57","","","2","57","training","adjacent","FG","6","7","N.jpg","R.jpg","0","1","0","",""
"","feedback","","html-keyboard-response","386","445748","0.0-1.0-519.0-0.0","0","0","41766","","null","","","null","57","","","","","","","","","","","","","","","",""
"","time_out","","html-keyboard-response","387","447752","0.0-1.0-521.0-0.0","0","0","41766","","null","","","null","57","","","","","","","","","","","","","","","",""
"","ITI","","html-keyboard-response","388","448757","0.0-1.0-522.0","0","0","41766","","null","","","null","57","","","","","","","","","","","","","","","NaN",""
"","S1","","html-keyboard-response","389","449011","0.0-1.0-524.0","0","0","41766","","null","","","null","58","","","","","","","","","","","","","","","",""
"","ISI","","html-keyboard-response","390","450014","0.0-1.0-525.0","0","0","41766","","null","","","null","58","NaN","","","","","","","","","","","","","","",""
"","S2","","html-keyboard-response","391","450282","0.0-1.0-526.0","0","0","41766","","null","","","null","58","","NaN","","","","","","","","","","","","","",""
"","response","","html-keyboard-response","392","450808","0.0-1.0-527.0-0.0","0","0","41766","","523","","","68","58","","","2","58","training","adjacent","EF","5","6","M.jpg","N.jpg","1","1","1","",""
"","feedback","","html-keyboard-response","393","451813","0.0-1.0-528.0-0.0","0","0","41766","","null","","","null","58","","","","","","","","","","","","","","","",""
"","ITI","","html-keyboard-response","394","452816","0.0-1.0-531.0","0","0","41766","","null","","","null","58","","","","","","","","","","","","","","","NaN",""
"","S1","","html-keyboard-response","395","453071","0.0-1.0-533.0","0","0","41766","","null","","","null","59","","","","","","","","","","","","","","","",""
"","ISI","","html-keyboard-response","396","454074","0.0-1.0-534.0","0","0","41766","","null","","","null","59","NaN","","","","","","","","","","","","","","",""
"","S2","","html-keyboard-response","397","454328","0.0-1.0-535.0","0","0","41766","","null","","","null","59","","NaN","","","","","","","","","","","","","",""
"","response","","html-keyboard-response","398","454832","0.0-1.0-536.0-0.0","0","0","41766","","501","","","75","59","","","2","59","training","adjacent","FG","6","7","N.jpg","R.jpg","0","1","0","",""
"","feedback","","html-keyboard-response","399","455837","0.0-1.0-537.0-0.0","0","0","41766","","null","","","null","59","","","","","","","","","","","","","","","",""
"","time_out","","html-keyboard-response","400","457842","0.0-1.0-539.0-0.0","0","0","41766","","null","","","null","59","","","","","","","","","","","","","","","",""
"","ITI","","html-keyboard-response","401","458844","0.0-1.0-540.0","0","0","41766","","null","","","null","59","","","","","","","","","","","","","","","NaN",""
"","S1","","html-keyboard-response","402","459098","0.0-1.0-542.0","0","0","41766","","null","","","null","60","","","","","","","","","","","","","","","",""
"","ISI","","html-keyboard-response","403","460101","0.0-1.0-543.0","0","0","41766","","null","","","null","60","NaN","","","","","","","","","","","","","","",""
"","S2","","html-keyboard-response","404","460355","0.0-1.0-544.0","0","0","41766","","null","","","null","60","","NaN","","","","","","","","","","","","","",""
"","response","","html-keyboard-response","405","460736","0.0-1.0-545.0-0.0","0","0","41766","","378","","","68","60","","","2","60","training","adjacent","GF","7","6","R.jpg","N.jpg","1","0","0","",""
"","feedback","","html-keyboard-response","406","461741","0.0-1.0-546.0-0.0","0","0","41766","","null","","","null","60","","","","","","","","","","","","","","","",""
"","time_out","","html-keyboard-response","407","463745","0.0-1.0-548.0-0.0","0","0","41766","","null","","","null","60","","","","","","","","","","","","","","","",""
"","ITI","","html-keyboard-response","408","464748","0.0-1.0-549.0","0","0","41766","","null","","","null","60","","","","","","","","","","","","","","","NaN",""
"","S1","","html-keyboard-response","409","465001","0.0-1.0-551.0","0","0","41766","","null","","","null","61","","","","","","","","","","","","","","","",""
"","ISI","","html-keyboard-response","410","466005","0.0-1.0-552.0","0","0","41766","","null","","","null","61","NaN","","","","","","","","","","","","","","",""
"","S2","","html-keyboard-response","411","466259","0.0-1.0-553.0","0","0","41766","","null","","","null","61","","NaN","","","","","","","","","","","","","",""
"","response","","html-keyboard-response","412","466800","0.0-1.0-554.0-0.0","0","0","41766","","538","","","75","61","","","2","61","training","adjacent","CD","3","4","Q.jpg","O.jpg","0","1","0","",""
"","feedback","","html-keyboard-response","413","467805","0.0-1.0-555.0-0.0","0","0","41766","","null","","","null","61","","","","","","","","","","","","","","","",""
"","time_out","","html-keyboard-response","414","469809","0.0-1.0-557.0-0.0","0","0","41766","","null","","","null","61","","","","","","","","","","","","","","","",""
"","ITI","","html-keyboard-response","415","470812","0.0-1.0-558.0","0","0","41766","","null","","","null","61","","","","","","","","","","","","","","","NaN",""
"","S1","","html-keyboard-response","416","471066","0.0-1.0-560.0","0","0","41766","","null","","","null","62","","","","","","","","","","","","","","","",""
"","ISI","","html-keyboard-response","417","472069","0.0-1.0-561.0","0","0","41766","","null","","","null","62","NaN","","","","","","","","","","","","","","",""
"","S2","","html-keyboard-response","418","472324","0.0-1.0-562.0","0","0","41766","","null","","","null","62","","NaN","","","","","","","","","","","","","",""
"","response","","html-keyboard-response","419","472576","0.0-1.0-563.0-0.0","0","0","41766","","249","","","68","62","","","2","62","training","adjacent","BC","2","3","P.jpg","Q.jpg","1","1","1","",""
"","feedback","","html-keyboard-response","420","473581","0.0-1.0-564.0-0.0","0","0","41766","","null","","","null","62","","","","","","","","","","","","","","","",""
"","ITI","","html-keyboard-response","421","474584","0.0-1.0-567.0","0","0","41766","","null","","","null","62","","","","","","","","","","","","","","","NaN",""
"","S1","","html-keyboard-response","422","474839","0.0-1.0-569.0","0","0","41766","","null","","","null","63","","","","","","","","","","","","","","","",""
"","ISI","","html-keyboard-response","423","475843","0.0-1.0-570.0","0","0","41766","","null","","","null","63","NaN","","","","","","","","","","","","","","",""
"","S2","","html-keyboard-response","424","476097","0.0-1.0-571.0","0","0","41766","","null","","","null","63","","NaN","","","","","","","","","","","","","",""
"","response","","html-keyboard-response","425","477113","0.0-1.0-572.0-0.0","0","0","41766","","1012","","","68","63","","","2","63","training","adjacent","GF","7","6","R.jpg","N.jpg","1","0","0","",""
"","feedback","","html-keyboard-response","426","478117","0.0-1.0-573.0-0.0","0","0","41766","","null","","","null","63","","","","","","","","","","","","","","","",""
"","time_out","","html-keyboard-response","427","480121","0.0-1.0-575.0-0.0","0","0","41766","","null","","","null","63","","","","","","","","","","","","","","","",""
"","ITI","","html-keyboard-response","428","481125","0.0-1.0-576.0","0","0","41766","","null","","","null","63","","","","","","","","","","","","","","","NaN",""
"","S1","","html-keyboard-response","429","481379","0.0-1.0-578.0","0","0","41766","","null","","","null","64","","","","","","","","","","","","","","","",""
"","ISI","","html-keyboard-response","430","482382","0.0-1.0-579.0","0","0","41766","","null","","","null","64","NaN","","","","","","","","","","","","","","",""
"","S2","","html-keyboard-response","431","482636","0.0-1.0-580.0","0","0","41766","","null","","","null","64","","NaN","","","","","","","","","","","","","",""
"","response","","html-keyboard-response","432","482832","0.0-1.0-581.0-0.0","0","0","41766","","193","","","68","64","","","2","64","training","adjacent","DE","4","5","O.jpg","M.jpg","1","1","1","",""
"","feedback","","html-keyboard-response","433","483837","0.0-1.0-582.0-0.0","0","0","41766","","null","","","null","64","","","","","","","","","","","","","","","",""
"","ITI","","html-keyboard-response","434","484843","0.0-1.0-585.0","0","0","41766","","null","","","null","64","","","","","","","","","","","","","","","NaN",""
"","S1","","html-keyboard-response","435","485096","0.0-1.0-587.0","0","0","41766","","null","","","null","65","","","","","","","","","","","","","","","",""
"","ISI","","html-keyboard-response","436","486100","0.0-1.0-588.0","0","0","41766","","null","","","null","65","NaN","","","","","","","","","","","","","","",""
"","S2","","html-keyboard-response","437","486354","0.0-1.0-589.0","0","0","41766","","null","","","null","65","","NaN","","","","","","","","","","","","","",""
"","response","","html-keyboard-response","438","486624","0.0-1.0-590.0-0.0","0","0","41766","","267","","","75","65","","","2","65","training","adjacent","BC","2","3","P.jpg","Q.jpg","0","1","0","",""
"","feedback","","html-keyboard-response","439","487628","0.0-1.0-591.0-0.0","0","0","41766","","null","","","null","65","","","","","","","","","","","","","","","",""
"","time_out","","html-keyboard-response","440","489633","0.0-1.0-593.0-0.0","0","0","41766","","null","","","null","65","","","","","","","","","","","","","","","",""
"","ITI","","html-keyboard-response","441","490637","0.0-1.0-594.0","0","0","41766","","null","","","null","65","","","","","","","","","","","","","","","NaN",""
"","S1","","html-keyboard-response","442","490891","0.0-1.0-596.0","0","0","41766","","null","","","null","66","","","","","","","","","","","","","","","",""
"","ISI","","html-keyboard-response","443","491894","0.0-1.0-597.0","0","0","41766","","null","","","null","66","NaN","","","","","","","","","","","","","","",""
"","S2","","html-keyboard-response","444","492149","0.0-1.0-598.0","0","0","41766","","null","","","null","66","","NaN","","","","","","","","","","","","","",""
"","response","","html-keyboard-response","445","492336","0.0-1.0-599.0-0.0","0","0","41766","","184","","","68","66","","","2","66","training","adjacent","DC","4","3","O.jpg","Q.jpg","1","0","0","",""
"","feedback","","html-keyboard-response","446","493341","0.0-1.0-600.0-0.0","0","0","41766","","null","","","null","66","","","","","","","","","","","","","","","",""
"","time_out","","html-keyboard-response","447","495345","0.0-1.0-602.0-0.0","0","0","41766","","null","","","null","66","","","","","","","","","","","","","","","",""
"","ITI","","html-keyboard-response","448","496348","0.0-1.0-603.0","0","0","41766","","null","","","null","66","","","","","","","","","","","","","","","NaN",""
"","S1","","html-keyboard-response","449","496602","0.0-1.0-605.0","0","0","41766","","null","","","null","67","","","","","","","","","","","","","","","",""
"","ISI","","html-keyboard-response","450","497604","0.0-1.0-606.0","0","0","41766","","null","","","null","67","NaN","","","","","","","","","","","","","","",""
"","S2","","html-keyboard-response","451","497857","0.0-1.0-607.0","0","0","41766","","null","","","null","67","","NaN","","","","","","","","","","","","","",""
"","response","","html-keyboard-response","452","498320","0.0-1.0-608.0-0.0","0","0","41766","","461","","","75","67","","","2","67","training","adjacent","AB","1","2","L.jpg","P.jpg","0","1","0","",""
"","feedback","","html-keyboard-response","453","499325","0.0-1.0-609.0-0.0","0","0","41766","","null","","","null","67","","","","","","","","","","","","","","","",""
"","time_out","","html-keyboard-response","454","501328","0.0-1.0-611.0-0.0","0","0","41766","","null","","","null","67","","","","","","","","","","","","","","","",""
"","ITI","","html-keyboard-response","455","502332","0.0-1.0-612.0","0","0","41766","","null","","","null","67","","","","","","","","","","","","","","","NaN",""
"","S1","","html-keyboard-response","456","502585","0.0-1.0-614.0","0","0","41766","","null","","","null","68","","","","","","","","","","","","","","","",""
"","ISI","","html-keyboard-response","457","503589","0.0-1.0-615.0","0","0","41766","","null","","","null","68","NaN","","","","","","","","","","","","","","",""
"","S2","","html-keyboard-response","458","503842","0.0-1.0-616.0","0","0","41766","","null","","","null","68","","NaN","","","","","","","","","","","","","",""
"","response","","html-keyboard-response","459","504608","0.0-1.0-617.0-0.0","0","0","41766","","763","","","68","68","","","2","68","training","adjacent","CB","3","2","Q.jpg","P.jpg","1","0","0","",""
"","feedback","","html-keyboard-response","460","505613","0.0-1.0-618.0-0.0","0","0","41766","","null","","","null","68","","","","","","","","","","","","","","","",""
"","time_out","","html-keyboard-response","461","507616","0.0-1.0-620.0-0.0","0","0","41766","","null","","","null","68","","","","","","","","","","","","","","","",""
"","ITI","","html-keyboard-response","462","508620","0.0-1.0-621.0","0","0","41766","","null","","","null","68","","","","","","","","","","","","","","","NaN",""
"","S1","","html-keyboard-response","463","508874","0.0-1.0-623.0","0","0","41766","","null","","","null","69","","","","","","","","","","","","","","","",""
"","ISI","","html-keyboard-response","464","509877","0.0-1.0-624.0","0","0","41766","","null","","","null","69","NaN","","","","","","","","","","","","","","",""
"","S2","","html-keyboard-response","465","510131","0.0-1.0-625.0","0","0","41766","","null","","","null","69","","NaN","","","","","","","","","","","","","",""
"","response","","html-keyboard-response","466","510640","0.0-1.0-626.0-0.0","0","0","41766","","506","","","68","69","","","2","69","training","adjacent","BA","2","1","P.jpg","L.jpg","1","0","0","",""
"","feedback","","html-keyboard-response","467","511645","0.0-1.0-627.0-0.0","0","0","41766","","null","","","null","69","","","","","","","","","","","","","","","",""
"","time_out","","html-keyboard-response","468","513649","0.0-1.0-629.0-0.0","0","0","41766","","null","","","null","69","","","","","","","","","","","","","","","",""
"","ITI","","html-keyboard-response","469","514652","0.0-1.0-630.0","0","0","41766","","null","","","null","69","","","","","","","","","","","","","","","NaN",""
"","S1","","html-keyboard-response","470","514906","0.0-1.0-632.0","0","0","41766","","null","","","null","70","","","","","","","","","","","","","","","",""
"","ISI","","html-keyboard-response","471","515909","0.0-1.0-633.0","0","0","41766","","null","","","null","70","NaN","","","","","","","","","","","","","","",""
"","S2","","html-keyboard-response","472","516163","0.0-1.0-634.0","0","0","41766","","null","","","null","70","","NaN","","","","","","","","","","","","","",""
"","response","","html-keyboard-response","473","517216","0.0-1.0-635.0-0.0","0","0","41766","","1049","","","75","70","","","2","70","training","adjacent","CB","3","2","Q.jpg","P.jpg","0","0","1","",""
"","feedback","","html-keyboard-response","474","518221","0.0-1.0-636.0-0.0","0","0","41766","","null","","","null","70","","","","","","","","","","","","","","","",""
"","ITI","","html-keyboard-response","475","519225","0.0-1.0-639.0","0","0","41766","","null","","","null","70","","","","","","","","","","","","","","","NaN",""
"","S1","","html-keyboard-response","476","519481","0.0-1.0-641.0","0","0","41766","","null","","","null","71","","","","","","","","","","","","","","","",""
"","ISI","","html-keyboard-response","477","520485","0.0-1.0-642.0","0","0","41766","","null","","","null","71","NaN","","","","","","","","","","","","","","",""
"","S2","","html-keyboard-response","478","520740","0.0-1.0-643.0","0","0","41766","","null","","","null","71","","NaN","","","","","","","","","","","","","",""
"","response","","html-keyboard-response","479","520976","0.0-1.0-644.0-0.0","0","0","41766","","232","","","68","71","","","2","71","training","adjacent","DE","4","5","O.jpg","M.jpg","1","1","1","",""
"","feedback","","html-keyboard-response","480","521981","0.0-1.0-645.0-0.0","0","0","41766","","null","","","null","71","","","","","","","","","","","","","","","",""
"","ITI","","html-keyboard-response","481","522986","0.0-1.0-648.0","0","0","41766","","null","","","null","71","","","","","","","","","","","","","","","NaN",""
"","S1","","html-keyboard-response","482","523240","0.0-1.0-650.0","0","0","41766","","null","","","null","72","","","","","","","","","","","","","","","",""
"","ISI","","html-keyboard-response","483","524243","0.0-1.0-651.0","0","0","41766","","null","","","null","72","NaN","","","","","","","","","","","","","","",""
"","S2","","html-keyboard-response","484","524498","0.0-1.0-652.0","0","0","41766","","null","","","null","72","","NaN","","","","","","","","","","","","","",""
"","response","","html-keyboard-response","485","524672","0.0-1.0-653.0-0.0","0","0","41766","","170","","","68","72","","","2","72","training","adjacent","FE","6","5","N.jpg","M.jpg","1","0","0","",""
"","feedback","","html-keyboard-response","486","525676","0.0-1.0-654.0-0.0","0","0","41766","","null","","","null","72","","","","","","","","","","","","","","","",""
"","time_out","","html-keyboard-response","487","527680","0.0-1.0-656.0-0.0","0","0","41766","","null","","","null","72","","","","","","","","","","","","","","","",""
"","ITI","","html-keyboard-response","488","528683","0.0-1.0-657.0","0","0","41766","","null","","","null","72","","","","","","","","","","","","","","","NaN",""
"","S1","","html-keyboard-response","489","528937","0.0-1.0-659.0","0","0","41766","","null","","","null","73","","","","","","","","","","","","","","","",""
"","ISI","","html-keyboard-response","490","529941","0.0-1.0-660.0","0","0","41766","","null","","","null","73","NaN","","","","","","","","","","","","","","",""
"","S2","","html-keyboard-response","491","530195","0.0-1.0-661.0","0","0","41766","","null","","","null","73","","NaN","","","","","","","","","","","","","",""
"","response","","html-keyboard-response","492","530992","0.0-1.0-662.0-0.0","0","0","41766","","794","","","68","73","","","2","73","training","adjacent","FE","6","5","N.jpg","M.jpg","1","0","0","",""
"","feedback","","html-keyboard-response","493","531996","0.0-1.0-663.0-0.0","0","0","41766","","null","","","null","73","","","","","","","","","","","","","","","",""
"","time_out","","html-keyboard-response","494","534001","0.0-1.0-665.0-0.0","0","0","41766","","null","","","null","73","","","","","","","","","","","","","","","",""
"","ITI","","html-keyboard-response","495","535005","0.0-1.0-666.0","0","0","41766","","null","","","null","73","","","","","","","","","","","","","","","NaN",""
"","S1","","html-keyboard-response","496","535259","0.0-1.0-668.0","0","0","41766","","null","","","null","74","","","","","","","","","","","","","","","",""
"","ISI","","html-keyboard-response","497","536262","0.0-1.0-669.0","0","0","41766","","null","","","null","74","NaN","","","","","","","","","","","","","","",""
"","S2","","html-keyboard-response","498","536516","0.0-1.0-670.0","0","0","41766","","null","","","null","74","","NaN","","","","","","","","","","","","","",""
"","response","","html-keyboard-response","499","536984","0.0-1.0-671.0-0.0","0","0","41766","","464","","","75","74","","","2","74","training","adjacent","CB","3","2","Q.jpg","P.jpg","0","0","1","",""
"","feedback","","html-keyboard-response","500","537988","0.0-1.0-672.0-0.0","0","0","41766","","null","","","null","74","","","","","","","","","","","","","","","",""
"","ITI","","html-keyboard-response","501","538992","0.0-1.0-675.0","0","0","41766","","null","","","null","74","","","","","","","","","","","","","","","NaN",""
"","S1","","html-keyboard-response","502","539245","0.0-1.0-677.0","0","0","41766","","null","","","null","75","","","","","","","","","","","","","","","",""
"","ISI","","html-keyboard-response","503","540249","0.0-1.0-678.0","0","0","41766","","null","","","null","75","NaN","","","","","","","","","","","","","","",""
"","S2","","html-keyboard-response","504","540502","0.0-1.0-679.0","0","0","41766","","null","","","null","75","","NaN","","","","","","","","","","","","","",""
"","response","","html-keyboard-response","505","540768","0.0-1.0-680.0-0.0","0","0","41766","","263","","","75","75","","","2","75","training","adjacent","FE","6","5","N.jpg","M.jpg","0","0","1","",""
"","feedback","","html-keyboard-response","506","541773","0.0-1.0-681.0-0.0","0","0","41766","","null","","","null","75","","","","","","","","","","","","","","","",""
"","ITI","","html-keyboard-response","507","542778","0.0-1.0-684.0","0","0","41766","","null","","","null","75","","","","","","","","","","","","","","","NaN",""
"","S1","","html-keyboard-response","508","543031","0.0-1.0-686.0","0","0","41766","","null","","","null","76","","","","","","","","","","","","","","","",""
"","ISI","","html-keyboard-response","509","544035","0.0-1.0-687.0","0","0","41766","","null","","","null","76","NaN","","","","","","","","","","","","","","",""
"","S2","","html-keyboard-response","510","544297","0.0-1.0-688.0","0","0","41766","","null","","","null","76","","NaN","","","","","","","","","","","","","",""
"","response","","html-keyboard-response","511","544408","0.0-1.0-689.0-0.0","0","0","41766","","108","","","75","76","","","2","76","training","adjacent","DE","4","5","O.jpg","M.jpg","0","1","0","",""
"","feedback","","html-keyboard-response","512","545414","0.0-1.0-690.0-0.0","0","0","41766","","null","","","null","76","","","","","","","","","","","","","","","",""
"","time_out","","html-keyboard-response","513","547418","0.0-1.0-692.0-0.0","0","0","41766","","null","","","null","76","","","","","","","","","","","","","","","",""
"","ITI","","html-keyboard-response","514","548422","0.0-1.0-693.0","0","0","41766","","null","","","null","76","","","","","","","","","","","","","","","NaN",""
"","S1","","html-keyboard-response","515","548676","0.0-1.0-695.0","0","0","41766","","null","","","null","77","","","","","","","","","","","","","","","",""
"","ISI","","html-keyboard-response","516","549680","0.0-1.0-696.0","0","0","41766","","null","","","null","77","NaN","","","","","","","","","","","","","","",""
"","S2","","html-keyboard-response","517","549935","0.0-1.0-697.0","0","0","41766","","null","","","null","77","","NaN","","","","","","","","","","","","","",""
"","response","","html-keyboard-response","518","550544","0.0-1.0-698.0-0.0","0","0","41766","","605","","","68","77","","","2","77","training","adjacent","BC","2","3","P.jpg","Q.jpg","1","1","1","",""
"","feedback","","html-keyboard-response","519","551562","0.0-1.0-699.0-0.0","0","0","41766","","null","","","null","77","","","","","","","","","","","","","","","",""
"","ITI","","html-keyboard-response","520","552566","0.0-1.0-702.0","0","0","41766","","null","","","null","77","","","","","","","","","","","","","","","NaN",""
"","S1","","html-keyboard-response","521","552821","0.0-1.0-704.0","0","0","41766","","null","","","null","78","","","","","","","","","","","","","","","",""
"","ISI","","html-keyboard-response","522","553824","0.0-1.0-705.0","0","0","41766","","null","","","null","78","NaN","","","","","","","","","","","","","","",""
"","S2","","html-keyboard-response","523","554078","0.0-1.0-706.0","0","0","41766","","null","","","null","78","","NaN","","","","","","","","","","","","","",""
"","response","","html-keyboard-response","524","554344","0.0-1.0-707.0-0.0","0","0","41766","","262","","","75","78","","","2","78","training","adjacent","AB","1","2","L.jpg","P.jpg","0","1","0","",""
"","feedback","","html-keyboard-response","525","555348","0.0-1.0-708.0-0.0","0","0","41766","","null","","","null","78","","","","","","","","","","","","","","","",""
"","time_out","","html-keyboard-response","526","557352","0.0-1.0-710.0-0.0","0","0","41766","","null","","","null","78","","","","","","","","","","","","","","","",""
"","ITI","","html-keyboard-response","527","558356","0.0-1.0-711.0","0","0","41766","","null","","","null","78","","","","","","","","","","","","","","","NaN",""
"","S1","","html-keyboard-response","528","558610","0.0-1.0-713.0","0","0","41766","","null","","","null","79","","","","","","","","","","","","","","","",""
"","ISI","","html-keyboard-response","529","559613","0.0-1.0-714.0","0","0","41766","","null","","","null","79","NaN","","","","","","","","","","","","","","",""
"","S2","","html-keyboard-response","530","559867","0.0-1.0-715.0","0","0","41766","","null","","","null","79","","NaN","","","","","","","","","","","","","",""
"","response","","html-keyboard-response","531","560040","0.0-1.0-716.0-0.0","0","0","41766","","170","","","68","79","","","2","79","training","adjacent","ED","5","4","M.jpg","O.jpg","1","0","0","",""
"","feedback","","html-keyboard-response","532","561044","0.0-1.0-717.0-0.0","0","0","41766","","null","","","null","79","","","","","","","","","","","","","","","",""
"","time_out","","html-keyboard-response","533","563049","0.0-1.0-719.0-0.0","0","0","41766","","null","","","null","79","","","","","","","","","","","","","","","",""
"","ITI","","html-keyboard-response","534","564053","0.0-1.0-720.0","0","0","41766","","null","","","null","79","","","","","","","","","","","","","","","NaN",""
"","S1","","html-keyboard-response","535","564307","0.0-1.0-722.0","0","0","41766","","null","","","null","80","","","","","","","","","","","","","","","",""
"","ISI","","html-keyboard-response","536","565311","0.0-1.0-723.0","0","0","41766","","null","","","null","80","NaN","","","","","","","","","","","","","","",""
"","S2","","html-keyboard-response","537","565565","0.0-1.0-724.0","0","0","41766","","null","","","null","80","","NaN","","","","","","","","","","","","","",""
"","response","","html-keyboard-response","538","565952","0.0-1.0-725.0-0.0","0","0","41766","","383","","","75","80","","","2","80","training","adjacent","DC","4","3","O.jpg","Q.jpg","0","0","1","",""
"","feedback","","html-keyboard-response","539","566956","0.0-1.0-726.0-0.0","0","0","41766","","null","","","null","80","","","","","","","","","","","","","","","",""
"","ITI","","html-keyboard-response","540","567974","0.0-1.0-729.0","0","0","41766","","null","","","null","80","","","","","","","","","","","","","","","NaN",""
"","S1","","html-keyboard-response","541","568227","0.0-1.0-731.0","0","0","41766","","null","","","null","81","","","","","","","","","","","","","","","",""
"","ISI","","html-keyboard-response","542","569231","0.0-1.0-732.0","0","0","41766","","null","","","null","81","NaN","","","","","","","","","","","","","","",""
"","S2","","html-keyboard-response","543","569485","0.0-1.0-733.0","0","0","41766","","null","","","null","81","","NaN","","","","","","","","","","","","","",""
"","response","","html-keyboard-response","544","569928","0.0-1.0-734.0-0.0","0","0","41766","","439","","","75","81","","","2","81","training","adjacent","BA","2","1","P.jpg","L.jpg","0","0","1","",""
"","feedback","","html-keyboard-response","545","570932","0.0-1.0-735.0-0.0","0","0","41766","","null","","","null","81","","","","","","","","","","","","","","","",""
"","ITI","","html-keyboard-response","546","571936","0.0-1.0-738.0","0","0","41766","","null","","","null","81","","","","","","","","","","","","","","","NaN",""
"","S1","","html-keyboard-response","547","572191","0.0-1.0-740.0","0","0","41766","","null","","","null","82","","","","","","","","","","","","","","","",""
"","ISI","","html-keyboard-response","548","573194","0.0-1.0-741.0","0","0","41766","","null","","","null","82","NaN","","","","","","","","","","","","","","",""
"","S2","","html-keyboard-response","549","573450","0.0-1.0-742.0","0","0","41766","","null","","","null","82","","NaN","","","","","","","","","","","","","",""
"","response","","html-keyboard-response","550","573672","0.0-1.0-743.0-0.0","0","0","41766","","219","","","75","82","","","2","82","training","adjacent","GF","7","6","R.jpg","N.jpg","0","0","1","",""
"","feedback","","html-keyboard-response","551","574676","0.0-1.0-744.0-0.0","0","0","41766","","null","","","null","82","","","","","","","","","","","","","","","",""
"","ITI","","html-keyboard-response","552","575681","0.0-1.0-747.0","0","0","41766","","null","","","null","82","","","","","","","","","","","","","","","NaN",""
"","S1","","html-keyboard-response","553","575936","0.0-1.0-749.0","0","0","41766","","null","","","null","83","","","","","","","","","","","","","","","",""
"","ISI","","html-keyboard-response","554","576939","0.0-1.0-750.0","0","0","41766","","null","","","null","83","NaN","","","","","","","","","","","","","","",""
"","S2","","html-keyboard-response","555","577193","0.0-1.0-751.0","0","0","41766","","null","","","null","83","","NaN","","","","","","","","","","","","","",""
"","response","","html-keyboard-response","556","577248","0.0-1.0-752.0-0.0","0","0","41766","","51","","","68","83","","","2","83","training","adjacent","FG","6","7","N.jpg","R.jpg","1","1","1","",""
"","feedback","","html-keyboard-response","557","578253","0.0-1.0-753.0-0.0","0","0","41766","","null","","","null","83","","","","","","","","","","","","","","","",""
"","ITI","","html-keyboard-response","558","579258","0.0-1.0-756.0","0","0","41766","","null","","","null","83","","","","","","","","","","","","","","","NaN",""
"","S1","","html-keyboard-response","559","579512","0.0-1.0-758.0","0","0","41766","","null","","","null","84","","","","","","","","","","","","","","","",""
"","ISI","","html-keyboard-response","560","580515","0.0-1.0-759.0","0","0","41766","","null","","","null","84","NaN","","","","","","","","","","","","","","",""
"","S2","","html-keyboard-response","561","580770","0.0-1.0-760.0","0","0","41766","","null","","","null","84","","NaN","","","","","","","","","","","","","",""
"","response","","html-keyboard-response","562","580920","0.0-1.0-761.0-0.0","0","0","41766","","146","","","68","84","","","2","84","training","adjacent","FG","6","7","N.jpg","R.jpg","1","1","1","",""
"","feedback","","html-keyboard-response","563","581924","0.0-1.0-762.0-0.0","0","0","41766","","null","","","null","84","","","","","","","","","","","","","","","",""
"","ITI","","html-keyboard-response","564","582929","0.0-1.0-765.0","0","0","41766","","null","","","null","84","","","","","","","","","","","","","","","NaN",""
"","S1","","html-keyboard-response","565","583182","0.0-1.0-767.0","0","0","41766","","null","","","null","85","","","","","","","","","","","","","","","",""
"","ISI","","html-keyboard-response","566","584185","0.0-1.0-768.0","0","0","41766","","null","","","null","85","NaN","","","","","","","","","","","","","","",""
"","S2","","html-keyboard-response","567","584442","0.0-1.0-769.0","0","0","41766","","null","","","null","85","","NaN","","","","","","","","","","","","","",""
"","response","","html-keyboard-response","568","584960","0.0-1.0-770.0-0.0","0","0","41766","","514","","","75","85","","","2","85","training","adjacent","BA","2","1","P.jpg","L.jpg","0","0","1","",""
"","feedback","","html-keyboard-response","569","585965","0.0-1.0-771.0-0.0","0","0","41766","","null","","","null","85","","","","","","","","","","","","","","","",""
"","ITI","","html-keyboard-response","570","586969","0.0-1.0-774.0","0","0","41766","","null","","","null","85","","","","","","","","","","","","","","","NaN",""
"","S1","","html-keyboard-response","571","587222","0.0-1.0-776.0","0","0","41766","","null","","","null","86","","","","","","","","","","","","","","","",""
"","ISI","","html-keyboard-response","572","588226","0.0-1.0-777.0","0","0","41766","","null","","","null","86","NaN","","","","","","","","","","","","","","",""
"","S2","","html-keyboard-response","573","588480","0.0-1.0-778.0","0","0","41766","","null","","","null","86","","NaN","","","","","","","","","","","","","",""
"","response","","html-keyboard-response","574","588640","0.0-1.0-779.0-0.0","0","0","41766","","157","","","75","86","","","2","86","training","adjacent","GF","7","6","R.jpg","N.jpg","0","0","1","",""
"","feedback","","html-keyboard-response","575","589646","0.0-1.0-780.0-0.0","0","0","41766","","null","","","null","86","","","","","","","","","","","","","","","",""
"","ITI","","html-keyboard-response","576","590651","0.0-1.0-783.0","0","0","41766","","null","","","null","86","","","","","","","","","","","","","","","NaN",""
"","S1","","html-keyboard-response","577","590905","0.0-1.0-785.0","0","0","41766","","null","","","null","87","","","","","","","","","","","","","","","",""
"","ISI","","html-keyboard-response","578","591910","0.0-1.0-786.0","0","0","41766","","null","","","null","87","NaN","","","","","","","","","","","","","","",""
"","S2","","html-keyboard-response","579","592164","0.0-1.0-787.0","0","0","41766","","null","","","null","87","","NaN","","","","","","","","","","","","","",""
